[{"success":true,"trial_type":"fullscreen","trial_index":0,"time_elapsed":2547,"internal_node_id":"0.0-0.0","protocol_sum":"","subject_identifier":436,"subject_sum":[89,102,171,208,203,252,134,249,138,24,101,49,178,180,238,95,110,145,1,32,206,19,34,47,152,32,114,3,223,201,169,162],"subject_pair":218,"STUDY_ID":"66a22c0758a3d5c9d26873c6","PROLIFIC_PID":"6419cedec2078147e5682474","SESSION_ID":"66a2e5f600eb899e368b80d6","practice_instructions":1,"leaderboard_instructions":0,"bonus":0,"reveal_word":false,"self_rating":"3","confidence":"40"},{"view_history":"[{\"page_index\":0,\"viewing_time\":10421.699999928474}]","rt":10422,"trial_type":"instructions","trial_index":1,"time_elapsed":12970,"internal_node_id":"0.0-1.0","protocol_sum":"","subject_identifier":436,"subject_sum":[89,102,171,208,203,252,134,249,138,24,101,49,178,180,238,95,110,145,1,32,206,19,34,47,152,32,114,3,223,201,169,162],"subject_pair":218,"STUDY_ID":"66a22c0758a3d5c9d26873c6","PROLIFIC_PID":"6419cedec2078147e5682474","SESSION_ID":"66a2e5f600eb899e368b80d6","practice_instructions":1,"leaderboard_instructions":0,"bonus":0,"reveal_word":false,"self_rating":"3","confidence":"40"},{"view_history":"[{\"page_index\":0,\"viewing_time\":37243.300000071526}]","rt":37243.60000002384,"trial_type":"instructions","trial_index":2,"time_elapsed":50214,"internal_node_id":"0.0-2.0-0.0","protocol_sum":"","subject_identifier":436,"subject_sum":[89,102,171,208,203,252,134,249,138,24,101,49,178,180,238,95,110,145,1,32,206,19,34,47,152,32,114,3,223,201,169,162],"subject_pair":218,"STUDY_ID":"66a22c0758a3d5c9d26873c6","PROLIFIC_PID":"6419cedec2078147e5682474","SESSION_ID":"66a2e5f600eb899e368b80d6","practice_instructions":1,"leaderboard_instructions":0,"bonus":0,"reveal_word":false,"self_rating":"3","confidence":"40"},{"rt":24560.5,"responses":"{\"Q0\":\"... reveal the word with as <b>few letter guesses</b> as possible\"}","question_order":"[0]","trial_type":"survey-multi-choice","trial_index":3,"time_elapsed":74776,"internal_node_id":"0.0-2.0-1.0","protocol_sum":"","subject_identifier":436,"subject_sum":[89,102,171,208,203,252,134,249,138,24,101,49,178,180,238,95,110,145,1,32,206,19,34,47,152,32,114,3,223,201,169,162],"subject_pair":218,"correct":true,"test_part":"multichoice_nonpretend","STUDY_ID":"66a22c0758a3d5c9d26873c6","PROLIFIC_PID":"6419cedec2078147e5682474","SESSION_ID":"66a2e5f600eb899e368b80d6","practice_instructions":1,"leaderboard_instructions":0,"bonus":0,"reveal_word":false,"self_rating":"3","confidence":"40"},{"view_history":"[{\"page_index\":0,\"viewing_time\":1585.5999999046326}]","rt":1585.7999999523163,"trial_type":"instructions","trial_index":4,"time_elapsed":76362,"internal_node_id":"0.0-3.0","protocol_sum":"","subject_identifier":436,"subject_sum":[89,102,171,208,203,252,134,249,138,24,101,49,178,180,238,95,110,145,1,32,206,19,34,47,152,32,114,3,223,201,169,162],"subject_pair":218,"STUDY_ID":"66a22c0758a3d5c9d26873c6","PROLIFIC_PID":"6419cedec2078147e5682474","SESSION_ID":"66a2e5f600eb899e368b80d6","practice_instructions":1,"leaderboard_instructions":0,"bonus":0,"reveal_word":false,"self_rating":"3","confidence":"40"},{"word":"ZEBRA","click_log":{"letter":["","T","E","A","S","R","P","D","Z","B"],"t":[0,3433.6999999284744,5822.5,14199.699999928474,21120.5,28179.599999904633,40885.699999928474,51398.59999990463,55516.89999997616,56668.5],"hit":[null,0,1,1,0,1,0,0,1,1],"asked":["","T","TE","TEA","TEAS","TEASR","TEASRP","TEASRPD","TEASRPDZ","TEASRPDZB"],"word_state":["_____","_____","_E___","_E__A","_E__A","_E_RA","_E_RA","_E_RA","ZE_RA","ZEBRA"]},"hover_log":{"letter":["?","?","?","?","?","?","?","?","?","?","?","?","?","?","?","?","?","?","?","?","?","?","?","?","?","?","?","?","?","?","?","?","?","?","?","?","?","?","?","?","?","?","?","?","?","?","?","?","?","?","?","?","?","?","?","?","?","?","?","?","?","?","?","?","?","?","?","?","?","?","?","?","?","?","?","?","?","?","?","?","?","?","?","?","?","?","?","?","?","?","?","?","?","?","?","?","?","?","?","?","?","?","?","?","?","?","?","?","?","?","?","?","?","?","?","?","?","?","?","?","?","?","?","?","?","?","?","?","?","?","?","?","?","?","?","?","?","?","?","?","?","?","?","?","?","?","?","?","?","?","?","?","?","J","?","?","?","?","?","?","?","?","?","?","?","?","?","K","K","K","K","K","K","K","?","?","?","?","?","?","?","?","?","?","?","?","T","T","T","T","T","T","T","T","T","T","T","T","T","T","T","T","T","T","T","T","T","T","T","T","T","T","T","T","T","T","T","T","T","T","T","T","T","T","T","T","T","T","T","T","T","T","T","T","T","T","T","T","T","T","T","T","T","T","T","T","T","T","T","T","T","T","T","T","T","T","T","T","T","T","T","T","T","T","T","T","T","T","T","T","T","T","T","T","T","T","T","T","T","T","T","T","T","T","T","T","T","T","T","T","T","T","T","T","T","T","T","T","T","T","T","T","T","T","T","T","T","T","T","T","T","T","T","T","T","T","T","T","T","T","T","T","T","T","T","T","T","T","T","T","T","T","T","T","T","T","T","T","T","T","T","T","T","T","T","T","T","T","T","T","T","T","T","T","T","T","T","T","T","T","T","T","T","T","T","T","T","T","T","T","T","T","T","T","T","T","?","?","?","L","L","L","L","L","L","L","?","?","?","?","?","D","D","D","D","D","D","D","D","D","D","D","D","D","D","D","D","D","?","?","?","E","E","E","E","E","E","E","E","E","E","E","E","E","E","E","E","E","E","E","E","E","E","E","E","E","E","E","E","E","E","E","E","E","E","E","E","E","E","E","E","E","E","E","E","E","E","E","E","E","E","E","E","E","E","E","E","E","E","E","E","E","E","E","E","E","E","E","E","E","E","E","E","E","E","E","E","E","E","E","E","E","E","E","E","E","E","E","E","E","E","E","E","E","E","E","E","E","E","E","E","E","E","E","E","E","E","E","E","E","E","E","E","E","E","E","E","E","E","E","E","E","E","E","E","E","E","E","E","E","E","E","E","E","E","E","E","E","E","E","E","E","E","E","E","E","E","E","E","E","E","E","E","E","E","E","E","E","E","E","E","E","E","E","E","E","E","E","E","E","E","E","E","E","E","E","E","E","E","E","E","E","E","E","E","E","E","E","E","E","E","E","E","E","E","E","E","E","E","E","E","E","E","E","E","E","E","E","E","E","E","E","E","E","E","E","E","E","E","E","E","E","E","E","E","E","E","E","E","E","E","E","E","E","E","E","E","E","E","E","E","E","E","E","E","E","E","E","E","E","E","E","E","E","E","E","E","E","E","E","E","E","E","E","E","E","E","E","E","E","E","E","E","E","E","E","E","E","E","E","E","E","E","E","E","E","E","E","E","E","E","E","E","E","E","E","E","E","E","E","E","E","E","E","E","E","E","E","E","E","E","E","E","E","E","E","E","E","E","E","E","E","E","E","E","E","E","E","E","E","E","E","E","E","E","E","E","E","E","E","E","E","E","E","E","E","E","E","E","E","E","E","E","E","E","E","E","E","E","E","E","E","E","E","E","E","E","E","E","E","E","E","E","E","E","E","E","E","E","E","E","E","E","E","E","E","E","E","E","E","E","E","E","E","E","E","E","E","E","E","E","E","E","E","E","E","E","E","E","E","E","E","E","E","E","E","E","E","E","E","E","E","E","E","E","E","E","E","E","E","E","E","E","E","E","E","E","E","E","E","E","E","E","E","E","E","E","E","E","E","E","E","E","E","E","E","E","E","E","E","E","E","E","E","E","E","E","E","E","E","E","E","E","E","E","E","E","E","E","E","E","E","E","E","E","E","E","E","E","E","E","E","E","E","E","E","E","E","E","E","E","E","E","E","E","E","E","E","E","E","E","E","E","E","E","E","E","E","E","E","E","E","E","E","E","E","E","E","E","E","E","E","E","E","E","E","E","E","E","E","E","E","E","E","E","E","E","E","E","E","E","E","E","E","E","E","E","E","E","E","E","E","E","E","E","E","E","E","E","E","E","E","E","E","E","E","E","E","E","E","E","E","D","D","C","C","C","C","C","?","?","?","B","B","B","B","B","B","B","B","B","B","B","B","B","B","B","B","?","?","A","A","A","A","A","A","A","A","A","A","A","A","A","A","A","A","A","A","A","A","A","A","A","A","A","A","A","A","A","A","A","A","A","A","A","A","A","A","A","A","A","A","A","A","A","A","A","A","A","A","A","A","A","A","A","A","A","A","A","A","A","A","A","A","A","A","A","A","A","A","A","A","A","A","A","A","A","A","A","A","A","A","A","A","A","A","A","A","A","A","A","A","A","A","A","A","A","A","A","A","A","A","A","A","A","A","A","A","A","A","A","A","A","A","A","A","A","A","A","A","A","A","A","A","A","A","A","A","A","A","A","A","A","A","A","A","A","A","A","A","A","A","A","A","A","A","A","A","A","A","A","A","A","A","A","A","A","A","A","A","A","A","A","A","A","A","A","A","A","A","A","A","A","A","A","A","A","A","A","A","A","A","A","A","A","A","A","A","A","A","A","A","A","A","A","A","A","A","A","A","A","A","A","A","A","A","A","A","A","A","A","A","A","A","A","A","A","A","A","A","A","A","A","A","A","A","A","A","A","A","A","A","A","A","A","A","A","A","A","A","A","A","A","A","A","A","A","A","A","A","A","A","A","A","A","A","A","A","A","A","A","A","A","A","A","A","A","A","A","A","A","A","A","A","A","A","A","A","A","A","A","A","A","A","A","A","A","A","A","A","A","A","A","A","A","A","A","A","A","A","A","A","A","A","A","A","A","A","A","A","A","A","A","A","A","A","A","A","A","A","A","A","A","A","A","A","A","A","A","A","A","A","A","A","A","A","A","A","A","A","A","A","A","A","A","A","A","A","A","A","A","A","A","A","A","A","A","A","A","A","A","A","A","A","A","A","A","A","A","A","A","A","A","A","A","A","A","A","A","A","A","A","A","A","A","A","A","A","A","A","A","A","A","A","A","A","A","A","A","A","A","A","A","A","A","A","A","A","A","A","A","A","A","A","A","A","A","A","A","A","A","A","A","A","A","A","A","A","A","A","A","A","A","A","A","A","A","A","A","A","A","A","A","A","A","A","A","A","A","A","A","A","A","A","A","A","A","A","A","A","A","A","A","A","A","A","A","A","A","A","A","A","A","A","A","A","A","A","A","A","A","A","A","A","A","A","A","A","A","A","A","A","A","A","A","A","A","A","A","A","A","A","A","A","A","A","A","A","A","A","A","A","A","A","?","?","?","?","J","J","?","?","?","?","?","?","?","?","?","?","?","?","?","S","S","S","S","S","S","S","S","S","S","S","S","S","S","S","S","S","S","S","S","S","S","S","S","S","S","S","S","S","S","S","S","S","S","S","S","S","S","S","S","S","S","S","S","S","S","S","S","S","S","S","S","S","S","S","S","S","S","S","S","S","S","S","S","S","S","S","S","S","S","S","S","S","S","S","S","S","S","S","S","S","S","S","S","S","S","S","S","S","S","S","S","S","S","S","S","S","S","S","S","S","S","S","S","S","S","S","S","S","S","S","S","S","S","S","S","S","S","S","S","S","S","S","S","S","S","S","S","S","S","S","S","S","S","S","S","S","S","S","S","S","S","S","S","S","S","S","S","S","S","S","S","S","S","S","S","S","S","S","S","S","S","S","S","S","S","S","S","S","S","S","S","S","S","S","S","S","S","S","S","S","S","S","S","S","S","S","S","S","S","S","S","S","S","S","S","S","S","S","S","S","S","S","S","S","S","S","S","S","S","S","S","S","S","S","S","S","S","S","S","S","S","S","S","S","S","S","S","S","S","S","S","S","S","S","S","S","S","S","S","S","S","S","S","S","S","S","S","S","S","S","S","S","S","S","S","S","S","S","S","S","S","S","S","S","S","S","S","S","S","S","S","S","S","S","S","S","S","S","S","S","S","S","S","S","S","S","S","S","S","S","S","S","S","S","S","S","S","S","S","S","S","S","S","S","S","S","S","S","S","S","S","S","S","S","S","S","S","S","S","S","S","S","S","S","S","S","S","S","S","S","S","S","S","S","S","S","S","S","S","S","S","S","S","S","S","S","S","S","S","S","S","S","S","S","S","S","S","S","S","S","S","S","S","S","S","S","S","S","S","S","S","S","S","S","S","S","S","S","S","S","S","S","S","S","S","S","S","S","S","S","S","S","S","S","S","S","S","S","S","S","S","S","S","S","S","S","S","S","S","S","S","S","S","S","S","S","S","S","S","S","S","S","S","S","S","S","S","S","S","S","S","S","S","S","S","S","S","S","S","S","S","S","S","S","S","S","S","S","S","S","S","S","S","S","S","S","S","S","S","S","S","S","S","S","S","S","S","S","S","S","S","S","S","S","S","S","S","S","S","S","S","S","S","S","S","S","S","S","S","S","S","S","S","?","?","?","?","M","N","?","?","?","?","?","?","?","?","?","?","?","?","R","R","R","R","R","R","R","R","R","R","R","R","R","R","R","R","R","R","R","R","R","R","R","R","R","R","R","R","R","R","R","R","R","R","R","R","R","R","R","R","R","R","R","R","R","R","R","R","R","R","R","R","R","R","R","R","R","R","R","R","R","R","R","R","R","R","R","R","R","R","R","R","R","R","R","R","R","R","R","R","R","R","R","R","R","R","R","R","R","R","R","R","R","R","R","R","R","R","R","R","R","R","R","R","R","R","R","R","R","R","R","R","R","R","R","R","R","R","R","R","R","R","R","R","R","R","R","R","R","R","R","R","R","R","R","R","R","R","R","R","R","R","R","R","R","R","R","R","R","R","R","R","R","R","R","R","R","R","R","R","R","R","R","R","R","R","R","R","R","R","R","R","R","R","R","R","R","R","R","R","R","R","R","R","R","R","R","R","R","R","R","R","R","R","R","R","R","R","R","R","R","R","R","R","R","R","R","R","R","R","R","R","R","R","R","R","R","R","R","R","R","R","R","R","R","R","R","R","R","R","R","R","R","R","R","R","R","R","R","R","R","R","R","R","R","R","R","R","R","R","R","R","R","R","R","R","R","R","R","R","R","R","R","R","R","R","R","R","R","R","R","R","R","R","R","R","R","R","R","R","R","R","R","R","R","R","R","R","R","R","R","R","R","R","R","R","R","R","R","R","R","R","R","R","R","R","R","R","R","R","R","R","R","R","R","R","R","R","R","R","R","R","R","R","R","R","R","R","R","R","R","R","R","R","R","R","R","R","R","R","R","R","R","R","R","R","R","R","R","R","R","R","R","R","R","R","R","R","R","R","R","R","R","R","R","R","R","R","R","R","R","R","R","R","R","R","R","R","R","R","R","R","R","R","R","R","R","R","R","R","R","R","R","R","R","R","R","R","R","R","R","R","R","R","R","R","R","R","R","R","R","R","R","R","R","R","R","R","R","R","R","R","R","R","R","R","R","R","R","R","R","R","R","R","R","R","R","R","R","R","R","R","R","R","R","R","R","R","R","R","R","R","R","R","R","R","R","R","R","R","R","R","R","R","R","R","R","R","R","R","R","R","R","R","R","R","R","R","R","R","R","R","R","R","R","R","R","R","R","R","R","R","R","R","R","R","R","R","R","R","R","R","R","R","R","R","R","R","R","R","R","R","R","R","R","R","R","R","R","R","R","R","R","R","R","R","R","R","R","R","R","R","R","R","R","R","R","R","R","R","R","R","R","R","R","R","R","R","R","R","R","R","R","R","R","R","R","R","R","R","R","R","R","R","R","R","R","R","R","R","R","R","R","R","R","R","R","R","R","R","R","R","R","R","R","R","R","R","R","R","R","R","R","R","R","R","R","R","R","R","R","R","R","R","R","R","R","R","R","R","R","R","R","R","R","R","R","R","R","R","R","R","R","R","R","R","R","R","R","R","R","R","R","R","R","R","R","R","R","R","R","R","R","R","R","R","R","R","R","R","R","R","R","R","R","R","R","R","R","R","R","R","R","R","R","R","R","R","R","R","R","R","R","R","R","R","R","R","R","R","R","R","R","R","R","R","R","R","R","R","R","R","R","R","R","R","R","R","R","R","R","R","R","R","R","R","R","R","R","R","R","R","R","R","R","R","R","R","R","R","R","R","R","R","R","R","R","R","R","R","R","R","R","R","R","R","R","R","R","R","R","R","R","R","R","R","R","R","R","R","R","R","R","R","R","R","R","R","R","R","R","R","R","R","R","R","R","R","R","R","R","R","R","R","R","R","R","R","R","R","R","R","R","R","R","R","R","R","R","R","R","R","R","R","R","R","R","R","R","R","R","R","R","R","R","R","R","R","R","R","R","R","R","R","R","R","R","R","R","R","R","R","R","R","R","R","R","R","R","R","R","R","R","R","R","R","R","R","R","R","R","R","R","R","R","R","R","R","R","R","R","R","R","R","R","R","R","R","R","R","R","R","R","R","R","R","R","R","R","R","R","R","R","R","R","R","R","R","R","R","R","R","R","R","R","R","R","R","R","R","R","R","R","R","R","R","R","R","R","R","R","R","R","R","R","R","R","R","R","R","R","R","R","R","R","R","R","R","?","Q","Q","Q","Q","Q","Q","?","P","P","P","P","P","O","O","?","N","N","N","N","N","N","N","N","N","N","N","N","N","N","N","N","N","N","N","N","N","N","N","N","N","N","?","O","O","O","?","?","P","P","P","P","P","P","P","P","P","P","P","P","P","P","P","P","P","P","P","P","P","P","P","P","P","P","P","P","P","P","P","P","P","P","P","P","P","P","P","P","P","P","P","P","P","P","P","P","P","P","P","P","P","P","P","P","P","P","P","P","P","P","P","P","P","P","P","P","P","P","P","P","P","P","P","P","P","P","P","P","P","P","P","P","P","P","P","P","P","P","P","P","P","P","P","P","P","P","P","P","P","P","P","P","P","P","P","P","P","P","P","P","P","P","P","P","P","P","P","P","P","P","P","P","P","P","P","P","P","P","P","P","P","P","P","P","P","P","P","P","P","P","P","P","P","P","P","P","P","P","P","P","P","P","P","P","P","P","P","P","P","P","P","P","P","P","P","P","P","P","P","P","P","P","P","P","P","P","P","P","P","P","P","P","P","P","P","P","P","P","P","P","P","P","P","P","P","P","P","P","P","P","P","P","P","P","P","P","P","P","P","P","P","P","P","P","P","P","P","P","P","P","P","P","P","P","P","P","P","P","P","P","P","P","P","P","P","P","P","P","P","P","P","P","P","P","P","P","P","P","P","P","P","P","P","P","P","P","P","P","P","P","P","P","P","P","P","P","P","P","P","P","P","P","P","P","P","P","P","P","P","P","P","P","P","P","P","P","P","P","P","P","P","P","P","P","P","P","P","P","P","P","P","P","P","P","P","P","P","P","P","P","P","P","P","P","P","P","P","P","P","P","P","P","P","P","P","P","P","P","P","P","P","P","P","P","P","P","P","P","P","P","P","P","P","P","P","P","P","P","P","P","P","P","P","P","P","P","P","P","P","P","P","P","P","P","P","P","P","P","P","P","P","P","P","P","P","P","P","P","P","P","P","P","P","P","P","P","P","P","P","P","P","P","P","P","P","P","P","P","P","P","P","P","P","P","P","P","P","P","P","P","P","P","P","P","P","P","P","P","P","P","P","P","P","P","P","P","P","P","P","P","P","P","P","P","P","P","P","P","P","P","P","P","P","P","P","P","P","P","P","P","P","P","P","P","P","P","P","P","P","P","P","P","P","P","P","P","P","P","P","P","P","P","P","P","P","P","P","P","P","P","P","P","P","P","P","P","P","P","P","P","P","P","P","P","P","P","P","P","P","P","P","P","P","P","P","P","P","P","P","P","P","P","P","P","P","P","P","P","P","P","P","P","P","P","P","P","P","P","P","P","P","P","P","P","P","P","P","P","P","P","P","P","P","P","P","P","P","P","P","P","P","P","P","P","P","P","P","P","P","P","P","P","P","P","P","P","P","P","P","P","P","P","P","P","P","P","P","P","P","P","P","P","P","P","P","P","P","P","P","P","P","P","P","P","P","P","P","P","P","P","P","P","P","P","P","P","P","P","P","P","P","P","P","P","P","P","P","P","P","P","P","P","P","P","P","P","P","P","P","P","P","P","P","P","P","P","P","P","P","P","P","P","P","P","P","P","P","P","P","P","P","P","P","P","P","P","P","P","P","P","P","P","P","P","P","P","P","P","P","P","P","P","P","P","P","P","P","P","P","P","P","P","P","P","P","P","P","P","P","P","P","P","P","P","P","P","P","P","P","P","P","P","P","P","P","P","P","P","P","P","P","P","P","P","P","P","P","P","P","P","P","P","P","P","P","P","P","P","P","P","P","P","P","P","P","P","P","P","P","P","P","P","P","P","P","P","P","P","P","P","P","P","P","P","P","?","O","O","?","N","N","N","N","?","M","M","M","M","M","M","?","?","?","?","?","?","?","?","?","?","?","?","D","D","D","D","D","D","D","D","D","D","D","D","D","D","D","D","D","D","D","D","D","D","D","D","D","D","D","D","D","D","D","D","D","D","D","D","D","D","D","D","D","D","D","D","D","D","D","D","D","D","D","D","D","D","D","D","D","D","D","D","D","D","D","D","D","D","D","D","D","D","D","D","D","D","D","D","D","D","D","D","D","D","D","D","D","D","D","D","D","D","D","D","D","D","D","D","D","D","D","D","D","D","D","D","D","D","D","D","D","D","D","D","D","D","D","D","D","D","D","D","D","D","D","D","D","D","D","D","D","D","D","D","D","D","D","D","D","D","D","D","D","D","D","D","D","D","D","D","D","D","D","D","D","D","D","D","D","D","D","D","D","D","D","D","D","D","D","D","D","D","D","D","D","D","D","D","D","D","D","D","D","D","D","D","D","D","D","D","D","D","D","D","D","D","D","D","D","D","D","D","D","D","D","D","D","D","D","D","D","D","D","D","D","D","D","D","D","D","D","D","D","D","D","D","D","D","D","D","D","D","D","D","D","D","D","D","D","D","D","D","D","D","D","D","D","D","D","D","D","D","D","D","D","D","D","D","D","D","D","D","D","D","D","D","D","D","D","D","D","D","D","D","?","?","?","?","?","?","?","?","W","W","W","W","?","X","X","X","X","X","X","X","X","X","X","?","?","?","Y","Y","Y","Y","Y","Y","?","Z","Z","Z","Z","Z","Z","Z","Z","Z","Z","Z","Z","Z","Z","Z","Z","Z","Z","Z","Z","Z","Z","Z","Z","Z","Z","Z","Z","Z","Z","Z","Z","Z","Z","Z","Z","Z","Z","Z","Z","Z","Z","Z","Z","Z","Z","Z","Z","?","Y","Y","Y","?","?","?","?","N","N","M","M","M","M","M","M","M","M","?","?","?","?","?","?","?","?","?","?","?","?","C","C","C","C","?","?","?","?","?","?","?","?","?","?","?","B","B","B","B","B","B","B","B","B","B","B","B","B","B","B","B","B","B","B","B","B","B","B","B","B","B","B","B","B","B","B","B","B","B","B","B","B","B","B","B","B","B","B","B","B","B","B","B","B","B","B","B","B","B","B","B","B","B","B","B","B","B","B","B","B","B","B","B","B","B","B","B","B","B","B","B","B","B","B","B","B","B","B","B","B","B","B","B","B","B","B","B","B","B","B","B","B","B","B","B","B","B","B","B","B","B","B","B","B","B","B","B","B","B","B","B","B","B","B","B","B","B","B","B","B","B","B","B","B","B","B","B","B","B","B","B","B","B","B","B","B","B","B","B","B","B","B","B","B","B","B","B","B","B","B","B","B","B","B","B","B","B","B","B","B","B","B","B","B","B","B","B","B","B","B","B","B","B"],"t":[22,29,42,56,69,82,96,109,122,136,149,162,175,189,202,216,229,242,256,269,282,296,309,322,335,349,362,375,389,402,415,429,442,455,469,482,496,509,522,536,549,562,575,589,603,615,629,642,656,669,682,696,709,722,735,749,762,776,789,802,816,829,842,856,869,883,896,909,923,936,949,962,976,989,1003,1016,1029,1043,1056,1069,1083,1096,1109,1122,1136,1149,1162,1176,1189,1203,1216,1229,1243,1256,1269,1283,1296,1309,1323,1336,1349,1362,1376,1389,1403,1416,1429,1443,1456,1469,1483,1496,1509,1523,1536,1549,1563,1576,1589,1603,1616,1630,1642,1656,1669,1683,1696,1709,1723,1736,1749,1763,1776,1789,1803,1816,1829,1843,1856,1869,1883,1896,1909,1923,1936,1950,1963,1976,1989,2003,2016,2029,2043,2057,2070,2083,2097,2110,2123,2136,2150,2163,2176,2190,2203,2217,2230,2243,2258,2270,2284,2296,2310,2323,2336,2350,2363,2377,2390,2403,2417,2430,2443,2456,2470,2483,2497,2510,2523,2537,2550,2563,2578,2590,2603,2617,2637,2660,2684,2697,2710,2724,2737,2750,2764,2777,2790,2804,2817,2830,2843,2857,2870,2883,2897,2910,2924,2937,2950,2964,2977,2990,3003,3017,3030,3043,3057,3070,3084,3096,3110,3124,3137,3150,3164,3177,3190,3203,3217,3230,3243,3257,3270,3284,3297,3310,3324,3337,3350,3363,3377,3391,3404,3417,3430,3444,3457,3470,3484,3497,3510,3524,3537,3550,3564,3577,3591,3604,3617,3630,3643,3657,3670,3684,3697,3710,3724,3737,3750,3764,3777,3790,3804,3817,3830,3844,3857,3870,3884,3897,3910,3924,3937,3950,3964,3977,3991,4004,4017,4031,4044,4057,4071,4084,4097,4111,4124,4137,4151,4164,4177,4191,4204,4217,4230,4244,4257,4270,4284,4297,4310,4324,4337,4351,4364,4377,4391,4404,4417,4431,4444,4457,4471,4484,4497,4511,4524,4537,4551,4564,4577,4591,4604,4617,4630,4644,4657,4671,4684,4697,4711,4724,4737,4751,4764,4777,4791,4804,4817,4831,4844,4857,4871,4884,4898,4911,4924,4937,4951,4964,4977,4991,5004,5017,5031,5045,5058,5071,5084,5098,5111,5124,5138,5151,5164,5178,5191,5204,5217,5231,5244,5258,5271,5284,5297,5311,5324,5337,5351,5364,5378,5391,5404,5418,5431,5444,5458,5471,5484,5498,5511,5525,5538,5551,5564,5578,5591,5604,5618,5631,5644,5658,5671,5684,5698,5711,5724,5738,5751,5764,5778,5791,5804,5818,5831,5845,5858,5871,5885,5898,5911,5924,5938,5951,5964,5978,5991,6005,6018,6031,6044,6058,6071,6085,6098,6111,6124,6138,6151,6164,6178,6191,6204,6218,6231,6244,6258,6271,6284,6298,6311,6325,6338,6351,6364,6378,6391,6405,6418,6431,6445,6458,6471,6484,6498,6511,6525,6538,6551,6564,6578,6591,6605,6618,6631,6645,6658,6672,6685,6698,6711,6725,6738,6751,6765,6778,6792,6805,6818,6831,6845,6858,6872,6885,6898,6911,6925,6938,6951,6965,6978,6992,7005,7018,7032,7045,7058,7071,7085,7098,7112,7125,7138,7152,7165,7179,7192,7205,7218,7231,7245,7258,7272,7285,7298,7311,7325,7338,7352,7365,7378,7392,7405,7418,7432,7445,7458,7472,7485,7498,7512,7525,7539,7552,7565,7578,7592,7605,7619,7632,7645,7659,7672,7685,7699,7712,7725,7738,7752,7765,7778,7792,7805,7819,7832,7845,7859,7872,7885,7898,7912,7925,7938,7952,7965,7979,7992,8005,8019,8032,8045,8059,8072,8085,8099,8112,8125,8139,8152,8165,8178,8192,8205,8219,8232,8245,8259,8272,8285,8299,8312,8325,8339,8352,8365,8379,8392,8405,8419,8432,8445,8459,8472,8485,8499,8512,8525,8539,8552,8565,8579,8592,8605,8619,8632,8646,8659,8672,8685,8699,8712,8725,8739,8752,8765,8779,8792,8805,8819,8832,8846,8859,8872,8885,8899,8912,8926,8939,8952,8966,8979,8992,9005,9019,9032,9046,9059,9072,9086,9099,9112,9126,9139,9153,9166,9179,9192,9206,9219,9233,9246,9259,9272,9286,9299,9312,9326,9339,9353,9366,9379,9393,9406,9419,9433,9446,9459,9472,9486,9499,9513,9526,9539,9553,9566,9579,9593,9606,9619,9633,9646,9659,9672,9686,9699,9712,9726,9739,9753,9766,9779,9792,9806,9819,9833,9846,9859,9872,9886,9899,9913,9926,9939,9953,9966,9979,9993,10006,10019,10032,10046,10059,10072,10086,10099,10113,10126,10139,10153,10166,10179,10193,10207,10219,10233,10246,10260,10273,10286,10299,10313,10326,10340,10353,10366,10380,10393,10406,10420,10433,10446,10460,10473,10486,10500,10513,10526,10539,10553,10566,10580,10593,10606,10619,10633,10646,10659,10673,10687,10700,10713,10726,10740,10753,10767,10780,10793,10806,10820,10833,10846,10860,10873,10887,10900,10913,10927,10940,10954,10966,10980,10993,11006,11020,11033,11046,11060,11073,11087,11100,11113,11126,11140,11153,11167,11180,11193,11206,11220,11233,11247,11260,11274,11287,11300,11313,11326,11340,11353,11367,11380,11393,11406,11420,11433,11447,11460,11473,11487,11500,11513,11527,11540,11553,11566,11580,11593,11607,11620,11634,11647,11660,11673,11687,11700,11713,11727,11740,11753,11767,11780,11793,11807,11820,11834,11847,11860,11879,11900,11913,11927,11940,11954,11967,11980,11993,12007,12021,12033,12047,12060,12074,12087,12100,12114,12127,12140,12153,12167,12180,12193,12207,12220,12233,12247,12260,12274,12287,12300,12314,12327,12340,12354,12367,12380,12394,12407,12420,12434,12447,12460,12473,12487,12500,12514,12527,12541,12554,12567,12580,12594,12607,12620,12634,12647,12660,12674,12687,12700,12714,12727,12740,12754,12767,12781,12794,12807,12820,12834,12847,12860,12874,12887,12901,12914,12927,12941,12954,12967,12980,12994,13007,13021,13034,13048,13060,13074,13087,13101,13114,13127,13140,13154,13167,13181,13194,13207,13221,13234,13247,13261,13274,13287,13301,13314,13327,13341,13354,13367,13381,13394,13407,13421,13434,13447,13461,13474,13487,13501,13514,13527,13541,13554,13567,13581,13594,13607,13621,13634,13647,13661,13674,13687,13701,13714,13727,13741,13754,13768,13781,13794,13807,13821,13834,13848,13861,13874,13887,13901,13914,13928,13941,13954,13968,13981,13994,14007,14021,14034,14048,14062,14074,14088,14102,14114,14128,14141,14155,14168,14181,14194,14208,14221,14234,14248,14261,14274,14288,14301,14315,14328,14341,14355,14368,14381,14395,14408,14421,14435,14448,14461,14475,14488,14501,14515,14528,14541,14555,14568,14582,14595,14608,14621,14635,14648,14661,14675,14688,14702,14715,14728,14742,14755,14768,14781,14794,14808,14821,14835,14848,14861,14875,14888,14901,14914,14928,14941,14955,14968,14981,14995,15008,15021,15035,15048,15062,15075,15088,15101,15115,15128,15142,15155,15168,15182,15195,15208,15222,15235,15248,15261,15275,15288,15301,15315,15328,15341,15355,15368,15381,15395,15408,15422,15435,15448,15461,15475,15488,15501,15515,15529,15541,15555,15568,15581,15595,15608,15622,15635,15648,15662,15675,15688,15701,15715,15728,15742,15755,15768,15782,15795,15808,15822,15835,15848,15862,15875,15888,15902,15915,15928,15942,15955,15968,15982,15995,16008,16022,16035,16048,16062,16075,16088,16102,16115,16128,16142,16155,16168,16182,16195,16208,16222,16235,16248,16262,16275,16288,16302,16315,16328,16342,16355,16368,16382,16395,16409,16422,16435,16448,16462,16475,16489,16502,16515,16529,16542,16555,16568,16582,16595,16609,16622,16635,16649,16662,16675,16689,16702,16715,16729,16742,16756,16769,16782,16795,16809,16822,16835,16849,16862,16875,16889,16902,16915,16929,16942,16955,16969,16982,16995,17009,17022,17036,17049,17062,17075,17089,17102,17116,17129,17142,17156,17169,17182,17196,17209,17222,17235,17249,17262,17275,17289,17302,17315,17329,17342,17356,17369,17382,17396,17409,17422,17436,17449,17462,17476,17489,17502,17516,17529,17542,17556,17569,17583,17596,17609,17622,17635,17649,17662,17676,17689,17702,17716,17729,17742,17756,17769,17782,17796,17809,17822,17837,17849,17863,17876,17889,17902,17916,17929,17942,17956,17969,17982,17996,18009,18022,18036,18049,18062,18076,18089,18103,18116,18129,18142,18156,18169,18183,18196,18209,18222,18236,18249,18262,18276,18289,18302,18316,18330,18343,18356,18369,18383,18396,18409,18423,18436,18449,18462,18476,18490,18503,18516,18530,18543,18556,18570,18583,18596,18609,18623,18636,18649,18663,18676,18689,18703,18716,18729,18743,18756,18770,18783,18796,18809,18823,18836,18850,18863,18876,18889,18903,18916,18929,18943,18956,18970,18983,18996,19010,19023,19036,19049,19063,19076,19090,19103,19116,19129,19143,19156,19169,19183,19196,19210,19223,19236,19249,19263,19276,19289,19303,19316,19330,19343,19356,19369,19383,19396,19410,19423,19437,19450,19463,19476,19490,19503,19516,19530,19543,19556,19570,19583,19596,19610,19623,19636,19650,19663,19676,19690,19703,19716,19730,19743,19756,19770,19783,19797,19810,19823,19837,19850,19863,19876,19890,19903,19916,19930,19944,19956,19970,19983,19997,20010,20023,20037,20050,20063,20077,20090,20103,20117,20130,20143,20157,20170,20183,20197,20210,20223,20237,20250,20263,20277,20290,20303,20316,20330,20343,20357,20370,20383,20397,20410,20423,20437,20450,20464,20477,20490,20503,20517,20530,20544,20557,20570,20583,20597,20610,20624,20637,20650,20663,20677,20690,20703,20717,20730,20743,20757,20770,20784,20797,20810,20824,20837,20850,20864,20877,20890,20903,20917,20930,20943,20957,20970,20983,20997,21010,21023,21037,21050,21064,21077,21090,21104,21117,21130,21143,21157,21170,21184,21197,21210,21224,21237,21250,21264,21277,21290,21304,21317,21330,21344,21357,21370,21384,21397,21410,21424,21437,21451,21464,21477,21491,21504,21517,21531,21544,21557,21570,21584,21597,21611,21624,21637,21651,21664,21677,21690,21704,21717,21731,21744,21757,21771,21784,21797,21811,21824,21840,21864,21877,21891,21904,21917,21930,21944,21958,21971,21984,21997,22011,22024,22037,22051,22064,22077,22091,22104,22117,22131,22144,22158,22171,22184,22197,22211,22224,22237,22251,22264,22277,22291,22304,22318,22331,22344,22357,22371,22385,22397,22411,22424,22437,22451,22464,22477,22491,22504,22518,22531,22544,22558,22571,22584,22597,22611,22624,22638,22651,22664,22678,22691,22704,22718,22731,22744,22758,22771,22785,22797,22811,22824,22838,22851,22864,22877,22891,22904,22918,22931,22944,22958,22971,22985,22998,23011,23024,23038,23051,23065,23078,23091,23104,23118,23131,23144,23158,23171,23185,23198,23211,23225,23238,23251,23265,23278,23291,23305,23318,23331,23345,23358,23371,23385,23398,23411,23424,23438,23452,23465,23478,23491,23504,23518,23531,23545,23558,23571,23585,23598,23611,23625,23638,23651,23665,23678,23691,23704,23718,23731,23745,23758,23771,23785,23798,23811,23825,23838,23851,23865,23878,23892,23905,23918,23931,23945,23958,23971,23985,23998,24011,24025,24038,24052,24065,24078,24092,24105,24118,24131,24145,24158,24171,24185,24198,24211,24225,24238,24252,24265,24278,24292,24305,24318,24331,24345,24358,24372,24385,24398,24412,24425,24439,24451,24465,24478,24492,24505,24518,24531,24545,24558,24572,24585,24598,24612,24625,24638,24652,24665,24678,24692,24705,24718,24732,24745,24759,24772,24785,24798,24812,24825,24838,24852,24865,24878,24892,24905,24918,24932,24945,24959,24972,24985,24998,25012,25026,25039,25052,25065,25079,25092,25105,25119,25132,25145,25159,25172,25185,25199,25212,25225,25239,25252,25265,25279,25292,25306,25319,25332,25345,25359,25372,25385,25399,25413,25425,25439,25452,25465,25479,25492,25505,25519,25532,25545,25559,25572,25585,25599,25612,25626,25639,25652,25665,25679,25692,25705,25719,25732,25745,25759,25772,25785,25799,25812,25825,25839,25852,25865,25879,25892,25905,25919,25932,25946,25959,25972,25985,25999,26012,26026,26039,26052,26066,26079,26092,26106,26119,26132,26146,26159,26173,26186,26199,26212,26226,26239,26252,26266,26279,26292,26306,26319,26332,26346,26359,26372,26386,26399,26412,26426,26439,26452,26466,26480,26492,26506,26519,26533,26546,26559,26572,26586,26599,26612,26626,26639,26653,26666,26679,26693,26706,26719,26732,26746,26759,26772,26786,26799,26812,26826,26839,26853,26866,26879,26893,26906,26919,26933,26946,26959,26973,26986,26999,27013,27026,27040,27053,27066,27080,27093,27106,27119,27133,27146,27160,27173,27186,27199,27213,27226,27239,27253,27266,27279,27292,27306,27319,27333,27346,27359,27373,27386,27399,27413,27427,27440,27453,27467,27480,27493,27506,27521,27533,27547,27560,27573,27586,27600,27613,27626,27640,27653,27666,27680,27693,27706,27720,27733,27746,27760,27773,27786,27800,27813,27826,27840,27853,27866,27880,27893,27907,27920,27933,27946,27960,27973,27986,28000,28013,28026,28040,28053,28068,28080,28093,28106,28120,28133,28146,28160,28173,28186,28200,28214,28227,28240,28253,28266,28280,28293,28306,28320,28333,28347,28360,28373,28386,28400,28413,28427,28440,28453,28466,28480,28493,28507,28520,28533,28547,28560,28573,28586,28600,28614,28627,28640,28653,28667,28680,28693,28707,28720,28734,28747,28760,28774,28787,28800,28813,28827,28840,28853,28867,28880,28894,28907,28920,28933,28947,28960,28973,28987,29000,29014,29027,29040,29054,29067,29080,29093,29107,29120,29133,29147,29160,29173,29187,29200,29213,29227,29240,29254,29267,29280,29309,29334,29347,29360,29373,29387,29400,29413,29427,29440,29454,29467,29480,29494,29507,29521,29534,29547,29560,29574,29587,29600,29614,29627,29640,29654,29667,29680,29694,29707,29720,29734,29747,29760,29774,29787,29800,29814,29827,29841,29854,29867,29880,29894,29907,29920,29934,29947,29960,29974,29987,30000,30014,30027,30041,30054,30067,30081,30094,30107,30120,30134,30147,30161,30174,30187,30201,30214,30227,30240,30254,30267,30280,30294,30307,30321,30334,30347,30361,30374,30387,30401,30414,30427,30441,30454,30467,30481,30494,30507,30521,30534,30548,30561,30574,30587,30601,30614,30627,30641,30654,30667,30681,30694,30707,30721,30734,30747,30761,30774,30787,30801,30814,30827,30841,30854,30867,30881,30894,30907,30921,30934,30948,30961,30974,30987,31001,31014,31028,31041,31054,31067,31081,31094,31108,31121,31134,31147,31161,31174,31188,31201,31214,31228,31241,31254,31268,31281,31294,31308,31321,31334,31347,31361,31374,31387,31401,31414,31428,31441,31454,31468,31481,31494,31508,31521,31534,31548,31561,31574,31588,31601,31614,31628,31641,31655,31668,31681,31695,31708,31721,31734,31748,31761,31775,31788,31801,31814,31828,31841,31854,31868,31881,31895,31908,31921,31934,31948,31961,31975,31988,32001,32014,32028,32041,32054,32068,32081,32095,32108,32121,32135,32148,32161,32175,32188,32201,32215,32228,32241,32255,32268,32281,32295,32308,32321,32335,32348,32361,32375,32388,32401,32415,32428,32441,32455,32468,32481,32495,32508,32522,32535,32548,32561,32575,32588,32601,32615,32628,32641,32655,32668,32681,32695,32709,32721,32735,32748,32761,32775,32789,32802,32815,32828,32841,32855,32868,32881,32895,32908,32921,32935,32948,32962,32975,32988,33002,33015,33028,33041,33055,33068,33082,33095,33108,33122,33135,33148,33162,33175,33188,33202,33215,33228,33242,33255,33268,33282,33295,33308,33322,33335,33348,33362,33375,33388,33402,33415,33428,33442,33455,33468,33482,33495,33508,33522,33535,33548,33562,33575,33588,33602,33615,33628,33642,33655,33669,33682,33695,33709,33722,33735,33748,33762,33775,33789,33802,33815,33828,33842,33855,33869,33882,33895,33909,33922,33935,33948,33962,33975,33989,34002,34015,34029,34042,34055,34069,34082,34095,34109,34122,34136,34149,34162,34175,34189,34202,34215,34229,34242,34256,34269,34282,34295,34309,34322,34335,34349,34362,34375,34389,34402,34415,34429,34442,34456,34469,34482,34496,34509,34522,34536,34549,34562,34576,34589,34602,34616,34629,34642,34655,34669,34682,34696,34709,34722,34736,34749,34762,34776,34789,34802,34815,34829,34842,34856,34869,34882,34896,34909,34922,34936,34949,34962,34976,34989,35002,35016,35029,35042,35056,35069,35082,35096,35109,35122,35136,35149,35162,35176,35189,35202,35216,35229,35242,35256,35269,35282,35296,35309,35323,35336,35349,35362,35376,35389,35403,35416,35429,35442,35456,35469,35483,35496,35509,35522,35536,35549,35563,35576,35589,35603,35616,35629,35642,35656,35669,35683,35696,35709,35723,35736,35749,35763,35776,35789,35803,35816,35829,35843,35856,35870,35883,35896,35910,35923,35936,35950,35963,35976,35989,36003,36016,36029,36043,36056,36069,36083,36096,36109,36123,36136,36149,36163,36176,36190,36203,36216,36230,36243,36256,36269,36283,36296,36310,36323,36336,36349,36363,36376,36389,36403,36416,36429,36443,36456,36470,36483,36496,36510,36523,36536,36550,36563,36576,36590,36603,36616,36630,36643,36656,36670,36683,36697,36710,36723,36736,36750,36763,36776,36790,36803,36816,36830,36843,36856,36870,36883,36896,36910,36923,36937,36950,36964,36977,36990,37003,37016,37030,37043,37057,37070,37083,37096,37110,37123,37136,37150,37163,37176,37190,37203,37217,37230,37243,37256,37270,37283,37297,37310,37323,37336,37350,37364,37377,37390,37403,37417,37430,37443,37457,37470,37484,37497,37510,37523,37537,37550,37564,37577,37590,37603,37617,37630,37643,37657,37670,37683,37697,37710,37723,37737,37750,37764,37777,37790,37803,37817,37830,37843,37857,37870,37883,37897,37910,37923,37937,37950,37963,37977,37990,38003,38017,38030,38044,38057,38070,38083,38097,38110,38124,38137,38150,38164,38177,38190,38204,38217,38230,38244,38257,38270,38284,38297,38310,38324,38337,38350,38364,38377,38390,38404,38417,38430,38444,38457,38470,38484,38497,38510,38524,38537,38551,38564,38577,38591,38604,38617,38631,38644,38657,38670,38684,38697,38710,38724,38737,38750,38764,38777,38790,38804,38817,38831,38844,38858,38871,38884,38897,38911,38924,38938,38951,38964,38977,38991,39004,39017,39031,39044,39057,39071,39084,39097,39111,39124,39137,39151,39164,39177,39191,39204,39217,39231,39244,39258,39271,39284,39297,39311,39324,39337,39351,39365,39377,39391,39404,39418,39431,39444,39457,39471,39484,39498,39511,39524,39537,39551,39564,39577,39591,39604,39618,39631,39644,39657,39671,39684,39698,39711,39724,39738,39751,39764,39778,39791,39804,39818,39831,39844,39858,39871,39884,39898,39911,39924,39938,39951,39964,39978,39991,40004,40018,40031,40044,40058,40071,40084,40098,40111,40124,40138,40151,40164,40178,40191,40204,40218,40231,40244,40258,40271,40284,40298,40311,40324,40338,40351,40365,40378,40391,40405,40418,40431,40444,40458,40471,40485,40498,40511,40524,40538,40551,40565,40578,40591,40605,40618,40631,40645,40658,40671,40685,40698,40711,40725,40738,40751,40765,40778,40791,40805,40818,40832,40845,40858,40871,40885,40898,40912,40925,40938,40952,40965,40978,40991,41005,41018,41032,41045,41058,41071,41085,41098,41112,41125,41138,41151,41165,41179,41191,41205,41218,41231,41245,41258,41272,41285,41298,41312,41325,41339,41352,41365,41378,41391,41405,41418,41432,41445,41459,41471,41485,41498,41512,41525,41539,41552,41565,41579,41592,41605,41618,41632,41645,41659,41672,41685,41698,41712,41725,41739,41752,41765,41779,41792,41805,41819,41832,41845,41858,41872,41885,41899,41912,41925,41939,41952,41965,41979,41992,42005,42019,42032,42045,42059,42072,42085,42098,42112,42125,42139,42152,42165,42178,42192,42205,42219,42232,42245,42258,42272,42285,42299,42312,42325,42339,42352,42365,42384,42406,42418,42432,42445,42459,42472,42485,42499,42512,42526,42539,42552,42565,42579,42592,42606,42619,42632,42645,42659,42672,42685,42699,42712,42725,42739,42752,42765,42779,42792,42806,42819,42832,42845,42859,42872,42885,42899,42912,42926,42939,42952,42965,42979,42993,43006,43019,43032,43045,43059,43072,43086,43099,43112,43126,43139,43152,43165,43179,43192,43206,43219,43232,43246,43259,43272,43286,43299,43312,43325,43339,43352,43365,43379,43392,43406,43419,43432,43446,43459,43473,43486,43499,43512,43526,43539,43552,43566,43579,43593,43606,43619,43632,43646,43659,43672,43686,43699,43712,43726,43739,43752,43766,43779,43792,43806,43819,43832,43846,43859,43872,43886,43899,43913,43926,43939,43953,43966,43979,43992,44006,44019,44033,44046,44059,44073,44086,44099,44112,44126,44139,44153,44166,44179,44193,44206,44219,44233,44246,44260,44273,44286,44299,44313,44326,44339,44353,44366,44379,44393,44406,44419,44433,44446,44459,44473,44486,44499,44513,44526,44539,44553,44566,44579,44593,44606,44620,44633,44646,44660,44673,44686,44700,44713,44726,44740,44753,44766,44779,44793,44806,44819,44833,44846,44860,44873,44886,44900,44913,44926,44940,44953,44966,44980,44993,45006,45020,45033,45046,45060,45073,45086,45100,45113,45127,45140,45153,45167,45180,45193,45206,45220,45233,45246,45260,45273,45286,45300,45313,45326,45340,45353,45366,45380,45393,45406,45420,45433,45447,45460,45473,45486,45500,45513,45527,45540,45553,45566,45580,45593,45607,45620,45633,45647,45660,45673,45687,45700,45714,45727,45740,45753,45767,45780,45793,45807,45820,45833,45846,45860,45873,45887,45900,45913,45927,45940,45953,45967,45980,45993,46007,46020,46033,46047,46060,46073,46087,46100,46114,46127,46140,46153,46167,46180,46193,46207,46220,46233,46247,46260,46273,46287,46300,46314,46327,46340,46353,46367,46380,46393,46407,46420,46434,46447,46460,46473,46487,46500,46514,46527,46540,46553,46567,46580,46594,46607,46620,46634,46647,46660,46674,46687,46700,46714,46727,46740,46754,46767,46780,46794,46807,46820,46834,46847,46861,46874,46887,46900,46914,46927,46940,46954,46967,46980,46994,47007,47020,47034,47047,47060,47074,47087,47101,47114,47127,47140,47154,47167,47181,47194,47207,47220,47234,47247,47261,47274,47287,47301,47314,47327,47340,47354,47367,47381,47394,47407,47420,47434,47447,47460,47474,47488,47501,47514,47527,47541,47554,47567,47581,47594,47607,47621,47634,47647,47661,47674,47687,47701,47714,47727,47741,47754,47767,47781,47794,47807,47821,47834,47847,47861,47874,47887,47901,47914,47927,47941,47954,47967,47981,47994,48007,48021,48034,48048,48061,48074,48088,48101,48114,48127,48141,48154,48168,48181,48194,48208,48221,48234,48247,48261,48274,48287,48301,48314,48327,48341,48354,48367,48381,48394,48408,48421,48435,48448,48461,48475,48488,48501,48514,48528,48541,48555,48568,48581,48594,48608,48621,48635,48648,48661,48674,48688,48701,48714,48728,48741,48755,48768,48781,48794,48808,48821,48835,48848,48861,48875,48888,48901,48915,48928,48941,48955,48968,48981,48995,49008,49021,49035,49048,49062,49075,49088,49101,49115,49128,49141,49155,49168,49181,49195,49208,49221,49235,49248,49261,49275,49288,49301,49315,49328,49341,49355,49368,49381,49395,49408,49422,49435,49448,49462,49475,49488,49501,49515,49529,49542,49555,49568,49582,49595,49609,49622,49635,49648,49662,49676,49688,49702,49715,49728,49742,49755,49768,49782,49795,49808,49822,49835,49848,49861,49877,49902,49915,49928,49942,49955,49968,49982,49995,50008,50022,50035,50048,50061,50075,50088,50102,50115,50128,50142,50155,50168,50182,50195,50208,50222,50235,50249,50262,50275,50288,50302,50315,50328,50342,50355,50368,50382,50395,50409,50422,50436,50449,50462,50475,50489,50502,50516,50529,50542,50556,50569,50582,50595,50609,50622,50635,50649,50662,50675,50689,50702,50715,50729,50742,50755,50769,50782,50795,50809,50822,50835,50849,50862,50875,50889,50902,50915,50929,50942,50955,50969,50982,50996,51009,51022,51035,51049,51062,51076,51089,51102,51116,51129,51142,51155,51169,51182,51195,51209,51222,51236,51249,51262,51275,51289,51302,51316,51329,51342,51356,51369,51383,51395,51409,51422,51436,51449,51462,51476,51489,51502,51516,51529,51542,51556,51569,51582,51596,51609,51622,51636,51649,51662,51676,51689,51702,51716,51729,51742,51756,51769,51782,51796,51809,51822,51836,51849,51862,51876,51889,51902,51916,51929,51942,51956,51969,51982,51996,52009,52022,52036,52050,52062,52076,52089,52102,52116,52129,52143,52156,52169,52182,52196,52209,52222,52236,52249,52262,52276,52289,52302,52316,52329,52343,52356,52369,52382,52396,52409,52422,52436,52449,52463,52476,52489,52502,52516,52529,52543,52556,52569,52582,52596,52609,52623,52636,52649,52663,52676,52689,52703,52716,52730,52743,52756,52769,52783,52796,52809,52822,52836,52849,52863,52877,52889,52903,52916,52929,52943,52956,52969,52983,52996,53009,53023,53036,53049,53063,53076,53089,53103,53116,53129,53143,53156,53169,53183,53196,53209,53223,53236,53250,53263,53276,53289,53303,53316,53330,53343,53356,53369,53383,53396,53410,53423,53436,53450,53463,53476,53490,53503,53516,53530,53543,53556,53570,53583,53596,53610,53623,53636,53650,53663,53677,53690,53703,53716,53730,53743,53756,53770,53783,53796,53810,53823,53837,53850,53863,53876,53890,53903,53916,53930,53943,53956,53970,53983,53997,54010,54023,54036,54050,54063,54077,54090,54103,54116,54130,54143,54157,54170,54183,54196,54210,54223,54237,54250,54263,54277,54290,54303,54317,54330,54344,54357,54370,54383,54397,54410,54423,54437,54450,54463,54477,54490,54503,54517,54530,54543,54557,54570,54584,54597,54610,54624,54637,54650,54663,54677,54690,54704,54717,54730,54744,54757,54770,54783,54797,54810,54824,54837,54850,54863,54877,54890,54904,54917,54930,54944,54957,54971,54984,54997,55010,55024,55037,55050,55064,55077,55090,55104,55117,55131,55144,55157,55170,55184,55197,55210,55224,55237,55250,55264,55277,55290,55304,55317,55331,55344,55357,55370,55384,55397,55410,55424,55437,55450,55464,55477,55490,55504,55517,55531,55544,55557,55570,55584,55597,55611,55624,55638,55650,55664,55677,55691,55704,55717,55731,55744,55757,55771,55784,55797,55811,55824,55837,55851,55864,55877,55891,55904,55917,55931,55944,55957,55971,55984,55998,56011,56024,56037,56051,56064,56077,56091,56104,56117,56131,56144,56157,56171,56184,56198,56211,56224,56238,56251,56264,56277,56291,56304,56318,56331,56344,56358,56371,56384,56398,56411,56424,56437,56451,56464,56478,56491,56504,56518,56531,56544,56558,56571,56584,56598,56611,56625,56638,56651,56664,56679,56691,56704,56718,56731,56744,56758,56771,56784,56798,56811,56824,56838,56851,56864,56878,56891,56904,56918,56931,56944,56958,56971,56984,56998,57011,57024,57038,57051,57065,57078,57091,57105,57118,57131,57144,57158,57171,57185,57198,57211,57225,57238,57251,57265,57278,57291,57304,57318,57331,57344,57358,57371,57385,57398,57411,57425,57438,57452,57465,57478,57492,57505,57518,57531,57544,57558,57571,57585,57598,57611,57625,57638,57652,57665,57678,57691,57705,57718,57731,57745,57758,57772,57785,57798,57811,57825,57838,57852,57865,57878,57891,57905,57918,57931,57945,57958,57972,57985,57998,58012,58025,58038,58052,58065,58078,58091,58105,58119,58132,58145,58159,58172,58185,58198,58211,58225,58238,58252,58265,58278,58292,58305,58318,58332,58345,58358,58372,58385,58398,58412,58425,58438,58452,58465,58478,58492,58505,58518,58532,58545,58558,58572,58585,58598,58612,58625,58638,58652,58665,58679],"hit":[null],"x":[-2.693877551020408,-2.693877551020408,-2.693877551020408,-2.693877551020408,-2.693877551020408,-2.693877551020408,-2.693877551020408,-2.693877551020408,-2.693877551020408,-2.693877551020408,-2.693877551020408,-2.693877551020408,-2.693877551020408,-2.693877551020408,-2.693877551020408,-2.693877551020408,-2.693877551020408,-2.693877551020408,-2.693877551020408,-2.693877551020408,-2.693877551020408,-2.693877551020408,-2.693877551020408,-2.693877551020408,-2.693877551020408,-2.693877551020408,-2.693877551020408,-2.693877551020408,-2.693877551020408,-2.693877551020408,-2.693877551020408,-2.693877551020408,-2.693877551020408,-2.693877551020408,-2.693877551020408,-2.693877551020408,-2.693877551020408,-2.693877551020408,-2.693877551020408,-2.693877551020408,-2.693877551020408,-2.693877551020408,-2.693877551020408,-2.693877551020408,-2.693877551020408,-2.693877551020408,-2.693877551020408,-2.693877551020408,-2.693877551020408,-2.693877551020408,-2.693877551020408,-2.693877551020408,-2.693877551020408,-2.693877551020408,-2.693877551020408,-2.693877551020408,-2.693877551020408,-2.693877551020408,-2.693877551020408,-2.693877551020408,-2.693877551020408,-2.693877551020408,-2.693877551020408,-2.693877551020408,-2.693877551020408,-2.693877551020408,-2.693877551020408,-2.693877551020408,-2.693877551020408,-2.693877551020408,-2.693877551020408,-2.693877551020408,-2.693877551020408,-2.693877551020408,-2.693877551020408,-2.693877551020408,-2.693877551020408,-2.693877551020408,-2.693877551020408,-2.693877551020408,-2.693877551020408,-2.693877551020408,-2.693877551020408,-2.693877551020408,-2.693877551020408,-2.693877551020408,-2.693877551020408,-2.693877551020408,-2.693877551020408,-2.693877551020408,-2.693877551020408,-2.693877551020408,-2.693877551020408,-2.693877551020408,-2.693877551020408,-2.693877551020408,-2.693877551020408,-2.693877551020408,-2.693877551020408,-2.693877551020408,-2.693877551020408,-2.693877551020408,-2.693877551020408,-2.693877551020408,-2.693877551020408,-2.693877551020408,-2.693877551020408,-2.693877551020408,-2.693877551020408,-2.693877551020408,-2.693877551020408,-2.693877551020408,-2.693877551020408,-2.693877551020408,-2.693877551020408,-2.693877551020408,-2.693877551020408,-2.693877551020408,-2.693877551020408,-2.693877551020408,-2.693877551020408,-2.693877551020408,-2.693877551020408,-2.693877551020408,-2.693877551020408,-2.693877551020408,-2.693877551020408,-2.693877551020408,-2.693877551020408,-2.693877551020408,-2.693877551020408,-2.693877551020408,-2.693877551020408,-2.693877551020408,-2.693877551020408,-2.693877551020408,-2.693877551020408,-2.693877551020408,-2.693877551020408,-2.693877551020408,-2.693877551020408,-2.693877551020408,-2.693877551020408,-2.693877551020408,-2.693877551020408,-2.693877551020408,-2.693877551020408,-2.693877551020408,-2.693877551020408,-2.693877551020408,-2.693877551020408,-2.693877551020408,-2.693877551020408,0.047619047619047616,0.06462585034013606,0.07142857142857142,0.07142857142857142,0.07142857142857142,0.07142857142857142,0.07142857142857142,0.07142857142857142,0.07142857142857142,0.07142857142857142,0.07142857142857142,0.07142857142857142,0.07482993197278912,0.08503401360544217,0.10204081632653061,0.12585034013605442,0.13945578231292516,0.14285714285714285,0.14285714285714285,0.14285714285714285,0.14285714285714285,0.15306122448979592,0.17687074829931973,0.19727891156462585,0.21428571428571427,0.22448979591836735,0.22789115646258504,0.22789115646258504,0.22789115646258504,0.22448979591836735,0.21428571428571427,0.20408163265306123,0.19047619047619047,0.1836734693877551,0.17687074829931973,0.17006802721088435,0.16666666666666666,0.1598639455782313,0.15306122448979592,0.14965986394557823,0.14625850340136054,0.14625850340136054,0.14625850340136054,0.14625850340136054,0.14625850340136054,0.13945578231292516,0.1360544217687075,0.1326530612244898,0.1292517006802721,0.12585034013605442,0.12244897959183673,0.11904761904761904,0.11904761904761904,0.11904761904761904,0.11904761904761904,0.11904761904761904,0.11904761904761904,0.11904761904761904,0.11904761904761904,0.11904761904761904,0.11904761904761904,0.11904761904761904,0.11904761904761904,0.12585034013605442,0.1326530612244898,0.1360544217687075,0.1360544217687075,0.1360544217687075,0.1360544217687075,0.1360544217687075,0.1360544217687075,0.1360544217687075,0.1360544217687075,0.1360544217687075,0.1360544217687075,0.1360544217687075,0.1360544217687075,0.1360544217687075,0.1360544217687075,0.1360544217687075,0.1360544217687075,0.1360544217687075,0.1360544217687075,0.1360544217687075,0.1360544217687075,0.1360544217687075,0.1360544217687075,0.1360544217687075,0.1360544217687075,0.1360544217687075,0.1360544217687075,0.1360544217687075,0.1360544217687075,0.1360544217687075,0.1360544217687075,0.1360544217687075,0.1360544217687075,0.1360544217687075,0.1360544217687075,0.1360544217687075,0.1360544217687075,0.1360544217687075,0.1360544217687075,0.1360544217687075,0.1360544217687075,0.1360544217687075,0.1360544217687075,0.1360544217687075,0.1360544217687075,0.1360544217687075,0.1360544217687075,0.1360544217687075,0.1360544217687075,0.1360544217687075,0.1360544217687075,0.1360544217687075,0.1360544217687075,0.1360544217687075,0.1360544217687075,0.1360544217687075,0.1360544217687075,0.1360544217687075,0.1360544217687075,0.1360544217687075,0.1360544217687075,0.1360544217687075,0.1360544217687075,0.1360544217687075,0.1360544217687075,0.1360544217687075,0.1360544217687075,0.1360544217687075,0.1360544217687075,0.1360544217687075,0.1360544217687075,0.1360544217687075,0.1360544217687075,0.1360544217687075,0.1360544217687075,0.1360544217687075,0.1360544217687075,0.1360544217687075,0.1360544217687075,0.1360544217687075,0.1360544217687075,0.1360544217687075,0.1360544217687075,0.1360544217687075,0.1360544217687075,0.1360544217687075,0.1360544217687075,0.1360544217687075,0.1360544217687075,0.1360544217687075,0.1360544217687075,0.1360544217687075,0.1360544217687075,0.1360544217687075,0.1360544217687075,0.1360544217687075,0.1360544217687075,0.1360544217687075,0.1360544217687075,0.1360544217687075,0.1360544217687075,0.1360544217687075,0.1360544217687075,0.1360544217687075,0.1360544217687075,0.1360544217687075,0.1360544217687075,0.1360544217687075,0.1360544217687075,0.1360544217687075,0.1360544217687075,0.1360544217687075,0.1360544217687075,0.1360544217687075,0.1360544217687075,0.1360544217687075,0.1360544217687075,0.1360544217687075,0.1360544217687075,0.1360544217687075,0.1360544217687075,0.1360544217687075,0.1360544217687075,0.1360544217687075,0.1360544217687075,0.1360544217687075,0.1360544217687075,0.1360544217687075,0.1360544217687075,0.1360544217687075,0.1360544217687075,0.1360544217687075,0.1360544217687075,0.1360544217687075,0.1360544217687075,0.1360544217687075,0.1360544217687075,0.1360544217687075,0.1360544217687075,0.1360544217687075,0.1360544217687075,0.1360544217687075,0.1360544217687075,0.1360544217687075,0.1360544217687075,0.1360544217687075,0.1360544217687075,0.1360544217687075,0.1360544217687075,0.1360544217687075,0.1360544217687075,0.1360544217687075,0.1360544217687075,0.1360544217687075,0.1360544217687075,0.1360544217687075,0.1360544217687075,0.1360544217687075,0.15306122448979592,0.17346938775510204,0.1870748299319728,0.20748299319727892,0.23129251700680273,0.24829931972789115,0.2619047619047619,0.272108843537415,0.2857142857142857,0.29591836734693877,0.3129251700680272,0.32653061224489793,0.3469387755102041,0.3673469387755102,0.38095238095238093,0.3945578231292517,0.40476190476190477,0.41156462585034015,0.41836734693877553,0.42857142857142855,0.4387755102040816,0.4489795918367347,0.4523809523809524,0.4523809523809524,0.4523809523809524,0.4523809523809524,0.4557823129251701,0.46258503401360546,0.47278911564625853,0.47959183673469385,0.48299319727891155,0.48299319727891155,0.48299319727891155,0.4965986394557823,0.5034013605442177,0.5102040816326531,0.5136054421768708,0.5204081632653061,0.5272108843537415,0.5306122448979592,0.5374149659863946,0.5476190476190477,0.5578231292517006,0.564625850340136,0.5680272108843537,0.5680272108843537,0.5680272108843537,0.5680272108843537,0.5680272108843537,0.5680272108843537,0.5680272108843537,0.5680272108843537,0.5680272108843537,0.5680272108843537,0.5680272108843537,0.5680272108843537,0.5680272108843537,0.5680272108843537,0.5680272108843537,0.5680272108843537,0.5680272108843537,0.5680272108843537,0.5680272108843537,0.5680272108843537,0.5680272108843537,0.5680272108843537,0.5680272108843537,0.5680272108843537,0.5680272108843537,0.5680272108843537,0.5680272108843537,0.5680272108843537,0.5680272108843537,0.5680272108843537,0.5680272108843537,0.5680272108843537,0.5680272108843537,0.5680272108843537,0.5680272108843537,0.5680272108843537,0.5680272108843537,0.5680272108843537,0.5680272108843537,0.5680272108843537,0.5680272108843537,0.5680272108843537,0.5680272108843537,0.5680272108843537,0.5680272108843537,0.5680272108843537,0.5680272108843537,0.5680272108843537,0.5680272108843537,0.5680272108843537,0.5680272108843537,0.5680272108843537,0.5680272108843537,0.5680272108843537,0.5680272108843537,0.5680272108843537,0.5680272108843537,0.5680272108843537,0.5680272108843537,0.5680272108843537,0.5680272108843537,0.5680272108843537,0.5680272108843537,0.5680272108843537,0.5680272108843537,0.5680272108843537,0.5680272108843537,0.5680272108843537,0.5680272108843537,0.5680272108843537,0.5680272108843537,0.5680272108843537,0.5680272108843537,0.5680272108843537,0.5680272108843537,0.5680272108843537,0.5680272108843537,0.5680272108843537,0.5680272108843537,0.5680272108843537,0.5680272108843537,0.5680272108843537,0.5680272108843537,0.5680272108843537,0.5680272108843537,0.5680272108843537,0.5680272108843537,0.5680272108843537,0.5680272108843537,0.5680272108843537,0.5680272108843537,0.5680272108843537,0.5680272108843537,0.5680272108843537,0.5680272108843537,0.5680272108843537,0.5680272108843537,0.5680272108843537,0.5680272108843537,0.5680272108843537,0.5680272108843537,0.5680272108843537,0.5680272108843537,0.5680272108843537,0.5680272108843537,0.5680272108843537,0.5680272108843537,0.5680272108843537,0.5680272108843537,0.5680272108843537,0.5680272108843537,0.5680272108843537,0.5680272108843537,0.5680272108843537,0.5680272108843537,0.5680272108843537,0.5680272108843537,0.5680272108843537,0.5680272108843537,0.5680272108843537,0.5680272108843537,0.5680272108843537,0.5680272108843537,0.5680272108843537,0.5680272108843537,0.5680272108843537,0.5680272108843537,0.5680272108843537,0.5680272108843537,0.5680272108843537,0.5680272108843537,0.5680272108843537,0.5680272108843537,0.5680272108843537,0.5680272108843537,0.5680272108843537,0.5680272108843537,0.5680272108843537,0.5680272108843537,0.5680272108843537,0.5680272108843537,0.5680272108843537,0.5680272108843537,0.5680272108843537,0.5680272108843537,0.5680272108843537,0.5680272108843537,0.5680272108843537,0.5680272108843537,0.5680272108843537,0.5680272108843537,0.5680272108843537,0.5680272108843537,0.5680272108843537,0.5680272108843537,0.5680272108843537,0.5680272108843537,0.5680272108843537,0.5680272108843537,0.5680272108843537,0.5680272108843537,0.5680272108843537,0.5680272108843537,0.5680272108843537,0.5680272108843537,0.5680272108843537,0.5680272108843537,0.5680272108843537,0.5680272108843537,0.5680272108843537,0.5680272108843537,0.5680272108843537,0.5680272108843537,0.5680272108843537,0.5680272108843537,0.5680272108843537,0.5680272108843537,0.5680272108843537,0.5680272108843537,0.5680272108843537,0.5680272108843537,0.5680272108843537,0.5680272108843537,0.5680272108843537,0.5680272108843537,0.5680272108843537,0.5680272108843537,0.5680272108843537,0.5680272108843537,0.5680272108843537,0.5680272108843537,0.5680272108843537,0.5680272108843537,0.5680272108843537,0.5680272108843537,0.5680272108843537,0.5680272108843537,0.5680272108843537,0.5680272108843537,0.5680272108843537,0.5680272108843537,0.5680272108843537,0.5680272108843537,0.5680272108843537,0.5680272108843537,0.5680272108843537,0.5680272108843537,0.5680272108843537,0.5680272108843537,0.5680272108843537,0.5680272108843537,0.5680272108843537,0.5680272108843537,0.5680272108843537,0.5680272108843537,0.5680272108843537,0.5680272108843537,0.5680272108843537,0.5680272108843537,0.5680272108843537,0.5680272108843537,0.5680272108843537,0.5680272108843537,0.5680272108843537,0.5680272108843537,0.5680272108843537,0.5680272108843537,0.5680272108843537,0.5680272108843537,0.5680272108843537,0.5680272108843537,0.5680272108843537,0.5680272108843537,0.5680272108843537,0.5680272108843537,0.5680272108843537,0.5680272108843537,0.5680272108843537,0.5680272108843537,0.5680272108843537,0.5680272108843537,0.5680272108843537,0.5680272108843537,0.5680272108843537,0.5680272108843537,0.5680272108843537,0.5680272108843537,0.5680272108843537,0.5680272108843537,0.5680272108843537,0.5680272108843537,0.5680272108843537,0.5680272108843537,0.5680272108843537,0.5680272108843537,0.5680272108843537,0.5680272108843537,0.5680272108843537,0.5680272108843537,0.5680272108843537,0.5680272108843537,0.5680272108843537,0.5680272108843537,0.5680272108843537,0.5680272108843537,0.5680272108843537,0.5680272108843537,0.5680272108843537,0.5680272108843537,0.5680272108843537,0.5680272108843537,0.5680272108843537,0.5680272108843537,0.5680272108843537,0.5680272108843537,0.5680272108843537,0.5680272108843537,0.5680272108843537,0.5680272108843537,0.5680272108843537,0.5680272108843537,0.5680272108843537,0.5680272108843537,0.5680272108843537,0.5680272108843537,0.5680272108843537,0.5680272108843537,0.5680272108843537,0.5680272108843537,0.5680272108843537,0.5680272108843537,0.5680272108843537,0.5680272108843537,0.5680272108843537,0.5680272108843537,0.5680272108843537,0.5680272108843537,0.5680272108843537,0.5680272108843537,0.5680272108843537,0.5680272108843537,0.5680272108843537,0.5680272108843537,0.5680272108843537,0.5680272108843537,0.5680272108843537,0.5680272108843537,0.5680272108843537,0.5680272108843537,0.5680272108843537,0.5680272108843537,0.5680272108843537,0.5680272108843537,0.5680272108843537,0.5680272108843537,0.5680272108843537,0.5680272108843537,0.5680272108843537,0.5680272108843537,0.5680272108843537,0.5680272108843537,0.5680272108843537,0.5680272108843537,0.5680272108843537,0.5680272108843537,0.5680272108843537,0.5680272108843537,0.5680272108843537,0.5680272108843537,0.5680272108843537,0.5680272108843537,0.5680272108843537,0.5680272108843537,0.5680272108843537,0.5680272108843537,0.5680272108843537,0.5680272108843537,0.5680272108843537,0.5680272108843537,0.5680272108843537,0.5680272108843537,0.5680272108843537,0.5680272108843537,0.5680272108843537,0.5680272108843537,0.5680272108843537,0.5680272108843537,0.5680272108843537,0.5680272108843537,0.5680272108843537,0.5680272108843537,0.5680272108843537,0.5680272108843537,0.5680272108843537,0.5680272108843537,0.5680272108843537,0.5680272108843537,0.5680272108843537,0.5680272108843537,0.5680272108843537,0.5680272108843537,0.5680272108843537,0.5680272108843537,0.5680272108843537,0.5680272108843537,0.5680272108843537,0.5680272108843537,0.5680272108843537,0.5680272108843537,0.5680272108843537,0.5680272108843537,0.5680272108843537,0.5680272108843537,0.5680272108843537,0.5680272108843537,0.5680272108843537,0.5680272108843537,0.5680272108843537,0.5680272108843537,0.5680272108843537,0.5680272108843537,0.5680272108843537,0.5680272108843537,0.5680272108843537,0.5680272108843537,0.5680272108843537,0.5680272108843537,0.5680272108843537,0.5680272108843537,0.5680272108843537,0.5680272108843537,0.5680272108843537,0.5680272108843537,0.5680272108843537,0.5680272108843537,0.5680272108843537,0.5680272108843537,0.5680272108843537,0.5680272108843537,0.5680272108843537,0.5680272108843537,0.5680272108843537,0.5680272108843537,0.5680272108843537,0.5680272108843537,0.5680272108843537,0.5680272108843537,0.5680272108843537,0.5680272108843537,0.5680272108843537,0.5680272108843537,0.5680272108843537,0.5680272108843537,0.5680272108843537,0.5680272108843537,0.5680272108843537,0.5680272108843537,0.5680272108843537,0.5680272108843537,0.5680272108843537,0.5680272108843537,0.5680272108843537,0.5680272108843537,0.5680272108843537,0.5680272108843537,0.5680272108843537,0.5680272108843537,0.5680272108843537,0.5680272108843537,0.5680272108843537,0.5680272108843537,0.5680272108843537,0.5680272108843537,0.5680272108843537,0.5680272108843537,0.5680272108843537,0.5680272108843537,0.5680272108843537,0.5680272108843537,0.5680272108843537,0.5680272108843537,0.5680272108843537,0.5680272108843537,0.5680272108843537,0.5680272108843537,0.5680272108843537,0.5680272108843537,0.5680272108843537,0.5680272108843537,0.5680272108843537,0.5680272108843537,0.5680272108843537,0.5680272108843537,0.5680272108843537,0.5680272108843537,0.5680272108843537,0.5680272108843537,0.5680272108843537,0.5680272108843537,0.5680272108843537,0.5680272108843537,0.5680272108843537,0.5680272108843537,0.5680272108843537,0.5680272108843537,0.5680272108843537,0.5680272108843537,0.5680272108843537,0.5680272108843537,0.5680272108843537,0.5680272108843537,0.5680272108843537,0.5680272108843537,0.5680272108843537,0.5680272108843537,0.5680272108843537,0.5680272108843537,0.5680272108843537,0.5680272108843537,0.5680272108843537,0.5680272108843537,0.5680272108843537,0.5680272108843537,0.5680272108843537,0.5680272108843537,0.5680272108843537,0.5680272108843537,0.5680272108843537,0.5680272108843537,0.5680272108843537,0.5680272108843537,0.5680272108843537,0.5680272108843537,0.5680272108843537,0.5680272108843537,0.5680272108843537,0.5680272108843537,0.5680272108843537,0.5680272108843537,0.5680272108843537,0.5680272108843537,0.5680272108843537,0.5680272108843537,0.5680272108843537,0.5680272108843537,0.5680272108843537,0.5680272108843537,0.5680272108843537,0.5680272108843537,0.5680272108843537,0.5680272108843537,0.5680272108843537,0.5680272108843537,0.5680272108843537,0.5680272108843537,0.5680272108843537,0.5680272108843537,0.5680272108843537,0.5680272108843537,0.5680272108843537,0.5680272108843537,0.5680272108843537,0.5680272108843537,0.5680272108843537,0.5680272108843537,0.5680272108843537,0.5680272108843537,0.5680272108843537,0.5680272108843537,0.5680272108843537,0.5680272108843537,0.5680272108843537,0.5680272108843537,0.5680272108843537,0.5680272108843537,0.5680272108843537,0.5680272108843537,0.5680272108843537,0.5680272108843537,0.5680272108843537,0.5680272108843537,0.5680272108843537,0.5680272108843537,0.5680272108843537,0.5680272108843537,0.5680272108843537,0.5680272108843537,0.5680272108843537,0.5680272108843537,0.5680272108843537,0.5680272108843537,0.5680272108843537,0.5680272108843537,0.5680272108843537,0.5680272108843537,0.5680272108843537,0.5680272108843537,0.5680272108843537,0.5680272108843537,0.5680272108843537,0.5680272108843537,0.5680272108843537,0.5680272108843537,0.5680272108843537,0.5680272108843537,0.5680272108843537,0.5680272108843537,0.5680272108843537,0.5680272108843537,0.5680272108843537,0.5680272108843537,0.5544217687074829,0.5136054421768708,0.46258503401360546,0.4013605442176871,0.3299319727891156,0.2687074829931973,0.24149659863945577,0.24149659863945577,0.24149659863945577,0.21428571428571427,0.2108843537414966,0.20408163265306123,0.19727891156462585,0.19387755102040816,0.19047619047619047,0.19047619047619047,0.19047619047619047,0.19047619047619047,0.1870748299319728,0.17687074829931973,0.16666666666666666,0.14965986394557823,0.1360544217687075,0.12244897959183673,0.11564625850340136,0.11224489795918367,0.1054421768707483,0.09523809523809523,0.08163265306122448,0.06802721088435375,0.05442176870748299,0.047619047619047616,0.04081632653061224,0.04081632653061224,0.03741496598639456,0.034013605442176874,0.030612244897959183,0.023809523809523808,0.017006802721088437,0.01020408163265306,0.006802721088435374,0.003401360544217687,0.003401360544217687,0.003401360544217687,0.003401360544217687,0.003401360544217687,0.003401360544217687,0.003401360544217687,0.003401360544217687,0.003401360544217687,0.003401360544217687,0.003401360544217687,0.003401360544217687,0.003401360544217687,0.003401360544217687,0.003401360544217687,0.003401360544217687,0.003401360544217687,0.003401360544217687,0.003401360544217687,0.003401360544217687,0.003401360544217687,0.003401360544217687,0.003401360544217687,0.003401360544217687,0.003401360544217687,0.003401360544217687,0.003401360544217687,0.003401360544217687,0.003401360544217687,0.003401360544217687,0.003401360544217687,0.003401360544217687,0.003401360544217687,0.003401360544217687,0.003401360544217687,0.003401360544217687,0.003401360544217687,0.003401360544217687,0.003401360544217687,0.003401360544217687,0.003401360544217687,0.003401360544217687,0.003401360544217687,0.003401360544217687,0.003401360544217687,0.003401360544217687,0.003401360544217687,0.003401360544217687,0.003401360544217687,0.003401360544217687,0.003401360544217687,0.003401360544217687,0.003401360544217687,0.003401360544217687,0.003401360544217687,0.003401360544217687,0.003401360544217687,0.003401360544217687,0.003401360544217687,0.003401360544217687,0.003401360544217687,0.003401360544217687,0,0,0,0,0,0,0,0,0,0,0,0,0,0,0,0,0,0,0,0,0,0,0,0,0,0,0,0,0,0,0,0,0,0,0,0,0,0,0,0,0,0,0,0,0,0,0,0,0,0,0,0,0,0,0,0,0,0,0,0,0,0,0,0,0,0,0,0,0,0,0,0,0,0,0,0,0,0,0,0,0,0,0,0,0,0,0,0,0,0,0,0,0,0,0,0,0,0,0,0,0,0,0,0,0,0,0,0,0,0,0,0,0,0,0,0,0,0,0,0,0,0,0,0,0,0,0,0,0,0,0,0,0,0,0,0,0,0,0,0,0,0,0,0,0,0,0,0,0,0,0,0,0,0,0,0,0,0,0,0,0,0,0,0,0,0,0,0,0,0,0,0,0,0,0,0,0,0,0,0,0,0,0,0,0,0,0,0,0,0,0,0,0,0,0,0,0,0,0,0,0,0,0,0,0,0,0,0,0,0,0,0,0,0,0,0,0,0,0,0,0,0,0,0,0,0,0,0,0,0,0,0,0,0,0,0,0,0,0,0,0,0,0,0,0,0,0,0,0,0,0,0,0,0,0,0,0,0,0,0,0,0,0,0,0,0,0,0,0,0,0,0,0,0,0,0,0,0,0,0,0,0,0,0,0,0,0,0,0,0,0,0,0,0,0,0,0,0,0,0,0,0,0,0,0,0,0,0,0,0,0,0,0,0,0,0,0,0,0,0,0,0,0,0,0,0,0,0,0,0,0,0,0,0,0,0,0,0,0,0,0,0,0,0,0,0,0,0,0,0,0,0,0,0,0,0,0,0,0,0,0,0,0,0,0,0,0,0,0,0,0,0,0,0,0,0,0,0,0,0,0,0,0,0,0,0,0,0,0,0,0,0,0,0,0,0,0,0,0,0,0,0,0,0,0,0,0,0,0,0,0,0,0,0,0,0,0,0,0,0,0,0,0,0,0,0,0,0,0,0,0,0,0,0,0,0,0,0,0,0.003401360544217687,0.02040816326530612,0.034013605442176874,0.03741496598639456,0.03741496598639456,0.03741496598639456,0.03741496598639456,0.04081632653061224,0.047619047619047616,0.05442176870748299,0.061224489795918366,0.061224489795918366,0.061224489795918366,0.061224489795918366,0.061224489795918366,0.061224489795918366,0.05782312925170068,0.05442176870748299,0.05102040816326531,0.05102040816326531,0.047619047619047616,0.047619047619047616,0.04421768707482993,0.04081632653061224,0.034013605442176874,0.027210884353741496,0.023809523809523808,0.02040816326530612,0.02040816326530612,0.017006802721088437,0.017006802721088437,0.017006802721088437,0.013605442176870748,0.013605442176870748,0.013605442176870748,0.013605442176870748,0.013605442176870748,0.013605442176870748,0.013605442176870748,0.013605442176870748,0.013605442176870748,0.013605442176870748,0.013605442176870748,0.013605442176870748,0.013605442176870748,0.013605442176870748,0.013605442176870748,0.013605442176870748,0.013605442176870748,0.013605442176870748,0.013605442176870748,0.013605442176870748,0.013605442176870748,0.013605442176870748,0.013605442176870748,0.013605442176870748,0.013605442176870748,0.013605442176870748,0.013605442176870748,0.013605442176870748,0.013605442176870748,0.013605442176870748,0.013605442176870748,0.013605442176870748,0.013605442176870748,0.013605442176870748,0.013605442176870748,0.013605442176870748,0.013605442176870748,0.013605442176870748,0.013605442176870748,0.013605442176870748,0.013605442176870748,0.013605442176870748,0.013605442176870748,0.013605442176870748,0.013605442176870748,0.013605442176870748,0.013605442176870748,0.013605442176870748,0.013605442176870748,0.013605442176870748,0.013605442176870748,0.013605442176870748,0.013605442176870748,0.013605442176870748,0.013605442176870748,0.013605442176870748,0.013605442176870748,0.013605442176870748,0.013605442176870748,0.013605442176870748,0.013605442176870748,0.013605442176870748,0.013605442176870748,0.013605442176870748,0.013605442176870748,0.013605442176870748,0.013605442176870748,0.013605442176870748,0.013605442176870748,0.013605442176870748,0.013605442176870748,0.013605442176870748,0.013605442176870748,0.013605442176870748,0.013605442176870748,0.013605442176870748,0.013605442176870748,0.013605442176870748,0.013605442176870748,0.013605442176870748,0.013605442176870748,0.013605442176870748,0.013605442176870748,0.013605442176870748,0.013605442176870748,0.013605442176870748,0.013605442176870748,0.013605442176870748,0.013605442176870748,0.013605442176870748,0.013605442176870748,0.013605442176870748,0.013605442176870748,0.013605442176870748,0.013605442176870748,0.013605442176870748,0.013605442176870748,0.013605442176870748,0.013605442176870748,0.013605442176870748,0.013605442176870748,0.013605442176870748,0.013605442176870748,0.013605442176870748,0.013605442176870748,0.013605442176870748,0.013605442176870748,0.013605442176870748,0.013605442176870748,0.013605442176870748,0.013605442176870748,0.013605442176870748,0.013605442176870748,0.013605442176870748,0.013605442176870748,0.013605442176870748,0.013605442176870748,0.013605442176870748,0.013605442176870748,0.013605442176870748,0.013605442176870748,0.013605442176870748,0.013605442176870748,0.013605442176870748,0.013605442176870748,0.013605442176870748,0.013605442176870748,0.013605442176870748,0.013605442176870748,0.013605442176870748,0.013605442176870748,0.013605442176870748,0.013605442176870748,0.013605442176870748,0.013605442176870748,0.013605442176870748,0.013605442176870748,0.013605442176870748,0.013605442176870748,0.013605442176870748,0.013605442176870748,0.013605442176870748,0.013605442176870748,0.013605442176870748,0.013605442176870748,0.013605442176870748,0.013605442176870748,0.013605442176870748,0.013605442176870748,0.013605442176870748,0.013605442176870748,0.013605442176870748,0.013605442176870748,0.013605442176870748,0.013605442176870748,0.013605442176870748,0.013605442176870748,0.013605442176870748,0.013605442176870748,0.013605442176870748,0.013605442176870748,0.013605442176870748,0.013605442176870748,0.013605442176870748,0.013605442176870748,0.013605442176870748,0.013605442176870748,0.013605442176870748,0.013605442176870748,0.013605442176870748,0.013605442176870748,0.013605442176870748,0.013605442176870748,0.013605442176870748,0.013605442176870748,0.013605442176870748,0.013605442176870748,0.013605442176870748,0.013605442176870748,0.013605442176870748,0.013605442176870748,0.013605442176870748,0.013605442176870748,0.013605442176870748,0.013605442176870748,0.013605442176870748,0.013605442176870748,0.013605442176870748,0.013605442176870748,0.013605442176870748,0.013605442176870748,0.013605442176870748,0.013605442176870748,0.013605442176870748,0.013605442176870748,0.013605442176870748,0.013605442176870748,0.013605442176870748,0.013605442176870748,0.013605442176870748,0.013605442176870748,0.013605442176870748,0.013605442176870748,0.013605442176870748,0.013605442176870748,0.013605442176870748,0.013605442176870748,0.013605442176870748,0.013605442176870748,0.013605442176870748,0.013605442176870748,0.013605442176870748,0.013605442176870748,0.013605442176870748,0.013605442176870748,0.013605442176870748,0.013605442176870748,0.013605442176870748,0.013605442176870748,0.013605442176870748,0.013605442176870748,0.013605442176870748,0.013605442176870748,0.013605442176870748,0.013605442176870748,0.013605442176870748,0.013605442176870748,0.013605442176870748,0.013605442176870748,0.013605442176870748,0.013605442176870748,0.013605442176870748,0.013605442176870748,0.013605442176870748,0.013605442176870748,0.013605442176870748,0.013605442176870748,0.013605442176870748,0.013605442176870748,0.013605442176870748,0.013605442176870748,0.013605442176870748,0.013605442176870748,0.013605442176870748,0.013605442176870748,0.013605442176870748,0.013605442176870748,0.013605442176870748,0.013605442176870748,0.013605442176870748,0.013605442176870748,0.013605442176870748,0.013605442176870748,0.013605442176870748,0.013605442176870748,0.013605442176870748,0.013605442176870748,0.013605442176870748,0.013605442176870748,0.013605442176870748,0.013605442176870748,0.013605442176870748,0.013605442176870748,0.013605442176870748,0.013605442176870748,0.013605442176870748,0.013605442176870748,0.013605442176870748,0.013605442176870748,0.013605442176870748,0.013605442176870748,0.013605442176870748,0.013605442176870748,0.013605442176870748,0.013605442176870748,0.013605442176870748,0.013605442176870748,0.013605442176870748,0.013605442176870748,0.013605442176870748,0.013605442176870748,0.013605442176870748,0.013605442176870748,0.013605442176870748,0.013605442176870748,0.013605442176870748,0.013605442176870748,0.013605442176870748,0.013605442176870748,0.013605442176870748,0.013605442176870748,0.013605442176870748,0.013605442176870748,0.013605442176870748,0.013605442176870748,0.013605442176870748,0.013605442176870748,0.013605442176870748,0.013605442176870748,0.013605442176870748,0.013605442176870748,0.013605442176870748,0.013605442176870748,0.013605442176870748,0.013605442176870748,0.013605442176870748,0.013605442176870748,0.013605442176870748,0.013605442176870748,0.013605442176870748,0.013605442176870748,0.013605442176870748,0.013605442176870748,0.013605442176870748,0.013605442176870748,0.013605442176870748,0.013605442176870748,0.013605442176870748,0.013605442176870748,0.013605442176870748,0.013605442176870748,0.013605442176870748,0.013605442176870748,0.013605442176870748,0.013605442176870748,0.013605442176870748,0.013605442176870748,0.013605442176870748,0.013605442176870748,0.013605442176870748,0.013605442176870748,0.013605442176870748,0.013605442176870748,0.013605442176870748,0.013605442176870748,0.013605442176870748,0.013605442176870748,0.013605442176870748,0.013605442176870748,0.013605442176870748,0.013605442176870748,0.013605442176870748,0.013605442176870748,0.013605442176870748,0.013605442176870748,0.013605442176870748,0.013605442176870748,0.013605442176870748,0.013605442176870748,0.013605442176870748,0.013605442176870748,0.013605442176870748,0.013605442176870748,0.013605442176870748,0.013605442176870748,0.013605442176870748,0.013605442176870748,0.013605442176870748,0.013605442176870748,0.013605442176870748,0.013605442176870748,0.013605442176870748,0.013605442176870748,0.013605442176870748,0.013605442176870748,0.013605442176870748,0.013605442176870748,0.013605442176870748,0.013605442176870748,0.013605442176870748,0.013605442176870748,0.013605442176870748,0.013605442176870748,0.013605442176870748,0.013605442176870748,0.013605442176870748,0.013605442176870748,0.013605442176870748,0.013605442176870748,0.013605442176870748,0.013605442176870748,0.013605442176870748,0.013605442176870748,0.013605442176870748,0.013605442176870748,0.013605442176870748,0.013605442176870748,0.013605442176870748,0.013605442176870748,0.013605442176870748,0.013605442176870748,0.013605442176870748,0.013605442176870748,0.013605442176870748,0.013605442176870748,0.013605442176870748,0.013605442176870748,0.013605442176870748,0.013605442176870748,0.013605442176870748,0.013605442176870748,0.013605442176870748,0.013605442176870748,0.013605442176870748,0.013605442176870748,0.013605442176870748,0.013605442176870748,0.013605442176870748,0.013605442176870748,0.013605442176870748,0.013605442176870748,0.013605442176870748,0.013605442176870748,0.013605442176870748,0.013605442176870748,0.013605442176870748,0.013605442176870748,0.013605442176870748,0.013605442176870748,0.013605442176870748,0.013605442176870748,0.013605442176870748,0.013605442176870748,0.013605442176870748,0.013605442176870748,0.013605442176870748,0.013605442176870748,0.013605442176870748,0.013605442176870748,0.013605442176870748,0.013605442176870748,0.013605442176870748,0.013605442176870748,0.013605442176870748,0.013605442176870748,0.013605442176870748,0.013605442176870748,0.013605442176870748,0.013605442176870748,0.013605442176870748,0.013605442176870748,0.013605442176870748,0.013605442176870748,0.013605442176870748,0.013605442176870748,0.013605442176870748,0.013605442176870748,0.013605442176870748,0.013605442176870748,0.013605442176870748,0.013605442176870748,0.013605442176870748,0.013605442176870748,0.013605442176870748,0.013605442176870748,0.013605442176870748,0.013605442176870748,0.013605442176870748,0.013605442176870748,0.013605442176870748,0.013605442176870748,0.013605442176870748,0.013605442176870748,0.013605442176870748,0.013605442176870748,0.013605442176870748,0.013605442176870748,0.013605442176870748,0.013605442176870748,0.013605442176870748,0.013605442176870748,0.013605442176870748,0.013605442176870748,0.013605442176870748,0.013605442176870748,0.013605442176870748,0.013605442176870748,0.013605442176870748,0.013605442176870748,0.013605442176870748,0.013605442176870748,0.023809523809523808,0.05102040816326531,0.09863945578231292,0.1598639455782313,0.22108843537414966,0.29931972789115646,0.4013605442176871,0.5408163265306123,0.6904761904761905,0.826530612244898,0.9115646258503401,0.9761904761904762,1.0136054421768708,1.030612244897959,1.0442176870748299,1.054421768707483,1.0714285714285714,1.08843537414966,1.1020408163265305,1.1088435374149659,1.1122448979591837,1.1156462585034013,1.1156462585034013,1.1156462585034013,1.1156462585034013,1.1156462585034013,1.1156462585034013,1.1156462585034013,1.1156462585034013,1.119047619047619,1.119047619047619,1.119047619047619,1.119047619047619,1.119047619047619,1.119047619047619,1.119047619047619,1.119047619047619,1.119047619047619,1.119047619047619,1.119047619047619,1.119047619047619,1.119047619047619,1.119047619047619,1.119047619047619,1.119047619047619,1.119047619047619,1.119047619047619,1.119047619047619,1.1224489795918366,1.1224489795918366,1.129251700680272,1.129251700680272,1.129251700680272,1.129251700680272,1.129251700680272,1.129251700680272,1.129251700680272,1.129251700680272,1.129251700680272,1.129251700680272,1.129251700680272,1.129251700680272,1.129251700680272,1.129251700680272,1.129251700680272,1.129251700680272,1.129251700680272,1.129251700680272,1.129251700680272,1.129251700680272,1.129251700680272,1.129251700680272,1.129251700680272,1.129251700680272,1.129251700680272,1.129251700680272,1.129251700680272,1.129251700680272,1.129251700680272,1.129251700680272,1.129251700680272,1.129251700680272,1.129251700680272,1.129251700680272,1.129251700680272,1.129251700680272,1.129251700680272,1.129251700680272,1.129251700680272,1.129251700680272,1.129251700680272,1.129251700680272,1.129251700680272,1.129251700680272,1.129251700680272,1.129251700680272,1.129251700680272,1.129251700680272,1.129251700680272,1.129251700680272,1.129251700680272,1.129251700680272,1.129251700680272,1.129251700680272,1.129251700680272,1.129251700680272,1.129251700680272,1.129251700680272,1.129251700680272,1.129251700680272,1.129251700680272,1.129251700680272,1.129251700680272,1.129251700680272,1.129251700680272,1.129251700680272,1.129251700680272,1.129251700680272,1.129251700680272,1.129251700680272,1.129251700680272,1.129251700680272,1.129251700680272,1.129251700680272,1.129251700680272,1.129251700680272,1.129251700680272,1.129251700680272,1.129251700680272,1.129251700680272,1.129251700680272,1.129251700680272,1.129251700680272,1.129251700680272,1.129251700680272,1.129251700680272,1.129251700680272,1.129251700680272,1.129251700680272,1.129251700680272,1.129251700680272,1.129251700680272,1.129251700680272,1.129251700680272,1.129251700680272,1.129251700680272,1.129251700680272,1.129251700680272,1.129251700680272,1.129251700680272,1.129251700680272,1.129251700680272,1.129251700680272,1.129251700680272,1.129251700680272,1.129251700680272,1.129251700680272,1.129251700680272,1.129251700680272,1.129251700680272,1.129251700680272,1.129251700680272,1.129251700680272,1.129251700680272,1.129251700680272,1.129251700680272,1.129251700680272,1.129251700680272,1.129251700680272,1.129251700680272,1.129251700680272,1.129251700680272,1.129251700680272,1.129251700680272,1.129251700680272,1.129251700680272,1.129251700680272,1.129251700680272,1.129251700680272,1.129251700680272,1.129251700680272,1.129251700680272,1.129251700680272,1.129251700680272,1.129251700680272,1.129251700680272,1.129251700680272,1.129251700680272,1.129251700680272,1.129251700680272,1.129251700680272,1.129251700680272,1.129251700680272,1.129251700680272,1.129251700680272,1.129251700680272,1.129251700680272,1.129251700680272,1.129251700680272,1.129251700680272,1.129251700680272,1.129251700680272,1.129251700680272,1.129251700680272,1.129251700680272,1.129251700680272,1.129251700680272,1.129251700680272,1.129251700680272,1.129251700680272,1.129251700680272,1.129251700680272,1.129251700680272,1.129251700680272,1.129251700680272,1.129251700680272,1.129251700680272,1.129251700680272,1.129251700680272,1.129251700680272,1.129251700680272,1.129251700680272,1.129251700680272,1.129251700680272,1.129251700680272,1.129251700680272,1.129251700680272,1.129251700680272,1.129251700680272,1.129251700680272,1.129251700680272,1.129251700680272,1.129251700680272,1.129251700680272,1.129251700680272,1.129251700680272,1.129251700680272,1.129251700680272,1.129251700680272,1.129251700680272,1.129251700680272,1.129251700680272,1.129251700680272,1.129251700680272,1.129251700680272,1.129251700680272,1.129251700680272,1.129251700680272,1.129251700680272,1.129251700680272,1.129251700680272,1.129251700680272,1.129251700680272,1.129251700680272,1.129251700680272,1.129251700680272,1.129251700680272,1.129251700680272,1.129251700680272,1.129251700680272,1.129251700680272,1.129251700680272,1.129251700680272,1.129251700680272,1.129251700680272,1.129251700680272,1.129251700680272,1.129251700680272,1.129251700680272,1.129251700680272,1.129251700680272,1.129251700680272,1.129251700680272,1.129251700680272,1.129251700680272,1.129251700680272,1.129251700680272,1.129251700680272,1.129251700680272,1.129251700680272,1.129251700680272,1.129251700680272,1.129251700680272,1.129251700680272,1.129251700680272,1.129251700680272,1.129251700680272,1.129251700680272,1.129251700680272,1.129251700680272,1.129251700680272,1.129251700680272,1.129251700680272,1.129251700680272,1.129251700680272,1.129251700680272,1.129251700680272,1.129251700680272,1.129251700680272,1.129251700680272,1.129251700680272,1.129251700680272,1.129251700680272,1.129251700680272,1.129251700680272,1.129251700680272,1.129251700680272,1.129251700680272,1.129251700680272,1.129251700680272,1.129251700680272,1.129251700680272,1.129251700680272,1.129251700680272,1.129251700680272,1.129251700680272,1.129251700680272,1.129251700680272,1.129251700680272,1.129251700680272,1.129251700680272,1.129251700680272,1.129251700680272,1.129251700680272,1.129251700680272,1.129251700680272,1.129251700680272,1.129251700680272,1.129251700680272,1.129251700680272,1.129251700680272,1.129251700680272,1.129251700680272,1.129251700680272,1.129251700680272,1.129251700680272,1.129251700680272,1.129251700680272,1.129251700680272,1.129251700680272,1.129251700680272,1.129251700680272,1.129251700680272,1.129251700680272,1.129251700680272,1.129251700680272,1.129251700680272,1.129251700680272,1.129251700680272,1.129251700680272,1.129251700680272,1.129251700680272,1.129251700680272,1.129251700680272,1.129251700680272,1.129251700680272,1.129251700680272,1.129251700680272,1.129251700680272,1.129251700680272,1.129251700680272,1.129251700680272,1.129251700680272,1.129251700680272,1.129251700680272,1.129251700680272,1.129251700680272,1.129251700680272,1.129251700680272,1.129251700680272,1.129251700680272,1.129251700680272,1.129251700680272,1.129251700680272,1.129251700680272,1.129251700680272,1.129251700680272,1.129251700680272,1.129251700680272,1.129251700680272,1.129251700680272,1.129251700680272,1.129251700680272,1.129251700680272,1.129251700680272,1.129251700680272,1.129251700680272,1.129251700680272,1.129251700680272,1.129251700680272,1.129251700680272,1.129251700680272,1.129251700680272,1.129251700680272,1.129251700680272,1.129251700680272,1.129251700680272,1.129251700680272,1.129251700680272,1.129251700680272,1.129251700680272,1.129251700680272,1.129251700680272,1.129251700680272,1.129251700680272,1.129251700680272,1.129251700680272,1.129251700680272,1.129251700680272,1.129251700680272,1.129251700680272,1.129251700680272,1.129251700680272,1.129251700680272,1.129251700680272,1.129251700680272,1.129251700680272,1.129251700680272,1.129251700680272,1.129251700680272,1.129251700680272,1.129251700680272,1.129251700680272,1.129251700680272,1.129251700680272,1.129251700680272,1.129251700680272,1.129251700680272,1.129251700680272,1.129251700680272,1.129251700680272,1.129251700680272,1.129251700680272,1.129251700680272,1.129251700680272,1.129251700680272,1.129251700680272,1.129251700680272,1.129251700680272,1.129251700680272,1.129251700680272,1.129251700680272,1.129251700680272,1.129251700680272,1.129251700680272,1.129251700680272,1.129251700680272,1.129251700680272,1.129251700680272,1.129251700680272,1.129251700680272,1.129251700680272,1.129251700680272,1.129251700680272,1.129251700680272,1.129251700680272,1.129251700680272,1.129251700680272,1.129251700680272,1.129251700680272,1.129251700680272,1.129251700680272,1.129251700680272,1.129251700680272,1.129251700680272,1.129251700680272,1.129251700680272,1.129251700680272,1.129251700680272,1.129251700680272,1.129251700680272,1.129251700680272,1.129251700680272,1.129251700680272,1.129251700680272,1.129251700680272,1.129251700680272,1.129251700680272,1.129251700680272,1.129251700680272,1.129251700680272,1.129251700680272,1.129251700680272,1.129251700680272,1.129251700680272,1.129251700680272,1.129251700680272,1.129251700680272,1.129251700680272,1.129251700680272,1.129251700680272,1.129251700680272,1.129251700680272,1.129251700680272,1.129251700680272,1.129251700680272,1.129251700680272,1.129251700680272,1.129251700680272,1.129251700680272,1.129251700680272,1.129251700680272,1.129251700680272,1.129251700680272,1.129251700680272,1.129251700680272,1.129251700680272,1.129251700680272,1.129251700680272,1.129251700680272,1.129251700680272,1.129251700680272,1.129251700680272,1.129251700680272,1.129251700680272,1.129251700680272,1.129251700680272,1.129251700680272,1.129251700680272,1.129251700680272,1.129251700680272,1.129251700680272,1.129251700680272,1.129251700680272,1.129251700680272,1.129251700680272,1.129251700680272,1.129251700680272,1.129251700680272,1.129251700680272,1.129251700680272,1.129251700680272,1.129251700680272,1.129251700680272,1.129251700680272,1.129251700680272,1.129251700680272,1.129251700680272,1.129251700680272,1.129251700680272,1.129251700680272,1.129251700680272,1.129251700680272,1.129251700680272,1.129251700680272,1.129251700680272,1.129251700680272,1.129251700680272,1.129251700680272,1.129251700680272,1.129251700680272,1.129251700680272,1.129251700680272,1.129251700680272,1.129251700680272,1.129251700680272,1.129251700680272,1.129251700680272,1.129251700680272,1.129251700680272,1.129251700680272,1.129251700680272,1.129251700680272,1.129251700680272,1.129251700680272,1.129251700680272,1.129251700680272,1.129251700680272,1.129251700680272,1.129251700680272,1.129251700680272,1.129251700680272,1.129251700680272,1.129251700680272,1.129251700680272,1.129251700680272,1.129251700680272,1.129251700680272,1.129251700680272,1.129251700680272,1.129251700680272,1.129251700680272,1.129251700680272,1.129251700680272,1.129251700680272,1.129251700680272,1.129251700680272,1.129251700680272,1.129251700680272,1.129251700680272,1.129251700680272,1.129251700680272,1.129251700680272,1.129251700680272,1.129251700680272,1.129251700680272,1.129251700680272,1.129251700680272,1.129251700680272,1.129251700680272,1.129251700680272,1.129251700680272,1.129251700680272,1.129251700680272,1.129251700680272,1.129251700680272,1.129251700680272,1.129251700680272,1.129251700680272,1.129251700680272,1.129251700680272,1.129251700680272,1.129251700680272,1.129251700680272,1.129251700680272,1.129251700680272,1.129251700680272,1.129251700680272,1.129251700680272,1.129251700680272,1.129251700680272,1.129251700680272,1.129251700680272,1.129251700680272,1.129251700680272,1.129251700680272,1.129251700680272,1.129251700680272,1.129251700680272,1.129251700680272,1.129251700680272,1.129251700680272,1.129251700680272,1.129251700680272,1.129251700680272,1.129251700680272,1.129251700680272,1.129251700680272,1.129251700680272,1.129251700680272,1.129251700680272,1.129251700680272,1.129251700680272,1.129251700680272,1.129251700680272,1.129251700680272,1.129251700680272,1.129251700680272,1.129251700680272,1.129251700680272,1.129251700680272,1.129251700680272,1.129251700680272,1.129251700680272,1.129251700680272,1.129251700680272,1.129251700680272,1.129251700680272,1.129251700680272,1.129251700680272,1.129251700680272,1.129251700680272,1.129251700680272,1.129251700680272,1.129251700680272,1.129251700680272,1.129251700680272,1.129251700680272,1.129251700680272,1.129251700680272,1.129251700680272,1.129251700680272,1.129251700680272,1.129251700680272,1.129251700680272,1.129251700680272,1.129251700680272,1.129251700680272,1.129251700680272,1.129251700680272,1.129251700680272,1.129251700680272,1.129251700680272,1.129251700680272,1.129251700680272,1.129251700680272,1.129251700680272,1.129251700680272,1.129251700680272,1.129251700680272,1.129251700680272,1.129251700680272,1.129251700680272,1.129251700680272,1.129251700680272,1.129251700680272,1.129251700680272,1.129251700680272,1.129251700680272,1.129251700680272,1.129251700680272,1.129251700680272,1.129251700680272,1.129251700680272,1.129251700680272,1.129251700680272,1.129251700680272,1.129251700680272,1.129251700680272,1.129251700680272,1.129251700680272,1.129251700680272,1.129251700680272,1.129251700680272,1.129251700680272,1.129251700680272,1.129251700680272,1.129251700680272,1.129251700680272,1.129251700680272,1.129251700680272,1.129251700680272,1.129251700680272,1.129251700680272,1.129251700680272,1.129251700680272,1.129251700680272,1.129251700680272,1.129251700680272,1.129251700680272,1.129251700680272,1.129251700680272,1.129251700680272,1.129251700680272,1.129251700680272,1.129251700680272,1.129251700680272,1.129251700680272,1.129251700680272,1.129251700680272,1.129251700680272,1.129251700680272,1.129251700680272,1.129251700680272,1.129251700680272,1.129251700680272,1.129251700680272,1.129251700680272,1.129251700680272,1.129251700680272,1.129251700680272,1.129251700680272,1.129251700680272,1.129251700680272,1.129251700680272,1.129251700680272,1.129251700680272,1.129251700680272,1.129251700680272,1.129251700680272,1.129251700680272,1.129251700680272,1.129251700680272,1.129251700680272,1.129251700680272,1.129251700680272,1.129251700680272,1.129251700680272,1.129251700680272,1.129251700680272,1.129251700680272,1.129251700680272,1.129251700680272,1.129251700680272,1.129251700680272,1.129251700680272,1.129251700680272,1.129251700680272,1.129251700680272,1.129251700680272,1.129251700680272,1.129251700680272,1.129251700680272,1.129251700680272,1.129251700680272,1.129251700680272,1.129251700680272,1.129251700680272,1.129251700680272,1.129251700680272,1.129251700680272,1.129251700680272,1.129251700680272,1.129251700680272,1.129251700680272,1.129251700680272,1.129251700680272,1.129251700680272,1.129251700680272,1.129251700680272,1.129251700680272,1.129251700680272,1.129251700680272,1.129251700680272,1.129251700680272,1.129251700680272,1.129251700680272,1.129251700680272,1.129251700680272,1.129251700680272,1.129251700680272,1.129251700680272,1.129251700680272,1.129251700680272,1.129251700680272,1.129251700680272,1.129251700680272,1.129251700680272,1.129251700680272,1.129251700680272,1.129251700680272,1.129251700680272,1.129251700680272,1.129251700680272,1.129251700680272,1.129251700680272,1.129251700680272,1.129251700680272,1.129251700680272,1.129251700680272,1.129251700680272,1.129251700680272,1.129251700680272,1.129251700680272,1.129251700680272,1.129251700680272,1.129251700680272,1.129251700680272,1.129251700680272,1.129251700680272,1.129251700680272,1.129251700680272,1.129251700680272,1.129251700680272,1.129251700680272,1.129251700680272,1.129251700680272,1.129251700680272,1.129251700680272,1.129251700680272,1.129251700680272,1.129251700680272,1.129251700680272,1.129251700680272,1.129251700680272,1.129251700680272,1.129251700680272,1.129251700680272,1.129251700680272,1.129251700680272,1.129251700680272,1.129251700680272,1.129251700680272,1.129251700680272,1.129251700680272,1.129251700680272,1.129251700680272,1.129251700680272,1.129251700680272,1.129251700680272,1.129251700680272,1.129251700680272,1.129251700680272,1.129251700680272,1.129251700680272,1.129251700680272,1.129251700680272,1.129251700680272,1.129251700680272,1.129251700680272,1.129251700680272,1.129251700680272,1.129251700680272,1.129251700680272,1.129251700680272,1.129251700680272,1.129251700680272,1.129251700680272,1.129251700680272,1.129251700680272,1.129251700680272,1.129251700680272,1.129251700680272,1.129251700680272,1.129251700680272,1.129251700680272,1.129251700680272,1.129251700680272,1.129251700680272,1.129251700680272,1.129251700680272,1.129251700680272,1.129251700680272,1.129251700680272,1.129251700680272,1.129251700680272,1.129251700680272,1.129251700680272,1.129251700680272,1.129251700680272,1.129251700680272,1.129251700680272,1.129251700680272,1.129251700680272,1.129251700680272,1.129251700680272,1.129251700680272,1.129251700680272,1.129251700680272,1.129251700680272,1.129251700680272,1.129251700680272,1.129251700680272,1.129251700680272,1.129251700680272,1.129251700680272,1.129251700680272,1.129251700680272,1.129251700680272,1.129251700680272,1.129251700680272,1.129251700680272,1.129251700680272,1.129251700680272,1.129251700680272,1.129251700680272,1.1224489795918366,1.1054421768707483,1.0816326530612246,1.0510204081632653,1.0204081632653061,1.0068027210884354,0.9965986394557823,0.9795918367346939,0.9625850340136054,0.9387755102040817,0.9115646258503401,0.8945578231292517,0.8809523809523809,0.8605442176870748,0.8129251700680272,0.7619047619047619,0.7108843537414966,0.6530612244897959,0.608843537414966,0.5850340136054422,0.5748299319727891,0.5714285714285714,0.5680272108843537,0.5680272108843537,0.564625850340136,0.5612244897959183,0.5578231292517006,0.5578231292517006,0.5578231292517006,0.5578231292517006,0.5578231292517006,0.5578231292517006,0.5578231292517006,0.5578231292517006,0.5578231292517006,0.5612244897959183,0.5680272108843537,0.5680272108843537,0.5680272108843537,0.5680272108843537,0.5680272108843537,0.5680272108843537,0.5748299319727891,0.6054421768707483,0.6496598639455783,0.6938775510204082,0.7346938775510204,0.7585034013605442,0.7755102040816326,0.7925170068027211,0.8095238095238095,0.826530612244898,0.8333333333333334,0.8367346938775511,0.8401360544217688,0.8401360544217688,0.8401360544217688,0.8401360544217688,0.8401360544217688,0.8401360544217688,0.8401360544217688,0.8401360544217688,0.8401360544217688,0.8401360544217688,0.8401360544217688,0.8401360544217688,0.8401360544217688,0.8401360544217688,0.8401360544217688,0.8401360544217688,0.8401360544217688,0.8401360544217688,0.8401360544217688,0.8401360544217688,0.8401360544217688,0.8401360544217688,0.8401360544217688,0.8401360544217688,0.8401360544217688,0.8401360544217688,0.8401360544217688,0.8401360544217688,0.8401360544217688,0.8401360544217688,0.8401360544217688,0.8401360544217688,0.8401360544217688,0.8401360544217688,0.8401360544217688,0.8401360544217688,0.8401360544217688,0.8401360544217688,0.8401360544217688,0.8401360544217688,0.8401360544217688,0.8401360544217688,0.8401360544217688,0.8401360544217688,0.8401360544217688,0.8401360544217688,0.8401360544217688,0.8401360544217688,0.8401360544217688,0.8401360544217688,0.8401360544217688,0.8401360544217688,0.8401360544217688,0.8401360544217688,0.8401360544217688,0.8401360544217688,0.8401360544217688,0.8401360544217688,0.8401360544217688,0.8401360544217688,0.8401360544217688,0.8401360544217688,0.8401360544217688,0.8401360544217688,0.8401360544217688,0.8401360544217688,0.8401360544217688,0.8401360544217688,0.8401360544217688,0.8401360544217688,0.8401360544217688,0.8401360544217688,0.8401360544217688,0.8401360544217688,0.8401360544217688,0.8401360544217688,0.8401360544217688,0.8401360544217688,0.8401360544217688,0.8401360544217688,0.8401360544217688,0.8401360544217688,0.8401360544217688,0.8401360544217688,0.8401360544217688,0.8401360544217688,0.8401360544217688,0.8401360544217688,0.8401360544217688,0.8401360544217688,0.8401360544217688,0.8401360544217688,0.8401360544217688,0.8401360544217688,0.8401360544217688,0.8401360544217688,0.8401360544217688,0.8401360544217688,0.8401360544217688,0.8401360544217688,0.8401360544217688,0.8401360544217688,0.8401360544217688,0.8401360544217688,0.8401360544217688,0.8401360544217688,0.8401360544217688,0.8401360544217688,0.8401360544217688,0.8401360544217688,0.8401360544217688,0.8401360544217688,0.8401360544217688,0.8401360544217688,0.8401360544217688,0.8401360544217688,0.8401360544217688,0.8401360544217688,0.8401360544217688,0.8401360544217688,0.8401360544217688,0.8401360544217688,0.8401360544217688,0.8401360544217688,0.8401360544217688,0.8401360544217688,0.8401360544217688,0.8401360544217688,0.8401360544217688,0.8401360544217688,0.8401360544217688,0.8401360544217688,0.8401360544217688,0.8401360544217688,0.8401360544217688,0.8401360544217688,0.8401360544217688,0.8401360544217688,0.8401360544217688,0.8401360544217688,0.8401360544217688,0.8401360544217688,0.8401360544217688,0.8401360544217688,0.840136054421768