[{"success":true,"trial_type":"fullscreen","trial_index":0,"time_elapsed":3763,"internal_node_id":"0.0-0.0","protocol_sum":"","subject_identifier":100,"subject_sum":[26,101,98,89,14,241,157,16,69,208,108,64,85,116,45,56,40,142,158,109,205,113,204,222,92,238,128,241,213,167,116,235],"subject_pair":50,"STUDY_ID":"669a702db1122fc5150a13ce","PROLIFIC_PID":"662ab80f395e74500f665f5c","SESSION_ID":"669a76e80f7f314904e8b347","practice_instructions":1,"leaderboard_instructions":0,"bonus":0,"reveal_word":false,"self_rating":"2","confidence":"90"},{"view_history":"[{\"page_index\":0,\"viewing_time\":4511}]","rt":4511.400000002235,"trial_type":"instructions","trial_index":1,"time_elapsed":8277,"internal_node_id":"0.0-1.0","protocol_sum":"","subject_identifier":100,"subject_sum":[26,101,98,89,14,241,157,16,69,208,108,64,85,116,45,56,40,142,158,109,205,113,204,222,92,238,128,241,213,167,116,235],"subject_pair":50,"STUDY_ID":"669a702db1122fc5150a13ce","PROLIFIC_PID":"662ab80f395e74500f665f5c","SESSION_ID":"669a76e80f7f314904e8b347","practice_instructions":1,"leaderboard_instructions":0,"bonus":0,"reveal_word":false,"self_rating":"2","confidence":"90"},{"view_history":"[{\"page_index\":0,\"viewing_time\":19086.79999999702}]","rt":19087.199999999255,"trial_type":"instructions","trial_index":2,"time_elapsed":27365,"internal_node_id":"0.0-2.0-0.0","protocol_sum":"","subject_identifier":100,"subject_sum":[26,101,98,89,14,241,157,16,69,208,108,64,85,116,45,56,40,142,158,109,205,113,204,222,92,238,128,241,213,167,116,235],"subject_pair":50,"STUDY_ID":"669a702db1122fc5150a13ce","PROLIFIC_PID":"662ab80f395e74500f665f5c","SESSION_ID":"669a76e80f7f314904e8b347","practice_instructions":1,"leaderboard_instructions":0,"bonus":0,"reveal_word":false,"self_rating":"2","confidence":"90"},{"rt":13753.39999999851,"responses":"{\"Q0\":\"... reveal the word with as <b>few letter guesses</b> as possible\"}","question_order":"[0]","trial_type":"survey-multi-choice","trial_index":3,"time_elapsed":41121,"internal_node_id":"0.0-2.0-1.0","protocol_sum":"","subject_identifier":100,"subject_sum":[26,101,98,89,14,241,157,16,69,208,108,64,85,116,45,56,40,142,158,109,205,113,204,222,92,238,128,241,213,167,116,235],"subject_pair":50,"correct":true,"test_part":"multichoice_nonpretend","STUDY_ID":"669a702db1122fc5150a13ce","PROLIFIC_PID":"662ab80f395e74500f665f5c","SESSION_ID":"669a76e80f7f314904e8b347","practice_instructions":1,"leaderboard_instructions":0,"bonus":0,"reveal_word":false,"self_rating":"2","confidence":"90"},{"view_history":"[{\"page_index\":0,\"viewing_time\":1945}]","rt":1945.300000000745,"trial_type":"instructions","trial_index":4,"time_elapsed":43068,"internal_node_id":"0.0-3.0","protocol_sum":"","subject_identifier":100,"subject_sum":[26,101,98,89,14,241,157,16,69,208,108,64,85,116,45,56,40,142,158,109,205,113,204,222,92,238,128,241,213,167,116,235],"subject_pair":50,"STUDY_ID":"669a702db1122fc5150a13ce","PROLIFIC_PID":"662ab80f395e74500f665f5c","SESSION_ID":"669a76e80f7f314904e8b347","practice_instructions":1,"leaderboard_instructions":0,"bonus":0,"reveal_word":false,"self_rating":"2","confidence":"90"},{"word":"ZEBRA","click_log":{"letter":["","H","T","C","M","R","S","A","Z","E","B"],"t":[0,4354.699999999255,15576.89999999851,24439.300000000745,37762.10000000149,42381.199999999255,65016.5,68244.89999999851,70796.19999999925,72241.80000000075,73278.89999999851],"hit":[null,0,0,0,0,1,0,1,1,1,1],"asked":["","H","HT","HTC","HTCM","HTCMR","HTCMRS","HTCMRSA","HTCMRSAZ","HTCMRSAZE","HTCMRSAZEB"],"word_state":["_____","_____","_____","_____","_____","___R_","___R_","___RA","Z__RA","ZE_RA","ZEBRA"]},"hover_log":{"letter":["?","?","?","?","?","?","J","J","J","J","?","?","?","?","?","?","?","?","?","?","?","?","?","?","?","?","?","?","?","?","?","?","?","?","?","?","?","?","?","?","?","?","?","?","?","?","?","?","?","?","?","?","?","?","?","?","?","?","?","?","?","?","?","?","?","?","?","?","?","?","?","?","?","?","?","?","?","?","?","?","?","?","?","?","?","?","?","?","?","?","?","?","?","?","?","?","?","?","?","?","?","?","?","?","?","?","?","?","?","?","?","?","?","?","?","?","?","?","?","?","?","?","?","?","?","?","?","?","K","K","K","K","K","?","?","?","L","L","L","L","L","?","M","M","M","M","M","?","?","?","?","?","?","?","?","N","N","?","O","O","?","?","?","P","P","P","P","P","P","P","P","P","?","?","?","?","?","?","?","?","?","?","?","?","?","?","?","?","?","?","?","?","?","?","?","?","?","?","?","?","?","?","?","?","?","?","?","?","?","?","?","?","?","?","?","?","?","?","?","?","?","?","?","?","?","?","?","?","H","H","H","H","H","H","H","H","H","H","H","H","H","H","H","H","H","H","H","H","H","H","H","H","H","H","H","H","H","H","H","H","H","H","H","H","H","H","H","H","H","H","H","H","H","H","H","H","H","H","H","H","H","H","H","H","H","H","H","H","H","H","H","H","H","H","H","H","H","H","H","H","H","H","H","H","H","H","H","H","H","H","H","H","H","H","H","H","H","H","H","H","H","H","H","H","H","H","H","H","H","H","H","H","H","H","H","H","H","H","H","H","H","H","H","H","H","H","H","H","H","H","H","H","H","H","H","H","H","H","H","H","H","H","H","H","H","H","H","H","H","H","H","H","H","H","H","H","H","H","H","H","H","H","H","H","H","H","H","H","H","H","H","H","H","H","H","H","H","H","H","H","H","H","H","H","H","H","H","H","H","H","H","H","H","H","H","H","H","H","H","H","H","H","H","H","H","H","H","H","H","H","H","H","H","H","H","H","H","H","H","H","H","H","H","H","H","H","H","H","H","H","H","H","H","H","H","H","H","H","H","H","H","H","H","H","H","H","H","H","H","H","H","H","H","H","H","H","H","H","H","H","H","H","H","H","H","H","H","H","H","H","H","H","H","H","H","H","H","H","H","H","H","H","H","H","H","H","H","H","H","H","H","H","H","H","H","H","H","H","H","H","H","H","H","H","H","H","H","H","H","H","H","H","H","H","H","H","H","H","H","H","H","H","H","H","H","H","H","H","H","H","H","H","H","H","H","H","H","H","H","H","H","H","H","H","H","H","H","H","H","H","H","H","H","H","H","H","H","H","H","H","H","H","H","H","H","H","H","H","H","H","H","H","H","H","H","H","H","H","H","H","H","H","H","H","H","H","H","H","H","H","H","H","H","H","H","H","H","H","H","H","H","H","H","H","H","H","H","H","H","H","H","H","H","H","H","H","H","H","H","H","H","H","H","H","H","H","H","H","H","H","H","H","H","H","H","H","H","H","H","H","H","H","H","H","H","H","H","H","H","H","H","H","H","H","H","H","H","H","H","H","H","H","H","H","H","H","H","H","H","H","H","H","H","H","H","H","H","H","H","H","H","H","H","H","H","H","H","H","H","H","H","H","H","H","H","H","H","H","H","H","H","H","H","H","H","H","H","H","H","H","H","H","H","H","H","H","H","H","H","H","H","H","H","H","H","H","H","H","H","H","H","H","H","H","H","H","H","H","H","H","H","H","H","H","H","H","H","H","H","H","H","H","H","H","H","H","H","H","H","H","H","H","H","H","H","H","H","H","H","H","H","H","H","H","H","H","H","H","H","H","H","H","H","H","H","H","?","G","G","G","G","G","G","G","G","G","G","G","G","G","G","G","G","?","?","P","P","P","P","?","?","?","?","?","?","?","?","?","P","P","?","O","?","N","M","?","L","L","?","?","?","?","?","?","?","?","?","?","?","?","?","?","?","L","L","L","L","L","L","L","L","L","L","L","K","K","K","K","K","K","K","?","?","?","?","?","?","?","?","?","T","T","T","T","T","?","?","?","?","?","T","T","T","T","T","T","T","T","T","T","T","T","T","T","T","T","T","T","T","T","T","T","T","T","T","T","T","T","T","T","T","T","T","T","T","T","T","T","T","T","T","T","T","T","T","T","T","T","T","T","T","T","T","T","T","T","T","T","T","T","T","T","T","T","T","T","T","T","T","T","T","T","T","T","T","T","T","T","T","T","T","T","T","T","T","T","T","T","T","T","T","T","T","T","T","T","T","T","T","T","T","T","T","T","T","T","T","T","T","T","T","T","T","T","T","T","T","T","T","T","T","T","T","T","T","T","U","V","W","?","?","?","?","?","?","?","?","?","?","?","?","?","?","?","?","?","?","?","?","?","?","?","?","?","?","?","?","?","?","?","?","?","?","?","?","?","?","?","?","?","?","?","?","?","?","?","?","?","?","?","?","?","?","?","?","?","?","?","?","?","?","?","?","?","?","?","?","?","?","?","?","?","?","?","?","?","?","?","?","?","?","?","?","?","?","?","?","?","Y","X","X","X","X","X","X","X","X","X","X","X","X","X","X","X","X","X","X","X","X","X","X","X","X","X","X","X","X","X","X","X","X","X","X","X","X","X","X","X","X","X","X","X","X","X","X","X","X","X","X","X","X","X","X","X","X","X","X","X","X","X","X","X","X","X","X","X","X","X","X","X","X","X","X","X","X","X","X","X","X","X","X","X","X","X","X","X","X","X","X","X","X","X","X","X","X","X","X","X","X","X","X","X","X","X","X","X","X","X","X","X","X","X","X","X","X","X","X","X","X","X","X","X","X","X","X","X","X","X","X","X","X","X","X","X","X","X","X","X","X","X","X","X","X","X","?","?","?","?","?","?","?","?","?","M","M","?","?","?","?","D","D","D","D","D","D","D","D","D","D","D","D","D","D","D","D","D","D","D","D","D","D","D","D","D","D","D","D","D","D","D","D","D","D","D","D","D","D","D","D","D","D","D","D","?","?","?","C","C","C","C","C","C","C","C","C","C","C","C","C","C","C","C","C","C","C","C","C","C","C","C","C","C","C","C","C","C","C","C","C","C","C","C","C","C","C","C","C","C","C","C","C","C","C","C","C","C","C","C","C","C","C","C","C","C","C","C","C","C","C","C","C","C","C","C","C","C","C","C","C","C","C","C","C","C","C","C","C","C","C","C","C","C","C","C","C","C","C","C","C","C","C","C","C","C","C","C","C","C","C","C","C","C","C","C","C","C","C","C","C","C","C","C","C","C","C","C","C","C","C","C","C","C","C","C","C","C","C","C","C","C","C","C","C","C","C","C","C","C","C","C","C","C","C","C","C","C","C","C","C","C","C","C","C","C","C","C","C","C","C","C","C","C","C","C","C","C","C","C","C","C","C","C","C","C","C","C","C","C","C","C","C","C","C","C","C","C","C","C","C","C","C","C","C","C","C","C","C","C","C","C","C","C","C","C","C","C","C","C","C","C","C","C","C","C","C","C","C","C","C","C","C","C","C","C","C","C","C","C","C","C","C","C","C","C","C","C","C","C","C","C","C","C","C","C","C","C","C","C","C","C","C","C","C","C","C","C","C","C","C","C","C","C","C","C","C","C","C","C","C","C","C","C","C","C","C","C","C","C","C","C","C","C","C","C","C","C","C","C","C","C","C","C","C","C","C","C","C","C","C","C","C","C","C","C","C","C","C","C","C","C","C","C","C","C","C","C","C","C","C","C","C","C","C","C","C","C","C","C","C","C","C","C","C","C","C","C","C","C","C","C","C","C","C","C","C","C","C","C","C","C","C","C","C","C","C","C","C","C","C","C","C","C","C","C","C","C","C","C","C","C","C","C","C","C","C","C","C","C","C","C","C","C","C","C","C","C","C","C","C","C","C","C","C","C","C","C","C","C","C","C","C","C","C","C","C","C","C","C","C","C","C","C","C","C","C","C","C","C","C","C","C","C","C","C","C","C","C","C","C","C","C","C","C","C","C","C","C","C","C","C","C","C","C","C","C","C","C","C","C","C","C","C","C","C","C","C","C","C","C","C","C","C","C","C","C","C","C","C","C","C","C","C","C","C","C","C","C","C","C","C","C","C","C","C","C","C","C","C","C","C","C","C","C","C","C","C","C","C","C","C","C","C","C","C","C","C","C","C","C","C","C","C","C","C","C","C","C","C","C","C","C","C","C","C","C","C","C","C","C","C","C","C","C","C","C","C","C","C","C","C","C","C","C","C","C","C","C","C","C","C","C","C","C","C","C","C","C","C","C","C","C","C","C","C","C","C","C","C","C","C","C","C","C","C","C","C","C","C","C","C","C","C","C","C","C","C","C","C","C","C","C","C","C","C","C","C","C","C","C","C","C","C","C","C","C","C","C","C","C","C","C","C","C","C","C","C","C","C","C","C","C","C","C","C","C","C","C","C","C","C","C","C","C","C","C","C","C","C","C","C","C","C","C","C","C","C","C","C","C","C","C","C","C","C","C","C","C","C","C","C","C","C","C","C","C","C","C","C","C","C","C","C","C","C","C","C","C","C","C","C","C","C","C","C","C","C","C","C","C","C","C","C","C","C","C","C","C","C","C","C","C","C","C","C","C","C","C","C","C","C","C","C","C","C","C","C","C","C","C","C","C","C","C","C","C","C","C","C","C","C","C","C","C","C","C","C","C","C","C","C","C","C","C","C","C","C","C","C","C","C","C","C","C","C","C","C","C","C","C","C","C","C","C","C","C","C","C","C","C","C","C","C","C","C","C","C","C","C","C","C","C","C","C","C","C","C","C","C","C","C","C","C","C","C","C","C","C","C","C","C","C","C","C","C","C","C","C","C","C","C","C","C","C","C","C","C","C","C","C","C","C","C","C","C","C","C","C","C","C","C","C","C","C","C","C","C","C","C","C","C","C","C","C","C","C","C","C","C","C","C","C","C","C","C","C","C","C","C","C","C","C","C","C","C","C","C","C","C","C","C","C","C","C","?","?","?","M","?","?","V","?","?","?","?","?","?","?","?","?","?","?","?","?","?","?","?","?","?","?","?","?","?","M","M","M","M","M","M","M","M","M","M","M","M","M","M","M","M","M","M","M","M","M","M","M","M","M","M","M","M","M","M","M","M","M","M","M","M","M","M","M","M","M","M","M","M","M","M","M","M","M","M","M","M","M","M","M","M","M","M","M","M","M","M","M","M","M","M","M","M","M","M","M","M","M","M","M","M","M","M","M","M","M","M","M","M","M","M","M","M","M","M","M","M","M","M","M","M","M","M","M","M","M","M","M","M","M","M","M","M","M","M","M","M","M","M","M","M","M","M","M","M","M","M","M","M","M","M","M","M","M","M","M","M","M","M","M","M","M","M","M","M","M","M","M","M","M","M","M","M","M","M","M","M","M","M","M","M","M","M","M","M","M","M","M","M","M","M","M","M","M","M","M","M","M","M","M","M","M","M","M","M","M","M","M","M","M","M","M","M","M","M","M","M","?","N","?","?","?","Y","?","?","Z","Z","Z","Z","Z","Z","Z","Z","Z","Z","Z","Z","Z","Z","Z","Z","Z","Z","Z","Z","?","?","?","?","P","P","P","P","P","P","P","P","P","P","P","P","P","P","P","P","P","P","P","P","P","P","P","P","P","P","P","P","P","P","P","P","P","P","P","P","P","P","Q","?","?","?","?","?","?","?","?","?","?","?","?","?","?","?","?","?","?","?","?","?","R","R","R","R","R","R","R","R","R","R","R","R","R","R","R","R","R","R","R","R","R","R","R","R","R","R","R","R","R","R","R","R","R","R","R","R","R","R","R","R","R","R","R","R","R","R","R","R","R","R","R","R","R","R","R","R","R","R","R","R","R","R","R","R","R","R","R","R","R","R","R","R","R","R","R","R","R","R","R","R","R","R","R","R","R","R","R","R","R","R","R","R","R","R","R","R","R","R","R","R","R","R","R","R","R","R","R","R","R","R","R","R","R","R","R","R","R","R","R","R","R","R","R","R","R","R","R","R","R","R","R","R","R","R","R","R","R","R","R","R","R","R","R","R","R","R","R","R","R","R","R","R","R","R","R","R","R","R","R","R","R","R","R","R","R","R","R","R","R","R","R","R","R","R","R","R","R","R","R","R","R","R","R","R","R","R","R","R","R","R","R","R","R","R","R","R","R","R","R","R","R","R","R","R","R","R","R","R","R","R","R","R","R","R","R","R","R","R","R","R","R","R","R","R","R","R","R","R","R","R","R","R","R","R","R","R","R","R","R","R","R","R","R","R","R","R","R","R","R","R","R","R","R","R","R","R","R","R","R","R","R","R","R","R","R","R","R","R","R","R","R","R","R","R","R","R","R","R","R","R","R","R","R","R","R","R","R","R","R","R","R","R","R","R","R","R","R","R","R","R","R","R","R","R","R","R","R","R","R","R","R","R","R","R","R","R","R","R","R","R","R","R","R","R","R","R","R","R","R","R","R","R","R","R","R","R","R","R","R","R","R","R","R","R","R","R","R","R","R","R","R","R","R","R","R","R","R","R","R","R","R","R","R","R","R","R","R","R","R","R","R","R","R","R","R","R","R","R","R","R","R","R","R","R","R","R","R","R","R","R","R","R","R","R","R","R","R","R","R","R","R","R","R","R","R","R","R","R","R","R","R","R","R","R","R","R","R","R","R","R","R","R","R","R","R","R","R","R","R","R","R","R","R","R","R","R","R","R","R","R","R","R","R","R","R","R","R","R","R","R","R","R","R","R","R","R","R","R","R","R","R","R","R","R","R","R","R","R","R","R","R","R","R","R","R","R","R","R","R","R","R","R","R","R","R","R","R","R","R","R","R","R","R","R","R","R","R","R","R","R","R","R","R","R","R","R","R","R","R","R","R","R","R","R","R","R","R","R","R","R","R","R","R","R","R","R","R","R","R","R","R","R","R","R","R","R","R","R","R","R","R","R","R","R","R","R","R","R","R","R","R","R","R","R","R","R","R","R","R","R","R","R","R","R","R","R","R","R","R","R","R","R","R","R","R","R","R","R","R","R","R","R","R","R","R","R","R","R","R","R","R","R","R","R","R","R","R","R","R","R","R","R","R","R","R","R","R","R","R","R","R","R","R","R","R","R","R","R","R","R","R","R","R","R","R","R","R","R","R","R","R","R","R","R","R","R","R","R","R","R","R","R","R","R","R","R","R","R","R","R","R","R","R","R","R","R","R","R","R","R","R","R","R","R","R","R","R","R","R","R","R","R","R","R","R","R","R","R","R","R","R","R","R","R","R","R","R","R","R","R","R","R","R","R","R","R","R","R","R","R","R","R","R","R","R","R","R","R","R","R","R","R","R","R","R","R","R","R","R","R","R","R","R","R","R","R","R","R","R","R","R","R","R","R","R","R","R","R","R","R","R","R","R","R","R","R","R","R","R","R","R","R","R","R","R","R","R","R","R","R","R","R","R","R","R","R","R","R","R","R","R","R","R","R","R","R","R","R","?","Q","Q","Q","Q","Q","Q","Q","Q","Q","Q","Q","Q","Q","Q","Q","Q","Q","Q","Q","Q","Q","Q","Q","Q","Q","Q","Q","Q","Q","Q","Q","Q","Q","Q","Q","Q","Q","Q","Q","Q","Q","Q","Q","Q","Q","Q","Q","Q","Q","Q","Q","Q","Q","Q","Q","Q","Q","Q","Q","Q","Q","Q","Q","Q","Q","Q","Q","Q","Q","Q","Q","Q","Q","Q","Q","Q","Q","Q","Q","Q","Q","Q","Q","Q","Q","Q","Q","Q","Q","Q","Q","Q","Q","Q","Q","Q","Q","Q","Q","Q","Q","Q","Q","Q","Q","Q","Q","Q","Q","Q","Q","Q","Q","Q","Q","Q","Q","Q","Q","Q","Q","Q","Q","Q","Q","Q","Q","Q","Q","Q","?","?","Y","Y","Y","Y","Y","Y","Y","Y","Y","Y","Y","Y","Y","Y","Y","Y","Y","?","?","?","?","?","?","Y","Y","Y","Y","Y","Y","Y","Y","Y","Y","Y","Y","Y","Y","Y","Y","Y","Y","Y","?","?","X","X","?","?","?","M","M","?","?","?","?","?","?","?","?","?","?","?","?","?","?","?","?","?","?","?","?","?","?","?","?","?","?","?","?","?","?","?","?","?","?","?","?","?","?","?","?","?","?","?","?","?","?","?","?","?","?","?","?","?","?","?","?","?","?","?","?","?","?","?","?","?","?","?","?","?","?","?","?","?","?","?","?","?","?","?","?","?","?","?","?","?","?","?","?","?","?","?","?","?","?","?","?","?","?","?","?","?","?","?","?","?","?","?","?","?","?","?","?","?","?","?","?","?","?","?","?","?","?","?","?","?","?","?","?","?","?","?","?","?","?","?","?","?","?","?","?","L","L","L","L","L","L","L","L","L","L","L","L","L","L","L","L","L","L","L","L","L","L","L","L","L","L","L","L","L","L","L","L","L","L","L","L","L","L","L","L","L","L","L","L","L","L","L","L","L","L","L","L","L","L","L","L","L","L","L","L","L","L","L","L","L","L","L","L","L","L","L","L","L","L","L","L","L","L","L","L","L","L","L","L","L","L","L","L","L","L","L","L","L","L","L","L","L","L","L","L","L","L","L","L","L","L","L","L","L","L","L","L","L","L","L","L","L","L","L","L","L","L","L","L","L","L","L","L","L","L","L","L","L","L","L","L","L","L","L","L","L","L","L","L","L","L","L","L","L","L","L","L","L","L","L","L","L","L","L","L","L","L","L","L","L","L","L","L","L","L","L","L","L","L","L","L","L","L","L","L","L","L","L","L","L","L","L","L","L","L","L","L","L","L","L","L","L","L","L","L","L","L","L","L","L","L","L","L","L","L","L","L","L","L","L","L","L","L","?","?","?","?","?","?","?","?","?","?","?","?","?","?","?","?","?","?","?","S","S","S","S","S","S","S","S","S","S","S","S","S","S","S","S","S","S","S","S","S","S","S","S","S","S","S","S","S","S","S","S","S","S","S","S","S","S","S","S","S","S","S","S","S","S","S","S","S","S","S","S","S","S","S","S","S","S","S","S","S","S","S","S","S","S","S","S","S","S","S","S","S","S","S","S","S","S","S","S","S","S","S","S","S","S","S","S","S","S","S","S","S","S","S","S","S","S","S","S","S","S","S","S","S","S","S","S","S","S","S","T","U","U","V","?","?","?","?","?","?","?","?","?","?","?","?","?","?","?","?","?","?","?","?","?","?","?","?","?","?","?","?","?","?","?","?","?","?","?","?","?","?","?","W","W","M","?","?","?","B","B","B","B","B","B","B","B","B","B","?","?","?","?","?","?","?","?","?","?","?","?","A","A","A","A","A","A","A","A","A","A","A","A","A","A","A","A","A","A","A","A","A","A","A","A","A","A","A","A","A","A","A","A","A","A","A","A","A","A","A","A","A","A","A","A","A","A","A","A","A","A","A","A","A","A","A","A","A","A","A","A","A","A","A","A","A","A","A","A","A","A","A","A","A","A","A","A","A","A","A","A","A","A","A","A","A","A","A","A","A","A","A","A","A","A","A","A","A","A","A","A","A","A","A","A","A","A","A","A","A","A","A","A","A","A","A","A","A","A","A","A","A","A","A","A","A","A","A","A","A","A","A","?","?","?","K","?","?","?","U","?","?","?","?","?","?","?","?","?","?","?","?","?","?","?","?","?","?","?","?","?","?","?","?","?","?","Y","Y","Y","Y","Y","Y","Y","Y","Y","Y","Y","Y","?","Z","Z","Z","Z","Z","Z","Z","Z","Z","Z","Z","Z","Z","Z","Z","Z","Z","Z","Z","Z","Z","Z","Z","Z","Z","Z","Z","Z","Z","Z","Z","Z","Z","Z","Z","Z","Z","Z","Z","Z","Z","Z","Z","Z","Z","Z","Z","Z","Z","Z","Z","Z","Z","Z","Z","Z","?","?","?","?","O","N","?","?","?","?","?","?","?","?","C","C","C","C","C","C","C","C","C","C","C","C","?","D","D","D","D","D","?","?","?","?","?","?","?","?","?","?","?","E","E","E","E","E","E","E","E","E","E","E","E","E","E","E","E","E","E","E","E","E","E","E","E","E","D","D","C","C","C","?","B","B","B","B","B","B","?","?","?","?","?","?","?","?","?","?","?","?","?","?","B","B","B","B","B","B","B","B","B","B","B","B","B","B","B","B","B","B","B","B","B","B","B","B","B","B","B","B","B","B","B","B","B","B","B","?","?","?","?","?","?","K","K","K","K","K","K","K","K","K","K","K","K","K","K","K","K","K","K","K","K","K","K","K","K","K","K","K","K","K","K","K","K","K","K","K","K","K","K","K","K","K","K","K","K","K","K","K","K","K","K","K","K","K","K","K","K","K","K","K","K","K","K","K","K","K","K","K","K","K","K","K","K","K","K","K","K","K","K","K","K","K","K","K","K","K","K","K","K","K","K","K","K","K","K","K","K","K","K","K","K","K","K","K","K","K","K","K","K","K","K"],"t":[46,51,78,94,111,129,148,163,179,195,211,229,245,262,279,295,313,330,347,363,379,396,413,429,446,463,479,495,512,529,545,563,579,594,612,629,646,662,679,696,712,729,746,763,779,796,813,830,846,862,879,896,913,928,946,963,979,996,1013,1029,1046,1062,1079,1096,1112,1130,1146,1163,1180,1196,1213,1230,1246,1263,1279,1296,1313,1330,1346,1363,1379,1396,1412,1429,1446,1463,1480,1494,1511,1528,1545,1562,1579,1595,1613,1630,1646,1663,1679,1696,1712,1729,1746,1762,1779,1796,1813,1829,1845,1862,1880,1895,1912,1929,1946,1962,1979,1996,2012,2029,2046,2062,2079,2095,2112,2129,2145,2162,2180,2195,2212,2228,2245,2263,2280,2296,2312,2329,2345,2363,2379,2396,2412,2429,2445,2462,2480,2496,2513,2529,2545,2562,2578,2595,2612,2629,2645,2661,2679,2695,2712,2728,2745,2762,2778,2795,2813,2829,2845,2861,2879,2895,2911,2929,2944,2960,2977,2995,3011,3028,3044,3061,3077,3094,3111,3127,3144,3161,3178,3198,3211,3227,3245,3261,3278,3294,3311,3327,3345,3361,3378,3395,3413,3431,3446,3463,3479,3495,3512,3529,3546,3563,3580,3595,3612,3629,3645,3662,3679,3696,3713,3728,3745,3762,3778,3795,3813,3828,3845,3861,3878,3895,3911,3927,3945,3962,3979,3995,4012,4028,4045,4062,4079,4094,4111,4128,4144,4162,4178,4194,4211,4228,4245,4261,4281,4295,4311,4328,4346,4362,4379,4395,4412,4429,4446,4463,4479,4496,4513,4530,4546,4563,4579,4596,4612,4630,4645,4662,4678,4694,4712,4729,4745,4763,4779,4795,4813,4829,4845,4863,4879,4895,4912,4929,4945,4962,4978,4995,5012,5029,5046,5063,5079,5096,5112,5130,5146,5163,5179,5196,5213,5229,5245,5263,5279,5296,5312,5329,5346,5363,5378,5394,5412,5429,5445,5462,5480,5494,5511,5529,5544,5562,5579,5595,5612,5627,5644,5662,5679,5695,5712,5729,5746,5762,5779,5795,5812,5829,5846,5861,5879,5896,5913,5929,5945,5962,5979,5996,6013,6029,6046,6062,6079,6095,6112,6128,6145,6162,6179,6196,6212,6230,6245,6263,6280,6296,6312,6328,6346,6364,6379,6396,6412,6429,6445,6462,6479,6495,6512,6529,6546,6563,6579,6595,6611,6627,6644,6661,6677,6694,6710,6727,6744,6760,6777,6794,6810,6827,6846,6862,6879,6895,6912,6930,6946,6963,6977,6994,7011,7028,7046,7063,7079,7094,7110,7128,7144,7162,7180,7195,7213,7229,7245,7263,7278,7295,7312,7329,7346,7362,7379,7396,7413,7429,7445,7462,7479,7495,7513,7529,7545,7563,7579,7595,7612,7629,7645,7663,7679,7695,7712,7729,7746,7762,7779,7795,7812,7829,7845,7863,7879,7896,7913,7929,7945,7961,7979,7995,8012,8029,8045,8063,8079,8095,8112,8129,8144,8161,8178,8195,8212,8229,8245,8262,8279,8296,8312,8328,8345,8363,8379,8395,8413,8429,8446,8462,8479,8495,8513,8529,8545,8562,8579,8594,8611,8629,8646,8662,8679,8695,8712,8729,8745,8762,8777,8794,8812,8829,8845,8862,8879,8896,8911,8930,8946,8963,8979,8995,9012,9029,9045,9062,9079,9095,9112,9129,9145,9162,9179,9196,9212,9229,9245,9263,9279,9296,9313,9328,9345,9362,9379,9395,9413,9429,9445,9462,9478,9494,9512,9529,9545,9563,9578,9594,9611,9629,9645,9662,9679,9695,9712,9729,9745,9762,9779,9795,9812,9829,9845,9862,9879,9895,9912,9929,9945,9962,9979,9995,10012,10028,10045,10062,10079,10096,10112,10129,10145,10163,10179,10195,10212,10228,10245,10263,10279,10296,10313,10329,10346,10362,10379,10396,10411,10428,10445,10463,10478,10495,10513,10529,10544,10560,10577,10594,10610,10627,10646,10661,10677,10695,10712,10729,10746,10763,10779,10795,10813,10829,10845,10862,10879,10895,10912,10929,10945,10962,10979,10995,11010,11027,11044,11062,11079,11095,11112,11129,11145,11162,11179,11195,11212,11228,11244,11262,11279,11295,11312,11329,11345,11362,11379,11396,11413,11428,11445,11463,11479,11495,11513,11529,11545,11562,11579,11596,11612,11629,11645,11661,11678,11696,11712,11729,11745,11762,11779,11795,11811,11828,11845,11862,11879,11895,11912,11929,11945,11962,11979,11995,12012,12029,12045,12061,12079,12095,12112,12129,12145,12162,12179,12196,12212,12229,12245,12263,12279,12296,12313,12329,12344,12361,12379,12395,12412,12429,12445,12462,12479,12495,12512,12529,12545,12562,12578,12595,12611,12629,12646,12662,12679,12696,12713,12729,12745,12762,12779,12795,12812,12827,12844,12860,12877,12894,12910,12927,12944,12961,12977,12995,13013,13028,13045,13062,13079,13093,13111,13127,13145,13162,13179,13195,13213,13229,13245,13262,13279,13295,13312,13329,13345,13361,13379,13395,13412,13429,13445,13462,13478,13495,13512,13528,13544,13562,13578,13595,13612,13628,13645,13662,13678,13694,13711,13728,13745,13761,13778,13795,13811,13828,13845,13861,13878,13896,13912,13928,13944,13961,13979,13995,14012,14029,14045,14062,14078,14095,14111,14129,14145,14162,14178,14196,14212,14228,14245,14262,14279,14296,14312,14329,14346,14363,14379,14395,14412,14428,14445,14462,14477,14494,14511,14528,14545,14562,14579,14595,14612,14628,14645,14662,14679,14695,14712,14728,14745,14762,14778,14795,14811,14827,14844,14862,14879,14895,14912,14928,14944,14961,14978,14995,15012,15027,15044,15060,15077,15094,15112,15129,15144,15161,15179,15195,15212,15231,15244,15262,15278,15294,15312,15327,15344,15361,15378,15396,15411,15428,15445,15463,15479,15494,15512,15527,15544,15560,15578,15594,15611,15628,15645,15663,15679,15696,15711,15729,15745,15762,15779,15795,15812,15828,15845,15861,15878,15895,15912,15928,15945,15962,15979,15995,16012,16028,16045,16062,16079,16095,16112,16129,16144,16161,16178,16195,16212,16230,16245,16262,16279,16294,16312,16329,16345,16361,16379,16395,16412,16429,16445,16463,16478,16495,16512,16527,16544,16561,16579,16595,16612,16629,16645,16662,16679,16695,16712,16729,16746,16761,16778,16795,16812,16828,16844,16861,16878,16895,16912,16929,16945,16961,16977,16994,17012,17028,17045,17062,17078,17096,17112,17129,17145,17161,17178,17194,17211,17228,17245,17262,17278,17295,17310,17327,17344,17360,17377,17394,17412,17429,17444,17463,17479,17495,17512,17529,17545,17562,17579,17595,17611,17628,17645,17662,17678,17695,17712,17727,17743,17761,17779,17794,17812,17828,17845,17862,17878,17895,17912,17928,17945,17962,17978,17995,18010,18027,18044,18061,18078,18095,18113,18129,18145,18162,18179,18195,18212,18228,18244,18262,18279,18295,18312,18329,18346,18362,18378,18395,18412,18429,18444,18462,18477,18494,18511,18529,18545,18561,18577,18594,18611,18628,18644,18661,18678,18694,18711,18728,18745,18761,18778,18795,18811,18829,18845,18862,18878,18895,18912,18928,18944,18961,18979,18995,19012,19029,19045,19060,19077,19094,19111,19129,19145,19163,19179,19195,19212,19230,19245,19262,19279,19295,19310,19327,19345,19362,19379,19395,19412,19427,19444,19462,19479,19495,19512,19529,19545,19562,19579,19595,19611,19628,19645,19662,19678,19695,19712,19729,19745,19762,19778,19795,19812,19829,19845,19862,19878,19895,19912,19928,19945,19962,19978,19995,20012,20029,20045,20062,20078,20095,20112,20129,20145,20162,20179,20195,20212,20229,20243,20260,20277,20296,20311,20328,20344,20361,20378,20395,20412,20429,20445,20462,20478,20495,20512,20527,20543,20560,20578,20595,20612,20629,20645,20662,20678,20695,20712,20729,20745,20762,20779,20795,20812,20828,20845,20862,20877,20894,20911,20928,20945,20961,20978,20995,21012,21028,21045,21061,21078,21095,21111,21127,21144,21161,21177,21195,21212,21230,21244,21261,21278,21295,21312,21329,21345,21361,21378,21394,21411,21428,21446,21462,21479,21495,21512,21529,21544,21562,21579,21595,21611,21628,21645,21661,21678,21695,21711,21728,21745,21762,21778,21795,21811,21828,21845,21862,21877,21895,21912,21928,21945,21962,21979,21995,22011,22028,22045,22062,22079,22094,22111,22127,22145,22161,22179,22195,22211,22228,22244,22262,22278,22295,22311,22329,22345,22362,22379,22395,22412,22429,22445,22462,22479,22495,22512,22529,22545,22561,22578,22595,22611,22628,22645,22662,22679,22695,22711,22728,22745,22762,22778,22795,22812,22829,22845,22862,22878,22895,22912,22929,22945,22961,22978,22995,23012,23027,23044,23060,23077,23094,23110,23127,23144,23162,23178,23195,23210,23227,23244,23260,23277,23293,23310,23328,23345,23362,23378,23395,23411,23428,23443,23461,23478,23496,23511,23529,23544,23560,23578,23595,23612,23629,23645,23660,23677,23693,23711,23729,23745,23762,23778,23795,23812,23827,23846,23862,23878,23895,23911,23928,23945,23962,23977,23993,24011,24029,24045,24062,24078,24095,24112,24128,24145,24162,24179,24195,24212,24229,24245,24262,24279,24295,24311,24329,24343,24361,24379,24394,24412,24429,24444,24461,24479,24495,24512,24529,24544,24560,24577,24594,24612,24628,24645,24662,24679,24695,24711,24728,24745,24762,24778,24795,24812,24829,24845,24862,24878,24895,24912,24928,24945,24962,24978,24995,25011,25028,25045,25061,25078,25095,25112,25128,25145,25160,25177,25194,25211,25229,25245,25262,25279,25295,25312,25328,25344,25362,25378,25394,25411,25428,25445,25462,25479,25495,25512,25528,25543,25562,25577,25594,25611,25629,25645,25662,25678,25695,25711,25729,25746,25762,25778,25795,25812,25828,25844,25861,25878,25895,25912,25929,25945,25962,25977,25994,26012,26028,26045,26061,26078,26094,26112,26128,26145,26161,26178,26195,26212,26228,26245,26262,26279,26295,26311,26329,26345,26361,26378,26395,26411,26428,26445,26462,26478,26495,26512,26528,26545,26561,26578,26593,26610,26628,26645,26662,26677,26695,26712,26728,26745,26762,26778,26794,26811,26828,26845,26862,26879,26895,26912,26928,26945,26962,26978,26995,27012,27028,27045,27061,27078,27095,27110,27127,27143,27161,27178,27195,27211,27228,27245,27261,27279,27295,27312,27329,27345,27362,27378,27395,27412,27428,27445,27462,27478,27495,27512,27528,27545,27562,27578,27593,27610,27627,27644,27661,27678,27695,27712,27728,27745,27761,27778,27795,27812,27828,27845,27862,27878,27895,27912,27928,27945,27962,27978,27995,28014,28028,28045,28062,28078,28093,28111,28127,28144,28161,28179,28194,28212,28229,28245,28262,28279,28295,28312,28328,28345,28361,28378,28395,28411,28428,28444,28461,28478,28495,28512,28528,28545,28561,28578,28593,28610,28627,28645,28662,28678,28695,28712,28728,28745,28761,28778,28795,28812,28828,28845,28862,28879,28895,28912,28928,28945,28962,28978,28993,29011,29027,29045,29062,29078,29095,29112,29128,29145,29162,29179,29195,29212,29228,29245,29261,29278,29295,29311,29328,29345,29361,29378,29394,29412,29428,29445,29461,29478,29495,29512,29528,29545,29562,29578,29594,29610,29628,29645,29662,29679,29695,29712,29728,29746,29761,29778,29795,29812,29828,29844,29860,29878,29894,29911,29928,29944,29961,29977,29994,30011,30027,30044,30061,30078,30094,30111,30128,30145,30162,30178,30195,30212,30228,30245,30262,30279,30294,30310,30327,30345,30362,30378,30395,30412,30427,30444,30460,30477,30494,30510,30526,30544,30562,30577,30594,30610,30627,30643,30660,30676,30694,30711,30727,30745,30762,30779,30795,30812,30829,30845,30862,30878,30893,30910,30928,30944,30961,30978,30995,31011,31028,31045,31061,31078,31095,31112,31128,31143,31160,31177,31195,31212,31228,31245,31261,31278,31295,31312,31329,31345,31361,31378,31394,31411,31428,31444,31461,31478,31495,31511,31528,31545,31561,31579,31594,31611,31627,31644,31661,31678,31695,31711,31727,31744,31762,31778,31795,31812,31828,31845,31862,31878,31895,31912,31928,31945,31962,31978,31995,32012,32028,32045,32062,32078,32095,32111,32128,32145,32161,32179,32195,32212,32230,32245,32261,32279,32295,32312,32329,32344,32362,32378,32395,32412,32427,32444,32461,32480,32496,32512,32527,32543,32561,32578,32595,32609,32627,32645,32662,32678,32695,32711,32728,32745,32761,32777,32794,32810,32827,32844,32861,32878,32895,32912,32928,32945,32962,32977,32993,33010,33027,33044,33061,33079,33094,33111,33129,33145,33162,33178,33195,33212,33227,33244,33261,33278,33295,33312,33329,33345,33361,33379,33394,33412,33427,33444,33462,33478,33495,33512,33529,33545,33562,33578,33595,33611,33628,33643,33661,33678,33694,33711,33729,33745,33762,33779,33795,33811,33828,33845,33862,33879,33895,33912,33928,33945,33961,33978,33995,34012,34026,34044,34062,34078,34094,34112,34128,34144,34161,34176,34193,34211,34227,34243,34261,34279,34295,34312,34328,34345,34362,34378,34394,34412,34428,34445,34462,34478,34495,34512,34528,34545,34562,34578,34595,34611,34628,34643,34661,34678,34695,34711,34728,34744,34762,34778,34795,34811,34828,34845,34861,34878,34895,34912,34928,34945,34962,34978,34993,35011,35028,35045,35062,35078,35094,35112,35128,35145,35160,35176,35194,35211,35228,35244,35262,35279,35293,35311,35328,35345,35362,35378,35395,35412,35428,35445,35462,35479,35495,35509,35527,35543,35561,35578,35595,35611,35627,35644,35659,35677,35695,35711,35728,35744,35761,35778,35794,35810,35827,35844,35861,35878,35895,35911,35928,35944,35962,35978,35995,36011,36030,36044,36062,36078,36095,36112,36128,36145,36162,36178,36195,36212,36228,36243,36261,36277,36294,36311,36328,36344,36361,36378,36394,36412,36428,36444,36462,36479,36493,36510,36528,36545,36561,36578,36594,36612,36628,36644,36660,36677,36694,36711,36728,36744,36761,36777,36794,36811,36827,36844,36860,36877,36894,36911,36928,36944,36962,36978,36995,37011,37029,37045,37060,37077,37094,37110,37127,37144,37161,37177,37194,37211,37227,37243,37260,37277,37293,37310,37327,37344,37361,37378,37395,37411,37427,37444,37460,37477,37494,37510,37527,37545,37561,37578,37595,37611,37628,37645,37661,37678,37693,37710,37727,37744,37763,37777,37796,37812,37828,37845,37861,37878,37894,37912,37928,37944,37960,37977,37993,38011,38028,38045,38062,38078,38094,38111,38128,38145,38161,38178,38195,38212,38229,38244,38261,38277,38295,38311,38328,38345,38362,38378,38395,38412,38428,38444,38461,38478,38495,38512,38528,38544,38561,38578,38595,38612,38628,38645,38661,38677,38693,38710,38727,38744,38761,38778,38795,38811,38828,38844,38861,38878,38895,38911,38928,38945,38961,38977,38994,39011,39028,39043,39060,39078,39093,39110,39128,39144,39161,39178,39193,39209,39226,39244,39262,39278,39295,39311,39328,39344,39360,39378,39394,39412,39428,39445,39460,39478,39495,39512,39529,39545,39560,39576,39594,39611,39628,39643,39660,39677,39695,39709,39727,39744,39761,39778,39795,39811,39828,39844,39862,39878,39894,39911,39928,39944,39962,39978,39995,40011,40028,40044,40061,40078,40095,40111,40128,40145,40161,40178,40195,40211,40228,40244,40262,40278,40295,40312,40328,40344,40361,40378,40395,40410,40427,40443,40461,40477,40495,40512,40528,40543,40560,40577,40594,40611,40628,40645,40662,40678,40695,40710,40727,40744,40761,40778,40795,40811,40828,40844,40860,40878,40895,40911,40927,40944,40960,40977,40994,41011,41027,41044,41061,41078,41094,41111,41128,41145,41161,41178,41195,41212,41228,41245,41262,41278,41295,41311,41328,41344,41361,41378,41394,41412,41428,41445,41461,41478,41495,41511,41527,41544,41561,41578,41594,41611,41627,41645,41661,41677,41694,41710,41726,41743,41761,41778,41794,41810,41827,41844,41861,41877,41894,41911,41927,41944,41960,41977,41994,42010,42027,42044,42061,42077,42094,42110,42127,42145,42161,42177,42194,42211,42229,42245,42262,42278,42293,42311,42328,42345,42361,42377,42395,42410,42428,42445,42463,42477,42495,42512,42529,42544,42562,42578,42595,42612,42628,42645,42662,42679,42695,42712,42729,42744,42761,42778,42795,42812,42828,42845,42862,42878,42895,42911,42928,42945,42962,42978,42994,43010,43027,43044,43062,43078,43095,43112,43129,43145,43162,43178,43194,43212,43226,43243,43260,43277,43295,43312,43329,43345,43362,43378,43395,43412,43428,43443,43461,43478,43495,43512,43528,43544,43562,43578,43595,43611,43628,43645,43662,43678,43695,43712,43729,43743,43761,43778,43795,43811,43828,43844,43862,43878,43895,43911,43928,43945,43962,43978,43995,44011,44028,44046,44060,44078,44095,44112,44128,44145,44161,44178,44195,44212,44229,44245,44261,44278,44295,44312,44328,44345,44362,44379,44395,44412,44428,44445,44462,44478,44495,44512,44528,44545,44561,44577,44595,44611,44628,44645,44662,44678,44696,44712,44728,44743,44761,44778,44794,44811,44827,44845,44862,44878,44895,44912,44928,44945,44962,44979,44995,45012,45029,45045,45062,45078,45094,45112,45128,45144,45162,45178,45195,45211,45228,45245,45262,45278,45295,45312,45328,45345,45362,45378,45395,45411,45429,45445,45460,45477,45493,45513,45526,45544,45561,45578,45595,45611,45628,45643,45660,45679,45695,45711,45728,45743,45761,45778,45795,45812,45828,45845,45861,45878,45895,45912,45929,45945,45962,45978,45995,46011,46029,46045,46062,46078,46095,46111,46129,46144,46162,46179,46195,46212,46229,46245,46262,46279,46294,46312,46328,46345,46362,46378,46393,46411,46428,46445,46460,46477,46495,46511,46528,46545,46562,46578,46594,46612,46628,46643,46661,46678,46695,46712,46728,46745,46760,46777,46795,46811,46828,46845,46861,46878,46895,46911,46928,46945,46962,46978,46995,47011,47028,47045,47062,47078,47095,47112,47128,47145,47162,47178,47194,47211,47229,47245,47260,47277,47294,47310,47328,47345,47362,47378,47395,47412,47428,47445,47461,47478,47495,47512,47528,47545,47561,47578,47594,47611,47628,47645,47661,47679,47696,47711,47729,47745,47761,47777,47794,47811,47828,47845,47862,47878,47895,47912,47927,47944,47960,47977,47994,48012,48028,48045,48062,48078,48094,48110,48128,48145,48162,48178,48195,48212,48228,48244,48262,48278,48295,48312,48328,48344,48361,48378,48395,48411,48428,48445,48461,48478,48494,48511,48528,48545,48562,48579,48595,48611,48628,48645,48662,48678,48695,48712,48728,48744,48760,48777,48794,48811,48828,48844,48861,48878,48895,48911,48927,48944,48961,48978,48995,49011,49028,49045,49061,49076,49094,49111,49128,49145,49162,49178,49195,49211,49228,49245,49262,49278,49295,49312,49328,49345,49361,49378,49394,49411,49428,49444,49462,49478,49495,49511,49528,49544,49561,49578,49595,49612,49628,49645,49661,49677,49694,49711,49728,49743,49761,49776,49794,49812,49828,49845,49861,49878,49894,49911,49928,49945,49961,49978,49995,50011,50028,50045,50062,50079,50095,50112,50128,50145,50161,50178,50195,50211,50229,50246,50262,50277,50293,50310,50327,50343,50363,50377,50394,50411,50428,50445,50461,50479,50495,50512,50528,50544,50561,50578,50595,50611,50628,50645,50661,50678,50694,50712,50728,50744,50761,50777,50793,50811,50828,50845,50862,50878,50895,50912,50928,50945,50959,50976,50993,51011,51028,51044,51062,51078,51095,51112,51128,51144,51161,51178,51194,51211,51227,51244,51261,51277,51293,51309,51327,51344,51361,51377,51394,51411,51429,51445,51461,51478,51494,51512,51528,51544,51561,51578,51595,51611,51628,51645,51661,51679,51694,51712,51728,51745,51761,51778,51794,51810,51827,51843,51861,51878,51894,51912,51928,51945,51962,51978,51995,52012,52028,52044,52061,52078,52094,52109,52127,52145,52161,52178,52193,52211,52228,52245,52262,52278,52294,52311,52328,52344,52361,52378,52395,52412,52428,52445,52461,52478,52494,52511,52527,52544,52561,52578,52594,52612,52628,52645,52661,52678,52695,52711,52727,52745,52761,52777,52795,52809,52827,52844,52861,52878,52894,52911,52928,52944,52961,52978,52995,53010,53027,53044,53061,53078,53095,53111,53127,53143,53160,53177,53195,53211,53228,53243,53261,53278,53294,53311,53328,53344,53361,53378,53395,53411,53428,53445,53461,53478,53495,53512,53529,53545,53560,53578,53595,53610,53628,53644,53661,53678,53695,53711,53728,53745,53761,53778,53794,53809,53827,53843,53860,53878,53894,53911,53928,53944,53961,53978,53994,54011,54028,54045,54061,54078,54094,54111,54127,54144,54161,54178,54194,54211,54228,54245,54262,54278,54295,54311,54328,54345,54362,54377,54394,54411,54428,54445,54462,54478,54495,54511,54528,54544,54563,54578,54595,54610,54628,54644,54660,54677,54694,54711,54729,54744,54761,54777,54794,54811,54828,54844,54862,54877,54894,54912,54927,54944,54961,54978,54994,55011,55028,55044,55061,55078,55094,55111,55128,55146,55161,55178,55195,55211,55228,55243,55262,55278,55296,55310,55326,55344,55361,55377,55395,55412,55426,55444,55461,55478,55494,55511,55527,55545,55561,55577,55594,55611,55628,55645,55661,55677,55693,55711,55728,55745,55762,55777,55796,55811,55828,55845,55861,55878,55895,55911,55928,55944,55961,55978,55995,56011,56028,56044,56061,56076,56094,56111,56127,56144,56160,56176,56193,56210,56227,56243,56260,56276,56293,56310,56328,56344,56360,56378,56395,56411,56428,56444,56461,56478,56495,56511,56528,56545,56561,56578,56594,56611,56628,56644,56661,56677,56694,56711,56728,56745,56761,56778,56795,56812,56828,56844,56862,56878,56894,56910,56927,56944,56961,56978,56994,57010,57027,57044,57061,57078,57094,57110,57127,57143,57161,57177,57194,57211,57227,57246,57262,57278,57295,57311,57328,57344,57361,57378,57395,57413,57426,57444,57461,57478,57495,57510,57527,57544,57561,57578,57594,57612,57627,57644,57661,57677,57694,57711,57728,57743,57760,57777,57794,57811,57828,57844,57860,57877,57894,57911,57927,57944,57961,57977,57995,58011,58027,58045,58061,58078,58094,58111,58128,58145,58161,58178,58195,58211,58228,58245,58261,58278,58295,58311,58327,58345,58361,58378,58394,58411,58427,58445,58461,58478,58495,58512,58528,58545,58561,58578,58595,58610,58627,58644,58661,58678,58695,58711,58728,58744,58760,58777,58794,58811,58828,58845,58861,58878,58894,58911,58928,58945,58962,58978,58995,59011,59028,59044,59061,59078,59095,59111,59126,59143,59162,59178,59194,59211,59227,59245,59261,59278,59295,59311,59326,59343,59360,59376,59393,59410,59428,59444,59462,59476,59495,59511,59528,59545,59561,59576,59594,59611,59628,59644,59662,59678,59694,59711,59728,59744,59761,59777,59795,59811,59828,59845,59861,59878,59894,59911,59928,59944,59961,59977,59994,60011,60028,60044,60061,60078,60094,60111,60128,60145,60160,60178,60194,60211,60226,60243,60260,60277,60294,60310,60327,60344,60362,60378,60393,60411,60428,60444,60461,60477,60494,60511,60526,60544,60561,60577,60595,60611,60628,60643,60661,60678,60695,60711,60727,60745,60762,60778,60795,60811,60828,60845,60861,60878,60895,60912,60928,60945,60961,60977,60994,61011,61027,61042,61059,61076,61093,61110,61127,61144,61161,61178,61195,61209,61228,61244,61262,61278,61294,61311,61328,61345,61361,61377,61395,61412,61427,61444,61461,61478,61495,61511,61528,61544,61560,61577,61594,61612,61628,61645,61661,61678,61695,61711,61728,61744,61761,61779,61793,61810,61827,61844,61860,61878,61894,61911,61928,61944,61961,61978,61995,62011,62027,62044,62061,62078,62095,62111,62127,62145,62161,62178,62195,62211,62227,62244,62261,62277,62294,62311,62328,62344,62361,62377,62395,62411,62428,62443,62460,62477,62494,62511,62528,62545,62561,62578,62593,62611,62627,62644,62661,62678,62695,62711,62726,62744,62760,62777,62794,62812,62827,62844,62861,62878,62894,62912,62928,62944,62961,62977,62995,63011,63028,63044,63061,63078,63094,63111,63128,63144,63161,63177,63194,63211,63227,63245,63260,63278,63295,63311,63328,63345,63359,63376,63393,63411,63427,63444,63461,63478,63495,63511,63528,63544,63561,63577,63595,63611,63628,63644,63660,63676,63694,63711,63728,63746,63761,63778,63794,63811,63828,63845,63861,63877,63894,63911,63927,63944,63960,63977,63994,64011,64028,64045,64061,64077,64094,64111,64127,64144,64159,64177,64193,64210,64228,64244,64260,64278,64294,64310,64327,64345,64361,64377,64394,64411,64427,64444,64461,64477,64494,64511,64528,64543,64561,64578,64594,64611,64627,64644,64661,64677,64694,64710,64728,64745,64761,64778,64794,64811,64828,64845,64861,64878,64894,64911,64926,64943,64961,64977,64994,65011,65026,65043,65059,65076,65093,65109,65129,65143,65159,65176,65193,65210,65226,65244,65261,65276,65294,65310,65327,65343,65361,65378,65395,65411,65428,65445,65461,65477,65494,65511,65528,65544,65561,65578,65594,65611,65628,65644,65661,65677,65693,65709,65727,65744,65759,65776,65794,65810,65827,65844,65860,65876,65895,65911,65927,65943,65961,65977,65993,66010,66027,66043,66060,66076,66093,66109,66126,66143,66161,66177,66194,66210,66226,66244,66261,66276,66294,66311,66328,66344,66361,66377,66395,66411,66428,66443,66461,66477,66494,66511,66527,66544,66561,66577,66594,66611,66628,66645,66662,66677,66694,66711,66727,66744,66761,66777,66794,66811,66828,66844,66860,66877,66894,66911,66927,66943,66961,66977,66994,67010,67027,67043,67061,67077,67094,67111,67128,67143,67161,67177,67195,67212,67229,67244,67260,67277,67294,67311,67328,67344,67361,67377,67392,67410,67427,67444,67461,67477,67495,67510,67528,67543,67560,67577,67594,67611,67627,67645,67661,67677,67694,67710,67727,67744,67760,67776,67794,67810,67827,67844,67861,67877,67894,67911,67928,67944,67961,67978,67994,68010,68028,68044,68061,68078,68093,68109,68126,68144,68160,68177,68195,68211,68227,68246,68260,68277,68294,68311,68328,68344,68361,68377,68395,68411,68427,68444,68460,68477,68494,68511,68527,68543,68560,68576,68593,68611,68628,68645,68661,68677,68694,68710,68727,68744,68761,68778,68794,68810,68827,68844,68861,68877,68894,68911,68927,68944,68961,68977,68995,69012,69028,69044,69061,69078,69093,69111,69128,69144,69159,69176,69193,69211,69228,69244,69261,69277,69295,69311,69327,69344,69360,69377,69394,69410,69427,69444,69461,69478,69494,69510,69527,69544,69561,69577,69594,69610,69627,69644,69661,69677,69694,69710,69727,69744,69761,69777,69794,69811,69827,69844,69860,69878,69894,69911,69927,69943,69960,69976,69993,70011,70027,70044,70061,70077,70094,70111,70127,70144,70161,70177,70193,70211,70226,70243,70261,70277,70294,70311,70327,70344,70360,70377,70394,70411,70427,70444,70461,70478,70495,70511,70527,70544,70561,70577,70594,70611,70627,70644,70661,70678,70694,70711,70726,70743,70761,70778,70797,70810,70827,70844,70861,70877,70894,70910,70927,70944,70961,70978,70994,71011,71028,71042,71060,71077,71094,71111,71128,71144,71161,71177,71194,71210,71227,71244,71261,71277,71295,71310,71327,71344,71362,71378,71394,71410,71426,71443,71460,71477,71494,71511,71527,71544,71560,71577,71594,71611,71627,71644,71660,71677,71694,71711,71727,71744,71760,71777,71794,71810,71827,71843,71860,71877,71894,71911,71927,71944,71960,71977,71994,72011,72027,72044,72061,72078,72097,72111,72127,72145,72162,72177,72194,72210,72226,72243,72260,72277,72294,72310,72327,72344,72361,72377,72393,72410,72427,72444,72461,72477,72494,72510,72527,72544,72560,72577,72594,72611,72628,72644,72661,72676,72694,72711,72728,72744,72761,72777,72793,72810,72827,72843,72861,72877,72894,72910,72927,72944,72960,72977,72993,73010,73025,73043,73059,73076,73093,73109,73126,73143,73159,73177,73196,73210,73227,73244,73261,73282,73293,73311,73327,73344,73360,73377,73393,73410,73428,73444,73460,73477,73493,73509,73526,73544,73561,73578,73594,73610,73628,73644,73661,73677,73694,73711,73728,73745,73761,73778,73794,73810,73828,73844,73860,73877,73894,73911,73928,73944,73961,73978,73995,74011,74028,74044,74061,74077,74095,74111,74127,74144,74161,74175,74195,74211,74229,74244,74261,74278,74295,74310,74327,74344,74361,74377,74395,74410,74428,74442,74459,74476,74493,74511,74528,74544,74561,74577,74594,74611,74627,74644,74661,74677,74694,74711,74727,74743,74761,74777,74795,74811,74828,74844,74861,74878,74894,74911,74928,74944,74961,74977,74994,75011,75026,75043,75060,75077,75095,75111,75126,75145,75161,75177,75194,75211,75227,75244,75261,75278,75298],"hit":[null],"x":[-1.6054421768707483,-1.6054421768707483,0.034013605442176874,0.034013605442176874,0.03741496598639456,0.04081632653061224,0.04081632653061224,0.04421768707482993,0.047619047619047616,0.05442176870748299,0.061224489795918366,0.07142857142857142,0.0782312925170068,0.08503401360544217,0.08843537414965986,0.08843537414965986,0.08843537414965986,0.08843537414965986,0.08843537414965986,0.08843537414965986,0.08843537414965986,0.08843537414965986,0.08843537414965986,0.08843537414965986,0.08843537414965986,0.08843537414965986,0.08843537414965986,0.08843537414965986,0.08843537414965986,0.08843537414965986,0.08843537414965986,0.08843537414965986,0.08843537414965986,0.08843537414965986,0.08843537414965986,0.08843537414965986,0.08843537414965986,0.08843537414965986,0.08843537414965986,0.08843537414965986,0.08843537414965986,0.08843537414965986,0.08843537414965986,0.08843537414965986,0.08843537414965986,0.08843537414965986,0.08843537414965986,0.08843537414965986,0.08843537414965986,0.08843537414965986,0.08843537414965986,0.08843537414965986,0.08843537414965986,0.08843537414965986,0.08843537414965986,0.08843537414965986,0.08843537414965986,0.08843537414965986,0.08843537414965986,0.08843537414965986,0.08843537414965986,0.08843537414965986,0.08843537414965986,0.08843537414965986,0.08843537414965986,0.08843537414965986,0.08843537414965986,0.08843537414965986,0.08843537414965986,0.08843537414965986,0.08843537414965986,0.08843537414965986,0.08843537414965986,0.08843537414965986,0.08843537414965986,0.08843537414965986,0.08843537414965986,0.08843537414965986,0.08843537414965986,0.08843537414965986,0.08843537414965986,0.08843537414965986,0.08843537414965986,0.08843537414965986,0.08843537414965986,0.08843537414965986,0.08843537414965986,0.08843537414965986,0.08843537414965986,0.08843537414965986,0.08843537414965986,0.08843537414965986,0.08843537414965986,0.08843537414965986,0.08843537414965986,0.08843537414965986,0.08843537414965986,0.08843537414965986,0.08843537414965986,0.08843537414965986,0.08843537414965986,0.08843537414965986,0.08843537414965986,0.08843537414965986,0.08843537414965986,0.08843537414965986,0.08843537414965986,0.08843537414965986,0.08843537414965986,0.08843537414965986,0.08843537414965986,0.08843537414965986,0.08843537414965986,0.08843537414965986,0.08843537414965986,0.08843537414965986,0.08843537414965986,0.08843537414965986,0.08843537414965986,0.08843537414965986,0.08843537414965986,0.08843537414965986,0.08843537414965986,0.09863945578231292,0.10204081632653061,0.10884353741496598,0.11904761904761904,0.12244897959183673,0.1292517006802721,0.1360544217687075,0.15306122448979592,0.1836734693877551,0.19387755102040816,0.20068027210884354,0.2108843537414966,0.21768707482993196,0.23809523809523808,0.2585034013605442,0.2789115646258503,0.30612244897959184,0.32653061224489793,0.3469387755102041,0.38095238095238093,0.40816326530612246,0.43537414965986393,0.46258503401360546,0.47959183673469385,0.48299319727891155,0.48299319727891155,0.48299319727891155,0.48299319727891155,0.4897959183673469,0.4931972789115646,0.5034013605442177,0.5238095238095238,0.54421768707483,0.5918367346938775,0.6394557823129252,0.6836734693877551,0.7278911564625851,0.7585034013605442,0.782312925170068,0.8095238095238095,0.8299319727891157,0.8435374149659864,0.8605442176870748,0.8673469387755102,0.8775510204081632,0.8843537414965986,0.8843537414965986,0.8843537414965986,0.8843537414965986,0.891156462585034,0.8979591836734694,0.9013605442176871,0.9115646258503401,0.9115646258503401,0.9149659863945578,0.9149659863945578,0.9183673469387755,0.9251700680272109,0.9285714285714286,0.9319727891156463,0.9319727891156463,0.9319727891156463,0.9319727891156463,0.9319727891156463,0.9319727891156463,0.9319727891156463,0.9319727891156463,0.9319727891156463,0.9319727891156463,0.9319727891156463,0.9319727891156463,0.9319727891156463,0.9319727891156463,0.9319727891156463,0.9319727891156463,0.9319727891156463,0.9319727891156463,0.9319727891156463,0.9319727891156463,0.9319727891156463,0.9319727891156463,0.9319727891156463,0.9319727891156463,0.9319727891156463,0.9319727891156463,0.9319727891156463,0.9319727891156463,0.9319727891156463,0.9387755102040817,0.9455782312925171,0.9523809523809523,0.9523809523809523,0.9523809523809523,0.9523809523809523,0.9523809523809523,0.9523809523809523,0.9523809523809523,0.9523809523809523,0.9523809523809523,0.9523809523809523,0.9523809523809523,0.9523809523809523,0.9523809523809523,0.9523809523809523,0.9523809523809523,0.9625850340136054,0.9761904761904762,0.9863945578231292,0.9931972789115646,0.9931972789115646,0.9931972789115646,0.9931972789115646,0.9931972789115646,0.9931972789115646,0.9931972789115646,0.9931972789115646,0.9931972789115646,0.9931972789115646,0.9931972789115646,0.9931972789115646,0.9931972789115646,0.9931972789115646,0.9931972789115646,0.9931972789115646,0.9931972789115646,0.9931972789115646,0.9931972789115646,0.9931972789115646,0.9931972789115646,0.9931972789115646,0.9931972789115646,0.9931972789115646,0.9931972789115646,0.9931972789115646,0.9931972789115646,0.9931972789115646,0.9931972789115646,0.9931972789115646,0.9931972789115646,0.9931972789115646,0.9931972789115646,0.9931972789115646,0.9931972789115646,0.9931972789115646,0.9931972789115646,0.9931972789115646,0.9931972789115646,0.9931972789115646,0.9931972789115646,0.9931972789115646,0.9931972789115646,0.9931972789115646,0.9931972789115646,0.9931972789115646,0.9931972789115646,0.9931972789115646,0.9931972789115646,0.9931972789115646,0.9931972789115646,0.9931972789115646,0.9931972789115646,0.9931972789115646,0.9931972789115646,0.9931972789115646,0.9931972789115646,0.9931972789115646,0.9931972789115646,0.9931972789115646,0.9931972789115646,0.9931972789115646,0.9931972789115646,0.9931972789115646,0.9931972789115646,0.9931972789115646,0.9931972789115646,0.9931972789115646,0.9931972789115646,0.9931972789115646,0.9931972789115646,0.9931972789115646,0.9931972789115646,0.9931972789115646,0.9931972789115646,0.9931972789115646,0.9931972789115646,0.9931972789115646,0.9931972789115646,0.9931972789115646,0.9931972789115646,0.9931972789115646,0.9931972789115646,0.9931972789115646,0.9931972789115646,0.9931972789115646,0.9931972789115646,0.9931972789115646,0.9931972789115646,0.9931972789115646,0.9931972789115646,0.9931972789115646,0.9931972789115646,0.9931972789115646,0.9931972789115646,0.9931972789115646,0.9931972789115646,0.9931972789115646,0.9931972789115646,0.9931972789115646,0.9931972789115646,0.9931972789115646,0.9931972789115646,0.9931972789115646,0.9931972789115646,0.9931972789115646,0.9931972789115646,0.9931972789115646,0.9931972789115646,0.9931972789115646,0.9931972789115646,0.9931972789115646,0.9931972789115646,0.9931972789115646,0.9931972789115646,0.9931972789115646,0.9931972789115646,0.9931972789115646,0.9931972789115646,0.9931972789115646,0.9931972789115646,0.9931972789115646,0.9931972789115646,0.9931972789115646,0.9931972789115646,0.9931972789115646,0.9931972789115646,0.9931972789115646,0.9931972789115646,0.9931972789115646,0.9931972789115646,0.9931972789115646,0.9931972789115646,0.9931972789115646,0.9931972789115646,0.9931972789115646,0.9931972789115646,0.9931972789115646,0.9931972789115646,0.9931972789115646,0.9931972789115646,0.9931972789115646,0.9931972789115646,0.9931972789115646,0.9931972789115646,0.9931972789115646,0.9931972789115646,0.9931972789115646,0.9931972789115646,0.9931972789115646,0.9931972789115646,0.9931972789115646,0.9931972789115646,0.9931972789115646,0.9931972789115646,0.9931972789115646,0.9931972789115646,0.9931972789115646,0.9931972789115646,0.9931972789115646,0.9931972789115646,0.9931972789115646,0.9931972789115646,0.9931972789115646,0.9931972789115646,0.9931972789115646,0.9931972789115646,0.9931972789115646,0.9931972789115646,0.9931972789115646,0.9931972789115646,0.9931972789115646,0.9931972789115646,0.9931972789115646,0.9931972789115646,0.9931972789115646,0.9931972789115646,0.9931972789115646,0.9931972789115646,0.9931972789115646,0.9931972789115646,0.9931972789115646,0.9931972789115646,0.9931972789115646,0.9931972789115646,0.9931972789115646,0.9931972789115646,0.9931972789115646,0.9931972789115646,0.9931972789115646,0.9931972789115646,0.9931972789115646,0.9931972789115646,0.9931972789115646,0.9931972789115646,0.9931972789115646,0.9931972789115646,0.9931972789115646,0.9931972789115646,0.9931972789115646,0.9931972789115646,0.9931972789115646,0.9931972789115646,0.9931972789115646,0.9931972789115646,0.9931972789115646,0.9931972789115646,0.9931972789115646,0.9931972789115646,0.9931972789115646,0.9931972789115646,0.9931972789115646,0.9931972789115646,0.9931972789115646,0.9931972789115646,0.9931972789115646,0.9931972789115646,0.9931972789115646,0.9931972789115646,0.9931972789115646,0.9931972789115646,0.9931972789115646,0.9931972789115646,0.9931972789115646,0.9931972789115646,0.9931972789115646,0.9931972789115646,0.9931972789115646,0.9931972789115646,0.9931972789115646,0.9931972789115646,0.9931972789115646,0.9931972789115646,0.9931972789115646,0.9931972789115646,0.9931972789115646,0.9931972789115646,0.9931972789115646,0.9931972789115646,0.9931972789115646,0.9931972789115646,0.9931972789115646,0.9931972789115646,0.9931972789115646,0.9931972789115646,0.9931972789115646,0.9931972789115646,0.9931972789115646,0.9931972789115646,0.9931972789115646,0.9931972789115646,0.9931972789115646,0.9931972789115646,0.9931972789115646,0.9931972789115646,0.9931972789115646,0.9931972789115646,0.9931972789115646,0.9931972789115646,0.9931972789115646,0.9931972789115646,0.9931972789115646,0.9931972789115646,0.9931972789115646,0.9931972789115646,0.9931972789115646,0.9931972789115646,0.9931972789115646,0.9931972789115646,0.9931972789115646,0.9931972789115646,0.9931972789115646,0.9931972789115646,0.9931972789115646,0.9931972789115646,0.9931972789115646,0.9931972789115646,0.9931972789115646,0.9931972789115646,0.9931972789115646,0.9931972789115646,0.9931972789115646,0.9931972789115646,0.9931972789115646,0.9931972789115646,0.9931972789115646,0.9931972789115646,0.9931972789115646,0.9931972789115646,0.9931972789115646,0.9931972789115646,0.9931972789115646,0.9931972789115646,0.9931972789115646,0.9931972789115646,0.9931972789115646,0.9931972789115646,0.9931972789115646,0.9931972789115646,0.9931972789115646,0.9931972789115646,0.9931972789115646,0.9931972789115646,0.9931972789115646,0.9931972789115646,0.9931972789115646,0.9931972789115646,0.9931972789115646,0.9931972789115646,0.9931972789115646,0.9931972789115646,0.9931972789115646,0.9931972789115646,0.9931972789115646,0.9931972789115646,0.9931972789115646,0.9931972789115646,0.9931972789115646,0.9931972789115646,0.9931972789115646,0.9931972789115646,0.9931972789115646,0.9931972789115646,0.9931972789115646,0.9931972789115646,0.9931972789115646,0.9931972789115646,0.9931972789115646,0.9931972789115646,0.9931972789115646,0.9931972789115646,0.9931972789115646,0.9931972789115646,0.9931972789115646,0.9931972789115646,0.9931972789115646,0.9931972789115646,0.9931972789115646,0.9931972789115646,0.9931972789115646,0.9931972789115646,0.9931972789115646,0.9931972789115646,0.9931972789115646,0.9931972789115646,0.9931972789115646,0.9931972789115646,0.9931972789115646,0.9931972789115646,0.9931972789115646,0.9931972789115646,0.9931972789115646,0.9931972789115646,0.9931972789115646,0.9931972789115646,0.9931972789115646,0.9931972789115646,0.9931972789115646,0.9931972789115646,0.9931972789115646,0.9931972789115646,0.9931972789115646,0.9931972789115646,0.9931972789115646,0.9931972789115646,0.9931972789115646,0.9931972789115646,0.9931972789115646,0.9931972789115646,0.9931972789115646,0.9931972789115646,0.9931972789115646,0.9931972789115646,0.9931972789115646,0.9931972789115646,0.9931972789115646,0.9931972789115646,0.9931972789115646,0.9931972789115646,0.9931972789115646,0.9931972789115646,0.9931972789115646,0.9931972789115646,0.9931972789115646,0.9931972789115646,0.9931972789115646,0.9931972789115646,0.9931972789115646,0.9931972789115646,0.9931972789115646,0.9931972789115646,0.9931972789115646,0.9931972789115646,0.9931972789115646,0.9931972789115646,0.9931972789115646,0.9931972789115646,0.9931972789115646,0.9931972789115646,0.9931972789115646,0.9931972789115646,0.9931972789115646,0.9931972789115646,0.9931972789115646,0.9931972789115646,0.9931972789115646,0.9931972789115646,0.9931972789115646,0.9931972789115646,0.9931972789115646,0.9931972789115646,0.9931972789115646,0.9931972789115646,0.9931972789115646,0.9931972789115646,0.9931972789115646,0.9931972789115646,0.9931972789115646,0.9931972789115646,0.9931972789115646,0.9931972789115646,0.9931972789115646,0.9931972789115646,0.9931972789115646,0.9931972789115646,0.9931972789115646,0.9931972789115646,0.9931972789115646,0.9931972789115646,0.9931972789115646,0.9931972789115646,0.9931972789115646,0.9931972789115646,0.9931972789115646,0.9931972789115646,0.9931972789115646,0.9931972789115646,0.9931972789115646,0.9931972789115646,0.9931972789115646,0.9931972789115646,0.9931972789115646,0.9931972789115646,0.9931972789115646,0.9931972789115646,0.9931972789115646,0.9931972789115646,0.9931972789115646,0.9931972789115646,0.9931972789115646,0.9931972789115646,0.9931972789115646,0.9931972789115646,0.9931972789115646,0.9931972789115646,0.9931972789115646,0.9931972789115646,0.9931972789115646,0.9931972789115646,0.9931972789115646,0.9931972789115646,0.9931972789115646,0.9931972789115646,0.9931972789115646,0.9931972789115646,0.9931972789115646,0.9931972789115646,0.9931972789115646,0.9931972789115646,0.9931972789115646,0.9931972789115646,0.9931972789115646,0.9931972789115646,0.9931972789115646,0.9931972789115646,0.9931972789115646,0.9931972789115646,0.9931972789115646,0.9931972789115646,0.9931972789115646,0.9931972789115646,0.9931972789115646,0.9931972789115646,0.9931972789115646,0.9931972789115646,0.9931972789115646,0.9931972789115646,0.9931972789115646,0.9931972789115646,0.9931972789115646,0.9931972789115646,0.9931972789115646,0.9931972789115646,0.9931972789115646,0.9931972789115646,0.9931972789115646,0.9931972789115646,0.9931972789115646,0.9931972789115646,0.9931972789115646,0.9931972789115646,0.9931972789115646,0.9931972789115646,0.9931972789115646,0.9931972789115646,0.9931972789115646,0.9931972789115646,0.9931972789115646,0.9931972789115646,0.9931972789115646,0.9931972789115646,0.9931972789115646,0.9931972789115646,0.9931972789115646,0.9931972789115646,0.9931972789115646,0.9931972789115646,0.9931972789115646,0.9931972789115646,0.9931972789115646,0.9931972789115646,0.9931972789115646,0.9931972789115646,0.9931972789115646,0.9931972789115646,0.9931972789115646,0.9931972789115646,0.9931972789115646,0.9931972789115646,0.9931972789115646,0.9931972789115646,0.9931972789115646,0.9931972789115646,0.9931972789115646,0.9931972789115646,0.9931972789115646,0.9931972789115646,0.9931972789115646,0.9931972789115646,0.9931972789115646,0.9931972789115646,0.9931972789115646,0.9931972789115646,0.9931972789115646,0.9931972789115646,0.9931972789115646,0.9931972789115646,0.9931972789115646,0.9931972789115646,0.9931972789115646,0.9931972789115646,0.9931972789115646,0.9931972789115646,0.9931972789115646,0.9931972789115646,0.9931972789115646,0.9931972789115646,0.9931972789115646,0.9931972789115646,0.9931972789115646,0.9931972789115646,0.9931972789115646,0.9931972789115646,0.9931972789115646,0.9931972789115646,0.9931972789115646,0.9931972789115646,0.9931972789115646,0.9931972789115646,0.9931972789115646,0.9931972789115646,0.9931972789115646,0.9931972789115646,0.9931972789115646,0.9727891156462585,0.9183673469387755,0.8843537414965986,0.8537414965986394,0.8333333333333334,0.826530612244898,0.8231292517006803,0.8231292517006803,0.8231292517006803,0.8231292517006803,0.8231292517006803,0.8231292517006803,0.8231292517006803,0.8231292517006803,0.8299319727891157,0.8299319727891157,0.8367346938775511,0.8401360544217688,0.8503401360544217,0.8571428571428571,0.8673469387755102,0.8741496598639455,0.8775510204081632,0.8809523809523809,0.8809523809523809,0.8809523809523809,0.8809523809523809,0.8809523809523809,0.8809523809523809,0.8809523809523809,0.8809523809523809,0.8741496598639455,0.8605442176870748,0.8435374149659864,0.8231292517006803,0.7959183673469388,0.7585034013605442,0.6530612244897959,0.5510204081632653,0.43537414965986393,0.3333333333333333,0.2755102040816326,0.25170068027210885,0.24149659863945577,0.23809523809523808,0.23809523809523808,0.23809523809523808,0.23809523809523808,0.23809523809523808,0.23809523809523808,0.23809523809523808,0.23809523809523808,0.23809523809523808,0.23809523809523808,0.23809523809523808,0.23809523809523808,0.23809523809523808,0.24149659863945577,0.24829931972789115,0.25510204081632654,0.2619047619047619,0.2653061224489796,0.2687074829931973,0.2687074829931973,0.2687074829931973,0.2687074829931973,0.2687074829931973,0.25170068027210885,0.23129251700680273,0.19727891156462585,0.17687074829931973,0.1598639455782313,0.1360544217687075,0.12244897959183673,0.10884353741496598,0.09863945578231292,0.08843537414965986,0.08843537414965986,0.08843537414965986,0.08843537414965986,0.08843537414965986,0.10204081632653061,0.11224489795918367,0.12244897959183673,0.1326530612244898,0.14625850340136054,0.1564625850340136,0.17006802721088435,0.1870748299319728,0.19387755102040816,0.19727891156462585,0.19727891156462585,0.19727891156462585,0.19727891156462585,0.19727891156462585,0.19387755102040816,0.19047619047619047,0.1836734693877551,0.17346938775510204,0.16666666666666666,0.16326530612244897,0.1564625850340136,0.1564625850340136,0.15306122448979592,0.15306122448979592,0.14965986394557823,0.14965986394557823,0.14965986394557823,0.14965986394557823,0.14965986394557823,0.14965986394557823,0.14965986394557823,0.14965986394557823,0.14965986394557823,0.14965986394557823,0.14965986394557823,0.14965986394557823,0.14965986394557823,0.14965986394557823,0.14965986394557823,0.14965986394557823,0.14965986394557823,0.14965986394557823,0.14965986394557823,0.14965986394557823,0.14965986394557823,0.14965986394557823,0.14965986394557823,0.14965986394557823,0.14965986394557823,0.14965986394557823,0.14965986394557823,0.14965986394557823,0.14965986394557823,0.14965986394557823,0.14965986394557823,0.14965986394557823,0.14965986394557823,0.14965986394557823,0.14965986394557823,0.14965986394557823,0.14965986394557823,0.14965986394557823,0.14965986394557823,0.14965986394557823,0.14965986394557823,0.14965986394557823,0.14965986394557823,0.14965986394557823,0.14965986394557823,0.14965986394557823,0.14965986394557823,0.14965986394557823,0.14965986394557823,0.14965986394557823,0.14965986394557823,0.14965986394557823,0.14965986394557823,0.14965986394557823,0.14965986394557823,0.14965986394557823,0.14965986394557823,0.14965986394557823,0.14965986394557823,0.14965986394557823,0.14965986394557823,0.14965986394557823,0.14965986394557823,0.14965986394557823,0.14965986394557823,0.14965986394557823,0.14965986394557823,0.14965986394557823,0.14965986394557823,0.14965986394557823,0.14965986394557823,0.14965986394557823,0.14965986394557823,0.14965986394557823,0.14965986394557823,0.14965986394557823,0.14965986394557823,0.14965986394557823,0.14965986394557823,0.14965986394557823,0.14965986394557823,0.14965986394557823,0.14965986394557823,0.14965986394557823,0.14965986394557823,0.14965986394557823,0.14965986394557823,0.14965986394557823,0.14965986394557823,0.14965986394557823,0.14965986394557823,0.14965986394557823,0.14965986394557823,0.14965986394557823,0.14965986394557823,0.14965986394557823,0.14965986394557823,0.14965986394557823,0.14965986394557823,0.14965986394557823,0.14965986394557823,0.14965986394557823,0.14965986394557823,0.14965986394557823,0.14965986394557823,0.14965986394557823,0.14965986394557823,0.14965986394557823,0.14965986394557823,0.14965986394557823,0.14965986394557823,0.14965986394557823,0.14965986394557823,0.14965986394557823,0.1564625850340136,0.19047619047619047,0.2857142857142857,0.4421768707482993,0.5408163265306123,0.6564625850340136,0.7755102040816326,0.8673469387755102,0.9387755102040817,0.9829931972789115,1.010204081632653,1.0204081632653061,1.0204081632653061,1.0204081632653061,1.0204081632653061,1.0204081632653061,1.0204081632653061,1.0204081632653061,1.0204081632653061,1.0204081632653061,1.0204081632653061,1.0204081632653061,1.0204081632653061,1.0204081632653061,1.0204081632653061,1.0204081632653061,1.0204081632653061,1.0204081632653061,1.0204081632653061,1.0204081632653061,1.0204081632653061,1.0204081632653061,1.0204081632653061,1.0204081632653061,1.0204081632653061,1.0204081632653061,1.0204081632653061,1.0204081632653061,1.0204081632653061,1.0204081632653061,1.0204081632653061,1.0204081632653061,1.0204081632653061,1.0204081632653061,1.0204081632653061,1.0204081632653061,1.0204081632653061,1.0204081632653061,1.0204081632653061,1.0204081632653061,1.0204081632653061,1.0204081632653061,1.0204081632653061,1.0204081632653061,1.0204081632653061,1.0204081632653061,1.0204081632653061,1.0204081632653061,1.0204081632653061,1.0204081632653061,1.0204081632653061,1.0204081632653061,1.0204081632653061,1.0204081632653061,1.0204081632653061,1.0204081632653061,1.0204081632653061,1.0204081632653061,1.0204081632653061,1.0204081632653061,1.0204081632653061,1.0204081632653061,1.0204081632653061,1.0204081632653061,1.0204081632653061,1.0204081632653061,1.0204081632653061,1.0204081632653061,1.0204081632653061,1.0204081632653061,1.0204081632653061,1.0204081632653061,1.0204081632653061,1.0204081632653061,1.0170068027210883,1.0170068027210883,1.0136054421768708,1.0136054421768708,1.0068027210884354,1,0.9863945578231292,0.9659863945578231,0.9081632653061225,0.8639455782312925,0.8163265306122449,0.7687074829931972,0.7210884353741497,0.6904761904761905,0.673469387755102,0.6666666666666666,0.6666666666666666,0.6666666666666666,0.6666666666666666,0.6666666666666666,0.6666666666666666,0.6666666666666666,0.6666666666666666,0.6666666666666666,0.6666666666666666,0.6666666666666666,0.6666666666666666,0.6666666666666666,0.6666666666666666,0.6666666666666666,0.6666666666666666,0.6666666666666666,0.6666666666666666,0.6666666666666666,0.6666666666666666,0.6666666666666666,0.6666666666666666,0.6666666666666666,0.6666666666666666,0.6666666666666666,0.6666666666666666,0.6666666666666666,0.6666666666666666,0.6666666666666666,0.6666666666666666,0.6666666666666666,0.6666666666666666,0.6666666666666666,0.6666666666666666,0.6666666666666666,0.6666666666666666,0.6666666666666666,0.6666666666666666,0.6666666666666666,0.6666666666666666,0.6666666666666666,0.6666666666666666,0.6666666666666666,0.6666666666666666,0.6666666666666666,0.6666666666666666,0.6666666666666666,0.6666666666666666,0.6666666666666666,0.6666666666666666,0.6666666666666666,0.6666666666666666,0.6666666666666666,0.6666666666666666,0.6666666666666666,0.6666666666666666,0.6666666666666666,0.6666666666666666,0.6666666666666666,0.6666666666666666,0.6666666666666666,0.6666666666666666,0.6666666666666666,0.6666666666666666,0.6666666666666666,0.6666666666666666,0.6666666666666666,0.6666666666666666,0.6666666666666666,0.6666666666666666,0.6666666666666666,0.6666666666666666,0.6666666666666666,0.6666666666666666,0.6666666666666666,0.6666666666666666,0.6666666666666666,0.6666666666666666,0.6666666666666666,0.6666666666666666,0.6666666666666666,0.6666666666666666,0.6666666666666666,0.6666666666666666,0.6666666666666666,0.6666666666666666,0.6666666666666666,0.6666666666666666,0.6666666666666666,0.6666666666666666,0.6666666666666666,0.6666666666666666,0.6666666666666666,0.6666666666666666,0.6666666666666666,0.6666666666666666,0.6666666666666666,0.6666666666666666,0.6666666666666666,0.6666666666666666,0.6666666666666666,0.6666666666666666,0.6666666666666666,0.6666666666666666,0.6666666666666666,0.6666666666666666,0.6666666666666666,0.6666666666666666,0.6666666666666666,0.6666666666666666,0.6666666666666666,0.6666666666666666,0.6666666666666666,0.6666666666666666,0.6666666666666666,0.6666666666666666,0.6666666666666666,0.6666666666666666,0.6666666666666666,0.6666666666666666,0.6666666666666666,0.6666666666666666,0.6666666666666666,0.6666666666666666,0.6666666666666666,0.6666666666666666,0.6666666666666666,0.6666666666666666,0.6666666666666666,0.6666666666666666,0.6666666666666666,0.6666666666666666,0.6666666666666666,0.6666666666666666,0.6666666666666666,0.6666666666666666,0.6666666666666666,0.6666666666666666,0.6666666666666666,0.6666666666666666,0.6666666666666666,0.6598639455782312,0.6530612244897959,0.6496598639455783,0.6394557823129252,0.6258503401360545,0.6054421768707483,0.5850340136054422,0.5578231292517006,0.5170068027210885,0.48639455782312924,0.47619047619047616,0.46598639455782315,0.45918367346938777,0.4557823129251701,0.4523809523809524,0.4489795918367347,0.4489795918367347,0.4489795918367347,0.4489795918367347,0.4489795918367347,0.4489795918367347,0.4489795918367347,0.4489795918367347,0.4489795918367347,0.4489795918367347,0.4489795918367347,0.4489795918367347,0.4489795918367347,0.4489795918367347,0.4489795918367347,0.4489795918367347,0.4489795918367347,0.4489795918367347,0.4489795918367347,0.4489795918367347,0.4489795918367347,0.4489795918367347,0.4489795918367347,0.4489795918367347,0.4489795918367347,0.4489795918367347,0.4489795918367347,0.4489795918367347,0.4489795918367347,0.4489795918367347,0.4489795918367347,0.4489795918367347,0.4489795918367347,0.4489795918367347,0.4489795918367347,0.4489795918367347,0.4489795918367347,0.4489795918367347,0.4489795918367347,0.4421768707482993,0.43537414965986393,0.4217687074829932,0.40816326530612246,0.3945578231292517,0.3741496598639456,0.35374149659863946,0.3401360544217687,0.3333333333333333,0.3231292517006803,0.3163265306122449,0.30952380952380953,0.29931972789115646,0.2925170068027211,0.2857142857142857,0.282312925170068,0.282312925170068,0.282312925170068,0.282312925170068,0.282312925170068,0.282312925170068,0.282312925170068,0.282312925170068,0.282312925170068,0.282312925170068,0.282312925170068,0.282312925170068,0.282312925170068,0.282312925170068,0.282312925170068,0.282312925170068,0.282312925170068,0.282312925170068,0.282312925170068,0.282312925170068,0.282312925170068,0.282312925170068,0.282312925170068,0.282312925170068,0.282312925170068,0.282312925170068,0.282312925170068,0.282312925170068,0.282312925170068,0.282312925170068,0.282312925170068,0.282312925170068,0.282312925170068,0.282312925170068,0.282312925170068,0.282312925170068,0.282312925170068,0.282312925170068,0.282312925170068,0.282312925170068,0.282312925170068,0.282312925170068,0.282312925170068,0.282312925170068,0.282312925170068,0.282312925170068,0.282312925170068,0.282312925170068,0.282312925170068,0.282312925170068,0.282312925170068,0.282312925170068,0.282312925170068,0.282312925170068,0.282312925170068,0.282312925170068,0.282312925170068,0.282312925170068,0.282312925170068,0.282312925170068,0.282312925170068,0.282312925170068,0.282312925170068,0.282312925170068,0.282312925170068,0.282312925170068,0.282312925170068,0.282312925170068,0.282312925170068,0.282312925170068,0.282312925170068,0.282312925170068,0.282312925170068,0.282312925170068,0.282312925170068,0.282312925170068,0.282312925170068,0.282312925170068,0.282312925170068,0.282312925170068,0.282312925170068,0.282312925170068,0.282312925170068,0.282312925170068,0.282312925170068,0.282312925170068,0.282312925170068,0.282312925170068,0.282312925170068,0.282312925170068,0.282312925170068,0.282312925170068,0.282312925170068,0.282312925170068,0.282312925170068,0.282312925170068,0.282312925170068,0.282312925170068,0.282312925170068,0.282312925170068,0.282312925170068,0.282312925170068,0.282312925170068,0.282312925170068,0.282312925170068,0.282312925170068,0.282312925170068,0.282312925170068,0.282312925170068,0.282312925170068,0.282312925170068,0.282312925170068,0.282312925170068,0.282312925170068,0.282312925170068,0.282312925170068,0.282312925170068,0.282312925170068,0.282312925170068,0.282312925170068,0.282312925170068,0.282312925170068,0.282312925170068,0.282312925170068,0.282312925170068,0.282312925170068,0.282312925170068,0.282312925170068,0.282312925170068,0.282312925170068,0.282312925170068,0.282312925170068,0.282312925170068,0.282312925170068,0.282312925170068,0.282312925170068,0.282312925170068,0.282312925170068,0.282312925170068,0.282312925170068,0.282312925170068,0.282312925170068,0.282312925170068,0.282312925170068,0.282312925170068,0.282312925170068,0.282312925170068,0.282312925170068,0.282312925170068,0.282312925170068,0.282312925170068,0.282312925170068,0.282312925170068,0.282312925170068,0.282312925170068,0.282312925170068,0.282312925170068,0.282312925170068,0.282312925170068,0.282312925170068,0.282312925170068,0.282312925170068,0.282312925170068,0.282312925170068,0.282312925170068,0.282312925170068,0.282312925170068,0.282312925170068,0.282312925170068,0.282312925170068,0.282312925170068,0.282312925170068,0.282312925170068,0.282312925170068,0.282312925170068,0.282312925170068,0.282312925170068,0.282312925170068,0.282312925170068,0.282312925170068,0.282312925170068,0.282312925170068,0.282312925170068,0.282312925170068,0.282312925170068,0.282312925170068,0.282312925170068,0.282312925170068,0.282312925170068,0.282312925170068,0.282312925170068,0.282312925170068,0.282312925170068,0.282312925170068,0.282312925170068,0.282312925170068,0.282312925170068,0.282312925170068,0.282312925170068,0.282312925170068,0.282312925170068,0.282312925170068,0.282312925170068,0.282312925170068,0.282312925170068,0.282312925170068,0.282312925170068,0.282312925170068,0.282312925170068,0.282312925170068,0.282312925170068,0.282312925170068,0.282312925170068,0.282312925170068,0.282312925170068,0.282312925170068,0.282312925170068,0.282312925170068,0.282312925170068,0.282312925170068,0.282312925170068,0.282312925170068,0.282312925170068,0.282312925170068,0.282312925170068,0.282312925170068,0.282312925170068,0.282312925170068,0.282312925170068,0.282312925170068,0.282312925170068,0.282312925170068,0.282312925170068,0.282312925170068,0.282312925170068,0.282312925170068,0.282312925170068,0.282312925170068,0.282312925170068,0.282312925170068,0.282312925170068,0.282312925170068,0.282312925170068,0.282312925170068,0.282312925170068,0.282312925170068,0.282312925170068,0.282312925170068,0.282312925170068,0.282312925170068,0.282312925170068,0.282312925170068,0.282312925170068,0.282312925170068,0.282312925170068,0.282312925170068,0.282312925170068,0.282312925170068,0.282312925170068,0.282312925170068,0.282312925170068,0.282312925170068,0.282312925170068,0.282312925170068,0.282312925170068,0.282312925170068,0.282312925170068,0.282312925170068,0.282312925170068,0.282312925170068,0.282312925170068,0.282312925170068,0.282312925170068,0.282312925170068,0.282312925170068,0.282312925170068,0.282312925170068,0.282312925170068,0.282312925170068,0.282312925170068,0.282312925170068,0.282312925170068,0.282312925170068,0.282312925170068,0.282312925170068,0.282312925170068,0.282312925170068,0.282312925170068,0.282312925170068,0.282312925170068,0.282312925170068,0.282312925170068,0.282312925170068,0.282312925170068,0.282312925170068,0.282312925170068,0.282312925170068,0.282312925170068,0.282312925170068,0.282312925170068,0.282312925170068,0.282312925170068,0.282312925170068,0.282312925170068,0.282312925170068,0.282312925170068,0.282312925170068,0.282312925170068,0.282312925170068,0.282312925170068,0.282312925170068,0.282312925170068,0.282312925170068,0.282312925170068,0.282312925170068,0.282312925170068,0.282312925170068,0.282312925170068,0.282312925170068,0.282312925170068,0.282312925170068,0.282312925170068,0.282312925170068,0.282312925170068,0.282312925170068,0.282312925170068,0.282312925170068,0.282312925170068,0.282312925170068,0.282312925170068,0.282312925170068,0.282312925170068,0.282312925170068,0.282312925170068,0.282312925170068,0.282312925170068,0.282312925170068,0.282312925170068,0.282312925170068,0.282312925170068,0.282312925170068,0.282312925170068,0.282312925170068,0.282312925170068,0.282312925170068,0.282312925170068,0.282312925170068,0.282312925170068,0.282312925170068,0.282312925170068,0.282312925170068,0.282312925170068,0.282312925170068,0.282312925170068,0.282312925170068,0.282312925170068,0.282312925170068,0.282312925170068,0.282312925170068,0.282312925170068,0.282312925170068,0.282312925170068,0.282312925170068,0.282312925170068,0.282312925170068,0.282312925170068,0.282312925170068,0.282312925170068,0.282312925170068,0.282312925170068,0.282312925170068,0.282312925170068,0.282312925170068,0.282312925170068,0.282312925170068,0.282312925170068,0.282312925170068,0.282312925170068,0.282312925170068,0.282312925170068,0.282312925170068,0.282312925170068,0.282312925170068,0.282312925170068,0.282312925170068,0.282312925170068,0.282312925170068,0.282312925170068,0.282312925170068,0.282312925170068,0.282312925170068,0.282312925170068,0.282312925170068,0.282312925170068,0.282312925170068,0.282312925170068,0.282312925170068,0.282312925170068,0.282312925170068,0.282312925170068,0.282312925170068,0.282312925170068,0.282312925170068,0.282312925170068,0.282312925170068,0.282312925170068,0.282312925170068,0.282312925170068,0.282312925170068,0.282312925170068,0.282312925170068,0.282312925170068,0.282312925170068,0.282312925170068,0.282312925170068,0.282312925170068,0.282312925170068,0.282312925170068,0.282312925170068,0.282312925170068,0.282312925170068,0.282312925170068,0.282312925170068,0.282312925170068,0.282312925170068,0.282312925170068,0.282312925170068,0.282312925170068,0.282312925170068,0.282312925170068,0.282312925170068,0.282312925170068,0.282312925170068,0.282312925170068,0.282312925170068,0.282312925170068,0.282312925170068,0.282312925170068,0.282312925170068,0.282312925170068,0.282312925170068,0.282312925170068,0.282312925170068,0.282312925170068,0.282312925170068,0.282312925170068,0.282312925170068,0.282312925170068,0.282312925170068,0.282312925170068,0.282312925170068,0.282312925170068,0.282312925170068,0.282312925170068,0.282312925170068,0.282312925170068,0.282312925170068,0.282312925170068,0.282312925170068,0.282312925170068,0.282312925170068,0.282312925170068,0.282312925170068,0.282312925170068,0.282312925170068,0.282312925170068,0.282312925170068,0.282312925170068,0.282312925170068,0.282312925170068,0.282312925170068,0.282312925170068,0.282312925170068,0.282312925170068,0.282312925170068,0.282312925170068,0.282312925170068,0.282312925170068,0.282312925170068,0.282312925170068,0.282312925170068,0.282312925170068,0.282312925170068,0.282312925170068,0.282312925170068,0.282312925170068,0.282312925170068,0.282312925170068,0.282312925170068,0.282312925170068,0.282312925170068,0.282312925170068,0.282312925170068,0.282312925170068,0.282312925170068,0.282312925170068,0.282312925170068,0.282312925170068,0.282312925170068,0.282312925170068,0.282312925170068,0.282312925170068,0.282312925170068,0.282312925170068,0.282312925170068,0.282312925170068,0.282312925170068,0.282312925170068,0.282312925170068,0.282312925170068,0.282312925170068,0.282312925170068,0.282312925170068,0.282312925170068,0.282312925170068,0.282312925170068,0.282312925170068,0.282312925170068,0.282312925170068,0.282312925170068,0.282312925170068,0.282312925170068,0.282312925170068,0.282312925170068,0.282312925170068,0.282312925170068,0.282312925170068,0.282312925170068,0.282312925170068,0.282312925170068,0.282312925170068,0.282312925170068,0.282312925170068,0.282312925170068,0.282312925170068,0.282312925170068,0.282312925170068,0.282312925170068,0.282312925170068,0.282312925170068,0.282312925170068,0.282312925170068,0.282312925170068,0.282312925170068,0.282312925170068,0.282312925170068,0.282312925170068,0.282312925170068,0.282312925170068,0.282312925170068,0.282312925170068,0.282312925170068,0.282312925170068,0.282312925170068,0.282312925170068,0.282312925170068,0.282312925170068,0.282312925170068,0.282312925170068,0.282312925170068,0.282312925170068,0.282312925170068,0.282312925170068,0.282312925170068,0.282312925170068,0.282312925170068,0.282312925170068,0.282312925170068,0.282312925170068,0.282312925170068,0.282312925170068,0.282312925170068,0.282312925170068,0.282312925170068,0.282312925170068,0.282312925170068,0.282312925170068,0.282312925170068,0.282312925170068,0.282312925170068,0.282312925170068,0.282312925170068,0.282312925170068,0.282312925170068,0.282312925170068,0.282312925170068,0.282312925170068,0.282312925170068,0.282312925170068,0.282312925170068,0.282312925170068,0.282312925170068,0.282312925170068,0.282312925170068,0.282312925170068,0.282312925170068,0.282312925170068,0.282312925170068,0.282312925170068,0.282312925170068,0.282312925170068,0.282312925170068,0.282312925170068,0.282312925170068,0.282312925170068,0.282312925170068,0.282312925170068,0.282312925170068,0.282312925170068,0.282312925170068,0.282312925170068,0.282312925170068,0.282312925170068,0.282312925170068,0.282312925170068,0.282312925170068,0.282312925170068,0.282312925170068,0.282312925170068,0.282312925170068,0.282312925170068,0.282312925170068,0.282312925170068,0.282312925170068,0.282312925170068,0.282312925170068,0.282312925170068,0.282312925170068,0.282312925170068,0.282312925170068,0.282312925170068,0.282312925170068,0.282312925170068,0.282312925170068,0.282312925170068,0.282312925170068,0.282312925170068,0.282312925170068,0.282312925170068,0.282312925170068,0.282312925170068,0.282312925170068,0.282312925170068,0.282312925170068,0.282312925170068,0.282312925170068,0.282312925170068,0.282312925170068,0.282312925170068,0.282312925170068,0.282312925170068,0.282312925170068,0.282312925170068,0.282312925170068,0.282312925170068,0.282312925170068,0.282312925170068,0.282312925170068,0.282312925170068,0.282312925170068,0.282312925170068,0.282312925170068,0.282312925170068,0.282312925170068,0.282312925170068,0.282312925170068,0.282312925170068,0.282312925170068,0.282312925170068,0.282312925170068,0.282312925170068,0.282312925170068,0.282312925170068,0.282312925170068,0.282312925170068,0.282312925170068,0.282312925170068,0.282312925170068,0.282312925170068,0.282312925170068,0.282312925170068,0.282312925170068,0.282312925170068,0.282312925170068,0.282312925170068,0.282312925170068,0.282312925170068,0.282312925170068,0.282312925170068,0.282312925170068,0.282312925170068,0.282312925170068,0.282312925170068,0.282312925170068,0.282312925170068,0.282312925170068,0.282312925170068,0.282312925170068,0.282312925170068,0.282312925170068,0.282312925170068,0.282312925170068,0.282312925170068,0.282312925170068,0.282312925170068,0.282312925170068,0.282312925170068,0.282312925170068,0.282312925170068,0.282312925170068,0.282312925170068,0.282312925170068,0.282312925170068,0.282312925170068,0.282312925170068,0.282312925170068,0.282312925170068,0.282312925170068,0.282312925170068,0.282312925170068,0.282312925170068,0.282312925170068,0.282312925170068,0.282312925170068,0.282312925170068,0.282312925170068,0.282312925170068,0.282312925170068,0.282312925170068,0.282312925170068,0.282312925170068,0.282312925170068,0.282312925170068,0.282312925170068,0.282312925170068,0.282312925170068,0.282312925170068,0.282312925170068,0.282312925170068,0.282312925170068,0.282312925170068,0.282312925170068,0.282312925170068,0.282312925170068,0.282312925170068,0.282312925170068,0.282312925170068,0.282312925170068,0.282312925170068,0.282312925170068,0.282312925170068,0.282312925170068,0.282312925170068,0.282312925170068,0.282312925170068,0.282312925170068,0.282312925170068,0.282312925170068,0.282312925170068,0.282312925170068,0.282312925170068,0.282312925170068,0.282312925170068,0.282312925170068,0.282312925170068,0.282312925170068,0.282312925170068,0.282312925170068,0.282312925170068,0.282312925170068,0.282312925170068,0.282312925170068,0.282312925170068,0.282312925170068,0.282312925170068,0.282312925170068,0.282312925170068,0.282312925170068,0.282312925170068,0.282312925170068,0.282312925170068,0.282312925170068,0.282312925170068,0.282312925170068,0.282312925170068,0.282312925170068,0.282312925170068,0.282312925170068,0.282312925170068,0.282312925170068,0.282312925170068,0.282312925170068,0.282312925170068,0.282312925170068,0.282312925170068,0.282312925170068,0.282312925170068,0.282312925170068,0.282312925170068,0.282312925170068,0.282312925170068,0.282312925170068,0.282312925170068,0.282312925170068,0.282312925170068,0.282312925170068,0.282312925170068,0.282312925170068,0.282312925170068,0.282312925170068,0.282312925170068,0.282312925170068,0.282312925170068,0.282312925170068,0.282312925170068,0.282312925170068,0.282312925170068,0.282312925170068,0.282312925170068,0.282312925170068,0.282312925170068,0.282312925170068,0.282312925170068,0.282312925170068,0.282312925170068,0.282312925170068,0.282312925170068,0.282312925170068,0.282312925170068,0.282312925170068,0.282312925170068,0.282312925170068,0.282312925170068,0.282312925170068,0.282312925170068,0.282312925170068,0.282312925170068,0.282312925170068,0.282312925170068,0.282312925170068,0.282312925170068,0.282312925170068,0.282312925170068,0.282312925170068,0.282312925170068,0.282312925170068,0.282312925170068,0.282312925170068,0.282312925170068,0.282312925170068,0.282312925170068,0.282312925170068,0.282312925170068,0.282312925170068,0.282312925170068,0.282312925170068,0.282312925170068,0.282312925170068,0.282312925170068,0.282312925170068,0.282312925170068,0.282312925170068,0.2789115646258503,0.2789115646258503,0.2789115646258503,0.2789115646258503,0.2789115646258503,0.2789115646258503,0.2789115646258503,0.2789115646258503,0.2891156462585034,0.3129251700680272,0.3469387755102041,0.391156462585034,0.41496598639455784,0.43537414965986393,0.46938775510204084,0.4897959183673469,0.4965986394557823,0.5,0.5,0.5,0.5,0.5,0.5,0.5,0.5,0.5034013605442177,0.5034013605442177,0.5068027210884354,0.5102040816326531,0.5136054421768708,0.5170068027210885,0.5170068027210885,0.5170068027210885,0.5102040816326531,0.5034013605442177,0.4965986394557823,0.4897959183673469,0.48299319727891155,0.48299319727891155,0.48299319727891155,0.48299319727891155,0.47959183673469385,0.47619047619047616,0.46598639455782315,0.46258503401360546,0.45918367346938777,0.45918367346938777,0.45918367346938777,0.4557823129251701,0.4557823129251701,0.4523809523809524,0.4489795918367347,0.4387755102040816,0.43537414965986393,0.43537414965986393,0.43197278911564624,0.43197278911564624,0.43197278911564624,0.43197278911564624,0.43197278911564624,0.43197278911564624,0.43197278911564624,0.43197278911564624,0.43197278911564624,0.43197278911564624,0.43197278911564624,0.43197278911564624,0.43197278911564624,0.43197278911564624,0.43197278911564624,0.43197278911564624,0.43197278911564624,0.43197278911564624,0.43197278911564624,0.43197278911564624,0.43197278911564624,0.43197278911564624,0.43197278911564624,0.43197278911564624,0.43197278911564624,0.43197278911564624,0.43197278911564624,0.43197278911564624,0.43197278911564624,0.43197278911564624,0.43197278911564624,0.43197278911564624,0.43197278911564624,0.43197278911564624,0.43197278911564624,0.43197278911564624,0.43197278911564624,0.43197278911564624,0.43197278911564624,0.43197278911564624,0.43197278911564624,0.43197278911564624,0.43197278911564624,0.43197278911564624,0.43197278911564624,0.43197278911564624,0.43197278911564624,0.43197278911564624,0.43197278911564624,0.43197278911564624,0.43197278911564624,0.43197278911564624,0.43197278911564624,0.43197278911564624,0.43197278911564624,0.43197278911564624,0.43197278911564624,0.43197278911564624,0.43197278911564624,0.43197278911564624,0.43197278911564624,0.43197278911564624,0.43197278911564624,0.43197278911564624,0.43197278911564624,0.43197278911564624,0.43197278911564624,0.43197278911564624,0.43197278911564624,0.43197278911564624,0.43197278911564624,0.43197278911564624,0.43197278911564624,0.43197278911564624,0.43197278911564624,0.43197278911564624,0.43197278911564624,0.43197278911564624,0.43197278911564624,0.43197278911564624,0.43197278911564624,0.43197278911564624,0.43197278911564624,0.43197278911564624,0.43197278911564624,0.43197278911564624,0.43197278911564624,0.43197278911564624,0.43197278911564624,0.43197278911564624,0.43197278911564624,0.43197278911564624,0.43197278911564624,0.43197278911564624,0.43197278911564624,0.43197278911564624,0.43197278911564624,0.43197278911564624,0.43197278911564624,0.43197278911564624,0.43197278911564624,0.43197278911564624,0.43197278911564624,0.43197278911564624,0.43197278911564624,0.43197278911564624,0.43197278911564624,0.43197278911564624,0.43197278911564624,0.43197278911564624,0.43197278911564624,0.43197278911564624,0.43197278911564624,0.43197278911564624,0.43197278911564624,0.43197278911564624,0.43197278911564624,0.43197278911564624,0.43197278911564624,0.43197278911564624,0.43197278911564624,0.43197278911564624,0.43197278911564624,0.43197278911564624,0.43197278911564624,0.43197278911564624,0.43197278911564624,0.43197278911564624,0.43197278911564624,0.43197278911564624,0.43197278911564624,0.43197278911564624,0.43197278911564624,0.43197278911564624,0.43197278911564624,0.43197278911564624,0.43197278911564624,0.43197278911564624,0.43197278911564624,0.43197278911564624,0.43197278911564624,0.43197278911564624,0.43197278911564624,0.43197278911564624,0.43197278911564624,0.43197278911564624,0.43197278911564624,0.43197278911564624,0.43197278911564624,0.43197278911564624,0.43197278911564624,0.43197278911564624,0.43197278911564624,0.43197278911564624,0.43197278911564624,0.43197278911564624,0.43197278911564624,0.43197278911564624,0.43197278911564624,0.43197278911564624,0.43197278911564624,0.43197278911564624,0.43197278911564624,0.43197278911564624,0.43197278911564624,0.43197278911564624,0.43197278911564624,0.43197278911564624,0.43197278911564624,0.43197278911564624,0.43197278911564624,0.43197278911564624,0.4387755102040816,0.4523809523809524,0.48299319727891155,0.5340136054421769,0.6054421768707483,0.7244897959183674,0.8027210884353742,0.8741496598639455,0.9149659863945578,0.9387755102040817,0.9489795918367347,0.9523809523809523,0.9523809523809523,0.9523809523809523,0.9523809523809523,0.9523809523809523,0.9523809523809523,0.9523809523809523,0.9523809523809523,0.9523809523809523,0.9523809523809523,0.9523809523809523,0.9523809523809523,0.9523809523809523,0.9523809523809523,0.9523809523809523,0.9523809523809523,0.9523809523809523,0.9523809523809523,0.9489795918367347,0.9387755102040817,0.9319727891156463,0.9183673469387755,0.9047619047619048,0.891156462585034,0.8775510204081632,0.8537414965986394,0.8503401360544217,0.8503401360544217,0.8503401360544217,0.8503401360544217,0.8503401360544217,0.8503401360544217,0.8503401360544217,0.8503401360544217,0.8503401360544217,0.8503401360544217,0.8503401360544217,0.8503401360544217,0.8503401360544217,0.8503401360544217,0.8503401360544217,0.8503401360544217,0.8503401360544217,0.8503401360544217,0.8503401360544217,0.8503401360544217,0.8503401360544217,0.8503401360544217,0.8503401360544217,0.8503401360544217,0.8503401360544217,0.8503401360544217,0.8503401360544217,0.8503401360544217,0.8503401360544217,0.8503401360544217,0.8503401360544217,0.8503401360544217,0.8503401360544217,0.8503401360544217,0.8639455782312925,0.9591836734693877,1.0612244897959184,1.129251700680272,1.183673469387755,1.217687074829932,1.2414965986394557,1.248299319727891,1.248299319727891,1.248299319727891,1.248299319727891,1.248299319727891,1.248299319727891,1.248299319727891,1.248299319727891,1.2448979591836735,1.2414965986394557,1.2312925170068028,1.2244897959183674,1.217687074829932,1.2074829931972788,1.2040816326530612,1.1972789115646258,1.1972789115646258,1.1938775510204083,1.1938775510204083,1.1904761904761905,1.1870748299319729,1.1870748299319729,1.183673469387755,1.1802721088435375,1.1734693877551021,1.163265306122449,1.1496598639455782,1.1360544217687074,1.129251700680272,1.129251700680272,1.129251700680272,1.129251700680272,1.129251700680272,1.129251700680272,1.129251700680272,1.129251700680272,1.129251700680272,1.129251700680272,1.129251700680272,1.129251700680272,1.129251700680272,1.1258503401360545,1.1258503401360545,1.1258503401360545,1.1258503401360545,1.1258503401360545,1.1258503401360545,1.1258503401360545,1.1258503401360545,1.1258503401360545,1.1258503401360545,1.1258503401360545,1.1258503401360545,1.1258503401360545,1.1258503401360545,1.1258503401360545,1.1258503401360545,1.1258503401360545,1.1258503401360545,1.1258503401360545,1.1258503401360545,1.1258503401360545,1.1258503401360545,1.1258503401360545,1.1258503401360545,1.1258503401360545,1.1258503401360545,1.1258503401360545,1.1258503401360545,1.1258503401360545,1.1258503401360545,1.1258503401360545,1.1258503401360545,1.1258503401360545,1.1258503401360545,1.1258503401360545,1.1258503401360545,1.1258503401360545,1.1258503401360545,1.1258503401360545,1.1258503401360545,1.1258503401360545,1.1258503401360545,1.1258503401360545,1.1258503401360545,1.1258503401360545,1.1258503401360545,1.1258503401360545,1.1258503401360545,1.1258503401360545,1.1258503401360545,1.1258503401360545,1.1258503401360545,1.1258503401360545,1.1258503401360545,1.1258503401360545,1.1258503401360545,1.1258503401360545,1.1258503401360545,1.1258503401360545,1.1258503401360545,1.1258503401360545,1.1258503401360545,1.1258503401360545,1.1258503401360545,1.1258503401360545,1.1258503401360545,1.1258503401360545,1.1258503401360545,1.1258503401360545,1.1258503401360545,1.1258503401360545,1.1258503401360545,1.1258503401360545,1.1258503401360545,1.1258503401360545,1.1258503401360545,1.1258503401360545,1.1258503401360545,1.1258503401360545,1.1258503401360545,1.1258503401360545,1.1258503401360545,1.1258503401360545,1.1258503401360545,1.1258503401360545,1.1258503401360545,1.1258503401360545,1.1258503401360545,1.1258503401360545,1.1258503401360545,1.1258503401360545,1.1258503401360545,1.1258503401360545,1.1258503401360545,1.1258503401360545,1.1258503401360545,1.1258503401360545,1.1258503401360545,1.1258503401360545,1.1258503401360545,1.1258503401360545,1.1258503401360545,1.1258503401360545,1.1258503401360545,1.1258503401360545,1.1258503401360545,1.1258503401360545,1.1258503401360545,1.1258503401360545,1.1258503401360545,1.1258503401360545,1.1258503401360545,1.1258503401360545,1.1258503401360545,1.1258503401360545,1.1258503401360545,1.1258503401360545,1.1258503401360545,1.1258503401360545,1.1258503401360545,1.1258503401360545,1.1258503401360545,1.1258503401360545,1.1258503401360545,1.1258503401360545,1.1258503401360545,1.1258503401360545,1.1258503401360545,1.1258503401360545,1.1258503401360545,1.1258503401360545,1.1258503401360545,1.1258503401360545,1.1258503401360545,1.1258503401360545,1.1258503401360545,1.1258503401360545,1.1258503401360545,1.1258503401360545,1.1258503401360545,1.1258503401360545,1.1258503401360545,1.1258503401360545,1.1258503401360545,1.1258503401360545,1.1258503401360545,1.1258503401360545,1.1258503401360545,1.1258503401360545,1.1258503401360545,1.1258503401360545,1.1258503401360545,1.1258503401360545,1.1258503401360545,1.1258503401360545,1.1258503401360545,1.1258503401360545,1.1258503401360545,1.1258503401360545,1.1258503401360545,1.1258503401360545,1.1258503401360545,1.1258503401360545,1.1258503401360545,1.1258503401360545,1.1258503401360545,1.1258503401360545,1.1258503401360545,1.1258503401360545,1.1258503401360545,1.1258503401360545,1.1258503401360545,1.1258503401360545,1.1258503401360545,1.1258503401360545,1.1258503401360545,1.1258503401360545,1.1258503401360545,1.1258503401360545,1.1258503401360545,1.1258503401360545,1.1258503401360545,1.1258503401360545,1.1258503401360545,1.1258503401360545,1.1258503401360545,1.1258503401360545,1.1258503401360545,1.1258503401360545,1.1258503401360545,1.1258503401360545,1.1258503401360545,1.1258503401360545,1.1258503401360545,1.1258503401360545,1.1258503401360545,1.1258503401360545,1.1258503401360545,1.1258503401360545,1.1258503401360545,1.1258503401360545,1.1258503401360545,1.1258503401360545,1.1258503401360545,1.1258503401360545,1.1258503401360545,1.1258503401360545,1.1258503401360545,1.1258503401360545,1.1258503401360545,1.1258503401360545,1.1258503401360545,1.1258503401360545,1.1258503401360545,1.12