[{"success":true,"trial_type":"fullscreen","trial_index":0,"time_elapsed":9562,"internal_node_id":"0.0-0.0","protocol_sum":"","subject_identifier":408,"subject_sum":[252,86,219,198,212,101,43,49,91,134,183,28,141,104,140,28,205,234,156,95,31,208,119,99,210,101,159,222,46,47,196,154],"subject_pair":204,"STUDY_ID":"66a22c0758a3d5c9d26873c6","PROLIFIC_PID":"60863e5017b890dbc90d0bfb","SESSION_ID":"66a27151d8de996b72a07faf","practice_instructions":1,"leaderboard_instructions":1,"bonus":0,"reveal_word":false,"self_rating":"4","confidence":"15"},{"view_history":"[{\"page_index\":0,\"viewing_time\":7130.300000000745}]","rt":7130.9000000003725,"trial_type":"instructions","trial_index":1,"time_elapsed":16694,"internal_node_id":"0.0-1.0","protocol_sum":"","subject_identifier":408,"subject_sum":[252,86,219,198,212,101,43,49,91,134,183,28,141,104,140,28,205,234,156,95,31,208,119,99,210,101,159,222,46,47,196,154],"subject_pair":204,"STUDY_ID":"66a22c0758a3d5c9d26873c6","PROLIFIC_PID":"60863e5017b890dbc90d0bfb","SESSION_ID":"66a27151d8de996b72a07faf","practice_instructions":1,"leaderboard_instructions":1,"bonus":0,"reveal_word":false,"self_rating":"4","confidence":"15"},{"view_history":"[{\"page_index\":0,\"viewing_time\":16832.200000001118}]","rt":16832.400000000373,"trial_type":"instructions","trial_index":2,"time_elapsed":33526,"internal_node_id":"0.0-2.0-0.0","protocol_sum":"","subject_identifier":408,"subject_sum":[252,86,219,198,212,101,43,49,91,134,183,28,141,104,140,28,205,234,156,95,31,208,119,99,210,101,159,222,46,47,196,154],"subject_pair":204,"STUDY_ID":"66a22c0758a3d5c9d26873c6","PROLIFIC_PID":"60863e5017b890dbc90d0bfb","SESSION_ID":"66a27151d8de996b72a07faf","practice_instructions":1,"leaderboard_instructions":1,"bonus":0,"reveal_word":false,"self_rating":"4","confidence":"15"},{"rt":3881.5,"responses":"{\"Q0\":\"... reveal the word with as <b>few letter guesses</b> as possible\"}","question_order":"[0]","trial_type":"survey-multi-choice","trial_index":3,"time_elapsed":37409,"internal_node_id":"0.0-2.0-1.0","protocol_sum":"","subject_identifier":408,"subject_sum":[252,86,219,198,212,101,43,49,91,134,183,28,141,104,140,28,205,234,156,95,31,208,119,99,210,101,159,222,46,47,196,154],"subject_pair":204,"correct":true,"test_part":"multichoice_nonpretend","STUDY_ID":"66a22c0758a3d5c9d26873c6","PROLIFIC_PID":"60863e5017b890dbc90d0bfb","SESSION_ID":"66a27151d8de996b72a07faf","practice_instructions":1,"leaderboard_instructions":1,"bonus":0,"reveal_word":false,"self_rating":"4","confidence":"15"},{"view_history":"[{\"page_index\":0,\"viewing_time\":1548.300000000745}]","rt":1548.4000000003725,"trial_type":"instructions","trial_index":4,"time_elapsed":38959,"internal_node_id":"0.0-3.0","protocol_sum":"","subject_identifier":408,"subject_sum":[252,86,219,198,212,101,43,49,91,134,183,28,141,104,140,28,205,234,156,95,31,208,119,99,210,101,159,222,46,47,196,154],"subject_pair":204,"STUDY_ID":"66a22c0758a3d5c9d26873c6","PROLIFIC_PID":"60863e5017b890dbc90d0bfb","SESSION_ID":"66a27151d8de996b72a07faf","practice_instructions":1,"leaderboard_instructions":1,"bonus":0,"reveal_word":false,"self_rating":"4","confidence":"15"},{"word":"ZEBRA","click_log":{"letter":["","A","N","R","C","B","O","E","Z"],"t":[0,2856.39999999851,18239.699999999255,22606.5,30990.39999999851,36307.29999999888,38039.79999999888,41289.5,42239.699999999255],"hit":[null,1,0,1,0,1,0,1,1],"asked":["","A","AN","ANR","ANRC","ANRCB","ANRCBO","ANRCBOE","ANRCBOEZ"],"word_state":["_____","____A","____A","___RA","___RA","__BRA","__BRA","_EBRA","ZEBRA"]},"hover_log":{"letter":["?","?","?","?","?","?","?","?","?","?","?","?","?","?","?","?","?","?","?","?","?","?","?","?","?","?","?","?","?","?","?","?","?","?","?","?","?","?","?","?","?","?","?","?","?","?","?","?","?","?","?","?","?","?","?","?","?","?","?","?","?","?","?","?","?","?","?","?","?","?","?","?","?","?","?","?","?","?","?","?","?","?","?","?","?","?","?","?","?","?","?","?","?","?","?","?","?","?","?","?","?","?","?","?","?","?","?","?","?","?","?","?","?","?","?","?","?","?","?","?","?","?","?","L","L","?","K","K","?","?","?","?","?","?","?","?","?","?","?","?","?","?","?","?","?","A","A","A","A","A","A","A","A","A","A","A","A","A","A","A","A","A","A","A","A","A","A","A","A","A","A","A","A","A","A","A","A","A","A","A","A","A","A","A","A","A","?","?","?","?","K","K","K","?","?","?","?","?","?","?","U","U","U","U","U","U","?","?","?","?","?","?","?","?","?","?","?","?","?","?","?","?","?","?","?","?","?","?","?","?","?","?","?","?","?","?","?","?","?","?","?","?","?","?","?","?","?","?","?","?","?","?","?","?","?","?","?","?","?","?","?","?","?","?","?","?","?","?","?","?","?","?","?","?","?","?","?","?","?","?","?","?","?","?","?","?","?","?","?","?","?","?","?","?","?","?","?","?","?","?","?","?","?","?","?","?","?","?","?","?","?","?","?","?","?","?","?","?","?","?","?","?","?","?","?","?","?","?","?","?","?","?","?","?","?","?","?","?","?","?","?","?","?","?","?","?","?","?","?","?","?","?","?","?","?","?","?","?","?","?","?","?","?","?","?","?","?","?","?","?","?","?","?","?","?","?","?","?","?","?","?","?","?","?","?","?","?","?","?","?","?","?","?","?","?","?","?","?","?","?","?","?","?","?","?","?","?","?","?","?","?","?","?","?","?","?","?","?","?","?","?","?","?","?","?","?","?","?","?","?","?","?","?","?","?","?","?","?","?","?","?","?","?","?","?","?","?","?","?","?","?","?","?","?","?","?","?","?","?","?","?","?","?","?","?","?","?","?","?","?","?","?","?","?","?","?","?","?","?","?","?","?","?","?","?","?","?","?","?","?","?","?","?","?","?","?","?","?","?","?","?","?","?","?","?","?","?","?","?","?","?","?","?","?","?","?","?","?","?","?","?","?","?","?","?","?","?","?","?","?","?","?","?","?","?","?","?","?","?","?","?","?","?","?","?","?","?","?","?","?","?","?","?","?","?","?","?","?","?","?","?","?","?","?","?","?","?","?","?","?","?","?","?","?","?","?","?","?","?","?","?","?","?","?","?","?","?","?","?","?","?","?","?","?","?","?","?","?","?","?","?","?","?","?","?","?","?","?","?","?","?","?","?","?","?","?","?","?","?","?","?","?","?","?","?","?","?","?","?","?","?","?","?","?","?","?","?","?","?","?","?","?","?","?","?","?","?","?","?","?","?","?","?","?","?","?","?","?","?","?","?","?","?","?","?","?","?","?","?","?","?","?","?","?","?","?","?","?","?","?","?","?","?","?","?","?","?","?","?","?","?","?","?","?","?","?","?","?","?","?","?","?","?","?","?","?","?","?","?","?","?","?","?","?","?","?","?","?","?","?","?","?","?","?","?","?","?","?","?","?","?","?","?","?","?","?","?","?","?","?","?","?","?","?","?","?","?","?","?","?","?","?","?","?","?","?","?","?","?","?","?","?","?","?","?","?","?","?","?","?","?","?","?","?","?","?","?","?","?","?","?","?","?","?","?","?","?","?","?","?","?","?","?","?","?","?","?","?","?","?","?","?","?","?","?","?","?","?","?","?","?","?","?","?","?","?","?","?","?","?","?","?","?","?","?","?","?","?","?","?","?","?","?","?","?","?","?","?","?","?","?","?","?","?","?","?","?","?","?","?","?","?","?","?","?","?","?","?","?","?","?","?","?","?","?","?","?","?","?","?","?","?","?","?","?","?","?","?","?","?","?","?","?","?","?","?","?","?","?","?","?","?","?","?","?","?","?","?","?","?","?","?","?","?","?","?","?","?","?","?","?","?","?","?","?","?","?","?","?","?","?","?","?","?","?","?","?","?","?","?","?","?","?","?","?","?","?","?","?","?","?","?","?","?","?","?","?","?","?","?","?","?","?","?","?","?","?","?","?","?","?","?","?","?","?","?","?","?","?","?","?","?","?","?","?","?","?","?","?","?","?","?","?","?","?","?","?","?","?","?","?","?","?","?","?","?","?","?","?","?","?","?","?","?","?","?","?","?","?","?","?","?","?","?","?","?","?","?","?","?","?","?","?","?","?","?","?","?","?","?","?","?","?","?","?","?","?","?","?","?","?","?","?","?","?","?","?","?","?","?","?","?","?","?","?","?","?","V","V","V","V","V","?","?","?","?","?","N","N","N","N","N","N","N","N","N","N","N","N","N","N","N","N","N","N","N","N","N","N","N","N","N","N","N","N","N","N","N","N","N","N","N","N","N","N","N","N","N","N","N","N","N","N","N","N","N","N","N","N","N","N","N","N","N","N","N","N","N","N","N","N","N","N","N","N","N","N","N","N","N","N","N","N","N","?","?","?","?","?","?","?","?","V","V","?","?","?","?","?","?","?","?","?","?","?","?","?","?","?","?","?","?","?","?","?","?","?","?","?","?","?","?","?","?","?","?","?","?","?","?","?","?","?","?","?","?","?","?","?","?","?","?","?","?","?","?","?","?","?","?","?","?","?","?","?","?","?","?","?","?","?","?","?","?","?","?","?","?","?","?","?","?","?","?","?","?","?","?","?","?","?","?","?","?","?","?","?","?","?","?","?","V","V","V","V","V","?","?","?","?","?","?","?","?","?","?","?","?","?","?","?","?","?","?","?","?","?","?","?","?","?","?","?","?","?","?","?","?","?","?","?","?","?","?","?","?","?","?","P","P","P","?","?","?","?","?","?","?","?","?","?","?","?","?","?","?","?","?","?","?","Q","Q","Q","?","?","?","?","?","?","?","?","?","?","R","R","R","R","R","R","R","R","R","R","R","R","R","R","R","R","R","R","R","R","R","R","R","R","R","R","R","R","R","R","R","R","R","R","R","R","R","R","R","R","R","R","R","R","R","R","R","R","R","R","R","R","R","R","R","R","R","R","R","R","R","R","R","R","R","R","R","R","R","R","R","R","R","R","R","R","R","R","R","R","R","R","?","?","?","?","?","Z","Z","Z","Z","Z","Z","Z","Z","Z","Z","Z","Z","Z","Z","Z","Z","Z","Z","Z","Z","Z","Z","Z","Z","Z","Z","Z","Z","Z","Z","Z","Z","Z","Z","Z","Z","Z","Z","Z","Z","Z","Z","Z","Z","Z","Z","Z","Z","Z","Z","Z","Z","Z","Z","Z","Z","Z","Z","Z","Z","Z","Z","Z","Z","Z","Z","Z","Z","Z","Z","Z","Z","Z","Z","Z","Z","Z","Z","Z","Z","Z","Z","Z","Z","Z","Z","Z","Z","Z","Z","Z","Z","Z","Z","Z","Z","Z","Z","Z","Z","Z","Z","Z","Z","Z","Z","Z","Z","Z","Z","Z","Z","Z","Z","Z","Z","Z","Z","Z","Z","Z","Z","Z","Z","Z","Z","Z","Z","Z","Z","Z","?","Y","?","X","?","?","?","?","?","?","?","?","?","?","?","?","?","?","?","?","?","?","?","?","?","?","?","?","?","?","?","?","?","?","?","?","?","?","?","?","?","?","?","?","?","?","?","?","?","?","?","?","?","?","?","?","?","?","?","?","?","?","?","?","?","?","?","?","?","?","?","?","?","?","?","?","?","?","?","?","?","?","?","?","?","?","?","?","?","?","?","?","?","?","?","?","?","?","?","?","?","?","?","?","?","?","?","?","?","?","?","?","?","?","?","?","?","?","?","?","?","?","?","?","?","?","?","?","?","?","?","?","?","?","?","?","?","?","?","?","?","?","?","?","?","?","?","?","?","?","?","?","?","?","?","?","?","?","?","?","?","?","?","?","?","?","?","?","?","?","?","?","?","?","?","?","?","?","?","?","?","?","?","?","?","?","?","?","?","?","?","?","?","?","?","?","?","?","?","?","?","?","?","?","?","?","?","?","?","?","?","?","?","?","?","?","?","?","?","?","?","?","?","?","?","?","?","?","?","?","?","?","?","?","?","?","?","?","?","V","V","V","V","V","V","V","V","V","?","U","U","U","U","U","U","U","U","U","U","?","?","?","?","?","L","L","L","L","L","L","L","L","L","L","L","L","L","L","L","?","?","?","?","?","?","C","C","C","C","C","C","C","C","C","C","C","C","C","C","C","C","C","C","C","C","C","C","C","C","C","C","C","C","C","C","C","C","C","C","C","C","C","C","C","C","C","C","C","C","C","C","C","C","C","C","C","C","C","C","C","C","C","C","C","C","C","C","C","C","C","C","C","C","C","C","C","C","C","C","C","C","C","C","C","C","C","?","?","L","L","?","?","U","U","U","U","U","U","U","U","U","U","U","U","U","U","U","U","U","U","U","U","U","U","U","?","?","?","?","?","?","?","?","?","?","?","?","?","?","?","?","?","?","?","?","?","?","?","?","?","?","?","?","?","?","?","?","?","?","?","?","?","?","?","?","?","?","?","?","?","?","?","?","?","?","?","?","?","?","?","?","?","?","?","?","?","?","?","?","?","?","?","?","?","?","?","?","?","?","?","?","?","?","?","?","?","?","?","?","?","?","?","?","?","?","?","?","?","?","?","?","?","?","?","?","?","?","?","?","?","?","?","?","?","?","?","?","?","?","?","?","?","?","?","?","?","?","?","?","?","?","?","?","?","?","?","?","?","?","?","?","V","V","V","V","?","?","?","?","?","?","?","?","?","O","O","O","O","O","O","O","O","O","O","?","?","N","N","N","N","N","N","N","N","?","?","M","M","M","M","M","M","M","M","M","M","M","?","?","?","?","?","?","?","?","?","?","L","L","L","L","L","L","L","?","?","?","?","?","?","?","B","B","B","B","B","B","B","B","B","B","B","B","B","B","B","B","B","B","B","B","B","B","B","B","B","B","B","B","B","B","B","B","B","B","B","B","B","B","B","B","B","B","B","B","B","B","B","B","B","B","B","B","B","B","B","B","B","B","B","B","C","C","?","D","E","E","E","?","F","F","F","?","?","?","?","?","?","?","?","?","?","?","?","?","?","?","?","?","?","?","?","?","?","?","?","?","?","P","P","P","P","P","P","?","O","O","O","O","O","O","O","O","O","O","O","O","O","O","O","O","O","O","O","O","O","O","O","O","O","O","O","O","O","O","O","O","O","O","O","O","O","O","O","O","O","O","O","O","O","O","O","O","O","O","O","O","O","O","O","O","O","O","O","O","O","O","O","O","O","O","O","O","O","O","O","O","O","O","O","O","O","O","O","O","O","O","O","O","O","O","O","O","O","O","O","O","O","O","O","O","O","O","O","O","O","O","O","O","O","O","O","O","O","O","O","O","O","O","O","O","O","O","O","O","O","O","O","O","O","O","O","O","O","O","O","O","O","O","O","O","O","O","O","O","O","O","O","O","O","O","O","O","O","O","O","O","O","O","O","O","O","O","O","O","O","O","O","O","O","O","O","O","O","O","O","O","O","O","O","O","O","O","O","O","O","O","O","O","O","O","O","?","?","?","?","E","E","E","E","E","E","E","E","E","E","E","E","E","E","E","E","E","E","E","E","E","E","E","E","E","E","E","E","E","E","E","E","E","E","E","E","E","E","E","E","E","E","E","?","?","O","?","?","?","?","Z","Z","Z","Z","Z","?","?","?","?","?","?","?","?","?","?","?","?","Z","Z","Z","Z","Z","Z","Z","Z","Z","Z","Z","Z","Z","Z","Z","Z","Z","Z","Z","Z","Z","Z","Z","Z","Z","Z","Z","Z","Z","Z","Z","Z","Z","Z","Z","Z","Z","Z","Z","Z","Z","Z","Z","Z","Z","Z","Z","Z","Z","Z","Z","Z","Z","Z","Z","Z","Z","Z","Z","Z","Z","Z","Z","Z","Z","Z","Z","Z","Z","Z","Z","Z","Z","Z","Z","Z","Z","Z","Z","Z","Z","Z","Z","Z","Z","Z","Z","Z","Z","Z","Z","Z","Z","Z","Z","Z","Z","Z","Z","Z","Z","Z","Z","Z","Z","Z","Z","Z","Z","Z","Z","Z","Z","Z","Z","Z","Z","Z","Z","Z","Z","Z","Z","Z","Z","Z","Z","Z","Z","Z","Z","Z","Z","Z","Z","Z","Z"],"t":[29,92,106,121,139,155,173,189,206,222,239,255,272,289,305,322,339,356,380,388,406,423,439,455,471,489,505,522,539,555,572,589,605,623,639,655,672,689,705,722,738,756,772,788,805,822,839,855,872,888,905,922,939,956,971,989,1005,1022,1039,1055,1072,1089,1106,1122,1138,1155,1173,1188,1205,1222,1239,1255,1271,1289,1306,1322,1339,1356,1372,1390,1406,1421,1439,1454,1473,1490,1505,1521,1539,1556,1573,1589,1606,1622,1639,1656,1672,1688,1706,1723,1739,1756,1772,1788,1804,1821,1838,1854,1872,1888,1905,1922,1938,1955,1972,1987,2006,2022,2039,2056,2071,2089,2106,2123,2138,2155,2172,2188,2205,2221,2238,2256,2272,2289,2306,2322,2339,2356,2373,2389,2406,2422,2439,2454,2472,2488,2506,2522,2538,2554,2572,2589,2605,2623,2639,2656,2672,2689,2706,2723,2738,2756,2773,2789,2806,2822,2839,2855,2872,2896,2922,2939,2956,2973,2989,3005,3023,3039,3056,3071,3089,3106,3123,3139,3155,3173,3189,3205,3221,3238,3255,3272,3288,3306,3322,3338,3355,3373,3389,3405,3421,3438,3454,3472,3489,3506,3523,3538,3555,3571,3588,3605,3623,3639,3656,3671,3689,3706,3723,3739,3756,3772,3789,3805,3821,3839,3855,3871,3888,3904,3922,3939,3955,3972,3988,4005,4022,4038,4054,4072,4088,4105,4122,4138,4155,4172,4189,4205,4221,4238,4255,4272,4289,4305,4322,4338,4355,4372,4388,4405,4422,4439,4454,4472,4487,4505,4522,4538,4555,4571,4587,4605,4622,4638,4656,4672,4689,4706,4722,4738,4756,4771,4789,4806,4822,4839,4855,4872,4888,4904,4921,4938,4955,4972,4989,5005,5021,5038,5056,5072,5089,5105,5122,5138,5154,5172,5189,5205,5222,5238,5255,5272,5288,5305,5322,5339,5355,5372,5389,5405,5422,5439,5454,5472,5489,5505,5522,5538,5554,5571,5588,5604,5622,5638,5655,5671,5687,5705,5722,5739,5755,5772,5789,5805,5821,5838,5856,5872,5889,5904,5921,5938,5955,5972,5988,6005,6022,6038,6056,6071,6089,6105,6122,6138,6155,6172,6189,6205,6221,6239,6255,6271,6287,6305,6322,6338,6355,6372,6388,6406,6422,6439,6454,6471,6487,6505,6522,6538,6555,6572,6588,6605,6622,6638,6655,6672,6688,6705,6722,6738,6755,6772,6788,6805,6822,6838,6856,6872,6888,6905,6922,6938,6954,6972,6988,7005,7022,7038,7056,7072,7089,7105,7122,7138,7155,7172,7189,7206,7222,7239,7254,7271,7288,7304,7322,7338,7356,7372,7388,7405,7422,7438,7454,7472,7488,7506,7522,7539,7555,7572,7588,7605,7621,7638,7655,7671,7688,7705,7722,7739,7755,7772,7788,7805,7822,7839,7855,7872,7888,7906,7922,7938,7954,7971,7989,8005,8022,8038,8055,8071,8088,8105,8122,8138,8155,8172,8187,8206,8221,8239,8255,8271,8288,8304,8321,8338,8355,8372,8388,8405,8422,8439,8454,8471,8489,8505,8522,8538,8556,8572,8588,8605,8622,8638,8655,8672,8688,8705,8721,8738,8755,8772,8788,8805,8822,8838,8854,8871,8888,8906,8922,8939,8955,8971,8987,9004,9021,9038,9055,9072,9089,9106,9122,9138,9155,9172,9189,9205,9222,9238,9256,9271,9289,9305,9321,9337,9354,9372,9388,9405,9422,9438,9455,9472,9489,9506,9522,9538,9555,9572,9589,9606,9622,9639,9655,9671,9688,9705,9722,9739,9756,9771,9788,9805,9822,9838,9855,9871,9889,9905,9922,9938,9955,9972,9988,10005,10022,10037,10055,10071,10088,10106,10122,10138,10156,10172,10189,10205,10222,10239,10256,10272,10289,10305,10321,10338,10354,10371,10387,10405,10422,10439,10454,10472,10488,10506,10522,10539,10556,10572,10589,10605,10621,10639,10656,10672,10688,10704,10722,10738,10755,10772,10789,10806,10822,10838,10856,10871,10887,10905,10922,10939,10955,10972,10989,11005,11021,11037,11055,11072,11088,11105,11121,11138,11156,11172,11189,11206,11222,11239,11255,11271,11289,11305,11322,11338,11355,11371,11388,11404,11422,11439,11454,11472,11489,11506,11522,11538,11555,11572,11587,11606,11622,11638,11656,11671,11688,11705,11722,11738,11755,11772,11788,11804,11822,11839,11856,11872,11889,11905,11922,11938,11955,11971,11989,12005,12022,12038,12054,12071,12088,12106,12122,12139,12156,12171,12189,12205,12222,12238,12256,12272,12288,12306,12322,12338,12355,12371,12388,12404,12422,12438,12454,12471,12488,12505,12522,12539,12556,12571,12589,12605,12622,12639,12656,12672,12689,12705,12722,12737,12754,12772,12789,12806,12822,12839,12855,12871,12889,12905,12922,12939,12956,12971,12988,13005,13022,13038,13054,13071,13088,13105,13122,13138,13155,13172,13188,13205,13223,13239,13255,13272,13288,13305,13323,13339,13356,13372,13388,13405,13421,13437,13454,13471,13488,13504,13522,13538,13555,13572,13588,13604,13621,13638,13656,13671,13687,13704,13721,13738,13755,13771,13788,13804,13822,13839,13855,13871,13888,13904,13922,13938,13955,13972,13989,14004,14022,14038,14054,14071,14087,14105,14122,14139,14154,14171,14188,14204,14221,14239,14254,14272,14289,14305,14321,14339,14354,14372,14389,14405,14421,14438,14454,14472,14488,14506,14521,14538,14555,14572,14589,14604,14621,14639,14654,14672,14688,14705,14722,14738,14755,14771,14789,14805,14821,14838,14855,14872,14888,14905,14921,14938,14955,14971,14988,15005,15021,15039,15055,15072,15087,15104,15121,15138,15155,15171,15188,15205,15221,15239,15255,15271,15287,15306,15321,15338,15356,15372,15388,15405,15421,15438,15454,15471,15488,15504,15522,15538,15556,15572,15587,15606,15621,15638,15656,15671,15688,15705,15722,15738,15756,15771,15788,15804,15821,15838,15855,15871,15888,15905,15922,15938,15955,15972,15988,16005,16022,16039,16055,16072,16088,16105,16122,16139,16155,16171,16189,16204,16222,16239,16256,16271,16289,16306,16322,16337,16354,16372,16389,16406,16422,16439,16454,16471,16487,16505,16522,16539,16556,16572,16589,16605,16622,16639,16656,16672,16689,16706,16722,16738,16755,16772,16788,16804,16822,16838,16855,16871,16888,16906,16921,16939,16956,16972,16988,17005,17022,17039,17056,17072,17089,17106,17122,17138,17155,17171,17189,17205,17223,17239,17256,17271,17289,17305,17321,17339,17355,17372,17389,17405,17422,17439,17454,17472,17488,17505,17521,17538,17555,17572,17588,17606,17623,17639,17656,17672,17689,17706,17722,17739,17756,17772,17789,17805,17821,17838,17855,17872,17889,17905,17922,17938,17956,17972,17989,18006,18022,18039,18055,18072,18088,18106,18122,18139,18154,18171,18187,18205,18221,18238,18255,18272,18289,18304,18322,18338,18355,18372,18389,18405,18422,18438,18454,18472,18489,18505,18522,18538,18555,18571,18589,18605,18622,18637,18654,18672,18689,18705,18721,18738,18756,18772,18789,18804,18821,18838,18854,18871,18888,18905,18921,18939,18955,18971,18989,19005,19021,19038,19056,19072,19089,19105,19122,19139,19154,19171,19188,19204,19222,19239,19255,19272,19288,19306,19322,19339,19355,19372,19388,19405,19422,19439,19454,19472,19489,19505,19521,19538,19554,19572,19588,19604,19622,19639,19655,19671,19688,19705,19722,19738,19755,19772,19789,19806,19822,19839,19855,19871,19887,19905,19921,19938,19955,19972,19988,20004,20021,20039,20056,20072,20088,20104,20122,20139,20154,20172,20188,20204,20221,20238,20255,20271,20288,20306,20322,20338,20356,20371,20389,20405,20421,20439,20455,20472,20489,20505,20522,20538,20555,20571,20588,20605,20621,20639,20655,20672,20688,20704,20722,20738,20755,20771,20789,20805,20822,20838,20855,20871,20888,20905,20921,20939,20955,20972,20989,21005,21022,21039,21055,21071,21089,21104,21121,21139,21155,21172,21189,21205,21223,21239,21254,21272,21289,21306,21322,21338,21356,21372,21389,21405,21422,21439,21454,21472,21489,21506,21522,21538,21555,21572,21588,21605,21622,21639,21656,21671,21689,21705,21723,21739,21756,21772,21789,21806,21822,21839,21856,21872,21889,21906,21922,21940,21955,21972,21989,22006,22022,22039,22056,22071,22088,22105,22122,22139,22156,22173,22189,22206,22222,22238,22255,22271,22288,22305,22322,22338,22355,22372,22389,22406,22422,22439,22454,22472,22489,22506,22523,22539,22556,22572,22589,22605,22622,22639,22655,22672,22689,22705,22722,22738,22755,22772,22789,22806,22821,22839,22856,22871,22888,22906,22922,22939,22955,22971,22988,23004,23022,23039,23054,23072,23088,23105,23121,23138,23154,23171,23187,23205,23221,23237,23254,23271,23288,23304,23321,23339,23355,23372,23388,23404,23422,23438,23454,23472,23488,23504,23521,23538,23554,23572,23588,23605,23621,23638,23655,23672,23688,23705,23722,23738,23754,23772,23788,23805,23822,23838,23854,23871,23888,23904,23921,23938,23954,23971,23989,24005,24022,24038,24055,24071,24089,24105,24122,24138,24155,24172,24188,24205,24222,24238,24254,24271,24288,24305,24322,24338,24355,24372,24388,24404,24422,24439,24454,24471,24488,24505,24522,24538,24555,24572,24588,24605,24621,24639,24655,24672,24688,24705,24722,24738,24755,24771,24788,24805,24822,24839,24855,24872,24887,24905,24922,24938,24955,24971,24988,25005,25021,25039,25056,25071,25089,25106,25121,25138,25155,25171,25188,25206,25221,25237,25256,25272,25288,25305,25322,25337,25355,25372,25388,25405,25421,25439,25454,25472,25488,25506,25522,25539,25555,25572,25589,25606,25622,25639,25655,25672,25689,25705,25721,25738,25756,25771,25789,25805,25822,25839,25854,25873,25889,25905,25922,25939,25954,25972,25988,26004,26022,26039,26056,26072,26088,26106,26122,26138,26156,26172,26189,26205,26222,26239,26255,26272,26289,26305,26321,26339,26355,26372,26389,26405,26423,26439,26455,26472,26489,26506,26523,26539,26555,26571,26589,26606,26621,26639,26656,26671,26688,26704,26722,26738,26755,26771,26789,26806,26822,26839,26856,26871,26889,26906,26922,26938,26955,26972,26989,27006,27022,27038,27055,27072,27088,27106,27122,27138,27155,27172,27189,27206,27222,27239,27256,27272,27289,27306,27322,27339,27356,27373,27389,27405,27421,27439,27454,27472,27489,27506,27522,27539,27555,27572,27589,27606,27622,27639,27656,27672,27688,27706,27722,27738,27754,27771,27788,27805,27821,27839,27855,27872,27889,27905,27922,27938,27955,27972,27988,28005,28022,28038,28055,28072,28088,28105,28122,28139,28156,28172,28187,28204,28222,28239,28254,28272,28288,28305,28321,28338,28354,28371,28388,28405,28422,28438,28454,28472,28488,28505,28522,28539,28555,28572,28589,28605,28622,28639,28655,28672,28689,28705,28721,28738,28755,28772,28789,28805,28822,28839,28855,28872,28889,28905,28921,28938,28955,28972,28989,29005,29021,29039,29055,29072,29088,29105,29122,29138,29155,29171,29189,29205,29222,29239,29256,29271,29288,29305,29322,29339,29355,29372,29388,29404,29421,29439,29454,29471,29489,29505,29522,29537,29556,29572,29589,29605,29622,29638,29655,29672,29688,29706,29721,29738,29754,29771,29789,29805,29822,29838,29854,29872,29889,29906,29922,29938,29956,29972,29989,30006,30022,30039,30056,30071,30088,30105,30121,30139,30155,30171,30189,30205,30221,30239,30256,30272,30289,30305,30322,30338,30354,30371,30389,30405,30421,30439,30454,30472,30488,30506,30522,30539,30554,30572,30588,30605,30622,30639,30655,30672,30689,30705,30723,30738,30755,30771,30788,30806,30823,30839,30855,30871,30889,30905,30922,30939,30955,30971,30989,31006,31022,31039,31056,31072,31089,31106,31122,31139,31155,31172,31189,31206,31223,31239,31256,31271,31288,31305,31322,31339,31356,31372,31389,31405,31422,31439,31454,31472,31488,31504,31522,31538,31555,31572,31589,31606,31622,31639,31656,31671,31689,31706,31722,31739,31756,31772,31789,31805,31822,31839,31854,31872,31889,31904,31922,31939,31955,31972,31989,32006,32022,32039,32056,32072,32088,32105,32121,32138,32155,32172,32189,32205,32222,32239,32256,32272,32288,32306,32322,32339,32355,32372,32389,32405,32422,32438,32454,32472,32489,32505,32522,32538,32554,32571,32589,32605,32622,32639,32655,32672,32688,32706,32721,32738,32754,32772,32789,32805,32822,32838,32856,32872,32889,32906,32921,32939,32956,32972,32988,33005,33022,33038,33055,33072,33089,33105,33122,33138,33155,33172,33189,33205,33222,33238,33255,33272,33288,33305,33321,33338,33355,33371,33389,33406,33421,33437,33454,33473,33488,33505,33522,33538,33555,33572,33588,33605,33622,33638,33655,33672,33689,33705,33722,33738,33756,33772,33789,33804,33822,33838,33856,33872,33889,33905,33922,33939,33956,33972,33988,34004,34022,34038,34054,34071,34089,34104,34122,34139,34156,34172,34189,34205,34222,34238,34255,34273,34288,34306,34322,34338,34355,34372,34389,34406,34422,34439,34455,34471,34488,34504,34522,34539,34556,34571,34588,34605,34622,34638,34656,34671,34689,34705,34723,34738,34754,34772,34788,34805,34822,34838,34855,34872,34889,34905,34922,34939,34956,34972,34989,35005,35022,35038,35056,35072,35089,35105,35123,35138,35155,35171,35188,35206,35222,35239,35255,35271,35289,35306,35321,35339,35355,35373,35389,35406,35422,35439,35455,35471,35488,35505,35521,35538,35555,35572,35589,35605,35622,35638,35656,35671,35689,35705,35722,35739,35756,35772,35789,35806,35821,35838,35854,35871,35889,35906,35922,35938,35955,35972,35988,36006,36023,36039,36054,36072,36089,36105,36122,36139,36155,36172,36188,36205,36222,36239,36256,36272,36289,36306,36322,36339,36356,36372,36389,36406,36422,36439,36454,36471,36489,36506,36522,36539,36556,36572,36589,36605,36622,36638,36656,36673,36689,36706,36722,36739,36756,36772,36789,36804,36822,36839,36855,36871,36889,36906,36923,36939,36956,36973,36989,37005,37021,37039,37056,37072,37089,37106,37122,37139,37155,37172,37188,37204,37221,37239,37255,37271,37289,37306,37322,37338,37355,37372,37388,37404,37422,37439,37455,37471,37489,37505,37522,37538,37555,37571,37589,37605,37623,37639,37655,37672,37689,37705,37723,37738,37756,37771,37789,37805,37821,37839,37856,37872,37888,37904,37922,37938,37956,37972,37988,38004,38023,38039,38056,38072,38088,38106,38122,38139,38156,38171,38189,38204,38221,38238,38256,38272,38289,38306,38322,38339,38355,38372,38389,38405,38422,38439,38454,38472,38489,38505,38521,38539,38555,38571,38588,38605,38622,38638,38655,38672,38688,38706,38722,38739,38755,38771,38788,38806,38821,38839,38855,38871,38888,38904,38921,38939,38955,38972,38988,39004,39022,39039,39055,39071,39089,39105,39123,39139,39155,39172,39189,39206,39222,39238,39256,39271,39289,39305,39322,39339,39356,39371,39388,39405,39422,39439,39454,39472,39489,39506,39522,39538,39555,39572,39588,39606,39622,39639,39656,39671,39689,39705,39722,39738,39756,39771,39789,39805,39821,39839,39856,39872,39889,39906,39921,39939,39955,39972,39988,40006,40022,40039,40054,40071,40088,40105,40121,40139,40154,40172,40189,40204,40222,40239,40256,40272,40289,40306,40323,40338,40355,40372,40389,40406,40423,40439,40455,40471,40488,40506,40522,40539,40556,40572,40589,40605,40622,40639,40656,40672,40689,40706,40723,40738,40755,40772,40788,40806,40822,40839,40856,40872,40888,40906,40922,40939,40956,40972,40989,41005,41021,41039,41056,41072,41089,41105,41123,41138,41155,41173,41189,41206,41223,41239,41255,41271,41288,41305,41322,41338,41356,41373,41389,41405,41422,41439,41455,41472,41489,41506,41522,41539,41555,41573,41589,41606,41622,41638,41655,41672,41689,41706,41722,41739,41756,41773,41789,41805,41822,41839,41856,41873,41889,41906,41922,41939,41954,41971,41989,42006,42023,42039,42055,42072,42088,42106,42122,42138,42154,42172,42189,42206,42222,42239,42258,42273,42289,42305,42322,42339,42356,42372,42389,42406,42423,42439,42454,42471,42489,42505,42523,42539,42556,42571,42588,42605,42621,42639,42655,42673,42688,42706,42722,42739,42755,42772,42788,42806,42823,42839,42856,42872,42888,42905,42922,42939,42955,42971,42989,43005,43021,43039,43055,43072,43089,43106,43122,43138,43156,43171,43189,43205,43222,43238,43255,43272,43289,43304,43321,43339,43356,43371,43389,43405,43422,43438,43454,43471,43489,43505,43523,43539,43555,43571,43589,43606,43623,43639,43656,43672,43689,43705,43722,43738,43756,43773,43789,43805,43822,43839,43855,43872,43889,43906,43923,43938,43956,43972,43989,44005,44023,44039,44056,44072,44089,44105,44123,44138,44156,44172,44189,44205,44222,44239,44256],"hit":[null],"x":[0.07142857142857142,0.07142857142857142,0.07142857142857142,0.07142857142857142,0.07142857142857142,0.07142857142857142,0.07142857142857142,0.07142857142857142,0.07142857142857142,0.07142857142857142,0.07142857142857142,0.07142857142857142,0.07142857142857142,0.07142857142857142,0.07142857142857142,0.07142857142857142,0.07142857142857142,0.07142857142857142,0.07142857142857142,0.07142857142857142,0.07142857142857142,0.07142857142857142,0.07142857142857142,0.07142857142857142,0.07142857142857142,0.07142857142857142,0.07142857142857142,0.07142857142857142,0.07142857142857142,0.07142857142857142,0.07142857142857142,0.07142857142857142,0.07142857142857142,0.07142857142857142,0.07142857142857142,0.07142857142857142,0.07142857142857142,0.07142857142857142,0.07142857142857142,0.07142857142857142,0.07142857142857142,0.07142857142857142,0.07142857142857142,0.07142857142857142,0.07142857142857142,0.07142857142857142,0.07142857142857142,0.07142857142857142,0.07142857142857142,0.07142857142857142,0.07142857142857142,0.07142857142857142,0.07142857142857142,0.07142857142857142,0.07142857142857142,0.07142857142857142,0.07142857142857142,0.07142857142857142,0.07142857142857142,0.07142857142857142,0.07142857142857142,0.07142857142857142,0.07142857142857142,0.07142857142857142,0.07142857142857142,0.07142857142857142,0.07142857142857142,0.07142857142857142,0.07142857142857142,0.07142857142857142,0.07142857142857142,0.07142857142857142,0.07142857142857142,0.07142857142857142,0.07142857142857142,0.0782312925170068,0.09523809523809523,0.10884353741496598,0.12244897959183673,0.1360544217687075,0.14965986394557823,0.1598639455782313,0.16666666666666666,0.17006802721088435,0.17687074829931973,0.18027210884353742,0.18027210884353742,0.1836734693877551,0.1836734693877551,0.1870748299319728,0.19047619047619047,0.19387755102040816,0.20068027210884354,0.20748299319727892,0.21428571428571427,0.22448979591836735,0.24149659863945577,0.2653061224489796,0.282312925170068,0.29931972789115646,0.3129251700680272,0.32653061224489793,0.336734693877551,0.3469387755102041,0.35374149659863946,0.35714285714285715,0.35714285714285715,0.35714285714285715,0.35714285714285715,0.35714285714285715,0.35714285714285715,0.35714285714285715,0.35714285714285715,0.35714285714285715,0.35714285714285715,0.35714285714285715,0.35714285714285715,0.35714285714285715,0.35714285714285715,0.35714285714285715,0.35714285714285715,0.3469387755102041,0.3231292517006803,0.2891156462585034,0.25170068027210885,0.21768707482993196,0.1836734693877551,0.1564625850340136,0.1360544217687075,0.11224489795918367,0.09183673469387756,0.08163265306122448,0.07142857142857142,0.06802721088435375,0.06462585034013606,0.061224489795918366,0.061224489795918366,0.05782312925170068,0.05442176870748299,0.05102040816326531,0.047619047619047616,0.047619047619047616,0.04421768707482993,0.04421768707482993,0.04421768707482993,0.04081632653061224,0.04081632653061224,0.03741496598639456,0.03741496598639456,0.03741496598639456,0.034013605442176874,0.030612244897959183,0.030612244897959183,0.027210884353741496,0.023809523809523808,0.02040816326530612,0.02040816326530612,0.02040816326530612,0.017006802721088437,0.017006802721088437,0.017006802721088437,0.017006802721088437,0.017006802721088437,0.017006802721088437,0.017006802721088437,0.017006802721088437,0.017006802721088437,0.017006802721088437,0.013605442176870748,0.013605442176870748,0.013605442176870748,0.013605442176870748,0.013605442176870748,0.013605442176870748,0.013605442176870748,0.013605442176870748,0.013605442176870748,0.013605442176870748,0.013605442176870748,0.013605442176870748,0.013605442176870748,0.013605442176870748,0.013605442176870748,0.013605442176870748,0.017006802721088437,0.023809523809523808,0.03741496598639456,0.05102040816326531,0.06802721088435375,0.08843537414965986,0.11224489795918367,0.1292517006802721,0.14285714285714285,0.16326530612244897,0.17006802721088435,0.18027210884353742,0.19727891156462585,0.20408163265306123,0.21428571428571427,0.22108843537414966,0.22789115646258504,0.23469387755102042,0.24149659863945577,0.25170068027210885,0.2585034013605442,0.2687074829931973,0.2789115646258503,0.2925170068027211,0.29931972789115646,0.30952380952380953,0.3197278911564626,0.3299319727891156,0.3401360544217687,0.3435374149659864,0.3435374149659864,0.3435374149659864,0.3469387755102041,0.3469387755102041,0.35034013605442177,0.35034013605442177,0.35374149659863946,0.35374149659863946,0.35374149659863946,0.35374149659863946,0.35374149659863946,0.35374149659863946,0.35374149659863946,0.35374149659863946,0.35374149659863946,0.35374149659863946,0.35374149659863946,0.35374149659863946,0.35374149659863946,0.35374149659863946,0.35374149659863946,0.35374149659863946,0.35374149659863946,0.35374149659863946,0.35374149659863946,0.35374149659863946,0.35374149659863946,0.35374149659863946,0.35374149659863946,0.35374149659863946,0.35374149659863946,0.35374149659863946,0.35374149659863946,0.35374149659863946,0.35374149659863946,0.35374149659863946,0.35374149659863946,0.35374149659863946,0.35374149659863946,0.35374149659863946,0.35374149659863946,0.35374149659863946,0.35374149659863946,0.35374149659863946,0.35374149659863946,0.35374149659863946,0.35374149659863946,0.35374149659863946,0.35374149659863946,0.35374149659863946,0.35374149659863946,0.35374149659863946,0.35374149659863946,0.35374149659863946,0.35374149659863946,0.35374149659863946,0.35374149659863946,0.35374149659863946,0.35374149659863946,0.35374149659863946,0.35374149659863946,0.35374149659863946,0.35374149659863946,0.35374149659863946,0.35374149659863946,0.35374149659863946,0.35374149659863946,0.35374149659863946,0.35374149659863946,0.35374149659863946,0.35374149659863946,0.35374149659863946,0.35374149659863946,0.35374149659863946,0.35374149659863946,0.35374149659863946,0.35374149659863946,0.35374149659863946,0.35374149659863946,0.35374149659863946,0.35374149659863946,0.35374149659863946,0.35374149659863946,0.35374149659863946,0.35374149659863946,0.35374149659863946,0.35374149659863946,0.35374149659863946,0.35374149659863946,0.35374149659863946,0.35374149659863946,0.35374149659863946,0.35374149659863946,0.35374149659863946,0.35374149659863946,0.35374149659863946,0.35374149659863946,0.35374149659863946,0.35374149659863946,0.35374149659863946,0.35374149659863946,0.35374149659863946,0.35374149659863946,0.35374149659863946,0.35374149659863946,0.35374149659863946,0.35374149659863946,0.35374149659863946,0.35374149659863946,0.35374149659863946,0.35374149659863946,0.35374149659863946,0.35374149659863946,0.35374149659863946,0.35374149659863946,0.35374149659863946,0.35374149659863946,0.35374149659863946,0.35374149659863946,0.35374149659863946,0.35374149659863946,0.35374149659863946,0.35374149659863946,0.35374149659863946,0.35374149659863946,0.35374149659863946,0.35374149659863946,0.35374149659863946,0.35374149659863946,0.35374149659863946,0.35374149659863946,0.35374149659863946,0.35374149659863946,0.35374149659863946,0.35374149659863946,0.35374149659863946,0.35374149659863946,0.35374149659863946,0.35374149659863946,0.35374149659863946,0.35374149659863946,0.35374149659863946,0.35374149659863946,0.35374149659863946,0.35374149659863946,0.35374149659863946,0.35374149659863946,0.35374149659863946,0.35374149659863946,0.35374149659863946,0.35374149659863946,0.35374149659863946,0.35374149659863946,0.35374149659863946,0.35374149659863946,0.35374149659863946,0.35374149659863946,0.35374149659863946,0.35374149659863946,0.35374149659863946,0.35374149659863946,0.35374149659863946,0.35374149659863946,0.35374149659863946,0.35374149659863946,0.35374149659863946,0.35374149659863946,0.35374149659863946,0.35374149659863946,0.35374149659863946,0.35374149659863946,0.35374149659863946,0.35374149659863946,0.35374149659863946,0.35374149659863946,0.35374149659863946,0.35374149659863946,0.35374149659863946,0.35374149659863946,0.35374149659863946,0.35374149659863946,0.35374149659863946,0.35374149659863946,0.35374149659863946,0.35374149659863946,0.35374149659863946,0.35374149659863946,0.35374149659863946,0.35374149659863946,0.35374149659863946,0.35374149659863946,0.35374149659863946,0.35374149659863946,0.35374149659863946,0.35374149659863946,0.35374149659863946,0.35374149659863946,0.35374149659863946,0.35374149659863946,0.35374149659863946,0.35374149659863946,0.35374149659863946,0.35374149659863946,0.35374149659863946,0.35374149659863946,0.35374149659863946,0.35374149659863946,0.35374149659863946,0.35034013605442177,0.35034013605442177,0.35034013605442177,0.35034013605442177,0.35034013605442177,0.35034013605442177,0.35034013605442177,0.35034013605442177,0.35034013605442177,0.35034013605442177,0.35034013605442177,0.35034013605442177,0.35034013605442177,0.35034013605442177,0.35034013605442177,0.35034013605442177,0.35034013605442177,0.35034013605442177,0.35034013605442177,0.35034013605442177,0.35034013605442177,0.35034013605442177,0.35034013605442177,0.35034013605442177,0.35034013605442177,0.35034013605442177,0.35034013605442177,0.35034013605442177,0.35034013605442177,0.35034013605442177,0.35034013605442177,0.35034013605442177,0.35034013605442177,0.35034013605442177,0.35034013605442177,0.35034013605442177,0.35034013605442177,0.35034013605442177,0.35034013605442177,0.35034013605442177,0.35034013605442177,0.35034013605442177,0.35034013605442177,0.35034013605442177,0.35034013605442177,0.35034013605442177,0.35034013605442177,0.35034013605442177,0.35034013605442177,0.35034013605442177,0.35034013605442177,0.35034013605442177,0.35034013605442177,0.35034013605442177,0.35034013605442177,0.35034013605442177,0.35034013605442177,0.35034013605442177,0.35034013605442177,0.35034013605442177,0.35034013605442177,0.35034013605442177,0.35034013605442177,0.35034013605442177,0.35034013605442177,0.35034013605442177,0.35034013605442177,0.35034013605442177,0.35034013605442177,0.35034013605442177,0.35034013605442177,0.35034013605442177,0.35034013605442177,0.35034013605442177,0.35034013605442177,0.35034013605442177,0.35034013605442177,0.35034013605442177,0.35034013605442177,0.35034013605442177,0.35034013605442177,0.35034013605442177,0.35034013605442177,0.35034013605442177,0.35034013605442177,0.35034013605442177,0.35034013605442177,0.35034013605442177,0.35034013605442177,0.35034013605442177,0.35034013605442177,0.35034013605442177,0.35034013605442177,0.35034013605442177,0.35034013605442177,0.35034013605442177,0.35034013605442177,0.35034013605442177,0.35034013605442177,0.35034013605442177,0.35034013605442177,0.35034013605442177,0.35034013605442177,0.35034013605442177,0.35034013605442177,0.35034013605442177,0.35034013605442177,0.35034013605442177,0.35034013605442177,0.35034013605442177,0.35034013605442177,0.35034013605442177,0.35034013605442177,0.35034013605442177,0.35034013605442177,0.35034013605442177,0.35034013605442177,0.35034013605442177,0.35034013605442177,0.35034013605442177,0.35034013605442177,0.35034013605442177,0.35034013605442177,0.35034013605442177,0.35034013605442177,0.35034013605442177,0.35034013605442177,0.35034013605442177,0.35034013605442177,0.35034013605442177,0.35034013605442177,0.35034013605442177,0.35034013605442177,0.35034013605442177,0.35034013605442177,0.35034013605442177,0.35034013605442177,0.35034013605442177,0.35034013605442177,0.35034013605442177,0.35034013605442177,0.35034013605442177,0.35034013605442177,0.35034013605442177,0.35034013605442177,0.35034013605442177,0.35034013605442177,0.35034013605442177,0.35034013605442177,0.35374149659863946,0.35374149659863946,0.35374149659863946,0.35374149659863946,0.35374149659863946,0.35374149659863946,0.35714285714285715,0.35714285714285715,0.35714285714285715,0.35714285714285715,0.35714285714285715,0.36054421768707484,0.36054421768707484,0.36054421768707484,0.36054421768707484,0.36054421768707484,0.36054421768707484,0.36054421768707484,0.36054421768707484,0.36054421768707484,0.36054421768707484,0.36054421768707484,0.36054421768707484,0.36054421768707484,0.36054421768707484,0.36054421768707484,0.36054421768707484,0.36054421768707484,0.36054421768707484,0.36054421768707484,0.36054421768707484,0.36054421768707484,0.36054421768707484,0.36054421768707484,0.36054421768707484,0.36054421768707484,0.36054421768707484,0.36054421768707484,0.36054421768707484,0.36054421768707484,0.36054421768707484,0.36054421768707484,0.36054421768707484,0.36054421768707484,0.36054421768707484,0.36054421768707484,0.36054421768707484,0.36054421768707484,0.36054421768707484,0.36054421768707484,0.36054421768707484,0.36054421768707484,0.36054421768707484,0.36054421768707484,0.36054421768707484,0.36054421768707484,0.36054421768707484,0.36054421768707484,0.36054421768707484,0.36054421768707484,0.36054421768707484,0.36054421768707484,0.36054421768707484,0.36054421768707484,0.36054421768707484,0.36054421768707484,0.36054421768707484,0.36054421768707484,0.36054421768707484,0.36054421768707484,0.36054421768707484,0.36054421768707484,0.36054421768707484,0.36054421768707484,0.36054421768707484,0.36054421768707484,0.36054421768707484,0.36054421768707484,0.36054421768707484,0.36054421768707484,0.36054421768707484,0.36054421768707484,0.36054421768707484,0.36054421768707484,0.36054421768707484,0.36054421768707484,0.36054421768707484,0.36054421768707484,0.36054421768707484,0.36054421768707484,0.36054421768707484,0.36054421768707484,0.36054421768707484,0.36054421768707484,0.36054421768707484,0.36054421768707484,0.36054421768707484,0.36054421768707484,0.36054421768707484,0.36054421768707484,0.36054421768707484,0.36054421768707484,0.36054421768707484,0.36054421768707484,0.36054421768707484,0.36054421768707484,0.36054421768707484,0.36054421768707484,0.36054421768707484,0.36054421768707484,0.36054421768707484,0.36054421768707484,0.36054421768707484,0.36054421768707484,0.36054421768707484,0.36054421768707484,0.36054421768707484,0.36054421768707484,0.36054421768707484,0.36054421768707484,0.36054421768707484,0.36054421768707484,0.36054421768707484,0.36054421768707484,0.36054421768707484,0.36054421768707484,0.36054421768707484,0.36054421768707484,0.36054421768707484,0.36054421768707484,0.36054421768707484,0.36054421768707484,0.36054421768707484,0.36054421768707484,0.36054421768707484,0.36054421768707484,0.36054421768707484,0.36054421768707484,0.36054421768707484,0.36054421768707484,0.36054421768707484,0.36054421768707484,0.36054421768707484,0.36054421768707484,0.36054421768707484,0.36054421768707484,0.36054421768707484,0.36054421768707484,0.36054421768707484,0.36054421768707484,0.36054421768707484,0.36054421768707484,0.36054421768707484,0.36054421768707484,0.36054421768707484,0.36054421768707484,0.36054421768707484,0.36054421768707484,0.36054421768707484,0.36054421768707484,0.36054421768707484,0.36054421768707484,0.36054421768707484,0.36054421768707484,0.36054421768707484,0.36054421768707484,0.36054421768707484,0.36054421768707484,0.36054421768707484,0.36054421768707484,0.36054421768707484,0.36054421768707484,0.36054421768707484,0.36054421768707484,0.36054421768707484,0.36054421768707484,0.36054421768707484,0.36054421768707484,0.36054421768707484,0.36054421768707484,0.36054421768707484,0.36054421768707484,0.36054421768707484,0.36054421768707484,0.36054421768707484,0.36054421768707484,0.36054421768707484,0.36054421768707484,0.36054421768707484,0.36054421768707484,0.36054421768707484,0.36054421768707484,0.36054421768707484,0.36054421768707484,0.36054421768707484,0.36054421768707484,0.36054421768707484,0.36054421768707484,0.36054421768707484,0.36054421768707484,0.36054421768707484,0.36054421768707484,0.36054421768707484,0.36054421768707484,0.36054421768707484,0.36054421768707484,0.36054421768707484,0.36054421768707484,0.36054421768707484,0.36054421768707484,0.36054421768707484,0.36054421768707484,0.36054421768707484,0.36054421768707484,0.36054421768707484,0.36054421768707484,0.36054421768707484,0.36054421768707484,0.36054421768707484,0.36054421768707484,0.36394557823129253,0.36394557823129253,0.36394557823129253,0.36394557823129253,0.36394557823129253,0.36394557823129253,0.36394557823129253,0.36394557823129253,0.36394557823129253,0.36394557823129253,0.36394557823129253,0.36394557823129253,0.36394557823129253,0.36394557823129253,0.36394557823129253,0.36394557823129253,0.36394557823129253,0.36394557823129253,0.36394557823129253,0.36394557823129253,0.36394557823129253,0.36394557823129253,0.36394557823129253,0.36394557823129253,0.36394557823129253,0.36394557823129253,0.36394557823129253,0.36394557823129253,0.36394557823129253,0.36394557823129253,0.36394557823129253,0.36394557823129253,0.36394557823129253,0.36394557823129253,0.36394557823129253,0.36394557823129253,0.36394557823129253,0.36394557823129253,0.36394557823129253,0.36394557823129253,0.36394557823129253,0.36394557823129253,0.36394557823129253,0.36394557823129253,0.36394557823129253,0.36394557823129253,0.36394557823129253,0.36394557823129253,0.36394557823129253,0.36394557823129253,0.36394557823129253,0.36394557823129253,0.36394557823129253,0.36394557823129253,0.36394557823129253,0.36394557823129253,0.36394557823129253,0.36394557823129253,0.36394557823129253,0.36394557823129253,0.36394557823129253,0.36394557823129253,0.36394557823129253,0.36394557823129253,0.36394557823129253,0.36394557823129253,0.36394557823129253,0.36394557823129253,0.36394557823129253,0.36394557823129253,0.36394557823129253,0.36394557823129253,0.36394557823129253,0.36394557823129253,0.36394557823129253,0.36394557823129253,0.36394557823129253,0.36394557823129253,0.36394557823129253,0.36394557823129253,0.36394557823129253,0.36394557823129253,0.36394557823129253,0.36394557823129253,0.36394557823129253,0.36394557823129253,0.36394557823129253,0.36394557823129253,0.36394557823129253,0.36394557823129253,0.36394557823129253,0.36394557823129253,0.36394557823129253,0.36394557823129253,0.36394557823129253,0.36394557823129253,0.36394557823129253,0.36394557823129253,0.36394557823129253,0.36394557823129253,0.36394557823129253,0.36394557823129253,0.36394557823129253,0.36394557823129253,0.36394557823129253,0.36394557823129253,0.36394557823129253,0.36394557823129253,0.36394557823129253,0.36394557823129253,0.36394557823129253,0.36394557823129253,0.36394557823129253,0.36394557823129253,0.36394557823129253,0.36394557823129253,0.36394557823129253,0.36394557823129253,0.36394557823129253,0.36394557823129253,0.36394557823129253,0.36394557823129253,0.36394557823129253,0.36394557823129253,0.36394557823129253,0.36394557823129253,0.36394557823129253,0.36394557823129253,0.36394557823129253,0.36394557823129253,0.36394557823129253,0.36394557823129253,0.36394557823129253,0.36394557823129253,0.36394557823129253,0.36394557823129253,0.36394557823129253,0.36394557823129253,0.36394557823129253,0.36394557823129253,0.36394557823129253,0.36394557823129253,0.36394557823129253,0.36394557823129253,0.36394557823129253,0.36394557823129253,0.36394557823129253,0.36394557823129253,0.36394557823129253,0.36394557823129253,0.36394557823129253,0.36394557823129253,0.36394557823129253,0.36394557823129253,0.36394557823129253,0.36394557823129253,0.36394557823129253,0.36394557823129253,0.36394557823129253,0.36394557823129253,0.36394557823129253,0.36394557823129253,0.36394557823129253,0.36394557823129253,0.36394557823129253,0.36394557823129253,0.36394557823129253,0.36394557823129253,0.36394557823129253,0.36394557823129253,0.36394557823129253,0.36394557823129253,0.36394557823129253,0.36394557823129253,0.36394557823129253,0.36394557823129253,0.36394557823129253,0.36394557823129253,0.36394557823129253,0.36394557823129253,0.36394557823129253,0.36394557823129253,0.36394557823129253,0.36394557823129253,0.36394557823129253,0.36394557823129253,0.36394557823129253,0.36394557823129253,0.36394557823129253,0.36394557823129253,0.36394557823129253,0.36394557823129253,0.36394557823129253,0.36394557823129253,0.36394557823129253,0.36394557823129253,0.36394557823129253,0.36394557823129253,0.36394557823129253,0.36394557823129253,0.36394557823129253,0.36394557823129253,0.3673469387755102,0.3673469387755102,0.3673469387755102,0.3673469387755102,0.3673469387755102,0.3673469387755102,0.3673469387755102,0.3673469387755102,0.3673469387755102,0.3673469387755102,0.3707482993197279,0.3707482993197279,0.3707482993197279,0.3707482993197279,0.3707482993197279,0.3707482993197279,0.3707482993197279,0.3707482993197279,0.3707482993197279,0.3707482993197279,0.3707482993197279,0.3741496598639456,0.3741496598639456,0.3741496598639456,0.3741496598639456,0.3741496598639456,0.3741496598639456,0.3741496598639456,0.3741496598639456,0.3741496598639456,0.37755102040816324,0.37755102040816324,0.37755102040816324,0.37755102040816324,0.37755102040816324,0.37755102040816324,0.38095238095238093,0.38095238095238093,0.38095238095238093,0.38095238095238093,0.38095238095238093,0.38095238095238093,0.38095238095238093,0.38095238095238093,0.38095238095238093,0.38095238095238093,0.38095238095238093,0.38095238095238093,0.38095238095238093,0.38095238095238093,0.38095238095238093,0.38095238095238093,0.38095238095238093,0.3843537414965986,0.3843537414965986,0.3843537414965986,0.3843537414965986,0.3843537414965986,0.3843537414965986,0.3843537414965986,0.3843537414965986,0.3843537414965986,0.391156462585034,0.3979591836734694,0.40476190476190477,0.41156462585034015,0.4217687074829932,0.43537414965986393,0.4523809523809524,0.46598639455782315,0.47959183673469385,0.4965986394557823,0.5068027210884354,0.5204081632653061,0.5306122448979592,0.5374149659863946,0.5408163265306123,0.54421768707483,0.5476190476190477,0.5510204081632653,0.5510204081632653,0.5544217687074829,0.5544217687074829,0.5578231292517006,0.5578231292517006,0.5578231292517006,0.5578231292517006,0.5578231292517006,0.5578231292517006,0.5578231292517006,0.5578231292517006,0.5578231292517006,0.5578231292517006,0.5578231292517006,0.5578231292517006,0.5578231292517006,0.5578231292517006,0.5578231292517006,0.5578231292517006,0.5578231292517006,0.5578231292517006,0.5578231292517006,0.5578231292517006,0.5578231292517006,0.5578231292517006,0.5578231292517006,0.5578231292517006,0.5578231292517006,0.5578231292517006,0.5578231292517006,0.5578231292517006,0.5578231292517006,0.5578231292517006,0.5578231292517006,0.5578231292517006,0.5578231292517006,0.5578231292517006,0.5578231292517006,0.5578231292517006,0.5578231292517006,0.5578231292517006,0.5578231292517006,0.5578231292517006,0.5578231292517006,0.5578231292517006,0.5578231292517006,0.5578231292517006,0.5578231292517006,0.5578231292517006,0.5578231292517006,0.5578231292517006,0.5578231292517006,0.5578231292517006,0.5578231292517006,0.5578231292517006,0.5578231292517006,0.5578231292517006,0.5578231292517006,0.5578231292517006,0.5578231292517006,0.5578231292517006,0.5578231292517006,0.5578231292517006,0.5578231292517006,0.5578231292517006,0.5578231292517006,0.5578231292517006,0.5544217687074829,0.5476190476190477,0.54421768707483,0.5374149659863946,0.5306122448979592,0.5272108843537415,0.5204081632653061,0.5170068027210885,0.5102040816326531,0.5034013605442177,0.4965986394557823,0.4931972789115646,0.48639455782312924,0.48299319727891155,0.47959183673469385,0.47619047619047616,0.47278911564625853,0.46938775510204084,0.46938775510204084,0.46938775510204084,0.46938775510204084,0.46938775510204084,0.46938775510204084,0.46938775510204084,0.46938775510204084,0.46938775510204084,0.46938775510204084,0.46938775510204084,0.46938775510204084,0.46938775510204084,0.46938775510204084,0.46938775510204084,0.46938775510204084,0.46938775510204084,0.46938775510204084,0.46938775510204084,0.46938775510204084,0.46938775510204084,0.46938775510204084,0.46938775510204084,0.46938775510204084,0.46938775510204084,0.46938775510204084,0.46938775510204084,0.46938775510204084,0.46938775510204084,0.46938775510204084,0.46938775510204084,0.46938775510204084,0.46938775510204084,0.46938775510204084,0.46938775510204084,0.46938775510204084,0.46938775510204084,0.46938775510204084,0.46938775510204084,0.46938775510204084,0.46938775510204084,0.46938775510204084,0.46938775510204084,0.46938775510204084,0.46938775510204084,0.46938775510204084,0.46938775510204084,0.46938775510204084,0.46938775510204084,0.46938775510204084,0.46938775510204084,0.46938775510204084,0.46938775510204084,0.46938775510204084,0.46938775510204084,0.46938775510204084,0.46938775510204084,0.46938775510204084,0.46938775510204084,0.46938775510204084,0.46938775510204084,0.46938775510204084,0.46938775510204084,0.46938775510204084,0.46938775510204084,0.46938775510204084,0.46938775510204084,0.46938775510204084,0.46938775510204084,0.46938775510204084,0.46938775510204084,0.46938775510204084,0.46938775510204084,0.46938775510204084,0.46938775510204084,0.46938775510204084,0.46938775510204084,0.46938775510204084,0.46938775510204084,0.46938775510204084,0.46938775510204084,0.46598639455782315,0.46598639455782315,0.46598639455782315,0.46598639455782315,0.46258503401360546,0.46258503401360546,0.46258503401360546,0.46258503401360546,0.46258503401360546,0.46258503401360546,0.46258503401360546,0.46258503401360546,0.46258503401360546,0.46258503401360546,0.46258503401360546,0.46598639455782315,0.47278911564625853,0.47959183673469385,0.4931972789115646,0.5136054421768708,0.5340136054421769,0.5578231292517006,0.5884353741496599,0.6190476190476191,0.6462585034013606,0.6462585034013606,0.6462585034013606,0.6462585034013606,0.6462585034013606,0.6462585034013606,0.6462585034013606,0.6462585034013606,0.6462585034013606,0.6462585034013606,0.6462585034013606,0.6462585034013606,0.6462585034013606,0.6462585034013606,0.6462585034013606,0.6462585034013606,0.6462585034013606,0.6462585034013606,0.6462585034013606,0.6462585034013606,0.6462585034013606,0.6462585034013606,0.6462585034013606,0.6462585034013606,0.6462585034013606,0.6462585034013606,0.6462585034013606,0.6462585034013606,0.6462585034013606,0.6462585034013606,0.6462585034013606,0.6496598639455783,0.6700680272108843,0.6972789115646258,0.7346938775510204,0.782312925170068,0.826530612244898,0.8707482993197279,0.8945578231292517,0.9115646258503401,0.9217687074829932,0.9251700680272109,0.9285714285714286,0.9285714285714286,0.9285714285714286,0.9285714285714286,0.9285714285714286,0.9285714285714286,0.9285714285714286,0.9285714285714286,0.9285714285714286,0.9285714285714286,0.9285714285714286,0.9285714285714286,0.9285714285714286,0.9285714285714286,0.9285714285714286,0.9387755102040817,0.9625850340136054,0.9897959183673469,1.0238095238095237,1.064625850340136,1.08843537414966,1.1122448979591837,1.129251700680272,1.1394557823129252,1.1428571428571428,1.1462585034013606,1.1462585034013606,1.1462585034013606,1.1462585034013606,1.1462585034013606,1.1428571428571428,1.1394557823129252,1.1360544217687074,1.1326530612244898,1.1258503401360545,1.1224489795918366,1.119047619047619,1.1156462585034013,1.1156462585034013,1.1156462585034013,1.1258503401360545,1.1394557823129252,1.1394557823129252,1.1394557823129252,1.1394557823129252,1.1394557823129252,1.1394557823129252,1.1394557823129252,1.1462585034013606,1.1462585034013606,1.1462585034013606,1.1462585034013606,1.1462585034013606,1.1462585034013606,1.1462585034013606,1.1462585034013606,1.1462585034013606,1.1462585034013606,1.1462585034013606,1.1462585034013606,1.1462585034013606,1.1462585034013606,1.1462585034013606,1.1462585034013606,1.1462585034013606,1.1462585034013606,1.1462585034013606,1.1462585034013606,1.1462585034013606,1.1462585034013606,1.1462585034013606,1.1462585034013606,1.1462585034013606,1.1462585034013606,1.1462585034013606,1.1462585034013606,1.1462585034013606,1.1462585034013606,1.1462585034013606,1.1462585034013606,1.1462585034013606,1.1462585034013606,1.1462585034013606,1.1462585034013606,1.1462585034013606,1.1462585034013606,1.1462585034013606,1.1462585034013606,1.1462585034013606,1.1462585034013606,1.1462585034013606,1.1462585034013606,1.1462585034013606,1.1462585034013606,1.1462585034013606,1.1462585034013606,1.1462585034013606,1.1462585034013606,1.1462585034013606,1.1462585034013606,1.1462585034013606,1.1462585034013606,1.1462585034013606,1.1462585034013606,1.1462585034013606,1.1462585034013606,1.1462585034013606,1.1462585034013606,1.1462585034013606,1.1462585034013606,1.1360544217687074,1.1224489795918366,1.1020408163265305,1.0782312925170068,1.0510204081632653,1.034013605442177,1.010204081632653,1.0034013605442176,0.9965986394557823,0.9931972789115646,0.9931972789115646,0.9931972789115646,0.9931972789115646,0.9931972789115646,0.9931972789115646,0.9931972789115646,0.9931972789115646,0.9931972789115646,0.9931972789115646,0.9931972789115646,0.9931972789115646,0.9931972789115646,0.9931972789115646,0.9931972789115646,0.9931972789115646,0.9931972789115646,0.9931972789115646,0.9931972789115646,0.9931972789115646,0.9931972789115646,0.9931972789115646,0.9931972789115646,0.9931972789115646,0.9931972789115646,0.9931972789115646,0.9931972789115646,0.9931972789115646,0.9931972789115646,0.9931972789115646,0.9931972789115646,0.9931972789115646,0.9931972789115646,0.9931972789115646,0.9931972789115646,0.9931972789115646,0.9931972789115646,0.9931972789115646,0.9931972789115646,0.9931972789115646,0.9931972789115646,0.9931972789115646,0.9931972789115646,0.9931972789115646,0.9931972789115646,0.9931972789115646,0.9931972789115646,0.9931972789115646,0.9931972789115646,0.9931972789115646,0.9931972789115646,0.9931972789115646,0.9931972789115646,0.9931972789115646,0.9931972789115646,0.9931972789115646,0.9931972789115646,0.9931972789115646,0.9931972789115646,0.9931972789115646,0.9931972789115646,0.9931972789115646,0.9931972789115646,0.9931972789115646,0.9931972789115646,0.9931972789115646,0.9931972789115646,0.9931972789115646,0.9931972789115646,0.9931972789115646,0.9931972789115646,0.9931972789115646,0.9931972789115646,0.9931972789115646,0.9931972789115646,0.9931972789115646,0.9931972789115646,0.9931972789115646,0.9931972789115646,0.9897959183673469,0.9897959183673469,0.9897959183673469,0.9897959183673469,0.9897959183673469,0.9897959183673469,0.9897959183673469,0.9897959183673469,0.9897959183673469,0.9897959183673469,0.9897959183673469,0.9897959183673469,0.9897959183673469,0.9897959183673469,0.9897959183673469,0.9897959183673469,0.9897959183673469,0.9897959183673469,0.9897959183673469,0.9897959183673469,0.9897959183673469,0.9897959183673469,0.9897959183673469,0.9897959183673469,0.9897959183673469,0.9863945578231292,0.9863945578231292,0.9863945578231292,0.9863945578231292,0.9863945578231292,0.9863945578231292,0.9863945578231292,0.9863945578231292,0.9863945578231292,0.9863945578231292,0.9863945578231292,0.9863945578231292,0.9863945578231292,0.9863945578231292,0.9829931972789115,0.9829931972789115,0.9829931972789115,0.9829931972789115,0.9829931972789115,0.9795918367346939,0.9795918367346939,0.9795918367346939,0.9761904761904762,0.9659863945578231,0.9319727891156463,0.8639455782312925,0.7755102040816326,0.6700680272108843,0.6122448979591837,0.5680272108843537,0.5306122448979592,0.5102040816326531,0.5068027210884354,0.5034013605442177,0.5034013605442177,0.5034013605442177,0.5034013605442177,0.5034013605442177,0.5034013605442177,0.5034013605442177,0.5034013605442177,0.5034013605442177,0.5034013605442177,0.5034013605442177,0.5068027210884354,0.5068027210884354,0.5068027210884354,0.5068027210884354,0.5068027210884354,0.5068027210884354,0.5068027210884354,0.5102040816326531,0.5102040816326531,0.5102040816326531,0.5102040816326531,0.5102040816326531,0.5102040816326531,0.5136054421768708,0.5136054421768708,0.5136054421768708,0.5170068027210885,0.5170068027210885,0.5170068027210885,0.5204081632653061,0.5204081632653061,0.5204081632653061,0.5204081632653061,0.5204081632653061,0.5204081632653061,0.5204081632653061,0.5204081632653061,0.5204081632653061,0.5204081632653061,0.5204081632653061,0.5204081632653061,0.5204081632653061,0.5204081632653061,0.5204081632653061,0.5204081632653061,0.5204081632653061,0.5204081632653061,0.5204081632653061,0.5204081632653061,0.5204081632653061,0.5204081632653061,0.5204081632653061,0.5204081632653061,0.5204081632653061,0.5204081632653061,0.5204081632653061,0.5204081632653061,0.5204081632653061,0.5204081632653061,0.5204081632653061,0.5204081632653061,0.5204081632653061,0.5204081632653061,0.5204081632653061,0.5204081632653061,0.5204081632653061,0.5204081632653061,0.5204081632653061,0.5204081632653061,0.5204081632653061,0.5204081632653061,0.5204081632653061,0.5204081632653061,0.5204081632653061,0.5204081632653061,0.5204081632653061,0.5204081632653061,0.5204081632653061,0.5204081632653061,0.5204081632653061,0.5204081632653061,0.5204081632653061,0.5204081632653061,0.5204081632653061,0.5204081632653061,0.5204081632653061,0.5204081632653061,0.5204081632653061,0.5204081632653061,0.5204081632653061,0.5204081632653061,0.5204081632653061,0.5204081632653061,0.5204081632653061,0.5204081632653061,0.5204081632653061,0.5204081632653061,0.5204081632653061,0.5204081632653061,0.5204081632653061,0.5204081632653061,0.5204081632653061,0.5204081632653061,0.5204081632653061,0.5204081632653061,0.5204081632653061,0.5204081632653061,0.5204081632653061,0.5204081632653061,0.5204081632653061,0.5204081632653061,0.5204081632653061,0.5204081632653061,0.5204081632653061,0.5204081632653061,0.5204081632653061,0.5204081632653061,0.5204081632653061,0.5204081632653061,0.5204081632653061,0.5204081632653061,0.5204081632653061,0.5204081632653061,0.5204081632653061,0.5204081632653061,0.5204081632653061,0.5204081632653061,0.5204081632653061,0.5204081632653061,0.5204081632653061,0.5204081632653061,0.5204081632653061,0.5204081632653061,0.5204081632653061,0.5204081632653061,0.5204081632653061,0.5204081632653061,0.5204081632653061,0.5204081632653061,0.5204081632653061,0.5204081632653061,0.5204081632653061,0.5204081632653061,0.5204081632653061,0.5204081632653061,0.5204081632653061,0.5204081632653061,0.5204081632653061,0.5204081632653061,0.5204081632653061,0.5204081632653061,0.5204081632653061,0.5204081632653061,0.5204081632653061,0.5204081632653061,0.5204081632653061,0.5204081632653061,0.5204081632653061,0.5204081632653061,0.5204081632653061,0.5204081632653061,0.5204081632653061,0.5204081632653061,0.5204081632653061,0.5204081632653061,0.5204081632653061,0.5204081632653061,0.5204081632653061,0.5204081632653061,0.5204081632653061,0.5204081632653061,0.5204081632653061,0.5204081632653061,0.5204081632653061,0.5204081632653061,0.5204081632653061,0.5204081632653061,0.5170068027210885,0.5170068027210885,0.5170068027210885,0.5170068027210885,0.5170068027210885,0.5170068027210885,0.5170068027210885,0.5170068027210885,0.5170068027210885,0.5170068027210885,0.5170068027210885,0.5170068027210885,0.5170068027210885,0.5170068027210885,0.5170068027210885,0.5170068027210885,0.5170068027210885,0.5170068027210885,0.5170068027210885,0.5170068027210885,0.5170068027210885,0.5170068027210885,0.5170068027210885,0.5170068027210885,0.5170068027210885,0.5170068027210885,0.5170068027210885,0.5170068027210885,0.5170068027210885,0.5170068027210885,0.5170068027210885,0.5170068027210885,0.5170068027210885,0.5170068027210885,0.5170068027210885,0.5170068027210885,0.5136054421768708,0.5136054421768708,0.5136054421768708,0.5136054421768708,0.5136054421768708,0.5136054421768708,0.5136054421768708,0.5136054421768708,0.5136054421768708,0.5136054421768708,0.5102040816326531,0.5102040816326531,0.5102040816326531,0.5068027210884354,0.5034013605442177,0.4931972789115646,0.48299319727891155,0.47278911564625853,0.46258503401360546,0.4489795918367347,0.4387755102040816,0.42517006802721086,0.41156462585034015,0.3877551020408163,0.3741496598639456,0.35714285714285715,0.3333333333333333,0.3163265306122449,0.29931972789115646,0.2891156462585034,0.2789115646258503,0.272108843537415,0.2653061224489796,0.2585034013605442,0.25510204081632654,0.24489795918367346,0.24149659863945577,0.23469387755102042,0.23469387755102042,0.23469387755102042,0.23469387755102042,0.24149659863945577,0.25170068027210885,0.2653061224489796,0.2789115646258503,0.2925170068027211,0.30272108843537415,0.3129251700680272,0.3197278911564626,0.3197278911564626,0.3231292517006803,0.3231292517006803,0.3231292517006803,0.3231292517006803,0.3231292517006803,0.3197278911564626,0.3163265306122449,0.3163265306122449,0.3129251700680272,0.3129251700680272,0.30952380952380953,0.30612244897959184,0.30272108843537415,0.29931972789115646,0.29591836734693877,0.2925170068027211,0.2925170068027211,0.2891156462585034,0.2857142857142857,0.2857142857142857,0.282312925170068,0.282312925170068,0.2789115646258503,0.2789115646258503,0.2789115646258503,0.2789115646258503,0.2789115646258503,0.2789115646258503,0.2789115646258503,0.2789115646258503,0.2789115646258503,0.2789115646258503,0.2789115646258503,0.2789115646258503,0.2789115646258503,0.2789115646258503,0.2789115646258503,0.2789115646258503,0.2789115646258503,0.2789115646258503,0.2789115646258503,0.2789115646258503,0.2789115646258503,0.2789115646258503,0.2789115646258503,0.2789115646258503,0.2789115646258503,0.2789115646258503,0.2789115646258503,0.2789115646258503,0.2789115646258503,0.2789115646258503,0.2789115646258503,0.2789115646258503,0.2789115646258503,0.2789115646258503,0.2789115646258503,0.2789115646258503,0.2789115646258503,0.2789115646258503,0.2789115646258503,0.2789115646258503,0.2789115646258503,0.2789115646258503,0.2789115646258503,0.2789115646258503,0.2789115646258503,0.2789115646258503,0.2789115646258503,0.2789115646258503,0.2789115646258503,0.2789115646258503,0.2789115646258503,0.2789115646258503,0.2789115646258503,0.2789115646258503,0.2789115646258503,0.2789115646258503,0.2789115646258503,0.2789115646258503,0.2789115646258503,0.2789115646258503,0.2789115646258503,0.2789115646258503,0.2789115646258503,0.2789115646258503,0.2789115646258503,0.2789115646258503,0.2789115646258503,0.2789115646258503,0.2789115646258503,0.2789115646258503,0.2789115646258503,0.2789115646258503,0.2789115646258503,0.2789115646258503,0.2789115646258503,0.2789115646258503,0.282312925170068,0.2857142857142857,0.2857142857142857,0.2857142857142857,0.2891156462585034,0.2891156462585034,0.2891156462585034,0.2891156462585034,0.2891156462585034,0.2891156462585034,0.2891156462585034,0.2891156462585034,0.2891156462585034,0.2891156462585034,0.2891156462585034,0.2891156462585034,0.2925170068027211,0.29591836734693877,0.29931972789115646,0.30612244897959184,0.3129251700680272,0.3197278911564626,0.3299319727891156,0.3401360544217687,0.35034013605442177,0.35034013605442177,0.35034013605442177,0.35034013605442177,0.35034013605442177,0.35034013605442177,0.35034013605442177,0.35034013605442177,0.35034013605442177,0.35034013605442177,0.35034013605442177,0.35034013605442177,0.35034013605442177,0.35034013605442177,0.35034013605442177,0.35034013605442177,0.35034013605442177,0.35034013605442177,0.35034013605442177,0.35034013605442177,0.35034013605442177,0.35034013605442177,0.35034013605442177,0.35034013605442177,0.35034013605442177,0.35034013605442177,0.35034013605442177,0.35034013605442177,0.35034013605442177,0.35034013605442177,0.35034013605442177,0.35034013605442177,0.35034013605442177,0.35034013605442177,0.35034013605442177,0.35034013605442177,0.35034013605442177,0.35034013605442177,0.35034013605442177,0.35034013605442177,0.35034013605442177,0.35034013605442177,0.35034013605442177,0.35034013605442177,0.35034013605442177,0.35034013605442177,0.35034013605442177,0.35034013605442177,0.35034013605442177,0.35034013605442177,0.35034013605442177,0.35034013605442177,0.35034013605442177,0.35034013605442177,0.35034013605442177,0.35034013605442177,0.35034013605442177,0.35034013605442177,0.35034013605442177,0.35034013605442177,0.35034013605442177,0.35034013605442177,0.35034013605442177,0.35034013605442177,0.35034013605442177,0.35034013605442177,0.35034013605442177,0.35034013605442177,0.35034013605442177,0.35034013605442177,0.35034013605442177,0.35034013605442177,0.35034013605442177,0.35034013605442177,0.35034013605442177,0.35034013605442177,0.35034013605442177,0.35034013605442177,0.35034013605442177,0.35034013605442177,0.35034013605442177,0.35034013605442177,0.35034013605442177,0.35034013605442177,0.35034013605442177,0.35034013605442177,0.35034013605442177,0.35034013605442177,0.35034013605442177,0.35034013605442177,0.35034013605442177,0.35034013605442177,0.35034013605442177,0.35034013605442177,0.35034013605442177,0.35034013605442177,0.35034013605442177,0.35034013605442177,0.35034013605442177,0.35034013605442177,0.35034013605442177,0.35034013605442177,0.35034013605442177,0.35034013605442177,0.35034013605442177,0.35034013605442177,0.35034013605442177,0.35034013605442177,0.35034013605442177,0.35034013605442177,0.35034013605442177,0.35034013605442177,0.35034013605442177,0.35034013605442177,0.35034013605442177,0.35034013605442177,0.35034013605442177,0.35034013605442177,0.35034013605442177,0.35034013605442177,0.35034013605442177,0.35034013605442177,0.35034013605442177,0.35034013605442177,0.35034013605442177,0.35034013605442177,0.35034013605442177,0.35034013605442177,0.35034013605442177,0.35034013605442177,0.35034013605442177,0.35034013605442177,0.35034013605442177,0.35374149659863946,0.35714285714285715,0.3673469387755102,0.38095238095238093,0.40476190476190477,0.43537414965986393,0.46938775510204084,0.5034013605442177,0.5374149659863946,0.5544217687074829,0.5816326530612245,0.6020408163265306,0.6190476190476191,0.6292517006802721,0.6462585034013606,0.6530612244897959,0.6632653061224489,0.6700680272108843,0.673469387755102,0.6768707482993197,0.6768707482993197,0.6768707482993197,0.6768707482993197,0.6768707482993197,0.6768707482993197,0.6700680272108843,0.6530612244897959,0.6394557823129252,0.608843537414966,0.5918367346938775,0.5748299319727891,0.564625850340136,0.5544217687074829,0.5476190476190477,0.5374149659863946,0.5272108843537415,0.5102040816326531,0.4965986394557823,0.48299319727891155,0.47278911564625853,0.46598639455782315,0.4557823129251701,0.4421768707482993,0.43537414965986393,0.42517006802721086,0.41496598639455784,0.40476190476190477,0.3945578231292517,0.3843537414965986,0.38095238095238093,0.3741496598639456,0.3673469387755102,0.36394557823129253,0.36054421768707484,0.35714285714285715,0.35374149659863946,0.3469387755102041,0.3435374149659864,0.336734693877551,0.3333333333333333,0.3231292517006803,0.3163265306122449,0.30612244897959184,0.29591836734693877,0.2789115646258503,0.2653061224489796,0.25170068027210885,0.23809523809523808,0.21768707482993196,0.20408163265306123,0.19387755102040816,0.18027210884353742,0.17006802721088435,0.16326530612244897,0.1598639455782313,0.1564625850340136,0.15306122448979592,0.15306122448979592,0.15306122448979592,0.14965986394557823,0.14965986394557823,0.14625850340136054,0.14285714285714285,0.13945578231292516,0.1360544217687075,0.1326530612244898,0.1326530612244898,0.1326530612244898,0.1326530612244898,0.1326530612244898,0.1326530612244898,0.1326530612244898,0.1326530612244898,0.1326530612244898,0.1326530612244898,0.1326530612244898,0.1326530612244898,0.1326530612244898,0.1326530612244898,0.1326530612244898,0.1326530612244898,0.1326530612244898,0.1326530612244898,0.1326530612244898,0.1326530612244898,0.1326530612244898,0.1326530612244898,0.1326530612244898,0.1326530612244898,0.1326530612244898,0.1326530612244898,0.1326530612244898,0.1326530612244898,0.1326530612244898,0.1326530612244898,0.1326530612244898,0.1326530612244898,0.1326530612244898,0.1326530612244898,0.1326530612244898,0.1326530612244898,0.1326530612244898,0.1326530612244898,0.1326530612244898,0.1326530612244898,0.1326530612244898,0.1326530612244898,0.1326530612244898,0.1326530612244898,0.1326530612244898,0.14965986394557823,0.17346938775510204,0.20068027210884354,0.23469387755102042,0.30272108843537415,0.35034013605442177,0.41496598639455784,0.5204081632653061,0.5748299319727891,0.6190476190476191,0.6496598639455783,0.673469387755102,0.7074829931972789,0.7244897959183674,0.7448979591836735,0.7619047619047619,0.7755102040816326,0.7857142857142857,0.7925170068027211,0.7993197278911565,0.8027210884353742,0.8095238095238095,0.8197278911564626,0.8299319727891157,0.8401360544217688,0.8537414965986394,0.8639455782312925,0.8707482993197279,0.8809523809523809,0.891156462585034,0.8979591836734694,0.9047619047619048,0.9081632653061225,0.9115646258503401,0.9149659863945578,0.9149659863945578,0.9149659863945578,0.9115646258503401,0.9047619047619048,0.8945578231292517,0.8809523809523809,0.8707482993197279,0.8537414965986394,0.8367346938775511,0.8163265306122449,0.7993197278911565,0.782312925170068,0.7619047619047619,0.7448979591836735,0.7346938775510204,0.7244897959183674,0.717687074829932,0.7142857142857143,0.7142857142857143,0.7108843537414966,0.7108843537414966,0.7074829931972789,0.7074829931972789,0.7074829931972789,0.7074829931972789,0.7074829931972789,0.7074829931972789,0.7074829931972789,0.7074829931972789,0.7074829931972789,0.7074829931972789,0.7074829931972789,0.7074829931972789,0.7074829931972789,0.7074829931972789,0.7074829931972789,0.7074829931972789,0.7074829931972789,0.7074829931972789,0.7074829931972789,0.7074829931972789,0.7074829931972789,0.7074829931972789,0.7074829931972789,0.7074829931972789,0.7074829931972789,0.7074829931972789,0.7074829931972789,0.7074829931972789,0.7074829931972789,0.7074829931972789,0.7040816326530612,0.7040816326530612,0.7040816326530612,0.7006802721088435,0.7006802721088435,0.7006802721088435,0.7006802721088435,0.7006802721088435,0.7006802721088435,0.7006802721088435,0.7006802721088435,0.7006802721088435,0.7006802721088435,0.7006802721088435,0.7006802721088435,0.7006802721088435,0.7006802721088435,0.7006802721088435,0.7006802721088435,0.7006802721088435,0.7006802721088435,0.7006802721088435,0.7006802721088435,0.7006802721088435,0.7006802721088435,0.7006802721088435,0.7006802721088435,0.7006802721088435,0.7006802721088435,0.7006802721088435,0.7006802721088435,0.7006802721088435,0.7006802721088435,0.7006802721088435,0.7006802721088435,0.7006802721088435,0.7006802721088435,0.7006802721088435,0.7006802721088435,0.7006802721088435,0.7006802721088435,0.6972789115646258,0.6972789115646258,0.6938775510204082,0.6938775510204082,0.6938775510204082,0.6938775510204082,0.6938775510204082,0.6938775510204082,0.6938775510204082,0.6938775510204082,0.6938775510204082,0.6938775510204082,0.6938775510204082,0.6938775510204082,0.6938775510204082,0.6938775510204082,0.6938775510204082,0.6938775510204082,0.6938775510204082,0.6938775510204082,0.6938775510204082,0.6938775510204082,0.6938775510204082,0.6938775510204082,0.6938775510204082,0.6938775510204082,0.6938775510204082,0.6938775510204082,0.6938775510204082,0.6938775510204082,0.6938775510204082,0.6938775510204082,0.6938775510204082,0.6938775510204082,0.6938775510204082,0.6938775510204082,0.6938775510204082,0.6938775510204082,0.6938775510204082,0.6938775510204082,0.6938775510204082,0.6938775510204082,0.6938775510204082,0.6938775510204082,0.6938775510204082,0.6938775510204082,0.6938775510204082,0.6938775510204082,0.6938775510204082,0.6938775510204082,0.6938775510204082,0.6938775510204082,0.6938775510204082,0.6938775510204082,0.6938775510204082,0.6938775510204082,0.6938775510204082,0.6938775510204082,0.6938775510204082,0.6938775510204082,0.6938775510204082,0.6938775510204082,0.6938775510204082,0.6938775510204082,0.6938775510204082,0.6938775510204082,0.6938775510204082,0.6938775510204082,0.6938775510204082,0.6938775510204082,0.6938775510204082,0.6938775510204082,0.6938775510204082,0.6938775510204082,0.6938775510204082,0.6938775510204082,0.6938775510204082,0.6938775510204082,0.6938775510204082,0.6938775510204082,0.6938775510204082,0.6938775510204082,0.6938775510204082,0.6938775510204082,0.6938775510204082,0.6938775510204082,0.6938775510204082,0.6938775510204082,0.6938775510204082,0.6938775510204082,0.6938775510204082,0.6938775510204082,0.6938775510204082,0.6938775510204082,0.6938775510204082,0.6938775510204082,0.6938775510204082,0.6938775510204082,0.6938775510204082,0.6938775510204082,0.6938775510204082,0.6938775510204082,0.6938775510204082,0.6938775510204082,0.6938775510204082,0.6938775510204082,0.6802721088435374,0.6632653061224489,0.6462585034013606,0.6292517006802721,0.6190476190476191,0.5918367346938775,0.5782312925170068,0.5578231292517006,0.54421768707483,0.5340136054421769,0.5272108843537415,0.5238095238095238,0.5238095238095238,0.5238095238095238,0.5238095238095238,0.5238095238095238,0.5238095238095238,0.5272108843537415,0.5272108843537415,0.5306122448979592,0.5306122448979592,0.5306122448979592,0.5306122448979592,0.5340136054421769,0.5340136054421769,0.5340136054421769,0.5340136054421769,0.5340136054421769,0.5340136054421769,0.5340136054421769,0.5340136054421769,0.5340136054421769,0.5340136054421769,0.5340136054421769,0.5340136054421769,0.5340136054421769,0.5340136054421769,0.5340136054421769,0.5340136054421769,0.5340136054421769,0.5340136054421769,0.5340136054421769,0.5340136054421769,0.5340136054421769,0.5340136054421769,0.5340136054421769,0.5476190476190477,0.5680272108843537,0.6190476190476191,0.6870748299319728,0.7380952380952381,0.7993197278911565,0.8537414965986394,0.8979591836734694,0.9285714285714286,0.9455782312925171,0.9625850340136054,0.9727891156462585,0.9829931972789115,0.9897959183673469,0.9965986394557823,1.0034013605442176,1.0068027210884354,1.010204081632653,1.010204081632653,1.010204081632653,1.010204081632653,1.010204081632653,1.010204081632653,1.010204081632653,1.010204081632653,1.0068027210884354,1,0.9931972789115646,0.9897959183673469,0.9863945578231292,0.9863945578231292,0.9863945578231292,0.9863945578231292,0.9863945578231292,0.9863945578231292,0.9863945578231292,0.9863945578231292,0.9863945578231292,0.9863945578231292,0.9863945578231292,0.9863945578231292,0.9863945578231292,0.9863945578231292,0.9863945578231292,0.9863945578231292,0.9863945578231292,0.9863945578231292,0.9863945578231292,0.9863945578231292,0.9863945578231292,0.9863945578231292,0.9863945578231292,0.9863945578231292,0.9863945578231292,0.9863945578231292,0.9863945578231292,0.9863945578231292,0.9863945578231292,0.9863945578231292,0.9863945578231292,0.9863945578231292,0.9863945578231292,0.9863945578231292,0.9863945578231292,0.9863945578231292,0.9863945578231292,0.9863945578231292,0.9863945578231292,0.9863945578231292,0.9863945578231292,0.9863945578231292,0.9863945578231292,0.9863945578231292,0.9863945578231292,0.9863945578231292,0.9863945578231292,0.9863945578231292,0.9863945578231292,0.9863945578231292,0.9863945578231292,0.9863945578231292,0.9863945578231292,0.9863945578231292,0.9863945578231292,0.9863945578231292,0.9863945578231292,0.9863945578231292,0.9863945578231292,0.9863945578231292,0.9863945578231292,0.9863945578231292,0.9863945578231292,0.9863945578231292,0.9863945578231292,0.9863945578231292,0.9863945578231292,0.9863945578231292,0.9863945578231292,0.9863945578231292,0.9863945578231292,0.9863945578231292,0.9863945578231292,0.9863945578231292,0.9863945578231292,0.9863945578231292,0.9863945578231292,0.9863945578231292,0.9863945578231292,0.9863945578231292,0.9863945578231292,0.9863945578231292,0.9863945578231292,0.9863945578231292,0.9863945578231292,0.9863945578231292,0.9863945578231292,0.9863945578231292,0.9863945578231292,0.9863945578231292,0.9863945578231292,0.9863945578231292,0.9863945578231292,0.9863945578231292,0.9863945578231292,0.9863945578231292,0.9863945578231292,0.9863945578231292,0.9863945578231292,0.9863945578231292,0.9863945578231292,0.9863945578231292,0.9863945578231292,0.9863945578231292,0.9863945578231292,0.9863945578231292,0.9863945578231292,0.9863945578231292,0.9863945578231292,0.9863945578231292,0.9863945578231292,0.9863945578231292,0.9863945578231292,0.9863945578231292,0.9863945578231292,0.9863945578231292,0.9863945578231292,0.9863945578231292,0.9863945578231292,0.9863945578231292,0.9863945578231292,0.9863945578231292,0.9863945578231292,0.9863945578231292,0.9863945578231292,0.9863945578231292,0.9863945578231292,0.9863945578231292,0.9863945578231292,0.9863945578231292,0.9863945578231292,0.9863945578231292,0.9863945578231292,0.9863945578231292],"y":[0.9341269841269835,0.9341269841269835,0.9341269841269835,0.9341269841269835,0.9341269841269835,0.9341269841269835,0.9341269841269835,0.9341269841269835,0.9341269841269835,0.9341269841269835,0.9341269841269835,0.9341269841269835,0.9341269841269835,0.9341269841269835,0.9341269841269835,0.9341269841269835,0.9341269841269835,0.9341269841269835,0.9341269841269835,0.9341269841269835,0.9341269841269835,0.9341269841269835,0.9341269841269835,0.9341269841269835,0.9341269841269835,0.9341269841269835,0.9341269841269835,0.9341269841269835,0.9341269841269835,0.9341269841269835,0.9341269841269835,0.9341269841269835,0.9341269841269835,0.9341269841269835,0.9341269841269835,0.9341269841269835,0.9341269841269835,0.9341269841269835,0.9341269841269835,0.9341269841269835,0.9341269841269835,0.9341269841269835,0.9341269841269835,0.9341269841269835,0.9341269841269835,0.9341269841269835,0.9341269841269835,0.9341269841269835,0.9341269841269835,0.9341269841269835,0.9341269841269835,0.9341269841269835,0.9341269841269835,0.9341269841269835,0.9341269841269835,0.9341269841269835,0.9341269841269835,0.9341269841269835,0.9341269841269835,0.9341269841269835,0.9341269841269835,0.9341269841269835,0.9341269841269835,0.9341269841269835,0.9341269841269835,0.9341269841269835,0.9341269841269835,0.9341269841269835,0.9341269841269835,0.9341269841269835,0.9341269841269835,0.9341269841269835,0.9341269841269835,0.9341269841269835,0.9341269841269835,0.9055555555555549,0.8579365079365073,0.8293650793650788,0.8103174603174597,0.7912698412698407,0.7722222222222216,0.7531746031746026,0.7436507936507931,0.7436507936507931,0.7341269841269835,0.7341269841269835,0.7341269841269835,0.7341269841269835,0.7341269841269835,0.7341269841269835,0.7341269841269835,0.7341269841269835,0.7341269841269835,0.7341269841269835,0.7341269841269835,0.7341269841269835,0.7341269841269835,0.7341269841269835,0.7341269841269835,0.7341269841269835,0.7341269841269835,0.7436507936507931,0.7531746031746026,0.7626984126984121,0.7722222222222216,0.7817460317460312,0.7817460317460312,0.7817460317460312,0.7817460317460312,0.7817460317460312,0.7817460317460312,0.7817460317460312,0.7817460317460312,0.7817460317460312,0.7817460317460312,0.7817460317460312,0.7817460317460312,0.7817460317460312,0.7817460317460312,0.7817460317460312,0.7817460317460312,0.7531746031746026,0.686507936507936,0.6103174603174598,0.5341269841269837,0.45793650793650753,0.40079365079365037,0.3531746031746028,0.31507936507936474,0.2674603174603171,0.22936507936507905,0.2007936507936505,0.18174603174603146,0.16269841269841243,0.1531746031746029,0.1436507936507934,0.13412698412698387,0.13412698412698387,0.13412698412698387,0.12460317460317435,0.11507936507936484,0.11507936507936484,0.11507936507936484,0.11507936507936484,0.11507936507936484,0.10555555555555532,0.10555555555555532,0.0960317460317458,0.07698412698412677,0.06746031746031725,0.057936507936507724,0.048412698412698206,0.03888888888888869,0.029365079365079167,0.01984126984126965,0.010317460317460132,0.010317460317460132,0.0007936507936506128,0.0007936507936506128,-0.008730158730158906,-0.008730158730158906,-0.008730158730158906,-0.008730158730158906,-0.008730158730158906,-0.008730158730158906,-0.008730158730158906,-0.008730158730158906,-0.008730158730158906,-0.008730158730158906,-0.008730158730158906,-0.008730158730158906,-0.008730158730158906,-0.008730158730158906,-0.008730158730158906,-0.008730158730158906,-0.008730158730158906,-0.008730158730158906,-0.008730158730158906,-0.008730158730158906,-0.008730158730158906,-0.008730158730158906,0.0007936507936506128,0.010317460317460132,0.03888888888888869,0.06746031746031725,0.12460317460317435,0.18174603174603146,0.24841269841269809,0.31507936507936474,0.40079365079365037,0.4960317460317456,0.5817460317460312,0.6388888888888884,0.7150793650793645,0.7626984126984121,0.8007936507936502,0.8674603174603168,0.8960317460317454,0.9246031746031739,0.9531746031746025,0.9912698412698405,1.019841269841269,1.0484126984126976,1.0865079365079358,1.1150793650793642,1.1531746031746024,1.1817460317460309,1.2293650793650786,1.257936507936507,1.2960317460317452,1.3246031746031737,1.3531746031746024,1.3817460317460308,1.3912698412698403,1.3912698412698403,1.4007936507936498,1.4007936507936498,1.4103174603174593,1.4103174603174593,1.4293650793650785,1.4293650793650785,1.438888888888888,1.438888888888888,1.438888888888888,1.438888888888888,1.438888888888888,1.438888888888888,1.438888888888888,1.438888888888888,1.438888888888888,1.438888888888888,1.438888888888888,1.438888888888888,1.438888888888888,1.438888888888888,1.438888888888888,1.438888888888888,1.438888888888888,1.438888888888888,1.438888888888888,1.438888888888888,1.438888888888888,1.438888888888888,1.438888888888888,1.438888888888888,1.438888888888888,1.438888888888888,1.438888888888888,1.438888888888888,1.438888888888888,1.438888888888888,1.438888888888888,1.438888888888888,1.438888888888888,1.438888888888888,1.438888888888888,1.438888888888888,1.438888888888888,1.438888888888888,1.438888888888888,1.438888888888888,1.438888888888888,1.438888888888888,1.438888888888888,1.438888888888888,1.438888888888888,1.438888888888888,1.438888888888888,1.438888888888888,1.438888888888888,1.438888888888888,1.438888888888888,1.438888888888888,1.438888888888888,1.438888888888888,1.438888888888888,1.438888888888888,1.438888888888888,1.438888888888888,1.438888888888888,1.438888888888888,1.438888888888888,1.438888888888888,1.438888888888888,1.438888888888888,1.438888888888888,1.438888888888888,1.438888888888888,1.438888888888888,1.438888888888888,1.438888888888888,1.438888888888888,1.438888888888888,1.438888888888888,1.438888888888888,1.438888888888888,1.438888888888888,1.438888888888888,1.438888888888888,1.438888888888888,1.438888888888888,1.438888888888888,1.438888888888888,1.438888888888888,1.438888888888888,1.438888888888888,1.438888888888888,1.438888888888888,1.438888888888888,1.438888888888888,1.438888888888888,1.438888888888888,1.438888888888888,1.438888888888888,1.438888888888888,1.438888888888888,1.438888888888888,1.438888888888888,1.438888888888888,1.438888888888888,1.438888888888888,1.438888888888888,1.438888888888888,1.438888888888888,1.438888888888888,1.438888888888888,1.438888888888888,1.438888888888888,1.438888888888888,1.438888888888888,1.438888888888888,1.438888888888888,1.438888888888888,1.438888888888888,1.438888888888888,1.438888888888888,1.438888888888888,1.438888888888888,1.438888888888888,1.438888888888888,1.438888888888888,1.438888888888888,1.438888888888888,1.438888888888888,1.438888888888888,1.438888888888888,1.438888888888888,1.438888888888888,1.438888888888888,1.438888888888888,1.438888888888888,1.438888888888888,1.438888888888888,1.438888888888888,1.438888888888888,1.438888888888888,1.438888888888888,1.438888888888888,1.438888888888888,1.438888888888888,1.438888888888888,1.438888888888888,1.438888888888888,1.438888888888888,1.438888888888888,1.438888888888888,1.438888888888888,1.438888888888888,1.438888888888888,1.438888888888888,1.438888888888888,1.438888888888888,1.438888888888888,1.438888888888888,1.438888888888888,1.438888888888888,1.438888888888888,1.438888888888888,1.438888888888888,1.438888888888888,1.438888888888888,1.438888888888888,1.438888888888888,1.438888888888888,1.438888888888888,1.438888888888888,1.438888888888888,1.438888888888888,1.438888888888888,1.438888888888888,1.438888888888888,1.438888888888888,1.438888888888888,1.438888888888888,1.438888888888888,1.438888888888888,1.438888888888888,1.438888888888888,1.438888888888888,1.438888888888888,1.438888888888888,1.438888888888888,1.438888888888888,1.438888888888888,1.438888888888888,1.438888888888888,1.4293650793650785,1.4293650793650785,1.4293650793650785,1.4293650793650785,1.4293650793650785,1.4293650793650785,1.4198412698412688,1.4198412698412688,1.4198412698412688,1.4198412698412688,1.4198412698412688,1.4198412698412688,1.4198412698412688,1.4198412698412688,1.4198412698412688,1.4198412698412688,1.4198412698412688,1.4198412698412688,1.4198412698412688,1.4198412698412688,1.4198412698412688,1.4198412698412688,1.4198412698412688,1.4198412698412688,1.4198412698412688,1.4198412698412688,1.4198412698412688,1.4198412698412688,1.4198412698412688,1.4198412698412688,1.4198412698412688,1.4198412698412688,1.4198412698412688,1.4198412698412688,1.4198412698412688,1.4198412698412688,1.4198412698412688,1.4198412698412688,1.4198412698412688,1.4198412698412688,1.4198412698412688,1.4198412698412688,1.4198412698412688,1.4198412698412688,1.4198412698412688,1.4198412698412688,1.4198412698412688,1.4198412698412688,1.4198412698412688,1.4198412698412688,1.4198412698412688,1.4198412698412688,1.4198412698412688,1.4198412698412688,1.4198412698412688,1.4198412698412688,1.4198412698412688,1.4198412698412688,1.4198412698412688,1.4198412698412688,1.4198412698412688,1.4198412698412688,1.4198412698412688,1.4198412698412688,1.4198412698412688,1.4198412698412688,1.4198412698412688,1.4198412698412688,1.4198412698412688,1.4198412698412688,1.4198412698412688,1.4198412698412688,1.4198412698412688,1.4198412698412688,1.4198412698412688,1.4198412698412688,1.4198412698412688,1.4198412698412688,1.4198412698412688,1.4198412698412688,1.4198412698412688,1.4198412698412688,1.4198412698412688,1.4198412698412688,1.4198412698412688,1.4198412698412688,1.4198412698412688,1.4198412698412688,1.4198412698412688,1.4198412698412688,1.4198412698412688,1.4198412698412688,1.4198412698412688,1.4198412698412688,1.4198412698412688,1.4198412698412688,1.4198412698412688,1.4198412698412688,1.4198412698412688,1.4198412698412688,1.4198412698412688,1.4198412698412688,1.4198412698412688,1.4198412698412688,1.4198412698412688,1.4198412698412688,1.4198412698412688,1.4198412698412688,1.4198412698412688,1.4198412698412688,1.4198412698412688,1.4198412698412688,1.4198412698412688,1.4198412698412688,1.4198412698412688,1.4198412698412688,1.4198412698412688,1.4198412698412688,1.4198412698412688,1.4198412698412688,1.4198412698412688,1.4198412698412688,1.4198412698412688,1.4198412698412688,1.4198412698412688,1.4198412698412688,1.4198412698412688,1.4198412698412688,1.4198412698412688,1.4198412698412688,1.4198412698412688,1.4103174603174593,1.4103174603174593,1.4103174603174593,1.4103174603174593,1.4103174603174593,1.4103174603174593,1.4103174603174593,1.4103174603174593,1.4103174603174593,1.4103174603174593,1.4103174603174593,1.4103174603174593,1.4103174603174593,1.4103174603174593,1.4103174603174593,1.4103174603174593,1.4103174603174593,1.4103174603174593,1.4103174603174593,1.4103174603174593,1.4103174603174593,1.4103174603174593,1.4103174603174593,1.4103174603174593,1.4103174603174593,1.4103174603174593,1.4103174603174593,1.4103174603174593,1.4103174603174593,1.4103174603174593,1.4103174603174593,1.4103174603174593,1.4103174603174593,1.4103174603174593,1.4103174603174593,1.4103174603174593,1.4103174603174593,1.4103174603174593,1.4103174603174593,1.4103174603174593,1.4103174603174593,1.4103174603174593,1.4103174603174593,1.4103174603174593,1.4103174603174593,1.4103174603174593,1.4103174603174593,1.4103174603174593,1.4103174603174593,1.4103174603174593,1.4103174603174593,1.4103174603174593,1.4103174603174593,1.4103174603174593,1.4103174603174593,1.4103174603174593,1.4103174603174593,1.4103174603174593,1.4103174603174593,1.4103174603174593,1.4103174603174593,1.4103174603174593,1.4103174603174593,1.4103174603174593,1.4103174603174593,1.4103174603174593,1.4103174603174593,1.4103174603174593,1.4103174603174593,1.4103174603174593,1.4103174603174593,1.4103174603174593,1.4103174603174593,1.4103174603174593,1.4103174603174593,1.4103174603174593,1.4103174603174593,1.4103174603174593,1.4103174603174593,1.4103174603174593,1.4103174603174593,1.4103174603174593,1.4103174603174593,1.4103174603174593,1.4103174603174593,1.4103174603174593,1.4103174603174593,1.4103174603174593,1.4103174603174593,1.4103174603174593,1.4103174603174593,1.4103174603174593,1.4103174603174593,1.4103174603174593,1.4103174603174593,1.4103174603174593,1.4103174603174593,1.4103174603174593,1.4103174603174593,1.4103174603174593,1.4103174603174593,1.4103174603174593,1.4103174603174593,1.4103174603174593,1.4103174603174593,1.4103174603174593,1.4103174603174593,1.4103174603174593,1.4103174603174593,1.4103174603174593,1.4103174603174593,1.4103174603174593,1.4103174603174593,1.4103174603174593,1.4103174603174593,1.4103174603174593,1.4103174603174593,1.4103174603174593,1.4103174603174593,1.4103174603174593,1.4103174603174593,1.4007936507936498,1.4007936507936498,1.4007936507936498,1.4007936507936498,1.4007936507936498,1.4007936507936498,1.4007936507936498,1.3912698412698403,1.3912698412698403,1.3912698412698403,1.3912698412698403,1.3912698412698403,1.3912698412698403,1.3912698412698403,1.3912698412698403,1.3912698412698403,1.3912698412698403,1.3912698412698403,1.3912698412698403,1.3912698412698403,1.3912698412698403,1.3912698412698403,1.3912698412698403,1.3912698412698403,1.3912698412698403,1.3912698412698403,1.3912698412698403,1.3912698412698403,1.3912698412698403,1.3912698412698403,1.3912698412698403,1.3912698412698403,1.3912698412698403,1.3912698412698403,1.3912698412698403,1.3912698412698403,1.3912698412698403,1.3912698412698403,1.3912698412698403,1.3912698412698403,1.3912698412698403,1.3912698412698403,1.3912698412698403,1.3912698412698403,1.3912698412698403,1.3912698412698403,1.3912698412698403,1.3912698412698403,1.3912698412698403,1.3912698412698403,1.3912698412698403,1.3912698412698403,1.3912698412698403,1.3912698412698403,1.3912698412698403,1.3912698412698403,1.3912698412698403,1.3912698412698403,1.3912698412698403,1.3912698412698403,1.3912698412698403,1.3912698412698403,1.3912698412698403,1.3912698412698403,1.3912698412698403,1.3912698412698403,1.3912698412698403,1.3912698412698403,1.3912698412698403,1.3912698412698403,1.3912698412698403,1.3912698412698403,1.3912698412698403,1.3912698412698403,1.3912698412698403,1.3912698412698403,1.3912698412698403,1.3912698412698403,1.3912698412698403,1.3912698412698403,1.3912698412698403,1.3912698412698403,1.3912698412698403,1.3912698412698403,1.3912698412698403,1.3912698412698403,1.3912698412698403,1.3912698412698403,1.3912698412698403,1.3912698412698403,1.3912698412698403,1.3912698412698403,1.3912698412698403,1.3912698412698403,1.3912698412698403,1.3912698412698403,1.3912698412698403,1.3912698412698403,1.3912698412698403,1.3912698412698403,1.3912698412698403,1.3912698412698403,1.3912698412698403,1.3912698412698403,1.3912698412698403,1.3912698412698403,1.3912698412698403,1.3912698412698403,1.3912698412698403,1.3912698412698403,1.3912698412698403,1.3912698412698403,1.3912698412698403,1.3912698412698403,1.3912698412698403,1.3912698412698403,1.3912698412698403,1.3912698412698403,1.3912698412698403,1.3912698412698403,1.3912698412698403,1.3912698412698403,1.3912698412698403,1.3912698412698403,1.3912698412698403,1.3912698412698403,1.3912698412698403,1.3912698412698403,1.3912698412698403,1.3912698412698403,1.3912698412698403,1.3912698412698403,1.3912698412698403,1.3912698412698403,1.3912698412698403,1.3912698412698403,1.3912698412698403,1.3912698412698403,1.3912698412698403,1.3912698412698403,1.3912698412698403,1.3912698412698403,1.3912698412698403,1.3912698412698403,1.3912698412698403,1.3912698412698403,1.3912698412698403,1.3912698412698403,1.3912698412698403,1.3912698412698403,1.3912698412698403,1.3912698412698403,1.3912698412698403,1.3912698412698403,1.3912698412698403,1.3912698412698403,1.3912698412698403,1.3912698412698403,1.3912698412698403,1.3912698412698403,1.3912698412698403,1.3912698412698403,1.3912698412698403,1.3912698412698403,1.3912698412698403,1.3912698412698403,1.3912698412698403,1.3912698412698403,1.3912698412698403,1.3912698412698403,1.3912698412698403,1.3912698412698403,1.3912698412698403,1.3912698412698403,1.3912698412698403,1.3912698412698403,1.3912698412698403,1.3912698412698403,1.3912698412698403,1.3912698412698403,1.3912698412698403,1.3912698412698403,1.3912698412698403,1.3912698412698403,1.3912698412698403,1.3912698412698403,1.3912698412698403,1.3912698412698403,1.3912698412698403,1.3912698412698403,1.3912698412698403,1.3912698412698403,1.3912698412698403,1.3912698412698403,1.3912698412698403,1.3912698412698403,1.3912698412698403,1.3912698412698403,1.3912698412698403,1.3912698412698403,1.3912698412698403,1.3912698412698403,1.3912698412698403,1.3912698412698403,1.3912698412698403,1.3912698412698403,1.3912698412698403,1.3912698412698403,1.3912698412698403,1.3912698412698403,1.3912698412698403,1.3912698412698403,1.3912698412698403,1.3912698412698403,1.3912698412698403,1.3912698412698403,1.3912698412698403,1.3912698412698403,1.3912698412698403,1.3912698412698403,1.3912698412698403,1.3912698412698403,1.3912698412698403,1.3912698412698403,1.3817460317460308,1.3817460317460308,1.3817460317460308,1.3817460317460308,1.3817460317460308,1.3817460317460308,1.3817460317460308,1.3817460317460308,1.3817460317460308,1.3817460317460308,1.3817460317460308,1.3817460317460308,1.3817460317460308,1.3817460317460308,1.3817460317460308,1.3817460317460308,1.3817460317460308,1.3817460317460308,1.3817460317460308,1.3817460317460308,1.3817460317460308,1.3817460317460308,1.3817460317460308,1.3817460317460308,1.3817460317460308,1.3817460317460308,1.3817460317460308,1.3817460317460308,1.3817460317460308,1.3817460317460308,1.3722222222222213,1.3722222222222213,1.3722222222222213,1.3722222222222213,1.3722222222222213,1.3722222222222213,1.3722222222222213,1.3722222222222213,1.3722222222222213,1.3722222222222213,1.3722222222222213,1.3722222222222213,1.3722222222222213,1.3722222222222213,1.3722222222222213,1.3722222222222213,1.3722222222222213,1.3722222222222213,1.3722222222222213,1.3722222222222213,1.3722222222222213,1.3722222222222213,1.3722222222222213,1.3722222222222213,1.3722222222222213,1.3722222222222213,1.3722222222222213,1.3722222222222213,1.3722222222222213,1.3722222222222213,1.3722222222222213,1.3722222222222213,1.3722222222222213,1.3722222222222213,1.3722222222222213,1.3722222222222213,1.3722222222222213,1.3722222222222213,1.3722222222222213,1.3722222222222213,1.3722222222222213,1.3722222222222213,1.3722222222222213,1.3722222222222213,1.3722222222222213,1.3722222222222213,1.3722222222222213,1.3722222222222213,1.3722222222222213,1.3722222222222213,1.3722222222222213,1.3722222222222213,1.3722222222222213,1.3722222222222213,1.3722222222222213,1.3722222222222213,1.3722222222222213,1.3722222222222213,1.3722222222222213,1.3722222222222213,1.3722222222222213,1.3722222222222213,1.3722222222222213,1.3722222222222213,1.3722222222222213,1.3722222222222213,1.3722222222222213,1.3722222222222213,1.3722222222222213,1.3722222222222213,1.3722222222222213,1.3722222222222213,1.3722222222222213,1.3722222222222213,1.3722222222222213,1.3722222222222213,1.3722222222222213,1.3722222222222213,1.3722222222222213,1.3722222222222213,1.3626984126984119,1.3531746031746024,1.3531746031746024,1.3436507936507927,1.3436507936507927,1.343650793650