[{"success":true,"trial_type":"fullscreen","trial_index":0,"time_elapsed":15698,"internal_node_id":"0.0-0.0","protocol_sum":"","subject_identifier":213,"subject_sum":[72,45,150,115,207,238,93,227,145,249,127,222,77,28,132,249,248,214,242,207,7,132,252,255,185,88,180,3,45,231,35,108],"subject_pair":106,"STUDY_ID":"669eec2e4270c76bc184a38e","PROLIFIC_PID":"66857af993dcf9649eefd9f5","SESSION_ID":"669fa5b89bfec54f1d116275","practice_instructions":1,"leaderboard_instructions":0,"bonus":0,"reveal_word":true,"self_rating":"2","confidence":"85"},{"view_history":"[{\"page_index\":0,\"viewing_time\":6503.39999999851}]","rt":6504.29999999702,"trial_type":"instructions","trial_index":1,"time_elapsed":22205,"internal_node_id":"0.0-1.0","protocol_sum":"","subject_identifier":213,"subject_sum":[72,45,150,115,207,238,93,227,145,249,127,222,77,28,132,249,248,214,242,207,7,132,252,255,185,88,180,3,45,231,35,108],"subject_pair":106,"STUDY_ID":"669eec2e4270c76bc184a38e","PROLIFIC_PID":"66857af993dcf9649eefd9f5","SESSION_ID":"669fa5b89bfec54f1d116275","practice_instructions":1,"leaderboard_instructions":0,"bonus":0,"reveal_word":true,"self_rating":"2","confidence":"85"},{"view_history":"[{\"page_index\":0,\"viewing_time\":25145.5}]","rt":25146,"trial_type":"instructions","trial_index":2,"time_elapsed":47353,"internal_node_id":"0.0-2.0-0.0","protocol_sum":"","subject_identifier":213,"subject_sum":[72,45,150,115,207,238,93,227,145,249,127,222,77,28,132,249,248,214,242,207,7,132,252,255,185,88,180,3,45,231,35,108],"subject_pair":106,"STUDY_ID":"669eec2e4270c76bc184a38e","PROLIFIC_PID":"66857af993dcf9649eefd9f5","SESSION_ID":"669fa5b89bfec54f1d116275","practice_instructions":1,"leaderboard_instructions":0,"bonus":0,"reveal_word":true,"self_rating":"2","confidence":"85"},{"rt":20139.79999999702,"responses":"{\"Q0\":\"... reveal the word with as <b>few letter guesses</b> as possible\"}","question_order":"[0]","trial_type":"survey-multi-choice","trial_index":3,"time_elapsed":67497,"internal_node_id":"0.0-2.0-1.0","protocol_sum":"","subject_identifier":213,"subject_sum":[72,45,150,115,207,238,93,227,145,249,127,222,77,28,132,249,248,214,242,207,7,132,252,255,185,88,180,3,45,231,35,108],"subject_pair":106,"correct":true,"test_part":"multichoice_nonpretend","STUDY_ID":"669eec2e4270c76bc184a38e","PROLIFIC_PID":"66857af993dcf9649eefd9f5","SESSION_ID":"669fa5b89bfec54f1d116275","practice_instructions":1,"leaderboard_instructions":0,"bonus":0,"reveal_word":true,"self_rating":"2","confidence":"85"},{"view_history":"[{\"page_index\":0,\"viewing_time\":4082.7999999970198}]","rt":4083.2000000029802,"trial_type":"instructions","trial_index":4,"time_elapsed":71583,"internal_node_id":"0.0-3.0","protocol_sum":"","subject_identifier":213,"subject_sum":[72,45,150,115,207,238,93,227,145,249,127,222,77,28,132,249,248,214,242,207,7,132,252,255,185,88,180,3,45,231,35,108],"subject_pair":106,"STUDY_ID":"669eec2e4270c76bc184a38e","PROLIFIC_PID":"66857af993dcf9649eefd9f5","SESSION_ID":"669fa5b89bfec54f1d116275","practice_instructions":1,"leaderboard_instructions":0,"bonus":0,"reveal_word":true,"self_rating":"2","confidence":"85"},{"word":"ZEBRA","click_log":{"letter":["","C","A","O","N","I","M","L","D","B","G","K","U","W","T","P","E","Z","R"],"t":[0,34227,46349.10000000149,53908.39999999851,65124.79999999702,68206.89999999851,70967.69999999553,84853.69999999553,107203.39999999851,109968.5,112692,114790,117903.10000000149,119795.10000000149,121660.79999999702,124168.79999999702,127952.89999999851,131770,135853.69999999553],"hit":[null,0,1,0,0,0,0,0,0,1,0,0,0,0,0,0,1,1,1],"asked":["","C","CA","CAO","CAON","CAONI","CAONIM","CAONIML","CAONIMLD","CAONIMLDB","CAONIMLDBG","CAONIMLDBGK","CAONIMLDBGKU","CAONIMLDBGKUW","CAONIMLDBGKUWT","CAONIMLDBGKUWTP","CAONIMLDBGKUWTPE","CAONIMLDBGKUWTPEZ","CAONIMLDBGKUWTPEZR"],"word_state":["_____","_____","____A","____A","____A","____A","____A","____A","____A","__B_A","__B_A","__B_A","__B_A","__B_A","__B_A","__B_A","_EB_A","ZEB_A","ZEBRA"]},"hover_log":{"letter":["?","?","?","?","?","?","?","?","?","?","?","?","?","?","?","?","?","?","?","?","?","?","?","?","?","?","?","?","?","?","?","?","?","?","?","?","?","?","?","?","?","?","?","?","?","?","?","?","?","?","?","?","?","?","?","?","?","?","?","?","?","?","?","?","?","?","?","?","?","?","?","?","?","?","?","?","?","?","?","?","?","?","?","?","?","?","?","?","?","?","?","?","?","?","?","?","?","?","?","?","?","?","?","?","?","?","?","?","?","?","?","?","?","?","?","?","?","?","?","?","?","?","?","?","?","?","?","?","?","?","?","?","?","?","?","?","?","?","?","?","?","?","?","?","?","?","?","?","?","?","?","?","?","?","?","?","?","?","?","?","?","?","?","?","?","?","?","?","?","?","?","?","?","?","?","?","?","?","?","?","?","?","?","?","?","?","?","?","?","?","?","?","?","?","?","?","?","?","?","?","?","?","?","?","?","?","?","?","?","?","?","?","?","?","?","?","?","?","?","?","?","?","?","?","?","?","?","?","?","?","?","?","?","?","?","?","?","?","?","?","?","?","?","?","?","?","?","?","?","?","?","?","?","?","?","?","?","?","?","?","?","?","?","?","?","?","?","?","?","?","?","?","?","?","?","?","?","?","?","?","?","?","?","?","?","?","?","?","?","?","?","?","?","?","?","?","?","?","?","?","?","?","?","?","?","?","?","?","?","?","?","?","?","?","?","?","?","?","?","?","?","?","?","?","?","?","?","?","?","?","?","?","?","?","?","?","?","?","?","?","?","?","?","?","?","?","?","?","?","?","?","?","?","?","?","?","?","?","?","?","?","?","?","?","?","?","?","?","?","?","?","?","?","?","?","?","?","?","?","?","?","?","?","?","?","?","?","?","?","?","?","?","?","?","?","?","?","?","?","?","?","?","?","?","?","?","?","?","?","?","?","?","?","?","?","?","?","?","?","?","?","?","?","?","?","?","?","?","?","?","?","?","?","?","?","?","?","?","?","?","?","?","?","?","?","?","?","?","?","?","?","?","?","?","?","?","?","?","?","?","?","?","?","?","?","?","?","?","?","?","?","?","?","?","?","?","?","?","?","?","J","J","J","J","J","J","J","J","J","?","?","K","K","K","?","L","L","?","M","M","M","M","M","?","?","?","?","?","?","?","?","?","?","?","?","?","?","?","?","?","?","D","D","D","?","?","?","?","?","?","?","?","?","?","?","?","?","?","?","?","?","?","?","?","?","?","?","?","?","?","?","?","?","?","?","?","?","?","?","?","?","?","?","?","?","?","?","?","?","?","?","?","?","?","?","?","?","?","?","?","?","?","?","?","?","?","?","?","?","?","?","?","?","?","?","?","?","?","?","?","?","?","?","?","?","?","?","?","?","?","?","?","?","?","?","?","?","?","?","?","?","?","?","?","?","?","?","?","?","?","?","?","?","?","?","I","I","I","I","I","I","I","I","I","I","I","I","I","I","I","I","I","I","I","?","?","R","R","?","?","?","?","?","?","?","?","?","?","?","?","?","?","?","?","?","?","?","?","?","?","?","?","?","?","?","?","?","?","?","?","?","?","?","?","?","?","?","?","?","?","?","?","?","?","?","?","?","?","?","?","?","?","?","?","?","?","?","?","?","?","?","?","?","?","?","?","?","?","?","?","?","?","?","?","?","?","?","?","?","?","?","?","?","?","?","?","?","?","?","?","?","?","?","?","?","?","?","?","?","?","?","?","?","?","?","?","?","?","?","?","?","?","?","?","?","?","?","?","?","?","?","?","?","?","?","?","?","?","?","?","?","?","?","?","?","?","?","?","?","?","?","?","?","?","?","?","?","?","?","?","?","?","?","?","?","?","?","?","?","?","?","?","?","?","?","?","?","?","?","?","?","?","?","?","?","?","?","?","?","?","?","?","?","?","?","?","?","?","?","?","?","?","?","?","?","?","?","?","?","?","?","?","?","?","?","?","?","?","?","?","?","?","?","?","?","?","?","?","?","?","?","?","?","?","?","?","?","?","?","?","?","?","?","?","?","?","?","?","?","?","?","?","?","?","?","?","?","?","?","?","?","?","?","?","?","?","?","?","?","?","?","?","?","?","?","?","?","?","?","?","?","?","?","?","?","?","?","?","?","?","?","?","?","?","?","?","?","?","?","?","?","?","?","?","?","?","?","?","?","?","?","?","?","?","?","?","?","?","?","?","?","?","?","?","?","?","?","?","?","?","?","?","?","?","?","?","?","?","?","?","?","?","?","?","?","?","?","?","?","?","?","?","?","?","?","?","?","?","?","?","?","?","?","?","?","?","?","?","?","?","?","?","?","?","?","?","?","?","?","?","?","?","?","?","?","?","?","?","?","?","?","?","?","?","?","?","?","?","?","?","?","?","?","?","?","?","?","?","?","?","?","?","?","?","?","?","?","?","?","?","?","?","?","?","?","?","?","?","?","?","?","?","?","?","?","?","?","?","?","?","?","?","?","?","?","?","?","?","?","?","?","?","?","?","?","?","?","?","?","?","?","?","?","?","?","?","?","?","?","?","?","?","?","?","?","?","?","?","?","?","?","?","?","?","?","?","?","?","?","?","?","?","?","?","?","?","?","?","?","?","?","?","?","?","?","?","?","?","?","?","?","?","?","?","?","?","?","?","?","?","?","?","?","?","?","?","?","?","?","?","?","?","?","?","?","?","?","?","?","?","?","?","?","?","?","?","?","?","?","?","?","?","?","?","?","?","?","?","?","?","?","?","?","?","?","?","?","?","?","?","?","?","?","?","?","?","?","?","?","?","?","?","?","?","?","?","?","?","?","?","?","?","?","?","?","?","?","?","?","?","?","?","?","?","?","?","?","?","?","?","?","?","?","?","?","?","?","?","?","?","?","?","?","?","?","?","?","?","?","?","?","?","?","?","?","?","?","?","?","?","?","?","?","?","?","?","?","?","?","?","?","?","?","?","?","?","?","?","?","?","?","?","?","?","?","?","?","?","?","?","?","?","?","?","?","?","?","?","?","?","?","?","?","?","?","?","?","?","?","?","?","?","?","?","?","?","?","?","?","?","?","?","?","?","?","?","?","Y","Y","Y","Y","?","?","?","?","?","?","?","?","?","?","?","?","?","?","?","?","?","?","?","?","?","?","?","?","?","?","?","?","?","?","?","?","?","?","?","?","?","?","?","?","?","?","?","?","?","?","?","?","?","?","?","?","?","?","?","?","?","?","?","?","?","?","?","?","?","?","?","?","?","?","?","?","?","?","?","?","?","?","?","?","?","?","?","?","?","?","?","?","?","?","?","?","?","?","?","?","?","?","?","?","?","?","?","?","?","?","?","?","?","?","?","?","?","?","?","?","?","?","?","?","?","?","?","?","?","?","?","?","?","?","?","?","?","?","?","?","?","?","?","?","?","?","?","?","?","?","?","?","?","?","?","?","?","?","?","?","?","?","?","?","?","?","?","?","?","?","?","?","?","?","?","?","?","?","?","?","?","?","?","?","?","?","?","?","?","?","?","?","?","?","?","?","?","?","?","?","?","?","?","?","?","?","?","?","?","?","?","?","?","?","?","?","?","?","?","?","?","?","?","?","?","?","?","?","?","?","?","?","?","?","?","?","?","?","?","?","?","?","?","?","?","?","?","?","?","?","?","?","?","?","?","?","?","?","?","?","?","?","?","?","?","?","?","?","?","?","?","?","?","?","?","?","?","?","?","?","?","?","?","?","?","?","?","?","?","?","?","?","?","?","?","?","?","?","?","?","?","?","?","?","?","?","?","?","?","?","?","?","?","?","?","?","?","?","?","?","?","?","?","?","?","?","?","?","?","?","?","?","?","?","?","?","?","?","?","?","?","?","?","?","?","?","?","?","?","?","?","?","?","?","?","?","?","?","?","?","?","?","?","?","?","?","?","?","?","?","?","?","?","?","?","?","?","?","?","?","?","?","?","?","?","?","?","?","?","?","?","?","?","?","?","?","?","?","?","?","?","?","?","?","?","?","?","?","?","?","?","?","?","?","?","?","?","?","?","?","?","?","?","?","?","?","?","?","?","?","?","?","?","?","?","?","?","?","?","?","?","?","?","?","?","?","?","?","?","?","?","?","?","?","?","?","?","?","?","?","?","?","?","?","?","?","?","?","?","?","?","?","?","?","?","?","?","?","?","?","?","?","?","?","?","?","?","?","?","?","?","?","?","?","?","?","?","?","?","?","?","?","?","?","?","?","?","?","?","?","?","?","?","?","?","?","?","?","?","?","?","?","?","?","?","?","?","?","?","?","?","?","?","?","?","?","?","?","?","?","?","?","?","?","?","?","?","?","?","?","?","?","?","?","?","?","?","?","?","?","?","?","?","?","?","?","?","?","?","?","?","?","?","?","?","?","?","?","?","?","X","?","?","N","?","?","?","C","C","C","C","C","?","L","L","?","M","?","?","?","W","X","X","?","Y","Y","Y","Y","Y","?","?","?","?","?","N","?","M","M","M","M","M","M","M","M","M","M","M","M","M","M","M","M","M","M","M","M","M","?","?","?","?","?","?","?","C","C","C","C","C","C","C","C","C","C","C","C","C","C","C","C","C","C","C","C","C","C","C","C","C","C","C","C","C","C","C","C","C","C","C","C","C","C","C","C","C","C","C","C","C","C","C","C","C","C","C","C","C","C","C","C","C","C","C","C","C","C","C","C","C","C","C","C","C","C","C","C","C","C","C","C","C","C","C","C","C","C","C","C","C","C","C","C","C","C","C","C","C","C","C","C","?","?","?","?","?","?","?","?","?","?","?","?","?","?","?","?","?","?","?","?","?","?","?","?","?","?","?","?","?","?","?","?","?","?","?","?","?","?","?","?","?","?","?","?","?","?","?","?","?","?","?","?","?","?","?","?","?","?","?","?","?","?","?","?","?","?","?","?","?","?","?","?","?","?","?","?","?","?","?","?","?","?","?","?","?","?","?","?","?","?","?","?","?","?","?","?","?","?","?","?","?","?","?","?","?","?","?","?","?","?","?","?","?","?","?","?","?","?","?","?","?","?","?","?","?","?","?","?","?","?","?","?","?","?","?","?","?","?","?","?","?","?","?","?","?","?","?","?","?","?","?","?","?","?","?","?","?","?","?","?","?","?","?","?","?","?","?","?","?","?","?","?","?","?","?","?","?","?","?","?","?","?","?","?","?","?","?","?","?","?","?","?","?","?","?","?","?","?","?","?","?","?","?","?","?","M","M","M","M","M","?","?","?","?","?","?","?","?","D","D","D","?","?","?","?","?","?","?","?","?","?","?","?","?","?","?","?","?","?","?","?","?","?","?","?","?","?","?","?","?","?","?","?","?","?","?","?","?","?","?","?","?","?","?","?","?","?","?","?","?","?","?","?","?","?","?","?","?","?","?","?","?","?","?","?","?","?","?","?","?","?","?","?","?","?","?","?","?","?","?","?","?","?","?","?","?","?","?","?","?","?","?","?","?","?","?","?","?","?","?","?","?","?","?","?","?","?","?","?","?","?","?","?","?","?","?","?","?","?","?","?","?","?","?","?","?","?","?","?","?","?","?","?","?","?","?","?","?","?","?","?","?","?","?","?","?","?","?","?","?","?","?","?","?","?","?","?","?","?","?","?","?","?","?","?","?","?","?","?","?","?","?","?","?","?","?","?","?","?","?","?","?","?","?","?","?","?","?","?","?","?","?","?","?","?","?","?","?","?","?","?","?","?","?","?","?","?","?","?","?","?","?","?","?","?","?","?","?","?","?","?","?","?","?","?","?","?","?","?","?","?","?","?","?","?","?","?","?","?","?","?","?","?","?","?","?","?","?","?","?","?","?","?","?","?","?","?","?","?","?","M","M","?","?","?","L","L","L","?","?","?","?","?","?","?","?","?","?","?","?","?","?","?","?","?","?","?","?","?","?","?","?","?","?","?","?","?","?","?","?","?","?","?","?","?","?","?","?","?","?","?","?","?","?","?","?","?","?","?","?","?","?","?","?","?","?","?","?","?","?","?","?","?","?","?","L","L","L","L","L","L","L","L","L","L","L","L","?","?","K","K","K","K","K","K","K","K","K","K","K","K","K","K","K","K","K","K","K","K","K","K","K","K","K","?","?","?","?","?","?","?","?","?","?","?","?","?","?","?","?","?","?","?","?","?","?","?","?","?","?","A","A","A","A","A","A","A","A","A","A","A","A","A","A","A","A","A","A","A","A","A","A","A","A","A","A","A","A","A","A","A","A","A","A","A","A","A","A","A","A","A","A","A","A","A","A","A","A","A","A","A","A","A","A","A","A","A","A","A","A","A","A","A","A","A","A","A","A","A","A","A","A","A","A","A","A","A","A","A","A","A","A","A","A","A","A","A","A","A","A","A","A","A","A","A","A","A","A","A","A","A","A","A","A","A","A","A","A","A","A","A","A","A","A","A","A","A","A","A","A","A","A","A","A","A","A","A","A","A","A","A","A","A","A","A","A","A","A","A","A","A","A","A","A","A","A","A","A","A","A","A","A","A","A","A","A","A","A","A","A","A","A","A","A","A","A","A","A","A","A","A","A","A","A","A","A","A","A","A","A","A","A","A","A","A","A","A","A","A","A","A","A","A","A","A","A","A","A","A","A","A","A","A","A","A","A","A","A","A","A","A","A","A","A","A","A","A","A","A","A","A","A","A","A","A","A","A","A","A","A","A","A","A","A","A","A","A","A","A","A","A","A","A","A","A","A","A","A","A","A","A","A","A","A","A","A","A","A","A","A","A","A","A","A","A","A","A","A","A","A","A","A","A","A","A","A","A","A","A","A","A","A","A","A","A","A","A","A","A","A","A","A","A","A","A","A","A","A","A","A","A","A","A","A","A","A","A","A","A","A","A","A","A","A","A","A","A","A","A","A","A","A","A","A","?","?","B","B","B","?","?","?","?","?","?","M","?","?","N","N","N","N","N","N","N","N","N","N","N","N","N","N","N","N","N","N","N","N","N","N","N","N","N","N","N","N","N","N","N","N","N","N","N","N","N","N","N","N","N","?","?","?","?","?","?","?","?","?","?","?","?","?","?","?","?","?","?","?","?","?","?","?","?","?","?","?","?","?","?","?","?","?","?","?","?","?","?","?","?","?","?","?","?","?","?","?","?","?","?","?","?","?","?","?","?","?","?","?","?","?","?","?","?","?","?","?","?","?","?","?","?","?","?","?","?","?","?","?","O","O","O","O","O","O","O","O","O","O","O","O","O","O","O","O","O","O","O","O","O","O","O","O","O","O","O","O","O","O","O","O","O","O","O","O","O","O","O","O","O","O","O","O","O","O","O","O","O","O","O","O","O","O","O","O","O","O","O","O","O","O","O","O","O","O","O","O","O","O","O","O","O","O","O","O","O","O","O","O","O","O","O","O","O","?","?","?","?","?","?","N","N","N","N","N","N","N","N","N","N","N","N","N","N","N","N","N","N","N","N","N","N","N","N","N","N","N","N","N","N","N","N","N","N","N","N","N","N","N","N","N","N","N","N","N","N","N","N","N","N","N","N","N","N","N","N","N","N","N","N","N","N","N","N","N","N","N","N","N","N","N","N","N","N","N","N","N","N","N","N","N","N","N","N","N","N","N","N","N","N","N","N","N","N","N","N","N","N","N","N","N","N","N","N","N","N","N","N","N","N","N","N","N","N","N","N","N","N","N","N","N","N","N","N","N","N","N","N","N","N","N","N","N","N","N","N","N","N","N","N","N","N","N","N","N","N","N","N","N","N","N","N","N","N","N","N","N","N","N","N","N","N","N","N","N","N","N","N","N","N","N","N","N","N","N","N","N","N","N","N","N","N","N","N","N","N","N","N","N","N","N","N","N","N","N","N","N","N","N","N","N","N","N","N","N","N","N","N","N","N","N","N","N","N","N","N","N","N","N","N","N","N","N","N","N","N","N","N","N","N","N","N","N","N","N","N","N","N","N","N","N","N","N","N","N","N","N","N","N","N","N","N","N","N","N","N","N","N","N","N","N","N","N","N","N","N","N","N","N","N","N","N","N","N","N","N","N","N","N","N","N","N","N","N","N","N","N","N","N","N","N","N","N","N","N","N","N","N","N","N","N","N","N","N","N","N","N","N","N","N","N","N","N","N","N","N","N","N","N","N","N","N","N","N","N","N","N","N","N","N","N","N","N","N","N","N","N","N","N","N","N","N","N","N","N","N","N","N","N","N","N","N","N","N","N","N","N","N","N","N","N","N","N","N","N","N","N","N","N","N","N","N","N","N","N","N","N","N","N","N","N","N","N","N","N","N","N","N","N","N","N","N","N","N","N","N","N","N","N","N","N","N","N","N","N","N","N","N","N","N","N","N","N","N","N","N","N","N","N","N","N","N","N","N","N","N","N","N","N","N","N","N","N","N","N","N","N","N","N","N","N","N","N","N","N","N","N","N","N","N","N","N","N","N","N","?","?","?","?","?","?","?","?","?","?","?","?","?","?","?","?","?","?","?","?","?","?","?","?","?","?","?","?","?","?","?","?","?","?","?","?","?","?","?","?","?","N","N","N","N","N","N","N","N","N","N","N","N","N","N","N","N","N","N","N","N","N","N","N","N","N","N","N","N","N","N","N","N","N","N","N","N","N","N","N","N","N","N","N","N","N","N","N","N","N","N","N","N","N","N","N","N","N","N","N","N","N","N","N","N","N","N","N","N","N","N","N","N","N","N","N","N","N","N","N","N","N","N","N","N","N","N","N","N","N","N","N","N","N","N","N","N","N","N","N","N","N","N","N","N","N","N","N","N","N","N","N","N","N","N","N","N","N","N","N","N","N","N","N","N","N","N","N","N","N","N","N","N","N","N","N","N","N","N","N","N","N","N","N","N","N","N","N","N","N","N","N","N","N","N","N","N","N","N","N","N","N","N","N","N","N","N","N","N","N","N","N","N","N","N","N","N","N","N","N","N","?","?","M","M","M","?","?","L","L","L","L","L","L","L","L","L","L","?","?","?","?","?","?","?","?","?","?","?","?","?","?","?","?","?","?","?","?","?","?","?","?","?","?","?","?","?","F","F","?","?","?","G","G","G","?","?","H","H","H","H","H","H","H","H","H","H","?","?","?","?","?","?","I","I","I","I","I","I","I","I","I","I","I","I","I","I","I","I","I","I","I","I","I","I","I","I","I","I","I","I","I","I","I","I","I","I","I","I","I","I","I","I","I","I","I","I","I","I","I","I","I","I","I","I","I","I","I","I","I","I","I","I","I","I","I","I","I","I","I","I","I","I","I","I","I","I","I","?","?","?","?","?","?","?","?","P","P","P","P","?","?","?","?","?","?","?","?","?","?","?","?","?","?","?","?","?","?","?","?","?","?","?","?","?","?","?","?","X","X","X","X","X","X","X","X","X","?","?","?","?","?","W","W","W","W","W","W","W","W","?","?","?","?","?","?","?","?","?","?","?","?","?","?","?","?","?","?","?","?","?","?","?","?","?","?","?","?","?","M","M","M","M","M","M","M","M","M","M","M","M","M","M","M","M","M","M","M","M","M","M","M","M","M","M","M","M","M","M","M","M","M","M","M","M","M","M","M","M","M","M","M","M","M","M","M","M","M","M","M","M","M","M","M","M","M","M","M","M","M","M","M","M","M","M","M","M","M","M","M","M","M","M","M","M","M","M","M","M","M","M","M","M","M","M","M","?","?","L","L","L","L","L","L","L","L","?","?","?","?","?","?","?","?","?","?","?","?","?","?","?","?","?","?","?","?","?","?","?","?","K","?","?","?","?","?","?","?","S","S","S","S","S","S","S","S","S","S","S","S","S","S","?","?","?","?","?","?","?","?","?","?","?","?","?","?","?","?","?","?","?","?","?","?","?","?","?","?","?","?","?","?","?","?","?","?","?","?","?","?","?","?","?","?","?","?","?","?","?","?","?","?","?","J","J","J","J","J","J","J","J","?","?","?","?","?","?","?","?","?","?","?","?","?","?","?","?","?","?","?","?","?","?","?","?","?","?","?","?","?","?","?","?","?","?","?","?","?","?","?","?","?","?","?","?","?","?","?","?","?","?","?","?","?","?","?","?","?","?","?","?","?","?","?","?","?","?","A","A","A","A","A","A","A","A","A","A","A","A","A","A","A","A","A","A","A","A","A","A","A","A","A","A","A","A","A","A","A","A","A","A","A","A","A","A","A","A","A","A","A","A","A","A","A","A","A","A","A","A","A","A","A","A","A","A","A","A","A","A","A","?","?","?","?","?","?","?","?","?","K","?","?","?","?","?","?","?","?","?","?","?","?","?","?","?","?","?","?","?","?","?","?","?","?","?","L","L","?","M","M","?","N","N","N","O","O","O","O","O","O","O","O","O","O","O","O","O","O","O","O","O","O","O","O","O","O","?","?","?","?","?","?","?","?","?","?","?","?","?","?","?","?","?","?","?","?","?","?","?","?","?","?","?","?","?","?","P","P","P","P","P","?","?","?","?","?","?","?","?","?","?","?","?","?","?","?","?","?","?","?","?","?","?","?","?","?","?","?","?","?","?","?","?","?","?","?","?","?","?","?","?","?","?","?","?","Y","Y","Y","Y","Y","Y","Y","Y","Y","Y","Y","Y","Y","Y","Y","Y","Y","Y","Y","Y","Y","Y","Y","Y","Y","Y","Y","Y","Y","Y","Y","Y","Y","Y","Y","Y","Y","Y","Y","?","?","?","?","?","?","?","?","?","?","?","?","?","?","?","?","?","?","?","?","?","?","?","?","?","?","?","?","?","?","?","?","?","?","?","?","?","?","O","O","O","O","O","O","O","O","O","O","O","O","O","O","O","O","O","O","O","O","O","O","O","O","O","O","O","O","O","?","?","?","?","?","?","?","?","?","?","?","?","?","?","?","?","?","?","?","?","?","?","?","?","?","?","?","?","?","?","?","?","?","?","?","?","?","?","?","?","?","?","?","?","?","?","?","?","?","?","?","?","?","?","?","?","?","?","?","?","?","?","?","?","?","?","?","?","?","?","?","?","?","V","V","V","V","V","V","V","V","V","V","V","V","V","V","V","V","V","V","V","V","V","V","V","?","?","?","?","W","W","W","W","W","W","W","W","W","?","?","?","?","?","?","?","?","?","?","?","?","?","?","?","?","?","?","?","?","?","?","?","?","?","?","X","X","X","X","X","X","X","?","?","?","?","?","?","?","?","?","?","?","?","?","?","?","?","?","?","?","?","?","?","?","?","?","?","?","?","?","?","?","?","?","?","?","?","?","?","?","?","?","?","?","?","?","?","?","?","?","?","?","?","?","X","X","X","X","?","?","?","W","W","W","W","W","?","?","?","?","?","?","?","?","?","?","?","?","?","?","?","?","?","?","?","?","?","?","?","?","?","?","?","?","?","?","?","?","?","L","L","L","L","L","L","L","L","L","L","L","L","L","L","L","L","L","L","L","L","L","L","L","L","L","L","L","L","L","L","L","L","L","L","L","L","L","L","L","L","L","L","L","L","L","L","L","L","L","L","L","L","L","L","L","L","L","L","L","L","L","L","L","L","L","L","L","L","L","L","L","L","L","L","L","L","L","L","L","L","L","L","L","L","L","L","L","L","L","L","L","L","L","L","L","L","L","L","L","L","L","L","L","L","L","L","L","L","L","L","L","L","L","L","L","L","L","L","L","L","L","L","L","L","L","L","L","L","L","L","L","L","L","L","L","L","L","L","L","L","L","L","L","L","L","L","L","L","L","L","L","L","L","L","L","L","L","L","L","L","L","L","L","L","L","L","L","L","L","L","L","L","L","L","L","L","L","L","L","L","L","L","L","L","L","L","L","L","L","L","L","L","L","L","L","L","L","L","L","L","L","L","L","L","L","L","L","L","L","L","L","L","L","L","L","L","L","L","L","L","L","L","L","L","L","L","L","L","L","L","L","L","L","L","L","L","L","L","L","L","L","L","L","L","L","L","L","L","L","L","?","?","?","?","?","?","?","?","?","?","?","?","?","?","?","?","?","?","?","?","?","?","?","?","?","?","?","?","?","?","?","?","?","?","?","?","?","?","?","?","?","?","?","?","?","?","?","?","?","?","?","?","?","?","?","?","?","?","?","?","?","?","?","?","?","?","?","?","?","?","?","?","?","?","?","?","?","?","?","?","?","?","?","?","?","?","?","?","?","?","?","?","?","?","?","?","?","?","?","?","?","?","?","?","?","?","?","?","?","?","?","?","?","?","?","?","?","?","?","?","?","?","?","?","?","?","?","?","?","?","?","?","?","?","?","?","?","?","?","?","?","?","?","?","?","?","?","?","?","?","?","?","?","?","?","?","?","?","?","?","?","?","?","?","?","?","?","?","?","?","?","?","?","?","?","?","?","?","?","?","?","?","?","?","?","?","?","?","?","?","?","?","?","?","?","?","?","?","?","?","?","?","?","?","?","?","?","?","?","?","?","?","?","?","?","?","?","?","?","?","?","?","?","?","?","?","?","?","?","?","?","?","?","?","?","?","?","?","?","?","?","?","?","?","?","?","?","?","?","?","?","?","?","?","?","?","?","?","?","?","?","?","?","?","?","?","?","?","?","?","?","?","?","?","?","?","?","?","?","?","?","?","?","?","?","?","?","?","?","?","?","?","?","?","?","?","?","?","?","?","?","?","?","?","?","?","?","?","?","?","?","?","?","?","?","?","?","?","?","?","?","?","?","?","?","?","?","?","?","?","?","?","?","?","?","?","?","?","?","?","?","?","?","?","?","?","?","?","?","?","?","?","?","?","?","?","?","?","?","?","?","?","?","?","?","?","?","?","?","?","?","?","?","?","?","?","?","?","?","?","?","?","?","?","V","V","V","V","V","?","?","?","?","?","U","U","U","U","U","?","?","?","?","?","?","?","?","?","?","?","?","?","?","?","?","?","?","?","?","?","?","?","?","?","?","?","?","?","?","?","?","?","?","K","K","K","K","K","K","K","K","K","K","K","K","K","K","K","K","K","K","K","K","K","K","K","K","K","K","K","K","K","K","K","K","K","K","K","K","K","K","K","K","K","K","K","K","K","K","?","?","?","?","?","?","?","?","?","?","?","?","?","?","?","?","?","?","?","D","D","D","D","D","D","D","D","D","D","D","D","D","D","D","D","D","D","D","D","D","D","D","D","D","?","?","?","?","?","?","?","?","?","?","?","?","?","?","?","E","E","E","E","E","E","E","E","E","E","E","E","E","E","E","E","E","E","E","E","?","?","?","?","?","?","?","?","?","?","?","?","?","?","?","?","?","?","?","?","?","?","?","?","?","?","?","?","?","?","?","?","?","?","?","?","?","?","?","?","?","?","?","?","?","?","?","?","?","?","?","?","?","?","?","?","?","?","?","?","?","?","?","?","?","?","?","?","?","?","?","?","?","?","?","?","?","?","?","?","?","?","?","?","?","?","?","?","?","?","?","?","?","?","?","?","?","?","?","?","?","?","?","?","?","?","?","?","?","?","?","?","?","?","?","?","?","?","?","?","?","?","?","?","?","?","?","?","?","?","?","?","?","?","?","?","?","D","D","D","D","D","?","C","C","?","B","B","B","B","B","B","B","B","B","B","B","B","B","B","B","B","B","B","B","B","B","B","B","B","B","B","?","?","A","A","A","A","A","A","A","A","A","A","A","A","A","A","A","A","A","A","A","A","A","A","A","A","A","A","A","A","A","A","A","A","A","A","A","A","A","A","A","A","A","A","A","A","A","A","A","A","A","A","A","A","A","A","A","A","A","A","A","A","A","A","A","A","A","A","A","A","A","A","A","A","A","A","A","A","A","A","A","A","A","A","A","A","A","A","A","A","A","A","A","A","A","A","A","A","A","A","A","A","A","A","A","A","A","A","A","A","A","A","A","A","A","A","A","A","A","A","A","A","A","A","A","A","A","A","A","A","A","A","A","A","A","A","A","A","A","A","A","A","A","A","A","A","A","A","A","A","A","A","A","A","A","A","A","A","A","A","A","A","A","A","A","A","A","A","A","A","A","A","A","A","A","A","A","A","A","A","A","A","A","A","A","A","A","A","A","A","A","A","A","A","A","A","A","A","A","A","?","?","?","B","B","B","B","B","B","B","B","B","B","B","B","B","B","B","B","B","B","B","B","B","B","B","B","B","B","B","B","B","B","B","B","B","B","B","B","B","B","B","B","B","B","B","B","B","B","B","B","B","B","B","B","B","B","B","B","B","B","B","B","B","B","B","B","B","B","B","B","B","B","B","B","B","B","B","B","B","B","B","B","B","B","B","B","B","B","B","B","B","B","B","B","B","B","B","B","B","B","B","B","B","B","B","B","B","B","B","B","B","B","B","B","B","B","B","B","B","B","?","?","C","C","C","C","C","C","C","C","C","C","C","C","C","C","C","C","C","C","C","C","C","C","C","C","C","C","C","C","C","C","C","C","C","C","C","?","?","?","?","D","D","D","D","D","D","D","D","D","D","D","D","D","D","D","D","D","D","D","D","D","D","D","D","D","D","D","D","D","D","D","D","D","D","D","D","D","D","D","D","D","D","D","D","D","D","D","D","D","D","D","D","D","D","D","D","D","D","D","D","D","D","D","D","D","D","D","D","D","D","D","D","D","D","D","D","D","D","D","D","D","D","D","D","D","D","D","D","D","D","D","D","D","D","D","D","D","D","D","D","D","D","D","D","D","D","D","D","D","D","D","D","D","D","D","D","D","D","D","D","D","D","D","D","D","D","D","D","D","D","D","D","D","D","D","D","D","D","D","D","D","D","D","D","D","D","D","D","D","D","D","D","D","D","D","?","?","?","C","C","C","C","C","C","C","C","C","C","C","?","?","B","B","B","B","B","B","B","B","B","B","B","B","B","B","B","B","B","B","B","B","B","B","B","B","B","B","B","B","B","B","B","B","B","B","B","B","B","B","B","B","B","B","B","B","B","B","B","B","B","B","B","B","B","B","B","B","B","B","B","B","B","B","B","B","B","B","B","B","B","B","B","B","B","B","B","B","B","B","B","B","B","B","B","B","B","B","B","B","B","B","B","B","B","B","B","B","B","B","B","B","B","B","B","B","B","B","B","B","B","B","B","B","B","B","B","B","B","B","B","B","B","B","B","B","?","C","C","C","?","D","D","D","D","D","D","?","?","?","?","?","?","?","?","?","?","?","?","?","?","?","?","?","?","?","?","?","?","E","E","E","E","?","?","?","F","F","?","?","G","G","G","G","G","G","G","G","G","G","G","G","G","G","G","G","G","G","G","G","G","G","G","G","G","G","G","G","G","G","G","G","G","G","G","G","G","G","G","G","G","G","G","G","G","G","G","G","G","G","G","G","G","G","G","G","G","G","G","G","G","G","G","G","G","G","G","G","G","G","G","G","G","G","G","G","G","G","G","G","G","G","G","G","G","G","G","G","G","G","?","?","?","N","N","N","N","N","N","?","M","M","M","M","M","M","M","M","M","M","M","M","M","M","M","M","M","M","M","M","M","?","L","L","L","?","K","K","K","K","K","K","K","K","K","K","K","K","K","K","K","K","K","K","K","K","K","K","K","K","K","K","K","K","K","K","K","K","K","K","K","K","K","K","K","K","K","K","K","K","K","K","K","K","K","K","K","K","K","K","K","K","K","K","K","K","K","K","K","K","K","K","K","K","K","K","K","K","K","K","K","K","K","K","K","K","K","K","K","K","K","K","K","K","K","?","L","L","?","?","?","?","?","?","?","?","?","?","?","?","?","?","?","?","?","?","?","?","?","?","?","?","?","?","?","?","?","?","?","?","?","?","?","?","?","?","?","?","?","?","?","?","?","?","?","?","?","?","?","?","P","P","P","P","P","P","P","P","P","P","P","P","P","?","?","?","?","?","?","?","?","?","?","?","?","?","?","?","?","?","?","?","?","?","X","W","W","W","?","V","V","V","?","U","U","U","U","U","U","U","U","U","U","U","U","U","U","U","U","U","U","U","U","U","U","U","U","U","U","U","U","U","U","U","U","U","U","U","U","U","U","U","U","U","U","U","U","U","U","U","U","U","U","U","U","U","U","U","U","U","U","U","U","U","U","U","U","U","U","U","U","U","U","U","U","U","U","U","U","U","U","U","U","U","U","U","U","U","U","U","U","U","U","U","U","U","U","U","U","U","?","?","V","V","V","V","V","V","V","V","V","V","V","?","?","?","?","?","?","W","W","W","W","W","W","W","W","W","W","W","W","W","W","W","W","W","W","W","W","W","W","W","W","W","W","W","W","W","W","W","W","W","W","W","W","W","W","W","W","W","W","W","W","W","W","W","W","W","W","W","W","W","W","W","W","W","W","W","W","W","W","W","W","W","W","W","W","W","W","W","W","W","W","W","W","W","W","W","W","W","W","W","W","W","W","W","W","W","W","?","V","V","V","V","V","U","U","U","U","U","U","U","?","?","?","?","?","?","?","?","T","T","T","T","T","T","T","T","T","T","T","T","T","T","T","T","T","T","T","T","T","T","T","T","T","T","T","T","T","T","T","T","T","T","T","T","T","T","T","T","T","T","T","T","T","T","T","T","T","T","T","T","T","T","T","T","T","T","T","T","T","T","T","T","T","T","T","T","T","T","T","T","T","T","T","T","T","T","T","T","T","T","T","T","T","T","?","?","?","?","?","N","N","O","O","O","O","O","O","O","O","O","O","O","O","O","O","O","O","O","O","O","O","P","P","P","P","?","?","?","?","?","?","?","?","?","?","?","?","?","?","?","?","?","?","?","?","?","?","?","?","?","?","P","P","P","P","P","P","P","P","P","P","P","P","P","P","P","P","P","P","P","P","P","P","P","P","P","P","P","P","P","P","P","P","P","P","P","P","P","P","P","P","P","P","P","P","P","P","P","P","P","P","P","P","P","P","P","P","P","P","P","P","P","P","P","P","P","P","P","P","P","P","P","P","P","P","P","P","P","P","P","P","P","P","P","P","P","P","P","P","P","P","P","P","P","P","P","P","P","P","P","?","?","?","?","?","?","?","Y","Y","Y","Y","Y","Y","Y","Y","Y","Y","Y","Y","Y","Y","Y","Y","Y","Y","Y","Y","Y","Y","Y","Y","Y","Y","Y","Y","Y","Y","Y","Y","Y","Y","Y","Y","Y","Y","Y","Y","Y","Y","Y","Y","X","X","X","X","X","?","W","W","W","W","W","W","W","W","W","W","W","W","W","W","W","W","W","W","W","W","W","W","W","W","W","?","?","?","?","?","?","?","?","?","?","?","?","?","?","?","?","?","?","?","?","?","?","?","?","?","?","?","?","?","L","L","L","?","?","?","?","E","E","?","?","?","?","?","?","?","?","?","?","?","?","?","?","?","?","?","?","E","E","E","E","E","E","E","E","E","E","E","E","E","E","E","E","E","E","E","E","E","E","E","E","E","E","E","E","E","E","E","E","E","E","E","E","E","E","E","E","E","E","E","E","E","E","E","E","E","E","E","E","E","E","E","E","E","E","E","E","E","E","E","E","E","E","E","E","E","E","E","E","E","E","E","E","E","E","E","E","E","E","E","E","E","E","E","E","E","E","E","E","E","E","E","E","E","E","E","E","E","E","E","E","E","E","E","E","E","E","E","E","E","E","E","E","E","E","E","E","E","E","E","E","E","E","E","E","E","E","E","E","E","E","E","E","E","E","E","E","E","E","E","E","E","E","E","E","E","E","E","E","E","E","E","E","E","E","E","E","E","E","E","E","E","E","E","E","E","E","E","E","E","E","?","?","O","P","P","P","P","?","?","?","?","?","?","?","?","?","?","?","?","?","?","?","?","?","?","?","?","?","?","?","?","?","?","?","?","?","?","?","?","?","?","?","?","?","Z","Z","Z","Z","Z","Z","Z","Z","Z","Z","Z","Z","Z","Z","Z","Z","Z","Z","Z","Z","Z","Z","Z","Z","Z","Z","Z","Z","Z","Z","Z","Z","Z","Z","Z","Z","Z","Z","Z","Z","Z","Z","Z","Z","Z","Z","Z","Z","Z","Z","Z","Z","Z","Z","Z","Z","Z","Z","Z","Z","Z","Z","Z","Z","Z","Z","Z","Z","Z","Z","Z","Z","Z","Z","Z","Z","Z","Z","Z","Z","Z","Z","Z","Z","Z","Z","Z","Z","Z","Z","Z","Z","Z","Z","Z","Z","Z","Z","Z","Z","Z","Z","Z","Z","Z","Z","Z","Z","Z","Z","Z","Z","Z","Z","Z","Z","Z","Z","Z","Z","Z","Z","Z","Z","Z","Z","Z","Z","Z","Z","Z","Z","Z","Z","Z","Z","Z","Z","Z","Z","Z","Z","Z","Z","Z","Z","Z","?","?","Y","?","?","?","?","?","?","?","?","?","?","?","?","?","?","?","?","?","?","?","?","?","?","?","?","?","?","?","?","?","?","?","?","?","?","?","?","?","?","?","?","?","?","?","?","?","?","?","?","?","?","?","?","?","?","?","?","?","?","?","?","?","?","?","?","?","?","?","?","?","?","?","?","?","?","?","?","?","?","?","?","?","O","?","?","P","P","?","?","Q","Q","Q","Q","Q","Q","Q","Q","Q","Q","Q","Q","Q","Q","?","?","R","R","R","R","R","R","R","R","R","R","R","R","R","R","R","R","R","R","R","R","R","R","R","R","R","R","R","R","R","R","R","R","R","R","R","R","R","R","R","R","R","R","R","R","R","R","R","R","R","R","R","R","R","R","R","R","R","R","R","R","R","R","R","R","R","R","R","R","R","R","R","R","R","R","R","R","R","R","R","R","R","R","R","R","R","R","R","R","R","R","R","R","R","R","R","R","R","R","R","R","R","R","R","R","R","R","R","R","R","R","R","R","R","R","R","R","R","R","R","R","R","R","R","R","R","R","R","R","R","R","R","R","R","R","R","R","R","R","R","R","R","R","R","R","R","R","R","R","R","R","R","R","R","R","R","R","R","R","R","R","R","R","R","R"],"t":[70,119,142,161,174,190,225,233,256,274,289,307,324,340,356,376,391,408,426,442,460,476,491,508,524,541,558,574,591,609,624,644,658,674,691,709,724,741,758,774,790,807,824,841,859,875,893,909,925,945,961,979,994,1012,1025,1042,1057,1074,1091,1108,1124,1141,1158,1175,1191,1209,1225,1241,1258,1274,1291,1308,1324,1342,1358,1374,1392,1409,1425,1443,1460,1482,1507,1525,1540,1558,1573,1590,1607,1623,1640,1659,1676,1691,1707,1723,1741,1758,1774,1791,1809,1824,1842,1858,1875,1893,1909,1924,1941,1957,1975,1992,2008,2024,2040,2057,2074,2091,2107,2124,2140,2157,2174,2191,2207,2225,2241,2258,2274,2290,2307,2324,2341,2357,2375,2391,2407,2424,2441,2457,2474,2494,2508,2524,2541,2557,2574,2591,2607,2625,2641,2658,2674,2691,2707,2724,2741,2757,2774,2791,2807,2824,2841,2858,2874,2891,2907,2924,2941,2959,2975,2993,3008,3025,3041,3057,3074,3091,3112,3125,3140,3157,3174,3190,3207,3225,3241,3258,3274,3291,3307,3324,3340,3358,3375,3391,3408,3424,3442,3457,3474,3493,3507,3524,3541,3557,3574,3591,3608,3624,3641,3657,3674,3691,3708,3724,3741,3757,3775,3791,3807,3824,3840,3857,3874,3891,3907,3924,3941,3957,3974,3992,4007,4024,4040,4057,4074,4090,4107,4124,4140,4157,4174,4190,4207,4224,4241,4257,4274,4290,4307,4324,4340,4357,4375,4393,4408,4424,4440,4461,4475,4492,4510,4525,4542,4559,4581,4593,4607,4624,4641,4658,4674,4691,4709,4725,4742,4757,4775,4792,4807,4824,4840,4857,4874,4891,4907,4924,4940,4958,4974,4992,5009,5024,5041,5057,5074,5090,5107,5125,5140,5157,5174,5191,5207,5225,5241,5257,5274,5291,5308,5324,5340,5360,5375,5390,5407,5424,5441,5457,5474,5490,5509,5524,5541,5557,5574,5591,5607,5624,5641,5657,5674,5691,5707,5724,5741,5757,5774,5790,5807,5824,5840,5858,5877,5891,5907,5923,5941,5957,5974,5991,6009,6032,6045,6057,6073,6090,6107,6124,6140,6157,6174,6190,6207,6225,6241,6257,6274,6290,6307,6326,6341,6357,6374,6390,6408,6424,6440,6457,6474,6491,6509,6527,6541,6557,6573,6590,6607,6624,6640,6658,6674,6690,6707,6724,6741,6757,6774,6790,6807,6824,6840,6857,6876,6892,6910,6929,6943,6961,6977,6992,7009,7025,7041,7058,7075,7093,7108,7125,7141,7158,7176,7192,7209,7226,7243,7260,7275,7293,7308,7324,7343,7359,7376,7392,7408,7425,7441,7458,7475,7492,7509,7529,7543,7559,7575,7591,7608,7625,7641,7659,7676,7694,7711,7726,7758,7775,7791,7807,7823,7841,7858,7875,7891,7909,7925,7941,7959,7975,7991,8008,8025,8041,8059,8075,8091,8109,8126,8141,8165,8176,8192,8210,8227,8243,8260,8278,8295,8310,8327,8343,8360,8377,8394,8414,8429,8444,8461,8475,8493,8510,8526,8547,8562,8578,8594,8611,8626,8643,8659,8675,8692,8708,8725,8742,8758,8775,8793,8810,8826,8843,8859,8876,8892,8910,8926,8954,8967,8996,9012,9026,9044,9057,9073,9091,9109,9124,9141,9157,9174,9190,9207,9225,9241,9258,9275,9290,9308,9324,9341,9358,9375,9391,9408,9425,9441,9457,9475,9492,9508,9525,9541,9558,9575,9592,9609,9624,9640,9659,9675,9691,9707,9724,9741,9757,9774,9790,9807,9824,9840,9857,9874,9890,9907,9924,9940,9957,9975,9990,10007,10024,10040,10057,10076,10093,10110,10124,10141,10157,10175,10191,10208,10225,10241,10258,10274,10290,10309,10324,10341,10358,10374,10392,10409,10425,10449,10460,10474,10490,10507,10524,10541,10557,10574,10592,10611,10625,10642,10658,10675,10692,10707,10724,10741,10758,10774,10791,10807,10825,10840,10857,10874,10890,10908,10924,10941,10957,10974,10991,11008,11024,11042,11058,11075,11091,11110,11125,11141,11158,11174,11192,11208,11225,11241,11257,11274,11290,11307,11324,11340,11357,11375,11390,11408,11426,11440,11458,11473,11490,11507,11524,11540,11558,11574,11591,11609,11624,11640,11657,11674,11690,11707,11724,11741,11757,11774,11791,11807,11823,11840,11857,11878,11891,11907,11923,11940,11957,11974,11991,12008,12024,12041,12057,12073,12090,12109,12124,12140,12157,12174,12191,12207,12224,12240,12257,12273,12290,12307,12324,12340,12357,12374,12391,12407,12424,12440,12457,12473,12490,12507,12523,12540,12557,12573,12590,12609,12623,12640,12657,12673,12690,12707,12723,12740,12756,12773,12791,12808,12827,12841,12856,12873,12890,12906,12923,12940,12956,12973,12990,13007,13023,13040,13056,13073,13090,13107,13125,13140,13156,13174,13190,13206,13224,13240,13256,13273,13290,13309,13324,13345,13358,13373,13390,13408,13423,13439,13456,13473,13490,13506,13523,13540,13557,13573,13590,13608,13625,13640,13658,13673,13690,13706,13723,13740,13757,13773,13790,13806,13823,13840,13857,13873,13891,13907,13923,13940,13956,13973,13990,14006,14023,14040,14056,14073,14090,14107,14126,14140,14157,14174,14190,14206,14224,14240,14256,14274,14290,14308,14324,14340,14357,14374,14390,14408,14423,14440,14458,14474,14490,14507,14523,14540,14557,14573,14590,14607,14624,14640,14657,14673,14690,14706,14723,14740,14756,14773,14793,14808,14823,14840,14856,14873,14890,14907,14923,14940,14956,14974,14990,15006,15023,15040,15056,15073,15090,15106,15125,15140,15157,15173,15190,15207,15224,15240,15256,15273,15290,15306,15323,15340,15357,15373,15391,15407,15423,15440,15457,15473,15490,15506,15524,15539,15556,15573,15590,15606,15624,15640,15657,15673,15690,15706,15724,15740,15756,15773,15791,15807,15824,15840,15856,15873,15890,15907,15924,15940,15956,15973,15990,16006,16023,16040,16056,16073,16091,16106,16125,16140,16156,16173,16190,16206,16225,16239,16259,16273,16290,16306,16322,16339,16356,16373,16390,16407,16423,16439,16456,16473,16489,16507,16523,16539,16556,16573,16589,16606,16624,16640,16657,16673,16689,16706,16723,16740,16756,16773,16789,16806,16823,16839,16856,16873,16890,16906,16923,16940,16956,16974,16990,17007,17024,17040,17056,17073,17090,17106,17124,17141,17157,17173,17190,17207,17224,17239,17256,17273,17289,17306,17323,17340,17357,17373,17389,17408,17423,17440,17456,17473,17489,17506,17523,17539,17556,17573,17589,17606,17624,17641,17656,17673,17689,17706,17723,17744,17759,17773,17789,17806,17822,17839,17856,17872,17890,17906,17923,17940,17957,17973,17989,18006,18023,18039,18056,18073,18090,18106,18124,18142,18157,18173,18189,18206,18224,18240,18256,18273,18290,18306,18324,18340,18356,18373,18390,18407,18425,18440,18456,18473,18490,18506,18524,18540,18556,18573,18594,18607,18623,18641,18657,18674,18690,18707,18723,18740,18757,18773,18789,18806,18822,18840,18856,18873,18889,18906,18923,18939,18956,18973,18991,19007,19023,19041,19057,19073,19090,19107,19124,19141,19157,19179,19191,19206,19223,19240,19256,19273,19289,19306,19323,19339,19356,19373,19390,19406,19423,19440,19457,19474,19490,19507,19524,19541,19557,19573,19590,19607,19623,19641,19656,19673,19690,19706,19723,19739,19756,19773,19789,19806,19823,19840,19857,19873,19889,19907,19923,19939,19956,19972,19989,20005,20023,20039,20058,20073,20090,20106,20123,20143,20157,20173,20190,20207,20224,20240,20256,20273,20290,20307,20324,20341,20357,20375,20391,20407,20423,20439,20456,20473,20489,20506,20523,20539,20556,20573,20589,20606,20628,20643,20658,20673,20690,20706,20723,20740,20756,20773,20790,20806,20824,20840,20856,20872,20890,20906,20923,20940,20956,20972,20989,21006,21023,21039,21057,21074,21090,21106,21123,21141,21157,21174,21190,21207,21224,21240,21256,21273,21289,21307,21324,21341,21357,21373,21391,21407,21424,21439,21457,21474,21490,21506,21523,21539,21556,21573,21589,21606,21623,21640,21658,21673,21691,21706,21723,21739,21756,21773,21789,21806,21822,21839,21856,21873,21889,21906,21922,21939,21956,21972,21990,22006,22023,22039,22056,22073,22096,22110,22124,22142,22158,22173,22190,22207,22225,22240,22256,22273,22290,22306,22323,22340,22356,22372,22390,22407,22423,22439,22456,22473,22490,22506,22523,22539,22556,22573,22589,22606,22622,22640,22659,22673,22690,22707,22724,22740,22756,22773,22790,22806,22825,22840,22856,22872,22889,22906,22922,22939,22956,22972,22990,23008,23022,23040,23056,23073,23090,23106,23123,23139,23157,23172,23189,23206,23224,23240,23256,23273,23289,23306,23322,23340,23356,23373,23390,23406,23423,23439,23456,23472,23489,23506,23523,23545,23557,23573,23589,23607,23622,23639,23659,23674,23690,23706,23723,23739,23756,23772,23790,23806,23822,23839,23856,23873,23889,23906,23922,23939,23956,23972,23989,24007,24022,24039,24057,24074,24090,24107,24123,24140,24158,24174,24189,24206,24224,24241,24260,24276,24291,24307,24327,24341,24357,24374,24391,24407,24425,24440,24457,24473,24491,24508,24523,24539,24555,24572,24589,24606,24622,24639,24657,24675,24689,24706,24722,24739,24756,24772,24789,24806,24823,24839,24856,24872,24889,24906,24922,24939,24956,24972,24989,25006,25026,25040,25055,25072,25089,25106,25122,25139,25156,25174,25190,25206,25223,25239,25256,25274,25289,25306,25322,25340,25356,25372,25389,25407,25423,25439,25456,25472,25489,25506,25522,25539,25555,25572,25589,25606,25622,25639,25656,25674,25689,25706,25722,25739,25755,25772,25789,25806,25822,25839,25856,25872,25889,25906,25922,25939,25956,25972,25989,26006,26022,26039,26056,26072,26089,26106,26122,26139,26155,26173,26189,26206,26223,26239,26255,26272,26289,26306,26322,26340,26355,26372,26389,26406,26422,26439,26455,26472,26493,26506,26522,26539,26556,26572,26589,26605,26622,26639,26655,26674,26689,26706,26722,26739,26756,26772,26789,26805,26823,26839,26855,26872,26889,26905,26922,26939,26956,26972,26989,27006,27022,27039,27055,27072,27089,27105,27122,27139,27155,27174,27189,27206,27223,27239,27255,27272,27289,27305,27323,27340,27355,27374,27391,27406,27422,27438,27456,27472,27489,27505,27522,27539,27555,27572,27589,27606,27622,27639,27655,27673,27691,27705,27722,27739,27755,27772,27788,27805,27822,27839,27856,27872,27889,27906,27922,27939,27958,27972,27988,28005,28022,28039,28055,28072,28089,28106,28122,28139,28155,28175,28191,28206,28223,28239,28255,28272,28289,28305,28322,28340,28355,28372,28389,28407,28422,28439,28455,28472,28489,28505,28523,28539,28555,28572,28589,28605,28622,28639,28656,28673,28690,28705,28722,28739,28755,28772,28788,28805,28823,28839,28855,28872,28889,28905,28922,28939,28955,28972,28989,29005,29022,29039,29055,29072,29089,29105,29122,29139,29155,29172,29190,29206,29222,29239,29255,29272,29289,29305,29322,29340,29356,29372,29389,29406,29431,29442,29455,29471,29488,29505,29522,29539,29555,29572,29589,29605,29622,29639,29656,29672,29690,29705,29722,29739,29756,29772,29788,29805,29822,29838,29855,29872,29888,29905,29922,29938,29955,29972,29988,30006,30022,30039,30055,30072,30088,30106,30122,30139,30155,30172,30190,30206,30223,30239,30255,30272,30289,30306,30322,30339,30355,30372,30389,30405,30423,30440,30456,30472,30489,30505,30522,30539,30555,30572,30588,30605,30622,30639,30655,30672,30690,30705,30722,30738,30755,30772,30788,30805,30822,30838,30855,30872,30888,30908,30922,30938,30955,30972,30988,31005,31023,31038,31055,31072,31089,31105,31122,31138,31155,31172,31191,31206,31222,31239,31255,31272,31289,31305,31322,31340,31355,31372,31388,31406,31421,31439,31455,31471,31490,31505,31522,31538,31555,31572,31588,31605,31622,31638,31655,31672,31689,31707,31722,31738,31755,31772,31788,31805,31823,31838,31855,31872,31888,31905,31922,31938,31955,31972,31989,32007,32022,32038,32055,32072,32088,32105,32121,32139,32155,32172,32190,32207,32222,32239,32255,32271,32288,32305,32322,32340,32355,32376,32397,32420,32437,32454,32470,32487,32504,32521,32537,32554,32570,32588,32604,32620,32637,32655,32670,32687,32705,32721,32737,32753,32771,32787,32804,32820,32839,32853,32870,32888,32904,32921,32937,32954,32970,32986,33004,33021,33039,33053,33072,33087,33104,33122,33137,33154,33170,33187,33204,33222,33236,33256,33272,33287,33304,33322,33339,33355,33371,33388,33405,33421,33438,33455,33471,33488,33505,33524,33538,33556,33572,33589,33606,33621,33640,33655,33672,33689,33707,33722,33739,33756,33771,33788,33806,33827,33839,33855,33871,33888,33905,33922,33938,33955,33973,33989,34005,34022,34039,34055,34072,34088,34105,34122,34139,34155,34172,34189,34207,34223,34241,34463,34513,34539,34556,34573,34589,34605,34623,34639,34655,34672,34689,34707,34722,34739,34756,34772,34789,34807,34822,34839,34856,34872,34888,34905,34922,34939,34955,34973,34989,35006,35022,35039,35055,35072,35088,35105,35122,35139,35155,35172,35189,35206,35225,35238,35255,35272,35288,35305,35322,35339,35356,35372,35390,35406,35422,35441,35455,35472,35489,35505,35522,35542,35558,35573,35588,35605,35622,35639,35655,35672,35688,35707,35724,35740,35756,35772,35789,35805,35822,35839,35856,35872,35889,35906,35923,35938,35955,35972,35988,36005,36022,36040,36055,36072,36088,36106,36122,36139,36155,36172,36188,36207,36225,36239,36256,36272,36288,36305,36322,36339,36355,36372,36389,36405,36421,36438,36455,36472,36489,36505,36522,36538,36555,36572,36588,36605,36621,36638,36655,36672,36689,36705,36725,36738,36755,36772,36789,36805,36822,36838,36855,36872,36888,36905,36922,36938,36955,36972,36988,37010,37023,37038,37055,37073,37089,37105,37122,37140,37155,37172,37188,37205,37224,37241,37256,37271,37288,37305,37322,37339,37355,37371,37390,37407,37421,37439,37455,37472,37488,37505,37522,37538,37555,37571,37588,37605,37622,37638,37655,37671,37688,37705,37723,37741,37756,37771,37788,37805,37822,37838,37855,37872,37888,37905,37922,37938,37956,37971,37988,38005,38021,38038,38055,38071,38088,38105,38122,38138,38155,38171,38189,38205,38226,38239,38255,38272,38288,38306,38322,38339,38356,38373,38388,38406,38423,38448,38460,38486,38504,38519,38536,38554,38569,38586,38604,38619,38636,38654,38669,38687,38704,38722,38738,38754,38770,38787,38804,38820,38836,38852,38870,38886,38904,38920,38937,38953,38970,38988,39004,39021,39037,39053,39070,39088,39102,39120,39135,39152,39170,39186,39203,39222,39238,39253,39270,39287,39303,39320,39336,39353,39370,39387,39404,39423,39437,39455,39471,39487,39504,39522,39537,39554,39569,39587,39604,39619,39636,39653,39669,39687,39704,39720,39737,39753,39769,39786,39802,39820,39836,39852,39869,39887,39903,39925,39938,39952,39970,39987,40003,40019,40037,40053,40070,40087,40103,40119,40138,40154,40170,40187,40203,40221,40238,40253,40270,40287,40304,40320,40336,40353,40370,40386,40403,40421,40436,40454,40470,40486,40503,40519,40535,40553,40569,40586,40603,40619,40636,40654,40670,40686,40704,40719,40737,40755,40769,40786,40803,40819,40837,40854,40869,40887,40902,40919,40936,40952,40970,40987,41003,41020,41038,41053,41069,41088,41102,41120,41136,41152,41170,41186,41202,41220,41239,41254,41270,41286,41303,41320,41336,41353,41371,41391,41404,41420,41435,41453,41470,41486,41503,41519,41535,41553,41569,41586,41603,41619,41636,41654,41669,41686,41704,41719,41738,41754,41769,41786,41803,41819,41836,41854,41869,41887,41903,41919,41936,41952,41969,41987,42002,42019,42036,42052,42070,42087,42102,42120,42136,42152,42170,42186,42202,42220,42237,42253,42270,42286,42303,42320,42335,42353,42370,42387,42404,42420,42436,42453,42470,42485,42503,42520,42535,42553,42570,42586,42604,42621,42636,42653,42668,42686,42703,42718,42737,42753,42770,42786,42803,42819,42836,42856,42870,42886,42903,42919,42936,42952,42969,42988,43002,43019,43037,43052,43069,43087,43102,43121,43137,43152,43169,43187,43202,43220,43238,43254,43270,43286,43304,43320,43336,43353,43370,43385,43405,43421,43436,43453,43470,43486,43505,43520,43536,43553,43570,43585,43603,43618,43636,43653,43669,43685,43703,43718,43738,43754,43771,43787,43803,43819,43837,43854,43869,43886,43903,43919,43937,43953,43969,43987,44002,44019,44038,44052,44071,44087,44102,44119,44138,44152,44169,44187,44202,44220,44237,44254,44270,44286,44307,44320,44335,44352,44369,44385,44403,44420,44435,44453,44470,44485,44502,44520,44535,44553,44570,44586,44603,44620,44636,44654,44669,44686,44703,44719,44737,44755,44769,44786,44804,44819,44836,44853,44871,44886,44903,44919,44936,44954,44969,44987,45003,45019,45036,45052,45069,45086,45102,45120,45136,45152,45169,45187,45203,45219,45237,45253,45271,45287,45302,45320,45337,45352,45370,45386,45403,45420,45436,45453,45470,45485,45503,45519,45535,45553,45569,45586,45603,45618,45636,45653,45670,45687,45703,45719,45741,45756,45770,45786,45804,45819,45836,45853,45870,45886,45904,45919,45936,45952,45969,45986,46004,46019,46036,46052,46069,46086,46104,46119,46136,46152,46169,46187,46202,46219,46237,46253,46271,46286,46302,46319,46336,46354,46371,46386,46403,46420,46436,46453,46471,46485,46503,46520,46536,46553,46570,46586,46604,46620,46636,46653,46670,46686,46703,46719,46736,46754,46769,46786,46804,46820,46836,46854,46869,46886,46903,46919,46936,46953,46969,46986,47002,47019,47037,47052,47069,47087,47102,47119,47136,47157,47169,47186,47202,47219,47236,47253,47270,47288,47302,47319,47336,47352,47370,47385,47402,47421,47436,47452,47469,47485,47503,47520,47537,47553,47570,47587,47604,47619,47635,47652,47668,47685,47704,47718,47735,47753,47769,47786,47804,47819,47836,47853,47868,47886,47904,47919,47936,47953,47968,47986,48004,48019,48036,48052,48069,48086,48101,48119,48137,48152,48169,48186,48202,48219,48236,48252,48269,48287,48302,48319,48336,48352,48369,48386,48402,48419,48435,48452,48471,48486,48502,48520,48535,48553,48569,48585,48606,48620,48635,48652,48669,48686,48703,48719,48735,48753,48768,48785,48803,48819,48836,48853,48868,48885,48903,48919,48938,48952,48969,48986,49003,49018,49036,49053,49068,49086,49104,49118,49136,49151,49169,49186,49202,49219,49236,49252,49269,49287,49302,49319,49336,49352,49369,49386,49402,49421,49436,49452,49469,49485,49503,49519,49535,49552,49569,49585,49603,49620,49635,49652,49670,49685,49703,49719,49736,49753,49771,49786,49803,49818,49835,49853,49869,49886,49903,49919,49936,49953,49969,49986,50003,50023,50036,50053,50068,50086,50102,50119,50136,50152,50169,50186,50201,50219,50236,50252,50269,50286,50302,50319,50336,50352,50369,50387,50403,50419,50436,50452,50469,50487,50502,50519,50535,50552,50570,50586,50602,50619,50636,50652,50669,50685,50703,50719,50735,50752,50768,50786,50803,50818,50835,50853,50868,50885,50903,50918,50936,50953,50969,50986,51002,51019,51036,51053,51069,51086,51104,51119,51136,51154,51170,51187,51202,51220,51236,51254,51271,51287,51303,51319,51338,51353,51369,51387,51402,51420,51436,51452,51473,51485,51502,51520,51535,51552,51570,51585,51602,51619,51635,51653,51669,51685,51703,51719,51735,51754,51771,51788,51803,51819,51835,51853,51870,51886,51903,51918,51936,51953,51968,51985,52002,52018,52035,52053,52069,52085,52103,52119,52136,52154,52169,52186,52203,52219,52236,52251,52269,52286,52302,52319,52337,52352,52369,52386,52402,52420,52437,52452,52469,52486,52502,52519,52536,52552,52569,52584,52602,52619,52634,52652,52669,52685,52702,52719,52735,52752,52769,52785,52802,52819,52836,52853,52869,52885,52907,52919,52935,52953,52968,52985,53002,53018,53035,53055,53068,53086,53103,53119,53136,53152,53168,53186,53201,53219,53236,53252,53270,53287,53304,53319,53336,53352,53369,53387,53404,53419,53438,53453,53469,53486,53501,53519,53535,53552,53569,53585,53602,53619,53635,53652,53670,53685,53702,53719,53735,53754,53769,53786,53803,53820,53835,53852,53870,53885,53902,53921,53935,53953,53968,53985,54003,54018,54035,54052,54068,54085,54102,54119,54136,54154,54168,54186,54202,54218,54236,54252,54269,54287,54303,54319,54341,54354,54369,54386,54401,54420,54437,54451,54469,54488,54502,54519,54537,54552,54569,54585,54601,54619,54634,54652,54670,54686,54703,54720,54734,54752,54769,54786,54803,54820,54836,54854,54869,54885,54902,54919,54935,54953,54968,54986,55002,55017,55037,55054,55068,55085,55103,55118,55136,55152,55168,55186,55203,55219,55237,55254,55271,55288,55304,55321,55338,55354,55370,55386,55401,55421,55438,55454,55470,55486,55501,55519,55536,55551,55569,55587,55601,55619,55634,55651,55669,55685,55702,55720,55735,55756,55769,55785,55802,55819,55835,55852,55869,55885,55902,55919,55935,55952,55969,55985,56002,56018,56035,56052,56068,56085,56102,56118,56135,56152,56168,56185,56202,56219,56235,56252,56268,56285,56302,56319,56336,56351,56368,56386,56402,56418,56436,56452,56469,56486,56502,56519,56535,56551,56569,56586,56602,56619,56634,56652,56668,56684,56702,56719,56737,56753,56770,56786,56804,56820,56837,56855,56870,56885,56902,56920,56935,56952,56969,56985,57002,57018,57035,57053,57068,57085,57102,57118,57135,57153,57168,57185,57206,57219,57235,57252,57268,57285,57302,57319,57335,57352,57368,57385,57402,57419,57438,57451,57468,57485,57501,57518,57536,57551,57568,57586,57601,57619,57635,57651,57668,57685,57701,57718,57734,57751,57768,57784,57802,57819,57835,57852,57869,57884,57903,57919,57935,57953,57969,57985,58002,58018,58035,58053,58069,58085,58103,58118,58135,58152,58168,58185,58202,58218,58235,58253,58268,58285,58302,58319,58335,58353,58368,58385,58402,58418,58435,58451,58468,58486,58501,58518,58535,58552,58568,58585,58602,58618,58642,58653,58668,58687,58701,58719,58734,58751,58768,58784,58803,58820,58834,58851,58868,58884,58901,58919,58934,58951,58969,58984,59002,59019,59035,59052,59068,59086,59102,59118,59135,59152,59168,59185,59203,59218,59235,59252,59268,59285,59303,59319,59335,59353,59368,59386,59402,59418,59436,59451,59468,59485,59501,59518,59535,59551,59568,59585,59601,59618,59635,59651,59669,59684,59701,59719,59735,59751,59769,59784,59802,59820,59834,59852,59869,59885,59902,59918,59935,59952,59968,59984,60002,60017,60034,60052,60068,60088,60102,60118,60135,60152,60167,60184,60202,60217,60235,60252,60268,60285,60302,60318,60335,60351,60368,60385,60401,60418,60435,60451,60468,60486,60502,60518,60535,60551,60568,60585,60601,60618,60635,60651,60668,60685,60701,60718,60735,60751,60769,60784,60801,60818,60834,60851,60869,60884,60902,60919,60934,60951,60968,60984,61002,61018,61034,61051,61067,61085,61102,61117,61135,61152,61168,61184,61202,61218,61235,61252,61268,61285,61302,61318,61337,61353,61368,61385,61401,61418,61435,61451,61469,61485,61501,61521,61535,61552,61568,61585,61601,61618,61636,61651,61668,61685,61701,61718,61735,61751,61768,61784,61801,61819,61835,61852,61869,61884,61902,61919,61934,61951,61969,61984,62002,62018,62034,62052,62067,62085,62102,62117,62135,62151,62167,62185,62202,62217,62235,62252,62268,62285,62302,62319,62336,62354,62369,62386,62402,62418,62438,62453,62468,62487,62501,62518,62535,62550,62568,62585,62601,62618,62636,62651,62668,62685,62701,62719,62735,62751,62768,62784,62801,62818,62835,62851,62869,62885,62901,62919,62934,62951,62972,62985,63001,63019,63034,63052,63068,63085,63101,63119,63135,63152,63168,63185,63202,63218,63234,63252,63267,63285,63302,63318,63338,63354,63368,63386,63403,63417,63436,63452,63468,63485,63501,63517,63535,63550,63569,63585,63600,63618,63636,63651,63668,63686,63700,63718,63735,63751,63768,63785,63801,63818,63837,63852,63871,63884,63901,63919,63934,63952,63970,63985,64002,64019,64035,64051,64069,64085,64102,64119,64134,64152,64169,64185,64203,64218,64235,64253,64269,64287,64303,64321,64337,64355,64371,64388,64404,64430,64450,64469,64486,64503,64519,64537,64553,64570,64587,64603,64620,64636,64652,64670,64686,64703,64719,64736,64752,64769,64787,64803,64821,64835,64853,64870,64886,64902,64920,64936,64953,64970,64986,65003,65021,65036,65053,65070,65086,65102,65120,65136,65153,65170,65186,65203,65219,65236,65253,65269,65286,65303,65319,65336,65353,65369,65386,65406,65422,65438,65453,65475,65490,65509,65524,65545,65578,65596,65629,65636,65653,65673,65691,65707,65722,65739,65755,65772,65788,65806,65822,65839,65855,65872,65894,65926,65939,65954,65971,65986,66004,66020,66036,66052,66070,66086,66102,66119,66136,66153,66171,66187,66203,66220,66236,66254,66269,66286,66303,66319,66337,66353,66371,66387,66404,66420,66437,66455,66472,66490,66508,66523,66539,66556,66574,66590,66606,66623,66641,66656,66673,66691,66707,66722,66738,66756,66773,66789,66806,66822,66839,66856,66873,66888,66906,66923,66939,66956,66972,66991,67006,67024,67042,67060,67075,67091,67106,67122,67142,67157,67174,67189,67205,67222,67239,67253,67270,67287,67303,67326,67339,67354,67370,67386,67404,67422,67438,67453,67470,67488,67502,67520,67538,67553,67569,67586,67604,67620,67636,67654,67671,67687,67703,67721,67738,67753,67769,67788,67803,67820,67839,67853,67869,67886,67905,67920,67937,67953,67972,67986,68003,68020,68036,68052,68069,68086,68103,68120,68137,68153,68171,68186,68203,68221,68237,68254,68270,68286,68303,68320,68336,68354,68369,68386,68403,68420,68438,68454,68469,68486,68502,68520,68536,68553,68570,68586,68603,68620,68636,68654,68673,68687,68704,68720,68737,68754,68771,68788,68804,68820,68837,68853,68871,68887,68903,68921,68936,68953,68970,68986,69003,69020,69036,69053,69069,69086,69102,69119,69136,69153,69172,69187,69204,69221,69237,69253,69270,69287,69304,69320,69336,69355,69370,69386,69405,69421,69436,69453,69470,69487,69503,69520,69538,69553,69570,69587,69604,69620,69637,69654,69672,69688,69703,69720,69736,69752,69769,69786,69802,69820,69836,69853,69870,69887,69903,69919,69936,69953,69970,69986,70003,70019,70037,70053,70070,70093,70106,70120,70136,70153,70170,70189,70203,70221,70237,70253,70270,70286,70303,70320,70336,70355,70370,70387,70403,70420,70437,70453,70470,70486,70502,70519,70536,70552,70569,70586,70602,70620,70637,70653,70669,70689,70704,70719,70737,70753,70769,70786,70804,70820,70836,70853,70869,70886,70902,70919,70936,70953,70971,70986,71005,71020,71036,71054,71072,71086,71103,71120,71139,71153,71170,71189,71204,71221,71239,71253,71269,71286,71305,71319,71336,71354,71372,71386,71404,71424,71438,71453,71470,71488,71503,71529,71543,71555,71570,71587,71606,71619,71636,71656,71671,71689,71706,71720,71737,71754,71772,71787,71803,71822,71837,71853,71869,71889,71903,71920,71938,71952,71970,71986,72005,72020,72037,72055,72070,72086,72104,72120,72137,72154,72171,72188,72205,72221,72238,72254,72270,72287,72304,72320,72337,72354,72370,72386,72402,72420,72438,72452,72470,72486,72503,72519,72537,72553,72570,72586,72603,72620,72636,72653,72670,72688,72705,72720,72736,72753,72771,72786,72803,72819,72836,72853,72869,72886,72903,72920,72941,72954,72970,72986,73002,73019,73036,73053,73069,73086,73103,73120,73136,73153,73170,73186,73204,73220,73236,73253,73270,73286,73302,73320,73336,73353,73369,73386,73405,73420,73436,73454,73469,73486,73503,73519,73538,73553,73570,73586,73603,73620,73636,73652,73669,73686,73704,73719,73736,73753,73769,73786,73802,73819,73836,73852,73870,73886,73902,73920,73936,73953,73969,73985,74002,74020,74035,74052,74070,74086,74102,74119,74135,74152,74169,74186,74206,74220,74236,74253,74270,74287,74303,74319,74335,74353,74370,74387,74402,74420,74436,74452,74469,74485,74502,74519,74535,74553,74569,74587,74603,74619,74636,74653,74670,74687,74704,74722,74736,74753,74769,74786,74802,74819,74836,74853,74869,74885,74902,74919,74935,74952,74969,74985,75003,75019,75036,75052,75070,75086,75102,75119,75136,75152,75169,75187,75204,75222,75236,75254,75268,75285,75302,75319,75336,75352,75369,75385,75402,75421,75437,75453,75469,75485,75502,75518,75535,75552,75569,75585,75602,75619,75635,75652,75669,75686,75704,75721,75737,75753,75771,75786,75803,75820,75836,75853,75870,75887,75903,75919,75936,75953,75969,75985,76002,76019,76036,76052,76069,76086,76102,76119,76135,76153,76169,76186,76202,76222,76237,76252,76270,76287,76303,76319,76336,76354,76370,76386,76404,76420,76439,76453,76469,76485,76502,76519,76536,76552,76569,76585,76602,76619,76635,76653,76670,76685,76702,76721,76736,76754,76769,76786,76803,76820,76838,76853,76869,76885,76903,76920,76935,76952,76968,76985,77003,77019,77035,77052,77069,77086,77102,77118,77135,77152,77169,77186,77202,77222,77239,77255,77270,77287,77303,77319,77335,77352,77370,77385,77402,77421,77437,77453,77469,77485,77502,77519,77535,77553,77569,77586,77603,77620,77635,77652,77668,77686,77701,77723,77736,77753,77769,77786,77802,77819,77836,77853,77869,77885,77902,77919,77937,77952,77969,77986,78003,78019,78036,78052,78070,78086,78102,78119,78135,78153,78170,78185,78202,78221,78238,78252,78269,78288,78303,78320,78336,78352,78369,78387,78404,78419,78436,78452,78468,78486,78503,78521,78536,78552,78569,78585,78602,78619,78635,78652,78669,78693,78717,78736,78750,78768,78784,78800,78818,78834,78851,78867,78883,78900,78917,78933,78950,78967,78984,79000,79017,79034,79050,79067,79084,79100,79117,79135,79150,79167,79183,79202,79218,79235,79251,79268,79284,79301,79318,79334,79352,79368,79384,79402,79418,79435,79451,79466,79484,79501,79516,79533,79550,79566,79584,79601,79617,79634,79650,79667,79683,79700,79717,79734,79750,79768,79783,79800,79817,79834,79850,79868,79884,79901,79918,79935,79951,79968,79984,80001,80018,80033,80051,80066,80083,80100,80121,80134,80150,80168,80183,80200,80217,80235,80250,80267,80283,80302,80316,80333,80350,80366,80384,80401,80416,80434,80451,80466,80483,80501,80516,80534,80549,80566,80583,80601,80617,80634,80651,80667,80685,80700,80717,80734,80750,80767,80784,80800,80818,80833,80850,80867,80885,80900,80917,80933,80950,80966,80983,81002,81017,81034,81050,81066,81085,81101,81118,81133,81150,81168,81184,81200,81216,81234,81251,81266,81283,81301,81316,81333,81351,81368,81383,81401,81417,81434,81452,81467,81483,81500,81517,81539,81552,81567,81584,81600,81617,81634,81650,81667,81684,81700,81718,81737,81751,81767,81783,81800,81817,81833,81850,81867,81883,81900,81917,81933,81950,81967,81984,81999,82017,82034,82050,82067,82084,82099,82117,82134,82151,82166,82185,82200,82218,82236,82252,82267,82285,82300,82317,82333,82350,82368,82385,82400,82418,82434,82450,82467,82483,82500,82517,82534,82550,82566,82583,82600,82616,82634,82650,82666,82683,82700,82716,82733,82751,82766,82784,82799,82816,82834,82850,82867,82884,82902,82916,82934,82950,82971,82984,83000,83017,83033,83051,83068,83083,83100,83117,83133,83151,83168,83183,83201,83217,83234,83251,83268,83283,83302,83316,83334,83351,83366,83384,83400,83419,83435,83450,83468,83484,83499,83516,83534,83549,83567,83584,83600,83617,83632,83649,83668,83684,83699,83717,83733,83751,83768,83783,83800,83817,83834,83850,83866,83883,83901,83916,83935,83951,83966,83983,84001,84016,84033,84050,84067,84083,84101,84116,84135,84151,84167,84185,84200,84216,84234,84251,84267,84283,84301,84316,84333,84349,84367,84388,84400,84417,84434,84450,84468,84484,84499,84517,84533,84549,84567,84584,84600,84616,84633,84650,84666,84683,84699,84717,84733,84752,84766,84783,84799,84817,84833,84850,84867,84884,84900,84917,84932,84950,84967,84984,85000,85016,85033,85050,85067,85083,85100,85117,85134,85151,85166,85183,85200,85217,85233,85251,85270,85283,85300,85317,85334,85350,85367,85382,85400,85418,85435,85449,85467,85484,85499,85517,85532,85550,85567,85584,85600,85616,85632,85650,85667,85684,85700,85717,85732,85750,85768,85784,85801,85821,85834,85850,85866,85883,85900,85915,85933,85950,85967,85983,86000,86016,86033,86049,86066,86084,86099,86116,86133,86149,86167,86183,86199,86217,86232,86250,86268,86284,86300,86316,86333,86350,86368,86383,86400,86415,86433,86450,86466,86483,86500,86516,86533,86549,86566,86584,86599,86616,86633,86649,86667,86684,86699,86717,86732,86750,86767,86783,86799,86816,86833,86850,86866,86883,86899,86916,86932,86949,86967,86983,87000,87016,87032,87050,87067,87083,87100,87117,87134,87150,87167,87183,87200,87217,87234,87250,87267,87284,87299,87316,87332,87350,87367,87383,87400,87416,87432,87450,87467,87484,87500,87517,87532,87550,87566,87584,87600,87616,87632,87649,87667,87683,87699,87717,87732,87750,87767,87785,87799,87816,87833,87850,87867,87884,87900,87917,87932,87951,87966,87984,87999,88018,88032,88050,88068,88083,88099,88116,88134,88149,88166,88185,88200,88217,88233,88250,88268,88283,88302,88317,88333,88350,88367,88384,88401,88416,88433,88448,88466,88483,88498,88516,88533,88548,88567,88583,88599,88616,88633,88649,88667,88687,88700,88717,88733,88750,88768,88784,88800,88817,88833,88849,88866,88883,88899,88917,88932,88949,88966,88983,88999,89017,89033,89049,89066,89084,89099,89116,89133,89150,89167,89183,89198,89216,89233,89248,89266,89284,89299,89316,89333,89349,89366,89383,89399,89417,89434,89449,89467,89483,89499,89517,89532,89549,89566,89583,89600,89616,89633,89650,89666,89683,89700,89716,89732,89750,89765,89783,89800,89815,89832,89850,89865,89883,89899,89916,89933,89948,89966,89983,89998,90016,90033,90048,90066,90083,90099,90116,90136,90149,90167,90184,90199,90217,90233,90250,90266,90285,90299,90316,90332,90349,90367,90382,90399,90416,90433,90449,90466,90482,90500,90517,90532,90550,90565,90582,90600,90615,90633,90650,90665,90682,90700,90715,90733,90750,90766,90784,90800,90815,90833,90850,90865,90883,90899,90916,90933,90949,90965,90983,90999,91015,91033,91048,91065,91083,91099,91116,91133,91149,91166,91183,91199,91216,91234,91249,91266,91283,91299,91316,91332,91349,91366,91382,91399,91417,91434,91449,91466,91482,91499,91517,91532,91549,91567,91589,91600,91615,91632,91650,91665,91682,91700,91715,91733,91750,91766,91783,91800,91816,91834,91850,91866,91883,91899,91916,91933,91948,91966,91983,91999,92016,92033,92050,92065,92083,92100,92116,92134,92148,92166,92183,92198,92216,92234,92250,92266,92284,92300,92316,92332,92351,92367,92383,92399,92416,92433,92450,92467,92482,92500,92516,92532,92549,92566,92582,92599,92616,92632,92649,92665,92682,92700,92715,92732,92750,92765,92783,92802,92815,92834,92849,92865,92882,92899,92915,92933,92949,92965,92983,92999,93015,93036,93049,93066,93083,93098,93116,93133,93149,93165,93182,93198,93216,93234,93249,93266,93284,93302,93316,93333,93349,93366,93381,93399,93417,93434,93449,93466,93482,93499,93516,93532,93550,93566,93582,93599,93616,93632,93649,93666,93682,93699,93715,93732,93750,93765,93783,93800,93815,93832,93851,93865,93882,93900,93916,93932,93949,93965,93983,94000,94016,94033,94050,94065,94083,94101,94117,94133,94148,94166,94183,94198,94216,94234,94249,94266,94284,94300,94317,94333,94350,94368,94383,94399,94416,94435,94449,94472,94484,94499,94516,94532,94549,94567,94584,94599,94617,94633,94650,94668,94682,94700,94715,94732,94749,94767,94782,94802,94815,94832,94850,94865,94882,94899,94915,94934,94949,94966,94982,94999,95015,95033,95051,95065,95083,95098,95115,95133,95148,95168,95183,95198,95216,95233,95249,95266,95283,95304,95317,95333,95350,95367,95382,95399,95416,95435,95449,95466,95484,95501,95517,95532,95549,95566,95583,95599,95617,95632,95649,95667,95682,95699,95715,95732,95749,95765,95782,95800,95816,95832,95850,95866,95886,95900,95917,95932,95950,95965,95983,96000,96016,96032,96050,96066,96084,96098,96117,96134,96150,96166,96183,96199,96216,96235,96249,96266,96283,96300,96318,96333,96351,96367,96383,96399,96417,96434,96449,96466,96483,96499,96516,96531,96549,96567,96582,96599,96616,96632,96649,96667,96682,96699,96717,96732,96749,96767,96782,96802,96815,96832,96850,96865,96882,96900,96915,96934,96950,96965,96982,96999,97017,97033,97049,97065,97084,97099,97115,97134,97148,97167,97183,97199,97216,97233,97248,97266,97282,97298,97324,97337,97366,97382,97398,97416,97434,97449,97466,97481,97499,97516,97532,97548,97566,97582,97599,97616,97631,97649,97667,97683,97699,97717,97732,97749,97764,97782,97799,97818,97832,97849,97865,97882,97900,97916,97932,97949,97965,97983,97999,98015,98032,98049,98065,98082,98100,98115,98132,98149,98165,98183,98198,98215,98233,98248,98266,98283,98298,98316,98333,98349,98367,98383,98398,98416,98434,98449,98465,98482,98499,98516,98533,98548,98566,98582,98599,98616,98631,98649,98666,98682,98698,98716,98731,98749,98769,98782,98799,98815,98832,98849,98864,98882,98899,98914,98932,98950,98966,98983,98999,99015,99032,99049,99065,99082,99099,99115,99132,99149,99165,99182,99198,99215,99234,99249,99265,99283,99298,99316,99335,99349,99367,99382,99398,99416,99433,99451,99466,99481,99499,99516,99533,99548,99566,99581,99599,99616,99632,99649,99666,99682,99700,99716,99732,99749,99766,99782,99799,99817,99833,99849,99864,99882,99899,99914,99932,99949,99964,99982,100000,100015,100032,100049,100065,100082,100099,100115,100132,100150,100165,100183,100206,100217,100233,100248,100266,100282,100298,100316,100335,100349,100367,100384,100398,100416,100434,100448,100465,100481,100498,100515,100532,100548,100566,100581,100599,100615,100631,100648,100666,100683,100699,100716,100732,100748,100766,100782,100799,100815,100832,100852,100865,100882,100899,100917,100932,100949,100965,100982,100999,101016,101032,101049,101065,101082,101099,101114,101132,101149,101165,101182,101198,101215,101232,101247,101265,101282,101297,101315,101333,101349,101366,101383,101398,101416,101434,101448,101466,101483,101498,101516,101532,101548,101565,101582,101604,101615,101632,101649,101666,101681,101698,101716,101731,101748,101766,101782,101799,101815,101833,101851,101866,101881,101899,101915,101932,101949,101966,101982,101999,102014,102032,102049,102065,102082,102099,102115,102132,102149,102166,102182,102200,102215,102232,102248,102266,102282,102298,102316,102333,102350,102368,102382,102398,102416,102434,102448,102466,102482,102498,102516,102531,102548,102565,102583,102598,102615,102631,102648,102665,102681,102698,102715,102733,102748,102765,102781,102798,102815,102831,102850,102867,102881,102899,102916,102931,102949,102964,102982,102999,103015,103035,103049,103064,103081,103100,103115,103132,103149,103165,103182,103200,103214,103232,103249,103265,103282,103299,103315,103332,103348,103366,103382,103398,103415,103433,103448,103465,103482,103499,103515,103532,103549,103566,103583,103598,103615,103632,103649,103666,103682,103698,103716,103731,103749,103765,103781,103799,103815,103831,103850,103868,103882,103899,103916,103933,103949,103964,103981,103999,104015,104033,104049,104065,104081,104099,104114,104132,104149,104164,104183,104199,104214,104232,104249,104264,104282,104299,104315,104332,104350,104366,104382,104398,104416,104434,104448,104467,104489,104514,104532,104547,104566,104581,104600,104619,104638,104650,104666,104681,104698,104716,104731,104748,104765,104781,104798,104815,104832,104848,104867,104881,104898,104914,104931,104949,104966,104982,104999,105014,105032,105049,105064,105082,105099,105114,105132,105148,105164,105182,105199,105214,105231,105250,105264,105281,105298,105314,105332,105350,105369,105382,105398,105415,105433,105449,105465,105482,105497,105515,105533,105549,105566,105582,105598,105615,105632,105649,105666,105681,105699,105715,105731,105748,105765,105781,105798,105816,105831,105849,105867,105881,105898,105915,105931,105953,105967,105981,105999,106016,106031,106049,106065,106083,106099,106116,106133,106149,106165,106182,106199,106214,106233,106250,106265,106284,106300,106315,106332,106349,106367,106383,106398,106415,106434,106450,106465,106482,106498,106515,106532,106549,106565,106582,106597,106615,106632,106648,106665,106683,106698,106715,106730,106748,106766,106781,106798,106815,106831,106848,106866,106881,106898,106915,106931,106949,106965,106981,106998,107015,107031,107048,107064,107081,107099,107116,107132,107148,107164,107181,107200,107215,107232,107248,107264,107281,107299,107314,107333,107353,107369,107383,107398,107414,107434,107447,107465,107483,107497,107515,107532,107547,107565,107582,107597,107616,107632,107648,107665,107682,107698,107715,107732,107748,107765,107780,107798,107815,107832,107848,107866,107882,107898,107915,107932,107949,107965,107981,107998,108015,108031,108048,108064,108081,108098,108114,108131,108148,108164,108181,108199,108214,108232,108249,108264,108281,108298,108314,108332,108348,108365,108382,108398,108416,108434,108447,108465,108482,108497,108514,108532,108547,108565,108582,108597,108615,108631,108647,108666,108683,108697,108715,108730,108747,108765,108787,108800,108815,108831,108848,108867,108882,108898,108916,108931,108949,108966,108981,108998,109016,109031,109048,109066,109081,109099,109116,109131,109149,109164,109182,109199,109215,109231,109248,109264,109282,109299,109315,109333,109348,109364,109382,109399,109414,109433,109447,109465,109482,109498,109515,109532,109547,109565,109582,109597,109615,109632,109648,109665,109682,109698,109715,109732,109747,109765,109781,109798,109815,109831,109847,109865,109881,109899,109915,109930,109948,109965,109981,109999,110015,110031,110048,110065,110082,110098,110115,110131,110150,110166,110181,110204,110215,110231,110248,110264,110281,110299,110314,110332,110348,110364,110383,110399,110415,110433,110449,110464,110482,110498,110515,110532,110547,110564,110582,110597,110615,110632,110648,110665,110681,110698,110714,110731,110747,110765,110781,110799,110815,110830,110848,110865,110880,110898,110915,110930,110948,110966,110982,110999,111017,111031,111049,111065,111081,111099,111116,111131,111149,111164,111181,111200,111216,111231,111249,111264,111281,111299,111315,111333,111349,111366,111383,111399,111415,111435,111450,111465,111481,111497,111514,111531,111547,111565,111582,111598,111615,111633,111647,111664,111682,111699,111716,111732,111748,111766,111782,111798,111815,111832,111848,111866,111882,111899,111915,111933,111948,111965,111981,111998,112016,112031,112048,112065,112082,112099,112116,112131,112151,112165,112181,112199,112215,112231,112249,112266,112281,112298,112314,112332,112349,112365,112381,112400,112415,112434,112449,112464,112481,112498,112514,112531,112547,112564,112582,112597,112614,112632,112647,112665,112682,112697,112715,112732,112748,112766,112782,112798,112815,112830,112848,112865,112881,112898,112916,112931,112948,112965,112986,112999,113015,113031,113049,113066,113081,113098,113115,113132,113148,113165,113181,113198,113214,113231,113248,113264,113282,113298,113314,113331,113348,113364,113381,113402,113418,113437,113451,113466,113484,113500,113516,113533,113550,113567,113583,113601,113617,113633,113649,113668,113683,113699,113716,113733,113749,113766,113783,113799,113816,113833,113850,113867,113885,113901,113919,113934,113951,113967,113983,114000,114017,114034,114051,114067,114084,114100,114117,114133,114150,114166,114183,114199,114217,114233,114250,114268,114283,114299,114316,114333,114349,114368,114384,114401,114419,114436,114450,114466,114482,114499,114516,114533,114549,114566,114583,114600,114616,114633,114649,114666,114682,114699,114716,114732,114749,114766,114783,114801,114817,114833,114849,114866,114883,114899,114918,114933,114950,114966,114983,114999,115016,115033,115049,115066,115083,115099,115116,115133,115149,115166,115184,115199,115216,115233,115249,115266,115283,115299,115316,115333,115349,115366,115383,115399,115418,115436,115450,115466,115482,115499,115516,115533,115550,115567,115583,115601,115618,115634,115651,115667,115683,115699,115716,115733,115749,115766,115788,115801,115816,115832,115849,115866,115883,115899,115918,115935,115950,115966,115984,116001,116017,116034,116050,116067,116083,116100,116117,116134,116150,116166,116184,116199,116216,116233,116249,116267,116283,116299,116317,116333,116350,116366,116383,116400,116417,116437,116451,116467,116483,116500,116516,116532,116549,116567,116584,116601,116617,116633,116650,116666,116683,116700,116717,116736,116751,116767,116784,116801,116818,116834,116851,116867,116883,116900,116917,116935,116950,116967,116983,117000,117017,117034,117050,117067,117084,117100,117117,117134,117151,117167,117185,117201,117217,117233,117249,117267,117283,117299,117316,117333,117349,117366,117383,117399,117417,117436,117452,117467,117483,117499,117516,117533,117549,117566,117583,117599,117616,117633,117649,117666,117682,117699,117716,117732,117749,117767,117783,117799,117816,117833,117849,117866,117883,117900,117918,117935,117950,117966,117983,117999,118016,118034,118050,118066,118083,118099,118116,118133,118150,118166,118183,118200,118216,118233,118250,118266,118283,118300,118316,118333,118350,118366,118383,118399,118416,118436,118451,118467,118483,118499,118516,118533,118549,118573,118585,118599,118616,118633,118649,118666,118683,118700,118716,118733,118750,118767,118783,118800,118816,118834,118850,118867,118883,118900,118917,118934,118950,118967,118983,118999,119016,119033,119050,119066,119083,119099,119117,119133,119150,119167,119183,119200,119218,119233,119250,119266,119283,119299,119316,119333,119349,119366,119382,119399,119416,119434,119451,119467,119482,119499,119516,119533,119549,119566,119582,119599,119616,119633,119649,119666,119682,119699,119716,119732,119749,119766,119783,119800,119817,119832,119849,119867,119883,119899,119916,119934,119951,119968,119983,119999,120015,120032,120049,120066,120083,120099,120116,120132,120149,120166,120183,120199,120216,120233,120249,120266,120282,120299,120318,120332,120349,120366,120382,120400,120416,120438,120452,120466,120482,120498,120515,120533,120550,120566,120583,120600,120617,120633,120649,120666,120683,120700,120717,120733,120750,120766,120784,120800,120816,120833,120850,120867,120883,120899,120917,120934,120952,120966,120984,121001,121016,121033,121050,121067,121084,121100,121117,121133,121150,121166,121183,121199,121215,121232,121249,121266,121282,121299,121316,121332,121356,121368,121382,121398,121415,121436,121452,121468,121482,121498,121515,121532,121549,121567,121583,121600,121615,121632,121649,121666,121684,121699,121716,121732,121749,121766,121782,121799,121816,121832,121849,121866,121882,121899,121916,121932,121950,121966,121982,121999,122016,122033,122049,122065,122082,122099,122116,122133,122149,122166,122183,122200,122215,122233,122250,122265,122282,122299,122315,122333,122349,122366,122383,122401,122417,122436,122452,122469,122482,122500,122516,122532,122548,122565,122582,122599,122616,122632,122649,122665,122682,122699,122716,122733,122750,122767,122783,122800,122816,122832,122849,122866,122883,122899,122916,122933,122951,122969,122983,122999,123015,123032,123049,123066,123082,123099,123116,123134,123149,123166,123182,123200,123216,123233,123250,123267,123283,123300,123317,123334,123350,123367,123382,123399,123416,123434,123452,123469,123483,123500,123516,123532,123548,123566,123582,123600,123616,123633,123649,123666,123682,123699,123715,123732,123748,123765,123782,123799,123815,123832,123850,123866,123882,123899,123915,123932,123950,123968,123982,123999,124016,124033,124049,124066,124083,124099,124115,124132,124149,124165,124185,124200,124216,124233,124250,124266,124283,124299,124315,124333,124349,124366,124382,124399,124415,124434,124451,124467,124482,124499,124515,124533,124549,124566,124583,124599,124617,124632,124648,124665,124682,124698,124715,124732,124749,124766,124782,124799,124816,124832,124849,124866,124882,124899,124916,124933,124950,124968,124983,124999,125017,125032,125049,125066,125083,125099,125116,125133,125150,125166,125183,125199,125215,125233,125249,125265,125282,125299,125316,125332,125350,125365,125383,125399,125416,125434,125450,125467,125484,125498,125516,125532,125549,125573,125585,125599,125615,125632,125649,125666,125682,125698,125716,125733,125749,125766,125782,125799,125817,125832,125849,125866,125883,125900,125916,125932,125949,125966,125982,125999,126016,126032,126049,126065,126082,126099,126116,126132,126149,126166,126182,126198,126215,126233,126249,126265,126283,126300,126316,126334,126350,126366,126383,126399,126417,126435,126450,126466,126483,126500,126516,126533,126549,126566,126582,126599,126616,126633,126650,126666,126683,126699,126716,126733,126749,126766,126782,126799,126816,126832,126849,126866,126883,126899,126918,126934,126950,126967,126985,126999,127015,127033,127048,127065,127082,127098,127115,127132,127148,127165,127182,127198,127216,127233,127249,127266,127282,127298,127316,127332,127349,127367,127384,127399,127415,127433,127450,127467,127484,127498,127516,127532,127548,127565,127582,127598,127616,127632,127648,127665,127682,127698,127715,127734,127750,127766,127782,127798,127816,127833,127849,127865,127882,127898,127915,127932,127950,127966,127984,128001,128016,128032,128048,128065,128082,128098,128116,128132,128148,128165,128182,128199,128216,128233,128249,128266,128282,128299,128315,128332,128354,128366,128381,128398,128415,128435,128448,128465,128482,128498,128516,128532,128549,128565,128582,128599,128615,128632,128648,128665,128682,128698,128715,128732,128748,128765,128782,128798,128815,128832,128848,128865,128882,128898,128916,128932,128949,128965,128982,128999,129015,129032,129048,129065,129082,129099,129115,129134,129148,129165,129182,129198,129215,129231,129248,129266,129281,129298,129316,129333,129348,129365,129382,129399,129416,129434,129449,129466,129483,129500,129516,129532,129549,129566,129582,129598,129616,129632,129648,129665,129682,129706,129719,129732,129748,129765,129781,129798,129815,129832,129848,129865,129882,129899,129916,129932,129949,129965,129982,130000,130016,130033,130048,130065,130081,130098,130115,130132,130149,130165,130182,130199,130216,130232,130249,130265,130283,130300,130316,130332,130348,130365,130382,130398,130415,130435,130449,130465,130483,130500,130516,130532,130548,130565,130582,130599,130615,130632,130650,130666,130682,130699,130715,130732,130749,130766,130782,130799,130816,130832,130849,130865,130882,130899,130916,130932,130949,130966,130984,131001,131016,131032,131049,131067,131082,131099,131115,131132,131149,131166,131181,131199,131215,131233,131249,131265,131282,131298,131315,131333,131349,131365,131382,131398,131415,131434,131449,131466,131483,131500,131516,131531,131548,131565,131582,131598,131615,131633,131648,131665,131682,131698,131715,131732,131748,131766,131782,131798,131815,131833,131849,131865,131881,131898,131915,131932,131948,131965,131981,131999,132018,132032,132048,132067,132083,132098,132115,132131,132149,132165,132182,132198,132215,132231,132249,132265,132281,132298,132316,132331,132348,132366,132382,132398,132421,132439,132449,132466,132481,132498,132515,132531,132548,132564,132582,132598,132615,132631,132648,132665,132682,132699,132716,132731,132748,132765,132781,132798,132815,132832,132849,132865,132882,132899,132915,132931,132948,132965,132981,132998,133016,133032,133048,133065,133082,133099,133116,133132,133149,133165,133182,133198,133215,133232,133249,133266,133284,133299,133315,133333,133349,133365,133382,133398,133416,133435,133450,133467,133482,133499,133515,133532,133548,133565,133582,133599,133616,133632,133649,133665,133682,133699,133714,133731,133754,133766,133781,133798,133815,133831,133848,133865,133882,133899,133916,133932,133948,133966,133982,133999,134017,134032,134048,134065,134083,134098,134115,134132,134149,134166,134182,134199,134215,134232,134249,134266,134282,134299,134316,134332,134350,134366,134382,134399,134417,134436,134449,134465,134482,134499,134517,134533,134548,134565,134581,134598,134615,134631,134648,134665,134682,134699,134715,134731,134749,134766,134783,134799,134815,134832,134849,134866,134883,134899,134915,134933,134949,134965,134981,134999,135017,135032,135049,135072,135085,135099,135116,135133,135149,135166,135183,135200,135215,135231,135248,135265,135281,135298,135314,135332,135348,135365,135382,135398,135415,135435,135449,135465,135481,135499,135516,135531,135548,135565,135581,135598,135615,135631,135648,135664,135681,135698,135714,135731,135748,135765,135781,135798,135815,135831,135848,135869,135882,135898,135915,135932,135948,135965,135982,135999,136016,136032,136048,136065,136081,136098,136116,136131,136148,136166,136182,136198,136215,136231,136248,136265,136281,136299,136315,136331,136348,136365,136382,136404,136418,136434,136450,136464,136482,136498,136515,136532,136548,136565,136582,136598,136615,136631,136649,136665,136681,136698,136715,136731,136748,136765,136782,136798,136816,136831,136848,136866,136881,136898,136915,136931,136948,136965,136981,136999,137015,137033,137048,137065,137081,137098,137115,137131,137148,137166,137181,137198,137215,137231,137248,137265,137281,137298,137315,137331,137348,137365,137382,137398,137416,137434,137449,137466,137481,137498,137516,137531,137548,137566,137581,137598,137616,137632,137648,137665,137681,137705,137716,137731,137747,137764,137781,137798,137814,137831,137849,137867],"hit":[null],"x":[-2.1496598639455784,-2.1496598639455784,-2.1496598639455784,-2.1496598639455784,-2.1496598639455784,-2.1496598639455784,-2.1496598639455784,-2.1496598639455784,-2.1496598639455784,-2.1496598639455784,-2.1496598639455784,-2.1496598639455784,-2.1496598639455784,-2.1496598639455784,-2.1496598639455784,-2.1496598639455784,-2.1496598639455784,-2.1496598639455784,-2.1496598639455784,-2.1496598639455784,-2.1496598639455784,-2.1496598639455784,-2.1496598639455784,-2.1496598639455784,-2.1496598639455784,-2.1496598639455784,-2.1496598639455784,-2.1496598639455784,-2.1496598639455784,-2.1496598639455784,-2.1496598639455784,-2.1496598639455784,-2.1496598639455784,-2.1496598639455784,-2.1496598639455784,-2.1496598639455784,-2.1496598639455784,-2.1496598639455784,-2.1496598639455784,-2.1496598639455784,-2.1496598639455784,-2.1496598639455784,-2.1496598639455784,-2.1496598639455784,-2.1496598639455784,-2.1496598639455784,-2.1496598639455784,-2.1496598639455784,-2.1496598639455784,-2.1496598639455784,-2.1496598639455784,-2.1496598639455784,-2.1496598639455784,-2.1496598639455784,-2.1496598639455784,-2.1496598639455784,-2.1496598639455784,-2.1496598639455784,-2.1496598639455784,-2.1496598639455784,-2.1496598639455784,-2.1496598639455784,-2.1496598639455784,-2.1496598639455784,-2.1496598639455784,-2.1496598639455784,-2.1496598639455784,-2.1496598639455784,-2.1496598639455784,-2.1496598639455784,-2.1496598639455784,-2.1496598639455784,-2.1496598639455784,-2.1496598639455784,-2.1496598639455784,-2.1496598639455784,-2.1496598639455784,-2.1496598639455784,-2.1496598639455784,-2.1496598639455784,-2.1496598639455784,-2.1496598639455784,-2.1496598639455784,-2.1496598639455784,-2.1496598639455784,-2.1496598639455784,-2.1496598639455784,-2.1496598639455784,-2.1496598639455784,-2.1496598639455784,-2.1496598639455784,-2.1496598639455784,-2.1496598639455784,-2.1496598639455784,-2.1496598639455784,-2.1496598639455784,-2.1496598639455784,-2.1496598639455784,-2.1496598639455784,-2.1496598639455784,-2.1496598639455784,-2.1496598639455784,-2.1496598639455784,-2.1496598639455784,-2.1496598639455784,-2.1496598639455784,-2.1496598639455784,-2.1496598639455784,-2.1496598639455784,-2.1496598639455784,-2.1496598639455784,-2.1496598639455784,-2.1496598639455784,-2.1496598639455784,-2.1496598639455784,-2.1496598639455784,-2.1496598639455784,-2.1496598639455784,-2.1496598639455784,-2.1496598639455784,-2.1496598639455784,-2.1496598639455784,-2.1496598639455784,-2.1496598639455784,-2.1496598639455784,-2.1496598639455784,-2.1496598639455784,-2.1496598639455784,-2.1496598639455784,-2.1496598639455784,-2.1496598639455784,-2.1496598639455784,-2.1496598639455784,-2.1496598639455784,-2.1496598639455784,-2.1496598639455784,-2.1496598639455784,-2.1496598639455784,-2.1496598639455784,-2.1496598639455784,-2.1496598639455784,-2.1496598639455784,-2.1496598639455784,-2.1496598639455784,-2.1496598639455784,-2.1496598639455784,-2.1496598639455784,-2.1496598639455784,-2.1496598639455784,-2.1496598639455784,-2.1496598639455784,-2.1496598639455784,-2.1496598639455784,-2.1496598639455784,-2.1496598639455784,-2.1496598639455784,-2.1496598639455784,-2.1496598639455784,-2.1496598639455784,-2.1496598639455784,-2.1496598639455784,-2.1496598639455784,-2.1496598639455784,-2.1496598639455784,-2.1496598639455784,-2.1496598639455784,-2.1496598639455784,-2.1496598639455784,-2.1496598639455784,-2.1496598639455784,-2.1496598639455784,-2.1496598639455784,-2.1496598639455784,-2.1496598639455784,-2.1496598639455784,-2.1496598639455784,-2.1496598639455784,-2.1496598639455784,-2.1496598639455784,-2.1496598639455784,-2.1496598639455784,-2.1496598639455784,-2.1496598639455784,-2.1496598639455784,-2.1496598639455784,-2.1496598639455784,-2.1496598639455784,-2.1496598639455784,-2.1496598639455784,-2.1496598639455784,-2.1496598639455784,-2.1496598639455784,-2.1496598639455784,-2.1496598639455784,-2.1496598639455784,-2.1496598639455784,-2.1496598639455784,-2.1496598639455784,-2.1496598639455784,-2.1496598639455784,-2.1496598639455784,-2.1496598639455784,-2.1496598639455784,-2.1496598639455784,-2.1496598639455784,-2.1496598639455784,-2.1496598639455784,-2.1496598639455784,-2.1496598639455784,-2.1496598639455784,-2.1496598639455784,-2.1496598639455784,-2.1496598639455784,-2.1496598639455784,-2.1496598639455784,-2.1496598639455784,-2.1496598639455784,-2.1496598639455784,-2.1496598639455784,-2.1496598639455784,-2.1496598639455784,-2.1496598639455784,-2.1496598639455784,-2.1496598639455784,-2.1496598639455784,-2.1496598639455784,-2.1496598639455784,-2.1496598639455784,-2.1496598639455784,-2.1496598639455784,-2.1496598639455784,-2.1496598639455784,-2.1496598639455784,-2.1496598639455784,-2.1496598639455784,-2.1496598639455784,-2.1496598639455784,-2.1496598639455784,-2.1496598639455784,-2.1496598639455784,-2.1496598639455784,-2.1496598639455784,-2.1496598639455784,-2.1496598639455784,-2.1496598639455784,-2.1496598639455784,-2.1496598639455784,-2.1496598639455784,-2.1496598639455784,-2.1496598639455784,-2.1496598639455784,-2.1496598639455784,-2.1496598639455784,-2.1496598639455784,-2.1496598639455784,-2.1496598639455784,-2.1496598639455784,-2.1496598639455784,-2.1496598639455784,-2.1496598639455784,-2.1496598639455784,-2.1496598639455784,-2.1496598639455784,-2.1496598639455784,-2.1496598639455784,-2.1496598639455784,-2.1496598639455784,-2.1496598639455784,-2.1496598639455784,-2.1496598639455784,-2.1496598639455784,-2.1496598639455784,-2.1496598639455784,-2.1496598639455784,-2.1496598639455784,-2.1496598639455784,-2.1496598639455784,-2.1496598639455784,-2.1496598639455784,-2.1496598639455784,-2.1496598639455784,-2.1496598639455784,-2.1496598639455784,-2.1496598639455784,-2.1496598639455784,-2.1496598639455784,-2.1496598639455784,-2.1496598639455784,-2.1496598639455784,-2.1496598639455784,-2.1496598639455784,-2.1496598639455784,-2.1496598639455784,-2.1496598639455784,-2.1496598639455784,-2.1496598639455784,-2.1496598639455784,-2.1496598639455784,-2.1496598639455784,-2.1496598639455784,-2.1496598639455784,-2.1496598639455784,-2.1496598639455784,-2.1496598639455784,-2.1496598639455784,-2.1496598639455784,-2.1496598639455784,-2.1496598639455784,-2.1496598639455784,-2.1496598639455784,-2.1496598639455784,-2.1496598639455784,-2.1496598639455784,-2.1496598639455784,-2.1496598639455784,-2.1496598639455784,-2.1496598639455784,-2.1496598639455784,-2.1496598639455784,-2.1496598639455784,-2.1496598639455784,-2.1496598639455784,-2.1496598639455784,-2.1496598639455784,-2.1496598639455784,-2.1496598639455784,-2.1496598639455784,-2.1496598639455784,-2.1496598639455784,-2.1496598639455784,-2.1496598639455784,-2.1496598639455784,-2.1496598639455784,-2.1496598639455784,-2.1496598639455784,-2.1496598639455784,-2.1496598639455784,-2.1496598639455784,-2.1496598639455784,-2.1496598639455784,-2.1496598639455784,-2.1496598639455784,-2.1496598639455784,-2.1496598639455784,-2.1496598639455784,-2.1496598639455784,-2.1496598639455784,-2.1496598639455784,-2.1496598639455784,-2.1496598639455784,-2.1496598639455784,-2.1496598639455784,-2.1496598639455784,-2.1496598639455784,-2.1496598639455784,-2.1496598639455784,-2.1496598639455784,-2.1496598639455784,-2.1496598639455784,-2.1496598639455784,-2.1496598639455784,-2.1496598639455784,-2.1496598639455784,-2.1496598639455784,-2.1496598639455784,-2.1496598639455784,-2.1496598639455784,-2.1496598639455784,-2.1496598639455784,-2.1496598639455784,-2.1496598639455784,-2.1496598639455784,-2.1496598639455784,-2.1496598639455784,-2.1496598639455784,-2.1496598639455784,-2.1496598639455784,-2.1496598639455784,-2.1496598639455784,-2.1496598639455784,-2.1496598639455784,-2.1496598639455784,-2.1496598639455784,-2.1496598639455784,-2.1496598639455784,-2.1496598639455784,-2.1496598639455784,-2.1496598639455784,-2.1496598639455784,-2.1496598639455784,-2.1496598639455784,-2.1496598639455784,-2.1496598639455784,-2.1496598639455784,-2.1496598639455784,-2.1496598639455784,-2.1496598639455784,-2.1496598639455784,-2.1496598639455784,-2.1496598639455784,-2.1496598639455784,-2.1496598639455784,-2.1496598639455784,-2.1496598639455784,-2.1496598639455784,-2.1496598639455784,-2.1496598639455784,-2.1496598639455784,-2.1496598639455784,-2.1496598639455784,-2.1496598639455784,-2.1496598639455784,-2.1496598639455784,-2.1496598639455784,-2.1496598639455784,-2.1496598639455784,-2.1496598639455784,-2.1496598639455784,-2.1496598639455784,-2.1496598639455784,-2.1496598639455784,-2.1496598639455784,-2.1496598639455784,-2.1496598639455784,-2.1496598639455784,-2.1496598639455784,-2.1496598639455784,-2.1496598639455784,-2.1496598639455784,-2.1496598639455784,-2.1496598639455784,-2.1496598639455784,-2.1496598639455784,-2.1496598639455784,-2.1496598639455784,-2.1496598639455784,-2.1496598639455784,-2.1496598639455784,-2.1496598639455784,-2.1496598639455784,-2.1496598639455784,-2.1496598639455784,-2.1496598639455784,-2.1496598639455784,-2.1496598639455784,-2.1496598639455784,-2.1496598639455784,-2.1496598639455784,-2.1496598639455784,-2.1496598639455784,-2.1496598639455784,-2.1496598639455784,-2.1496598639455784,-2.1496598639455784,-2.1496598639455784,-2.1496598639455784,-2.1496598639455784,-2.1496598639455784,-2.1496598639455784,-2.1496598639455784,-2.1496598639455784,-2.1496598639455784,-2.1496598639455784,-2.1496598639455784,-2.1496598639455784,-2.1496598639455784,-2.1496598639455784,-2.1496598639455784,-2.1496598639455784,-2.1496598639455784,-2.1496598639455784,-2.1496598639455784,-2.1496598639455784,-2.1496598639455784,-2.1496598639455784,-2.1496598639455784,-2.1496598639455784,-2.1496598639455784,-2.1496598639455784,-2.1496598639455784,-0.02040816326530612,-0.02040816326530612,-0.02040816326530612,-0.017006802721088437,-0.01020408163265306,-0.003401360544217687,0.006802721088435374,0.013605442176870748,0.030612244897959183,0.047619047619047616,0.07142857142857142,0.11224489795918367,0.14285714285714285,0.18027210884353742,0.23809523809523808,0.2619047619047619,0.2925170068027211,0.3673469387755102,0.41156462585034015,0.42517006802721086,0.43537414965986393,0.445578231292517,0.46258503401360546,0.47619047619047616,0.4897959183673469,0.5204081632653061,0.5204081632653061,0.5204081632653061,0.5204081632653061,0.5204081632653061,0.5204081632653061,0.5204081632653061,0.5204081632653061,0.5204081632653061,0.5204081632653061,0.5204081632653061,0.5204081632653061,0.5204081632653061,0.5170068027210885,0.5068027210884354,0.48639455782312924,0.47278911564625853,0.4557823129251701,0.4387755102040816,0.3673469387755102,0.35034013605442177,0.3299319727891156,0.3129251700680272,0.29931972789115646,0.29931972789115646,0.29931972789115646,0.29931972789115646,0.29931972789115646,0.29931972789115646,0.29931972789115646,0.29931972789115646,0.29931972789115646,0.29931972789115646,0.29931972789115646,0.29931972789115646,0.29931972789115646,0.29931972789115646,0.29931972789115646,0.29591836734693877,0.29591836734693877,0.2891156462585034,0.2857142857142857,0.2857142857142857,0.282312925170068,0.272108843537415,0.272108843537415,0.2687074829931973,0.2653061224489796,0.2585034013605442,0.2585034013605442,0.25510204081632654,0.25510204081632654,0.25510204081632654,0.25170068027210885,0.24829931972789115,0.24149659863945577,0.24149659863945577,0.23809523809523808,0.23469387755102042,0.23469387755102042,0.22789115646258504,0.22448979591836735,0.22108843537414966,0.22108843537414966,0.22108843537414966,0.21768707482993196,0.21768707482993196,0.21768707482993196,0.21768707482993196,0.21768707482993196,0.21768707482993196,0.21768707482993196,0.21768707482993196,0.21768707482993196,0.21768707482993196,0.21768707482993196,0.21768707482993196,0.21768707482993196,0.21768707482993196,0.21768707482993196,0.21768707482993196,0.21768707482993196,0.21768707482993196,0.21428571428571427,0.21428571428571427,0.21428571428571427,0.21428571428571427,0.21428571428571427,0.21428571428571427,0.21428571428571427,0.21428571428571427,0.21428571428571427,0.21428571428571427,0.21428571