[{"success":true,"trial_type":"fullscreen","trial_index":0,"time_elapsed":6439,"internal_node_id":"0.0-0.0","protocol_sum":"","subject_identifier":110,"subject_sum":[2,210,11,189,126,57,74,213,153,154,76,235,171,172,150,25,115,44,52,58,76,172,153,71,12,3,226,59,162,189,194,188],"subject_pair":55,"STUDY_ID":"669a702db1122fc5150a13ce","PROLIFIC_PID":"6629497a938b0963356f7002","SESSION_ID":"669ab69f9a9812603249d407","practice_instructions":1,"leaderboard_instructions":0,"bonus":0,"reveal_word":false,"self_rating":"3","confidence":"85"},{"view_history":"[{\"page_index\":0,\"viewing_time\":14969}]","rt":14969.39999999851,"trial_type":"instructions","trial_index":1,"time_elapsed":21409,"internal_node_id":"0.0-1.0","protocol_sum":"","subject_identifier":110,"subject_sum":[2,210,11,189,126,57,74,213,153,154,76,235,171,172,150,25,115,44,52,58,76,172,153,71,12,3,226,59,162,189,194,188],"subject_pair":55,"STUDY_ID":"669a702db1122fc5150a13ce","PROLIFIC_PID":"6629497a938b0963356f7002","SESSION_ID":"669ab69f9a9812603249d407","practice_instructions":1,"leaderboard_instructions":0,"bonus":0,"reveal_word":false,"self_rating":"3","confidence":"85"},{"view_history":"[{\"page_index\":0,\"viewing_time\":16745.60000000149}]","rt":16745.89999999851,"trial_type":"instructions","trial_index":2,"time_elapsed":38156,"internal_node_id":"0.0-2.0-0.0","protocol_sum":"","subject_identifier":110,"subject_sum":[2,210,11,189,126,57,74,213,153,154,76,235,171,172,150,25,115,44,52,58,76,172,153,71,12,3,226,59,162,189,194,188],"subject_pair":55,"STUDY_ID":"669a702db1122fc5150a13ce","PROLIFIC_PID":"6629497a938b0963356f7002","SESSION_ID":"669ab69f9a9812603249d407","practice_instructions":1,"leaderboard_instructions":0,"bonus":0,"reveal_word":false,"self_rating":"3","confidence":"85"},{"rt":15747.80000000447,"responses":"{\"Q0\":\"... reveal the word with as <b>few letter guesses</b> as possible\"}","question_order":"[0]","trial_type":"survey-multi-choice","trial_index":3,"time_elapsed":53905,"internal_node_id":"0.0-2.0-1.0","protocol_sum":"","subject_identifier":110,"subject_sum":[2,210,11,189,126,57,74,213,153,154,76,235,171,172,150,25,115,44,52,58,76,172,153,71,12,3,226,59,162,189,194,188],"subject_pair":55,"correct":true,"test_part":"multichoice_nonpretend","STUDY_ID":"669a702db1122fc5150a13ce","PROLIFIC_PID":"6629497a938b0963356f7002","SESSION_ID":"669ab69f9a9812603249d407","practice_instructions":1,"leaderboard_instructions":0,"bonus":0,"reveal_word":false,"self_rating":"3","confidence":"85"},{"view_history":"[{\"page_index\":0,\"viewing_time\":1736.6000000014901}]","rt":1736.8000000044703,"trial_type":"instructions","trial_index":4,"time_elapsed":55644,"internal_node_id":"0.0-3.0","protocol_sum":"","subject_identifier":110,"subject_sum":[2,210,11,189,126,57,74,213,153,154,76,235,171,172,150,25,115,44,52,58,76,172,153,71,12,3,226,59,162,189,194,188],"subject_pair":55,"STUDY_ID":"669a702db1122fc5150a13ce","PROLIFIC_PID":"6629497a938b0963356f7002","SESSION_ID":"669ab69f9a9812603249d407","practice_instructions":1,"leaderboard_instructions":0,"bonus":0,"reveal_word":false,"self_rating":"3","confidence":"85"},{"word":"ZEBRA","click_log":{"letter":["","S","T","R","N","I","A","Z","E","B"],"t":[0,5470,6902.5,8937.69999999553,11588.60000000149,13119.39999999851,14836.60000000149,17218,18718.19999999553,19456.69999999553],"hit":[null,0,0,1,0,0,1,1,1,1],"asked":["","S","ST","STR","STRN","STRNI","STRNIA","STRNIAZ","STRNIAZE","STRNIAZEB"],"word_state":["_____","_____","_____","___R_","___R_","___R_","___RA","Z__RA","ZE_RA","ZEBRA"]},"hover_log":{"letter":["?","?","?","?","?","?","?","?","?","?","?","?","?","?","?","?","?","?","?","?","?","?","?","?","?","?","?","?","?","?","?","?","?","?","?","?","?","?","?","?","?","?","?","?","?","?","?","?","?","?","?","?","?","?","K","K","K","?","?","L","L","L","L","L","L","L","L","L","L","L","L","L","L","L","L","L","L","L","L","L","L","L","L","L","L","L","L","L","L","L","L","L","L","L","L","L","L","L","L","?","?","M","M","M","M","?","?","?","N","N","N","N","N","N","N","N","N","N","N","N","N","N","N","N","N","N","N","N","N","N","N","N","N","N","N","N","N","N","N","N","N","N","N","N","N","N","N","N","N","N","?","?","?","?","?","?","?","?","?","?","?","?","?","N","N","N","N","N","N","N","N","N","N","N","N","N","N","N","N","N","N","N","N","N","N","N","N","N","N","N","N","N","N","N","N","N","N","N","N","N","N","N","N","N","N","N","N","N","?","?","O","O","O","P","P","P","P","P","P","P","P","P","P","P","P","P","?","?","Q","Q","Q","Q","Q","?","?","?","R","R","R","R","R","R","R","R","R","R","R","R","R","R","R","R","R","R","R","R","R","R","R","R","R","R","?","Q","?","P","O","O","O","N","N","N","?","?","?","M","M","M","M","M","M","M","M","M","?","?","?","?","?","?","?","?","?","?","T","T","T","T","?","?","S","S","S","S","S","S","S","S","S","S","S","S","S","S","S","S","S","S","S","S","S","S","S","S","S","S","S","S","S","S","S","S","S","S","S","S","S","S","S","S","S","S","S","S","S","S","S","S","S","?","T","T","T","?","?","U","U","U","U","U","U","?","?","?","?","T","T","T","T","T","T","T","T","T","T","T","T","T","T","T","T","T","T","T","T","T","T","T","T","T","T","T","T","T","T","T","T","T","T","T","T","T","T","T","T","T","T","T","T","T","T","T","T","T","T","T","T","T","T","T","T","T","T","T","T","T","T","T","T","T","T","T","T","T","T","T","T","T","T","T","T","T","T","T","T","T","T","T","T","T","T","T","T","T","?","?","?","N","?","O","?","P","P","P","P","P","P","P","P","P","P","P","P","P","P","P","P","P","P","P","P","P","P","P","P","P","P","P","P","P","P","P","P","P","P","P","P","P","P","P","P","P","?","Q","Q","?","R","R","R","R","R","R","R","R","R","R","R","R","R","R","R","R","R","R","R","R","R","R","R","R","R","R","R","R","R","R","R","R","R","R","R","R","R","R","R","R","R","R","R","R","R","R","R","R","R","R","R","R","R","R","R","R","R","R","R","R","R","R","R","R","R","R","R","R","R","R","R","R","R","R","R","R","R","R","R","R","R","R","R","R","R","R","R","R","?","?","?","?","?","I","I","I","I","I","I","I","I","I","I","I","I","I","I","I","I","I","I","I","I","I","I","I","I","I","I","I","I","I","I","I","I","I","I","I","I","I","I","I","I","I","I","I","I","I","?","?","Q","P","?","?","?","?","?","?","?","?","?","X","X","X","X","X","X","X","X","?","?","?","?","?","N","N","N","N","N","N","N","N","N","N","N","N","N","N","N","N","N","N","N","N","N","N","N","N","N","N","N","N","N","N","N","N","N","N","N","N","N","N","N","N","N","N","N","N","N","N","N","N","N","N","N","N","N","N","N","N","N","N","N","N","N","N","N","N","N","N","N","N","N","?","O","?","?","?","?","?","?","?","I","I","I","I","I","?","?","?","?","?","?","I","I","I","I","I","I","I","I","I","I","I","I","I","I","I","I","I","I","I","I","I","I","I","I","I","I","I","I","I","I","I","I","I","I","I","I","I","I","I","I","I","I","I","I","I","I","I","I","I","I","I","I","I","I","I","I","I","I","I","I","I","I","I","I","I","I","I","I","I","?","H","H","?","E","?","?","?","A","?","?","?","?","?","?","?","?","?","?","?","?","?","?","?","?","?","?","?","?","?","?","?","?","A","A","A","A","A","A","A","A","A","A","A","A","A","A","A","A","A","A","A","A","A","A","A","A","A","A","A","A","A","A","A","A","A","A","A","A","A","A","A","A","A","A","A","A","A","A","A","A","A","A","A","A","A","A","A","A","A","A","A","A","A","A","A","A","A","A","A","A","A","A","A","A","A","A","A","A","A","A","A","A","A","?","?","J","J","J","?","?","?","?","?","?","?","?","?","?","?","?","?","?","K","?","?","?","?","?","?","?","?","?","?","?","?","?","?","?","?","?","?","?","?","V","W","?","X","X","?","?","?","Y","Y","Y","Y","Y","Y","Y","Y","Y","Y","?","?","?","?","?","Z","Z","Z","Z","Z","Z","Z","Z","Z","Z","Z","Z","Z","Z","Z","Z","Z","Z","Z","Z","Z","Z","Z","Z","Z","Z","Z","Z","Z","Z","Z","Z","Z","Z","Z","Z","Z","Z","Z","Z","Z","Z","Z","Z","Z","Z","Z","Z","?","Y","?","N","M","?","?","?","?","?","B","B","B","B","B","B","B","B","B","B","B","B","B","C","C","C","D","D","D","D","D","D","D","D","D","D","D","D","D","D","D","?","?","?","?","?","E","E","E","E","E","E","E","E","E","E","E","E","E","E","E","E","E","E","E","E","E","E","E","E","E","E","E","?","D","D","D","?","C","C","C","C","C","C","C","C","C","C","C","C","C","C","?","?","?","?","?","B","B","B","B","B","B","B","B","B","B","B","B","B","B","B","B","B","B","B","B","B","B","B","B","B","B","B","B","B","B","B","?","C","?","M","W","?","?","?","?","?","?","?","?","?","?","?","?","?","?","?","?","?","?","?","?","?","?","?","?","?","?","?","?","?","?","?","?","?","?","?","?","?","?","?","?","?","?","?","?","?","?","?","?","?","?","?","?","?","?","?","?","?","?","?","?","?","?","?","?","?","?","?","?","?","?","?","?","?","?","?","?","?","?","?","?","?","?","?","?","?","?","?","?","?","?","?","?","?","?"],"t":[43,82,98,114,130,148,165,210,225,257,277,298,318,331,364,367,382,401,417,433,448,464,483,497,516,533,549,565,580,599,615,632,650,664,684,699,714,734,748,766,783,798,817,831,848,867,882,899,914,933,947,966,981,1001,1016,1032,1049,1065,1083,1099,1116,1135,1151,1168,1185,1201,1219,1233,1249,1266,1282,1301,1315,1333,1350,1367,1382,1399,1416,1433,1450,1466,1483,1498,1518,1532,1550,1568,1584,1599,1617,1632,1648,1667,1684,1702,1718,1732,1751,1766,1785,1799,1815,1836,1849,1868,1886,1900,1919,1933,1950,1970,1982,2001,2018,2032,2049,2065,2081,2100,2115,2132,2149,2166,2182,2199,2213,2233,2249,2265,2283,2299,2315,2332,2348,2366,2382,2398,2416,2432,2449,2466,2482,2499,2516,2534,2548,2566,2581,2598,2618,2631,2651,2668,2684,2701,2719,2733,2753,2767,2781,2797,2814,2831,2849,2865,2882,2899,2916,2936,2948,2971,2985,2999,3019,3031,3049,3065,3081,3099,3116,3132,3149,3165,3182,3198,3214,3233,3250,3266,3286,3301,3317,3334,3350,3369,3384,3399,3416,3431,3447,3465,3482,3498,3516,3532,3551,3565,3583,3599,3614,3632,3648,3665,3681,3697,3714,3730,3748,3766,3783,3800,3818,3833,3850,3866,3883,3899,3915,3932,3950,3965,3981,3999,4014,4033,4048,4064,4082,4098,4114,4131,4147,4165,4180,4197,4215,4230,4247,4265,4280,4299,4316,4334,4351,4365,4382,4398,4415,4434,4450,4466,4486,4499,4519,4534,4548,4569,4584,4601,4619,4634,4650,4666,4683,4703,4717,4737,4752,4765,4781,4797,4814,4831,4848,4868,4882,4900,4919,4933,4949,4969,4983,5002,5016,5031,5049,5064,5081,5097,5114,5133,5147,5168,5184,5200,5215,5235,5249,5267,5281,5298,5317,5330,5348,5366,5383,5401,5415,5434,5451,5467,5484,5501,5515,5533,5550,5567,5584,5600,5617,5632,5650,5666,5681,5699,5715,5732,5749,5766,5783,5801,5815,5832,5849,5866,5884,5901,5917,5931,5949,5966,5983,5999,6015,6035,6053,6067,6082,6100,6116,6135,6149,6164,6181,6201,6216,6231,6248,6266,6283,6300,6316,6336,6351,6366,6383,6399,6415,6430,6449,6466,6484,6499,6516,6533,6549,6565,6581,6597,6614,6633,6649,6664,6682,6699,6715,6732,6749,6766,6783,6799,6818,6834,6851,6867,6882,6901,6915,6932,6949,6965,6982,6999,7014,7032,7049,7065,7082,7099,7115,7131,7148,7165,7181,7197,7214,7231,7247,7264,7283,7298,7314,7332,7347,7365,7382,7398,7414,7431,7449,7465,7481,7498,7515,7533,7548,7565,7582,7599,7616,7632,7649,7665,7682,7699,7714,7731,7749,7764,7784,7797,7814,7832,7849,7865,7882,7898,7915,7932,7950,7966,7982,7999,8016,8034,8048,8065,8083,8099,8116,8132,8150,8168,8183,8201,8217,8233,8249,8266,8285,8300,8316,8331,8348,8366,8382,8398,8417,8433,8452,8467,8483,8500,8516,8533,8548,8565,8581,8597,8616,8632,8649,8666,8682,8699,8716,8732,8748,8765,8782,8798,8815,8833,8848,8865,8881,8900,8916,8933,8958,8968,8980,8999,9017,9032,9049,9065,9082,9099,9115,9131,9149,9165,9182,9199,9214,9232,9249,9267,9282,9299,9315,9331,9348,9365,9382,9398,9415,9432,9449,9465,9482,9499,9515,9532,9549,9567,9584,9600,9617,9634,9651,9665,9681,9699,9715,9732,9749,9765,9781,9798,9815,9832,9848,9865,9881,9898,9916,9933,9948,9968,9983,10002,10017,10035,10049,10065,10081,10098,10115,10131,10147,10164,10181,10197,10218,10238,10255,10268,10281,10318,10346,10364,10380,10398,10413,10430,10447,10463,10480,10497,10513,10530,10547,10564,10580,10602,10614,10635,10646,10663,10680,10697,10715,10731,10746,10763,10780,10798,10815,10831,10847,10864,10881,10897,10916,10932,10949,10964,10981,10998,11015,11030,11048,11065,11080,11099,11115,11132,11148,11164,11180,11198,11214,11230,11247,11264,11280,11297,11314,11330,11350,11366,11383,11399,11415,11431,11447,11465,11480,11497,11513,11530,11547,11564,11583,11600,11614,11632,11648,11664,11681,11697,11714,11731,11746,11765,11781,11797,11814,11831,11848,11865,11881,11898,11915,11931,11947,11965,11981,11998,12015,12031,12048,12065,12081,12098,12115,12132,12148,12165,12181,12198,12213,12231,12248,12265,12281,12298,12314,12331,12348,12365,12381,12398,12415,12432,12449,12465,12482,12498,12515,12531,12548,12565,12581,12596,12614,12632,12647,12664,12682,12698,12716,12732,12749,12764,12781,12797,12814,12831,12847,12864,12880,12897,12915,12930,12947,12966,12982,12998,13015,13031,13047,13064,13082,13098,13114,13130,13147,13164,13181,13199,13213,13230,13247,13265,13281,13298,13314,13331,13349,13365,13381,13398,13415,13431,13447,13464,13481,13498,13515,13531,13547,13565,13583,13597,13615,13631,13648,13664,13681,13698,13715,13731,13747,13765,13781,13798,13814,13831,13848,13865,13881,13898,13914,13931,13946,13963,13981,13998,14015,14032,14048,14065,14082,14099,14115,14131,14148,14165,14181,14198,14214,14231,14248,14264,14281,14298,14316,14331,14347,14366,14382,14397,14414,14431,14448,14464,14480,14497,14515,14531,14547,14566,14582,14598,14614,14631,14648,14665,14680,14697,14714,14731,14747,14764,14781,14797,14813,14832,14846,14865,14882,14898,14914,14931,14948,14965,14982,14998,15014,15031,15048,15065,15082,15098,15115,15131,15147,15164,15181,15198,15213,15231,15248,15265,15281,15298,15315,15331,15349,15365,15381,15398,15415,15432,15448,15465,15481,15498,15515,15531,15547,15565,15581,15598,15615,15631,15648,15664,15681,15698,15715,15732,15748,15765,15782,15798,15814,15831,15848,15864,15882,15897,15916,15932,15948,15965,15982,15998,16014,16035,16048,16064,16081,16097,16114,16132,16148,16165,16180,16197,16214,16232,16249,16264,16281,16298,16315,16331,16348,16365,16381,16398,16415,16431,16449,16465,16481,16499,16516,16533,16548,16566,16583,16597,16615,16630,16647,16663,16680,16698,16715,16730,16749,16766,16782,16799,16815,16831,16848,16864,16881,16897,16913,16930,16948,16964,16982,16999,17015,17032,17050,17066,17083,17098,17115,17132,17148,17163,17180,17197,17214,17231,17249,17265,17281,17298,17315,17331,17348,17365,17382,17398,17414,17430,17447,17465,17481,17498,17515,17531,17548,17565,17582,17598,17615,17631,17647,17664,17680,17697,17715,17730,17746,17764,17782,17797,17815,17832,17846,17865,17882,17897,17915,17931,17947,17965,17980,17998,18015,18032,18048,18066,18083,18099,18116,18133,18150,18166,18181,18199,18215,18231,18247,18265,18281,18298,18315,18333,18349,18366,18383,18399,18416,18432,18448,18465,18482,18498,18515,18531,18547,18563,18581,18600,18616,18633,18648,18664,18682,18698,18714,18731,18748,18764,18781,18797,18814,18831,18848,18864,18881,18899,18916,18933,18949,18965,18981,18997,19014,19030,19049,19065,19080,19098,19115,19130,19147,19166,19183,19200,19214,19231,19249,19265,19282,19299,19314,19330,19347,19366,19380,19397,19414,19431,19449,19470,19481,19499,19516,19532,19549,19565,19582,19599,19615,19632,19648,19664,19681,19698,19715,19731,19748,19765,19781,19798,19815,19831,19848,19863,19881,19898,19915,19931,19947,19966,19982,19999,20016,20031,20048,20065,20081,20098,20115,20132,20147,20164,20182,20199,20220,20232,20249,20265,20282,20299,20313,20330,20347,20363,20380,20397,20413,20430,20447,20464,20481,20497,20514,20530,20546,20563,20580,20598,20614,20630,20647,20664,20680,20697,20713,20731,20747,20764,20780,20797,20813,20830,20847,20863,20879,20897,20913,20933,20948,20965,20982,20997,21013,21030,21048,21065,21081,21099,21115,21131,21148,21165,21181,21199,21214,21231,21247,21265,21282,21298,21315,21332,21348,21365,21382,21398,21414,21432,21448,21469],"hit":[null],"x":[-1.8775510204081634,-1.8775510204081634,-1.8775510204081634,-1.8775510204081634,-1.8775510204081634,-1.8775510204081634,-1.8775510204081634,-1.8775510204081634,-1.8775510204081634,-1.8775510204081634,-1.8775510204081634,-1.8775510204081634,-1.8775510204081634,-1.8775510204081634,-1.8775510204081634,-1.8775510204081634,-1.8775510204081634,-1.8775510204081634,-1.8775510204081634,-1.8775510204081634,-1.8775510204081634,-1.8775510204081634,-1.8775510204081634,-1.8775510204081634,-1.8775510204081634,-1.8775510204081634,-1.8775510204081634,-1.8775510204081634,-1.8775510204081634,-1.8775510204081634,-1.8775510204081634,-1.8775510204081634,-1.8775510204081634,-1.8775510204081634,-1.8775510204081634,-1.8775510204081634,-1.8775510204081634,-1.8775510204081634,-1.8775510204081634,-1.8775510204081634,-1.8775510204081634,-1.8775510204081634,-1.8775510204081634,-1.8775510204081634,-1.8775510204081634,-1.8775510204081634,-1.8775510204081634,-1.8775510204081634,-1.8775510204081634,-1.8775510204081634,-1.8775510204081634,-0.013605442176870748,0.02040816326530612,0.05102040816326531,0.09863945578231292,0.14285714285714285,0.17687074829931973,0.20068027210884354,0.22448979591836735,0.24149659863945577,0.25510204081632654,0.2687074829931973,0.2789115646258503,0.2857142857142857,0.2925170068027211,0.29931972789115646,0.30272108843537415,0.30952380952380953,0.3129251700680272,0.3163265306122449,0.3231292517006803,0.3299319727891156,0.336734693877551,0.336734693877551,0.3401360544217687,0.3401360544217687,0.3401360544217687,0.3401360544217687,0.3401360544217687,0.3401360544217687,0.3401360544217687,0.3401360544217687,0.3401360544217687,0.3401360544217687,0.3401360544217687,0.3401360544217687,0.3401360544217687,0.3401360544217687,0.3401360544217687,0.3401360544217687,0.3401360544217687,0.3401360544217687,0.3401360544217687,0.3401360544217687,0.3401360544217687,0.3401360544217687,0.3401360544217687,0.3401360544217687,0.3401360544217687,0.3469387755102041,0.35714285714285715,0.3979591836734694,0.41836734693877553,0.4421768707482993,0.46598639455782315,0.48299319727891155,0.4965986394557823,0.5102040816326531,0.5204081632653061,0.5272108843537415,0.5374149659863946,0.5408163265306123,0.54421768707483,0.54421768707483,0.54421768707483,0.54421768707483,0.54421768707483,0.54421768707483,0.54421768707483,0.54421768707483,0.54421768707483,0.54421768707483,0.54421768707483,0.54421768707483,0.54421768707483,0.54421768707483,0.54421768707483,0.54421768707483,0.54421768707483,0.54421768707483,0.54421768707483,0.54421768707483,0.54421768707483,0.54421768707483,0.54421768707483,0.54421768707483,0.54421768707483,0.54421768707483,0.54421768707483,0.54421768707483,0.54421768707483,0.54421768707483,0.54421768707483,0.54421768707483,0.54421768707483,0.54421768707483,0.54421768707483,0.54421768707483,0.54421768707483,0.5408163265306123,0.5340136054421769,0.5272108843537415,0.5238095238095238,0.5204081632653061,0.5204081632653061,0.5204081632653061,0.5204081632653061,0.5272108843537415,0.5340136054421769,0.54421768707483,0.5578231292517006,0.5680272108843537,0.5748299319727891,0.5782312925170068,0.5816326530612245,0.5850340136054422,0.5850340136054422,0.5850340136054422,0.5850340136054422,0.5850340136054422,0.5816326530612245,0.5748299319727891,0.5748299319727891,0.5748299319727891,0.5714285714285714,0.5714285714285714,0.5714285714285714,0.5714285714285714,0.5714285714285714,0.5714285714285714,0.5714285714285714,0.5714285714285714,0.5714285714285714,0.5714285714285714,0.5714285714285714,0.5714285714285714,0.5714285714285714,0.5714285714285714,0.5714285714285714,0.5714285714285714,0.5714285714285714,0.5748299319727891,0.5782312925170068,0.5850340136054422,0.5918367346938775,0.5952380952380952,0.6020408163265306,0.6122448979591837,0.6190476190476191,0.6224489795918368,0.6258503401360545,0.6258503401360545,0.6258503401360545,0.6258503401360545,0.6258503401360545,0.6258503401360545,0.6258503401360545,0.6292517006802721,0.6360544217687075,0.6496598639455783,0.6768707482993197,0.717687074829932,0.7619047619047619,0.8299319727891157,0.8537414965986394,0.8741496598639455,0.8877551020408163,0.891156462585034,0.8945578231292517,0.8979591836734694,0.8979591836734694,0.8979591836734694,0.8979591836734694,0.9013605442176871,0.9013605442176871,0.9081632653061225,0.9183673469387755,0.9319727891156463,0.9489795918367347,0.9693877551020408,0.9965986394557823,1.0136054421768708,1.0374149659863945,1.0578231292517006,1.0714285714285714,1.0850340136054422,1.0952380952380953,1.1020408163265305,1.1088435374149659,1.1122448979591837,1.1156462585034013,1.119047619047619,1.1224489795918366,1.1258503401360545,1.129251700680272,1.129251700680272,1.1326530612244898,1.1326530612244898,1.1326530612244898,1.1326530612244898,1.1326530612244898,1.1326530612244898,1.1326530612244898,1.1326530612244898,1.1326530612244898,1.1326530612244898,1.1326530612244898,1.1326530612244898,1.1326530612244898,1.1326530612244898,1.1258503401360545,1.1054421768707483,1.0748299319727892,0.9863945578231292,0.9217687074829932,0.8469387755102041,0.7687074829931972,0.7210884353741497,0.6632653061224489,0.6156462585034014,0.5680272108843537,0.5306122448979592,0.5102040816326531,0.4931972789115646,0.48299319727891155,0.47959183673469385,0.47959183673469385,0.47619047619047616,0.47619047619047616,0.46258503401360546,0.4489795918367347,0.4387755102040816,0.41496598639455784,0.391156462585034,0.3707482993197279,0.35034013605442177,0.3333333333333333,0.3197278911564626,0.30272108843537415,0.2857142857142857,0.2687074829931973,0.24829931972789115,0.22789115646258504,0.20408163265306123,0.1836734693877551,0.14285714285714285,0.11564625850340136,0.09863945578231292,0.07482993197278912,0.06802721088435375,0.047619047619047616,0.04081632653061224,0.03741496598639456,0.03741496598639456,0.034013605442176874,0.034013605442176874,0.034013605442176874,0.034013605442176874,0.034013605442176874,0.034013605442176874,0.034013605442176874,0.034013605442176874,0.030612244897959183,0.030612244897959183,0.030612244897959183,0.030612244897959183,0.030612244897959183,0.030612244897959183,0.030612244897959183,0.030612244897959183,0.030612244897959183,0.030612244897959183,0.030612244897959183,0.030612244897959183,0.030612244897959183,0.030612244897959183,0.030612244897959183,0.030612244897959183,0.030612244897959183,0.030612244897959183,0.030612244897959183,0.030612244897959183,0.030612244897959183,0.030612244897959183,0.030612244897959183,0.030612244897959183,0.030612244897959183,0.030612244897959183,0.030612244897959183,0.030612244897959183,0.030612244897959183,0.030612244897959183,0.030612244897959183,0.030612244897959183,0.030612244897959183,0.030612244897959183,0.030612244897959183,0.030612244897959183,0.04421768707482993,0.06462585034013606,0.08843537414965986,0.13945578231292516,0.19047619047619047,0.21768707482993196,0.23809523809523808,0.24829931972789115,0.25170068027210885,0.25510204081632654,0.25510204081632654,0.25170068027210885,0.24149659863945577,0.23469387755102042,0.22108843537414966,0.2108843537414966,0.20068027210884354,0.19387755102040816,0.1836734693877551,0.18027210884353742,0.17346938775510204,0.16666666666666666,0.16326530612244897,0.1598639455782313,0.1564625850340136,0.1564625850340136,0.15306122448979592,0.15306122448979592,0.15306122448979592,0.15306122448979592,0.15306122448979592,0.15306122448979592,0.15306122448979592,0.15306122448979592,0.15306122448979592,0.15306122448979592,0.15306122448979592,0.15306122448979592,0.15306122448979592,0.15306122448979592,0.15306122448979592,0.15306122448979592,0.15306122448979592,0.15306122448979592,0.15306122448979592,0.15306122448979592,0.15306122448979592,0.15306122448979592,0.15306122448979592,0.15306122448979592,0.15306122448979592,0.15306122448979592,0.15306122448979592,0.15306122448979592,0.15306122448979592,0.15306122448979592,0.15306122448979592,0.15306122448979592,0.15306122448979592,0.15306122448979592,0.15306122448979592,0.15306122448979592,0.15306122448979592,0.15306122448979592,0.15306122448979592,0.15306122448979592,0.15306122448979592,0.15306122448979592,0.15306122448979592,0.15306122448979592,0.15306122448979592,0.15306122448979592,0.15306122448979592,0.15306122448979592,0.15306122448979592,0.15306122448979592,0.15306122448979592,0.15306122448979592,0.15306122448979592,0.15306122448979592,0.15306122448979592,0.15306122448979592,0.15306122448979592,0.15306122448979592,0.15306122448979592,0.15306122448979592,0.15306122448979592,0.15306122448979592,0.15306122448979592,0.15306122448979592,0.15306122448979592,0.15306122448979592,0.15306122448979592,0.15306122448979592,0.15306122448979592,0.15306122448979592,0.15306122448979592,0.15306122448979592,0.15306122448979592,0.15306122448979592,0.15306122448979592,0.15306122448979592,0.15306122448979592,0.15306122448979592,0.15306122448979592,0.16666666666666666,0.19387755102040816,0.23809523809523808,0.3469387755102041,0.5374149659863946,0.6564625850340136,0.7312925170068028,0.7789115646258503,0.8163265306122449,0.8163265306122449,0.8163265306122449,0.8163265306122449,0.8163265306122449,0.8163265306122449,0.8163265306122449,0.8163265306122449,0.8163265306122449,0.8163265306122449,0.8163265306122449,0.8163265306122449,0.8163265306122449,0.8163265306122449,0.8163265306122449,0.8163265306122449,0.8163265306122449,0.8163265306122449,0.8163265306122449,0.8163265306122449,0.8163265306122449,0.8163265306122449,0.8197278911564626,0.8231292517006803,0.826530612244898,0.826530612244898,0.8299319727891157,0.8333333333333334,0.8333333333333334,0.8367346938775511,0.8367346938775511,0.8367346938775511,0.8367346938775511,0.8367346938775511,0.8367346938775511,0.8401360544217688,0.8435374149659864,0.8503401360544217,0.8571428571428571,0.8775510204081632,0.8979591836734694,0.9319727891156463,0.9693877551020408,1.0136054421768708,1.0816326530612246,1.1054421768707483,1.129251700680272,1.1394557823129252,1.1462585034013606,1.1496598639455782,1.1496598639455782,1.1496598639455782,1.1496598639455782,1.1496598639455782,1.1462585034013606,1.1462585034013606,1.1462585034013606,1.1428571428571428,1.1394557823129252,1.1360544217687074,1.1326530612244898,1.1326530612244898,1.1326530612244898,1.1326530612244898,1.1326530612244898,1.1326530612244898,1.1326530612244898,1.1326530612244898,1.1326530612244898,1.1326530612244898,1.1326530612244898,1.1326530612244898,1.1326530612244898,1.1326530612244898,1.1326530612244898,1.1326530612244898,1.1326530612244898,1.1326530612244898,1.1326530612244898,1.1326530612244898,1.1326530612244898,1.1326530612244898,1.1326530612244898,1.1326530612244898,1.1326530612244898,1.1326530612244898,1.1326530612244898,1.1326530612244898,1.1326530612244898,1.1326530612244898,1.1326530612244898,1.1326530612244898,1.1326530612244898,1.1326530612244898,1.1326530612244898,1.1326530612244898,1.1326530612244898,1.1326530612244898,1.1326530612244898,1.1326530612244898,1.1326530612244898,1.1326530612244898,1.1326530612244898,1.1326530612244898,1.1326530612244898,1.1326530612244898,1.1326530612244898,1.1326530612244898,1.1326530612244898,1.1326530612244898,1.1326530612244898,1.1326530612244898,1.1326530612244898,1.1326530612244898,1.1326530612244898,1.1326530612244898,1.1326530612244898,1.1326530612244898,1.1326530612244898,1.1326530612244898,1.1326530612244898,1.1326530612244898,1.1326530612244898,1.1326530612244898,1.1326530612244898,1.1326530612244898,1.1326530612244898,1.1326530612244898,1.1326530612244898,1.1326530612244898,1.1326530612244898,1.129251700680272,1.129251700680272,1.1258503401360545,1.1224489795918366,1.1224489795918366,1.119047619047619,1.119047619047619,1.1156462585034013,1.1156462585034013,1.1156462585034013,1.1156462585034013,1.1156462585034013,1.1156462585034013,1.1156462585034013,1.1156462585034013,1.1156462585034013,1.1156462585034013,1.1156462585034013,1.1156462585034013,1.1156462585034013,1.1156462585034013,1.1156462585034013,1.1156462585034013,1.1156462585034013,1.1156462585034013,1.1156462585034013,1.1156462585034013,1.1156462585034013,1.1156462585034013,1.1156462585034013,1.1156462585034013,1.1156462585034013,1.1156462585034013,1.1156462585034013,1.1156462585034013,1.1156462585034013,1.1156462585034013,1.1156462585034013,1.1156462585034013,1.1156462585034013,1.1156462585034013,1.1156462585034013,1.1156462585034013,1.1156462585034013,1.1156462585034013,1.1156462585034013,1.1156462585034013,1.1156462585034013,1.1156462585034013,1.1156462585034013,1.1088435374149659,1.0952380952380953,1.0612244897959184,1.0170068027210883,0.9625850340136054,0.891156462585034,0.8469387755102041,0.8231292517006803,0.8027210884353742,0.7925170068027211,0.7857142857142857,0.782312925170068,0.7789115646258503,0.7755102040816326,0.7687074829931972,0.7619047619047619,0.7551020408163265,0.7482993197278912,0.7380952380952381,0.7346938775510204,0.7142857142857143,0.6938775510204082,0.6802721088435374,0.6496598639455783,0.6326530612244898,0.6190476190476191,0.6054421768707483,0.5952380952380952,0.5850340136054422,0.5782312925170068,0.5748299319727891,0.5714285714285714,0.5680272108843537,0.5680272108843537,0.564625850340136,0.564625850340136,0.564625850340136,0.564625850340136,0.564625850340136,0.564625850340136,0.564625850340136,0.564625850340136,0.564625850340136,0.564625850340136,0.564625850340136,0.564625850340136,0.564625850340136,0.564625850340136,0.564625850340136,0.564625850340136,0.564625850340136,0.564625850340136,0.564625850340136,0.564625850340136,0.564625850340136,0.564625850340136,0.564625850340136,0.564625850340136,0.564625850340136,0.564625850340136,0.564625850340136,0.564625850340136,0.564625850340136,0.564625850340136,0.564625850340136,0.564625850340136,0.564625850340136,0.564625850340136,0.564625850340136,0.564625850340136,0.564625850340136,0.564625850340136,0.564625850340136,0.564625850340136,0.564625850340136,0.564625850340136,0.564625850340136,0.564625850340136,0.564625850340136,0.564625850340136,0.564625850340136,0.564625850340136,0.564625850340136,0.564625850340136,0.564625850340136,0.564625850340136,0.564625850340136,0.564625850340136,0.564625850340136,0.564625850340136,0.564625850340136,0.564625850340136,0.564625850340136,0.564625850340136,0.564625850340136,0.5816326530612245,0.6122448979591837,0.6530612244897959,0.7244897959183674,0.8061224489795918,0.8605442176870748,0.9183673469387755,0.9727891156462585,1.0204081632653061,1.0578231292517006,1.1020408163265305,1.1224489795918366,1.1496598639455782,1.1666666666666667,1.1802721088435375,1.1870748299319729,1.1938775510204083,1.1938775510204083,1.1972789115646258,1.1972789115646258,1.1972789115646258,1.1972789115646258,1.1972789115646258,1.1904761904761905,1.1802721088435375,1.1564625850340136,1.1428571428571428,1.1326530612244898,1.1224489795918366,1.119047619047619,1.1156462585034013,1.1122448979591837,1.1088435374149659,1.1088435374149659,1.1088435374149659,1.1088435374149659,1.1088435374149659,1.1088435374149659,1.1088435374149659,1.1088435374149659,1.1088435374149659,1.1088435374149659,1.1088435374149659,1.1088435374149659,1.1088435374149659,1.1088435374149659,1.1088435374149659,1.1088435374149659,1.1088435374149659,1.1088435374149659,1.1088435374149659,1.1088435374149659,1.1088435374149659,1.1088435374149659,1.1088435374149659,1.1088435374149659,1.1088435374149659,1.1088435374149659,1.1088435374149659,1.1088435374149659,1.1088435374149659,1.1088435374149659,1.1088435374149659,1.1088435374149659,1.1088435374149659,1.1088435374149659,1.1088435374149659,1.1088435374149659,1.1088435374149659,1.1088435374149659,1.1088435374149659,1.1088435374149659,1.1088435374149659,1.1088435374149659,1.1088435374149659,1.1088435374149659,1.1088435374149659,1.1088435374149659,1.1088435374149659,1.1088435374149659,1.1088435374149659,1.1088435374149659,1.1088435374149659,1.1088435374149659,1.1088435374149659,1.1088435374149659,1.1088435374149659,1.1088435374149659,1.1088435374149659,1.1088435374149659,1.098639455782313,1.0748299319727892,1.034013605442177,0.9625850340136054,0.7925170068027211,0.5714285714285714,0.35034013605442177,0.20748299319727892,0.05102040816326531,-0.02040816326530612,-0.06802721088435375,-0.09183673469387756,-0.09183673469387756,-0.09183673469387756,-0.09183673469387756,-0.09183673469387756,-0.09183673469387756,-0.09183673469387756,-0.09183673469387756,-0.09183673469387756,-0.09183673469387756,-0.09183673469387756,-0.09183673469387756,-0.09523809523809523,-0.1054421768707483,-0.10884353741496598,-0.11224489795918367,-0.11224489795918367,-0.11224489795918367,-0.11224489795918367,-0.10204081632653061,-0.08503401360544217,-0.0782312925170068,-0.061224489795918366,-0.05442176870748299,-0.05102040816326531,-0.04421768707482993,-0.04081632653061224,-0.03741496598639456,-0.030612244897959183,-0.023809523809523808,-0.013605442176870748,-0.006802721088435374,-0.003401360544217687,0,0.003401360544217687,0.003401360544217687,0.003401360544217687,0.003401360544217687,0.003401360544217687,0.003401360544217687,0.003401360544217687,0.003401360544217687,0.003401360544217687,0.003401360544217687,0.003401360544217687,0.003401360544217687,0.003401360544217687,0.003401360544217687,0.003401360544217687,0.003401360544217687,0.003401360544217687,0.003401360544217687,0.003401360544217687,0.003401360544217687,0.003401360544217687,0.003401360544217687,0.003401360544217687,0.003401360544217687,0.003401360544217687,0.003401360544217687,0.003401360544217687,0.003401360544217687,0.003401360544217687,0.003401360544217687,0.003401360544217687,0.003401360544217687,0.003401360544217687,0.003401360544217687,0.003401360544217687,0.003401360544217687,0.003401360544217687,0.003401360544217687,0.003401360544217687,0.003401360544217687,0.003401360544217687,0.003401360544217687,0.003401360544217687,0.003401360544217687,0.003401360544217687,0.003401360544217687,0.003401360544217687,0.003401360544217687,0.003401360544217687,0.003401360544217687,0.003401360544217687,0.003401360544217687,0.003401360544217687,0.003401360544217687,0.003401360544217687,0.003401360544217687,0.003401360544217687,0.003401360544217687,0.003401360544217687,0.003401360544217687,0.003401360544217687,0.003401360544217687,0.003401360544217687,0.003401360544217687,0.003401360544217687,0.003401360544217687,0.003401360544217687,0.003401360544217687,0.003401360544217687,0.003401360544217687,0.003401360544217687,0.003401360544217687,0.013605442176870748,0.02040816326530612,0.030612244897959183,0.034013605442176874,0.04081632653061224,0.04421768707482993,0.04421768707482993,0.05102040816326531,0.05442176870748299,0.05782312925170068,0.061224489795918366,0.06462585034013606,0.07142857142857142,0.0782312925170068,0.08843537414965986,0.10204081632653061,0.12244897959183673,0.14285714285714285,0.16326530612244897,0.19047619047619047,0.20748299319727892,0.22448979591836735,0.22789115646258504,0.22789115646258504,0.22789115646258504,0.22789115646258504,0.22789115646258504,0.22789115646258504,0.22789115646258504,0.22789115646258504,0.22789115646258504,0.22789115646258504,0.22789115646258504,0.22789115646258504,0.22789115646258504,0.2585034013605442,0.30272108843537415,0.36394557823129253,0.47278911564625853,0.5782312925170068,0.6394557823129252,0.7006802721088435,0.7448979591836735,0.7687074829931972,0.7925170068027211,0.8163265306122449,0.826530612244898,0.8367346938775511,0.8469387755102041,0.8537414965986394,0.8571428571428571,0.8605442176870748,0.8673469387755102,0.8707482993197279,0.8809523809523809,0.891156462585034,0.9013605442176871,0.9115646258503401,0.9217687074829932,0.9319727891156463,0.9421768707482994,0.9523809523809523,0.9591836734693877,0.9625850340136054,0.9625850340136054,0.9659863945578231,0.9693877551020408,0.9693877551020408,0.9727891156462585,0.9761904761904762,0.9795918367346939,0.9829931972789115,0.9863945578231292,0.9863945578231292,0.9863945578231292,0.9863945578231292,0.9863945578231292,0.9863945578231292,0.9863945578231292,0.9863945578231292,0.9863945578231292,0.9863945578231292,0.9863945578231292,0.9863945578231292,0.9863945578231292,0.9863945578231292,0.9863945578231292,0.9863945578231292,0.9863945578231292,0.9863945578231292,0.9863945578231292,0.9863945578231292,0.9863945578231292,0.9863945578231292,0.9863945578231292,0.9863945578231292,0.9863945578231292,0.9863945578231292,0.9863945578231292,0.9863945578231292,0.9863945578231292,0.9863945578231292,0.9863945578231292,0.9863945578231292,0.9863945578231292,0.9863945578231292,0.9863945578231292,0.9863945578231292,0.9659863945578231,0.9183673469387755,0.8639455782312925,0.7312925170068028,0.6122448979591837,0.45918367346938777,0.3673469387755102,0.282312925170068,0.23809523809523808,0.20408163265306123,0.1870748299319728,0.17687074829931973,0.17346938775510204,0.17346938775510204,0.17006802721088435,0.16666666666666666,0.16326530612244897,0.1598639455782313,0.1598639455782313,0.1598639455782313,0.1598639455782313,0.1598639455782313,0.17006802721088435,0.19727891156462585,0.23129251700680273,0.282312925170068,0.3333333333333333,0.3843537414965986,0.4217687074829932,0.4421768707482993,0.45918367346938777,0.46938775510204084,0.46938775510204084,0.47278911564625853,0.47278911564625853,0.47278911564625853,0.47619047619047616,0.47959183673469385,0.48299319727891155,0.48299319727891155,0.48639455782312924,0.48639455782312924,0.4897959183673469,0.4897959183673469,0.4931972789115646,0.5,0.5102040816326531,0.5238095238095238,0.5374149659863946,0.5544217687074829,0.5714285714285714,0.5748299319727891,0.5782312925170068,0.5782312925170068,0.5782312925170068,0.5782312925170068,0.5782312925170068,0.5782312925170068,0.5782312925170068,0.5782312925170068,0.5782312925170068,0.5782312925170068,0.5782312925170068,0.5782312925170068,0.5782312925170068,0.5782312925170068,0.5782312925170068,0.5782312925170068,0.5782312925170068,0.5782312925170068,0.5782312925170068,0.5782312925170068,0.5782312925170068,0.5476190476190477,0.5,0.46598639455782315,0.43197278911564624,0.40816326530612246,0.36394557823129253,0.336734693877551,0.3129251700680272,0.29931972789115646,0.2857142857142857,0.2789115646258503,0.272108843537415,0.2687074829931973,0.2653061224489796,0.2653061224489796,0.2585034013605442,0.25510204081632654,0.25170068027210885,0.24149659863945577,0.23469387755102042,0.22448979591836735,0.21768707482993196,0.21428571428571427,0.20748299319727892,0.20748299319727892,0.20068027210884354,0.20068027210884354,0.20068027210884354,0.20068027210884354,0.20068027210884354,0.20068027210884354,0.20068027210884354,0.20068027210884354,0.20068027210884354,0.20068027210884354,0.20068027210884354,0.20068027210884354,0.20068027210884354,0.20068027210884354,0.20068027210884354,0.20068027210884354,0.20068027210884354,0.20068027210884354,0.20068027210884354,0.20068027210884354,0.20068027210884354,0.20068027210884354,0.20068027210884354,0.20068027210884354,0.20068027210884354,0.20068027210884354,0.20068027210884354,0.20068027210884354,0.20068027210884354,0.20068027210884354,0.20068027210884354,0.21428571428571427,0.2755102040816326,0.3333333333333333,0.43537414965986393,0.5714285714285714,0.6564625850340136,0.717687074829932,0.7687074829931972,0.7789115646258503,0.7789115646258503,0.7789115646258503,0.7789115646258503,0.7789115646258503,0.7789115646258503,0.7789115646258503,0.7789115646258503,0.7789115646258503,0.7789115646258503,0.7789115646258503,0.7789115646258503,0.7789115646258503,0.7789115646258503,0.7789115646258503,0.7789115646258503,0.7789115646258503,0.7789115646258503,0.7789115646258503,0.7789115646258503,0.7789115646258503,0.7789115646258503,0.7789115646258503,0.7789115646258503,0.7789115646258503,0.7789115646258503,0.7789115646258503,0.7789115646258503,0.7789115646258503,0.7789115646258503,0.7789115646258503,0.7789115646258503,0.7789115646258503,0.7789115646258503,0.7789115646258503,0.7789115646258503,0.7789115646258503,0.7789115646258503,0.7789115646258503,0.7789115646258503,0.7789115646258503,0.7789115646258503,0.7789115646258503,0.7789115646258503,0.7789115646258503,0.7789115646258503,0.7789115646258503,0.7789115646258503,0.7789115646258503,0.7789115646258503,0.7789115646258503,0.7789115646258503,0.7789115646258503,0.7789115646258503,0.7789115646258503,0.7789115646258503,0.7789115646258503,0.7789115646258503,0.7789115646258503,0.7789115646258503,0.7789115646258503,0.7789115646258503,0.7789115646258503,0.7789115646258503,0.7789115646258503,0.7789115646258503,0.7789115646258503,0.7789115646258503,0.7789115646258503,0.7789115646258503,0.7789115646258503,0.7789115646258503,0.7789115646258503,0.7789115646258503,0.7789115646258503,0.7789115646258503,0.7789115646258503,0.7789115646258503,0.7789115646258503,0.7789115646258503,0.7789115646258503,0.7789115646258503,0.7789115646258503,0.7789115646258503,0.7789115646258503,0.7789115646258503,0.7789115646258503,0.7789115646258503,0.7789115646258503,0.7789115646258503,0.7789115646258503],"y":[-3.5714285714285716,-3.5714285714285716,-3.5714285714285716,-3.5714285714285716,-3.5714285714285716,-3.5714285714285716,-3.5714285714285716,-3.5714285714285716,-3.5714285714285716,-3.5714285714285716,-3.5714285714285716,-3.5714285714285716,-3.5714285714285716,-3.5714285714285716,-3.5714285714285716,-3.5714285714285716,-3.5714285714285716,-3.5714285714285716,-3.5714285714285716,-3.5714285714285716,-3.5714285714285716,-3.5714285714285716,-3.5714285714285716,-3.5714285714285716,-3.5714285714285716,-3.5714285714285716,-3.5714285714285716,-3.5714285714285716,-3.5714285714285716,-3.5714285714285716,-3.5714285714285716,-3.5714285714285716,-3.5714285714285716,-3.5714285714285716,-3.5714285714285716,-3.5714285714285716,-3.5714285714285716,-3.5714285714285716,-3.5714285714285716,-3.5714285714285716,-3.5714285714285716,-3.5714285714285716,-3.5714285714285716,-3.5714285714285716,-3.5714285714285716,-3.5714285714285716,-3.5714285714285716,-3.5714285714285716,-3.5714285714285716,-3.5714285714285716,-3.5714285714285716,0.7476190476190476,0.6904761904761905,0.6333333333333333,0.5476190476190477,0.4714285714285714,0.43333333333333335,0.4142857142857143,0.3952380952380952,0.3952380952380952,0.3952380952380952,0.3952380952380952,0.3952380952380952,0.3952380952380952,0.3952380952380952,0.3952380952380952,0.3952380952380952,0.3952380952380952,0.3952380952380952,0.40476190476190477,0.4142857142857143,0.4238095238095238,0.43333333333333335,0.44285714285714284,0.44285714285714284,0.44285714285714284,0.44285714285714284,0.44285714285714284,0.44285714285714284,0.44285714285714284,0.44285714285714284,0.44285714285714284,0.44285714285714284,0.44285714285714284,0.44285714285714284,0.44285714285714284,0.44285714285714284,0.44285714285714284,0.44285714285714284,0.44285714285714284,0.44285714285714284,0.44285714285714284,0.44285714285714284,0.44285714285714284,0.44285714285714284,0.44285714285714284,0.44285714285714284,0.44285714285714284,0.44285714285714284,0.44285714285714284,0.44285714285714284,0.4238095238095238,0.4238095238095238,0.4142857142857143,0.4142857142857143,0.4238095238095238,0.4523809523809524,0.4714285714285714,0.5,0.5190476190476191,0.5476190476190477,0.5476190476190477,0.5571428571428572,0.5571428571428572,0.5571428571428572,0.5571428571428572,0.5571428571428572,0.5571428571428572,0.5571428571428572,0.5571428571428572,0.5571428571428572,0.5571428571428572,0.5571428571428572,0.5571428571428572,0.5571428571428572,0.5571428571428572,0.5571428571428572,0.5571428571428572,0.5571428571428572,0.5571428571428572,0.5571428571428572,0.5571428571428572,0.5571428571428572,0.5571428571428572,0.5571428571428572,0.5571428571428572,0.5571428571428572,0.5571428571428572,0.5571428571428572,0.5571428571428572,0.5571428571428572,0.5571428571428572,0.5571428571428572,0.5571428571428572,0.5571428571428572,0.5571428571428572,0.5571428571428572,0.5571428571428572,0.5571428571428572,0.5857142857142857,0.6333333333333333,0.680952380952381,0.7285714285714285,0.7666666666666667,0.7952380952380952,0.8142857142857143,0.8238095238095238,0.8238095238095238,0.8238095238095238,0.8238095238095238,0.7857142857142857,0.7476190476190476,0.7095238095238096,0.6619047619047619,0.6142857142857143,0.5857142857142857,0.5476190476190477,0.5285714285714286,0.5095238095238095,0.5,0.48095238095238096,0.46190476190476193,0.4523809523809524,0.44285714285714284,0.44285714285714284,0.43333333333333335,0.43333333333333335,0.43333333333333335,0.43333333333333335,0.43333333333333335,0.43333333333333335,0.43333333333333335,0.43333333333333335,0.43333333333333335,0.43333333333333335,0.43333333333333335,0.43333333333333335,0.43333333333333335,0.43333333333333335,0.43333333333333335,0.43333333333333335,0.44285714285714284,0.4523809523809524,0.46190476190476193,0.4714285714285714,0.48095238095238096,0.49047619047619045,0.49047619047619045,0.5,0.5,0.5,0.5,0.5,0.5,0.5,0.5,0.5,0.5,0.5,0.5,0.5,0.5,0.49047619047619045,0.46190476190476193,0.4523809523809524,0.44285714285714284,0.44285714285714284,0.44285714285714284,0.44285714285714284,0.44285714285714284,0.44285714285714284,0.44285714285714284,0.44285714285714284,0.4523809523809524,0.46190476190476193,0.4714285714285714,0.49047619047619045,0.5,0.5095238095238095,0.5095238095238095,0.5,0.49047619047619045,0.46190476190476193,0.44285714285714284,0.4238095238095238,0.4142857142857143,0.40476190476190477,0.3952380952380952,0.3952380952380952,0.38571428571428573,0.38571428571428573,0.38571428571428573,0.38571428571428573,0.38571428571428573,0.38571428571428573,0.38571428571428573,0.38571428571428573,0.38571428571428573,0.3952380952380952,0.40476190476190477,0.40476190476190477,0.4142857142857143,0.4142857142857143,0.4238095238095238,0.4238095238095238,0.4238095238095238,0.4238095238095238,0.4238095238095238,0.4238095238095238,0.43333333333333335,0.43333333333333335,0.44285714285714284,0.4523809523809524,0.49047619047619045,0.5095238095238095,0.5190476190476191,0.5190476190476191,0.5190476190476191,0.5,0.4714285714285714,0.4523809523809524,0.44285714285714284,0.43333333333333335,0.4238095238095238,0.4238095238095238,0.4238095238095238,0.4238095238095238,0.4238095238095238,0.4238095238095238,0.4523809523809524,0.4714285714285714,0.5,0.5285714285714286,0.5666666666666667,0.5952380952380952,0.6333333333333333,0.6619047619047619,0.7,0.7285714285714285,0.7761904761904762,0.8047619047619048,0.8428571428571429,0.8809523809523809,0.9095238095238095,0.9380952380952381,0.9666666666666667,0.9857142857142858,0.9952380952380953,1.0047619047619047,1.0142857142857142,1.0238095238095237,1.0238095238095237,1.0238095238095237,1.0238095238095237,1.0238095238095237,1.0238095238095237,1.0238095238095237,1.0238095238095237,1.0238095238095237,1.0238095238095237,1.0238095238095237,1.0238095238095237,1.0238095238095237,1.0238095238095237,1.0238095238095237,1.0238095238095237,1.0238095238095237,1.0238095238095237,1.0238095238095237,1.0238095238095237,1.0238095238095237,1.0238095238095237,1.0238095238095237,1.0238095238095237,1.0238095238095237,1.0238095238095237,1.0238095238095237,1.0238095238095237,1.0238095238095237,1.0238095238095237,1.0238095238095237,1.0238095238095237,1.0238095238095237,1.0238095238095237,1.0238095238095237,1.0238095238095237,1.0238095238095237,1.0238095238095237,1.0238095238095237,1.0238095238095237,1.0238095238095237,1.0238095238095237,1.0238095238095237,1.0238095238095237,1.0238095238095237,1.0238095238095237,1.0238095238095237,1.0238095238095237,1.0142857142857142,0.9857142857142858,0.9666666666666667,0.9285714285714286,0.9095238095238095,0.9,0.9,0.9,0.9,0.9,0.9,0.9,0.9,0.9,0.9095238095238095,0.9095238095238095,0.919047619047619,0.919047619047619,0.9285714285714286,0.9285714285714286,0.9380952380952381,0.9380952380952381,0.9380952380952381,0.9476190476190476,0.9476190476190476,0.9476190476190476,0.9476190476190476,0.9476190476190476,0.9476190476190476,0.9476190476190476,0.9476190476190476,0.9476190476190476,0.9476190476190476,0.9476190476190476,0.9476190476190476,0.9476190476190476,0.9476190476190476,0.9476190476190476,0.9476190476190476,0.9476190476190476,0.9476190476190476,0.9476190476190476,0.9476190476190476,0.9476190476190476,0.9476190476190476,0.9476190476190476,0.9476190476190476,0.9476190476190476,0.9476190476190476,0.9476190476190476,0.9476190476190476,0.9476190476190476,0.9476190476190476,0.9476190476190476,0.9476190476190476,0.9476190476190476,0.9476190476190476,0.9476190476190476,0.9476190476190476,0.9476190476190476,0.9476190476190476,0.9476190476190476,0.9476190476190476,0.9476190476190476,0.9476190476190476,0.9476190476190476,0.9476190476190476,0.9476190476190476,0.9476190476190476,0.9476190476190476,0.9476190476190476,0.9476190476190476,0.9476190476190476,0.9476190476190476,0.9476190476190476,0.9476190476190476,0.9476190476190476,0.9476190476190476,0.9476190476190476,0.9476190476190476,0.9476190476190476,0.9476190476190476,0.9476190476190476,0.9476190476190476,0.9476190476190476,0.9476190476190476,0.9476190476190476,0.9476190476190476,0.9476190476190476,0.9476190476190476,0.9476190476190476,0.9476190476190476,0.9476190476190476,0.9476190476190476,0.9476190476190476,0.9476190476190476,0.9476190476190476,0.9476190476190476,0.9476190476190476,0.9476190476190476,0.9476190476190476,0.9476190476190476,0.9476190476190476,0.9476190476190476,0.9476190476190476,0.9285714285714286,0.8904761904761904,0.8333333333333334,0.7285714285714285,0.6047619047619047,0.5857142857142857,0.5857142857142857,0.5857142857142857,0.5857142857142857,0.5857142857142857,0.5857142857142857,0.5857142857142857,0.5857142857142857,0.5857142857142857,0.5857142857142857,0.5857142857142857,0.5857142857142857,0.5857142857142857,0.5857142857142857,0.5857142857142857,0.5857142857142857,0.5857142857142857,0.5857142857142857,0.5857142857142857,0.5857142857142857,0.5857142857142857,0.5857142857142857,0.5857142857142857,0.5857142857142857,0.5857142857142857,0.5857142857142857,0.5857142857142857,0.5857142857142857,0.5666666666666667,0.5476190476190477,0.5285714285714286,0.5095238095238095,0.5,0.5,0.5,0.5,0.5,0.49047619047619045,0.49047619047619045,0.49047619047619045,0.49047619047619045,0.48095238095238096,0.48095238095238096,0.48095238095238096,0.48095238095238096,0.48095238095238096,0.5,0.5095238095238095,0.5095238095238095,0.5095238095238095,0.5095238095238095,0.5095238095238095,0.5095238095238095,0.5095238095238095,0.5095238095238095,0.5095238095238095,0.5095238095238095,0.5095238095238095,0.5095238095238095,0.5095238095238095,0.5095238095238095,0.5095238095238095,0.5095238095238095,0.5095238095238095,0.5095238095238095,0.5095238095238095,0.5095238095238095,0.5095238095238095,0.5095238095238095,0.5095238095238095,0.5095238095238095,0.5095238095238095,0.5095238095238095,0.5095238095238095,0.5095238095238095,0.5095238095238095,0.5095238095238095,0.5095238095238095,0.5095238095238095,0.5095238095238095,0.5095238095238095,0.5095238095238095,0.5095238095238095,0.5095238095238095,0.5095238095238095,0.5095238095238095,0.5095238095238095,0.5095238095238095,0.5095238095238095,0.5095238095238095,0.5095238095238095,0.5095238095238095,0.5095238095238095,0.5095238095238095,0.5095238095238095,0.5095238095238095,0.5095238095238095,0.5095238095238095,0.5095238095238095,0.5095238095238095,0.5095238095238095,0.5095238095238095,0.5095238095238095,0.5095238095238095,0.5095238095238095,0.5095238095238095,0.5095238095238095,0.5095238095238095,0.5095238095238095,0.5095238095238095,0.5095238095238095,0.5095238095238095,0.5095238095238095,0.5095238095238095,0.5095238095238095,0.5095238095238095,0.5095238095238095,0.5095238095238095,0.5095238095238095,0.5095238095238095,0.5095238095238095,0.5095238095238095,0.5095238095238095,0.5095238095238095,0.5095238095238095,0.5095238095238095,0.5095238095238095,0.5095238095238095,0.5095238095238095,0.5095238095238095,0.5095238095238095,0.5095238095238095,0.48095238095238096,0.46190476190476193,0.4238095238095238,0.3761904761904762,0.32857142857142857,0.2904761904761905,0.23333333333333334,0.19523809523809524,0.15714285714285714,0.12857142857142856,0.1,0.08095238095238096,0.06190476190476191,0.04285714285714286,0.03333333333333333,0.023809523809523808,0.014285714285714285,0.004761904761904762,0.004761904761904762,-0.004761904761904762,-0.004761904761904762,-0.004761904761904762,-0.004761904761904762,-0.004761904761904762,-0.004761904761904762,-0.004761904761904762,-0.004761904761904762,-0.004761904761904762,-0.004761904761904762,-0.004761904761904762,-0.004761904761904762,-0.004761904761904762,-0.004761904761904762,-0.004761904761904762,-0.004761904761904762,-0.004761904761904762,-0.004761904761904762,-0.004761904761904762,-0.004761904761904762,-0.004761904761904762,-0.004761904761904762,-0.004761904761904762,-0.004761904761904762,-0.004761904761904762,-0.004761904761904762,-0.004761904761904762,-0.004761904761904762,-0.004761904761904762,-0.004761904761904762,-0.004761904761904762,-0.004761904761904762,-0.004761904761904762,0.004761904761904762,0.03333333333333333,0.12857142857142856,0.24285714285714285,0.3952380952380952,0.5857142857142857,0.7095238095238096,0.7666666666666667,0.8238095238095238,0.8523809523809524,0.8714285714285714,0.8904761904761904,0.8904761904761904,0.9,0.9095238095238095,0.919047619047619,0.919047619047619,0.919047619047619,0.919047619047619,0.919047619047619,0.919047619047619,0.919047619047619,0.9095238095238095,0.8714285714285714,0.8428571428571429,0.7952380952380952,0.7476190476190476,0.7095238095238096,0.6619047619047619,0.6238095238095238,0.6047619047619047,0.5952380952380952,0.5857142857142857,0.5857142857142857,0.5857142857142857,0.5857142857142857,0.5857142857142857,0.5761904761904761,0.5761904761904761,0.5761904761904761,0.5761904761904761,0.5761904761904761,0.5761904761904761,0.5761904761904761,0.5761904761904761,0.5761904761904761,0.5761904761904761,0.5761904761904761,0.5761904761904761,0.5761904761904761,0.5761904761904761,0.5761904761904761,0.5761904761904761,0.5761904761904761,0.5761904761904761,0.5761904761904761,0.5761904761904761,0.5761904761904761,0.5761904761904761,0.5761904761904761,0.5761904761904761,0.5761904761904761,0.5761904761904761,0.5761904761904761,0.5761904761904761,0.5761904761904761,0.5761904761904761,0.5761904761904761,0.5761904761904761,0.5761904761904761,0.5761904761904761,0.5761904761904761,0.5761904761904761,0.5761904761904761,0.5761904761904761,0.5761904761904761,0.5761904761904761,0.5761904761904761,0.5761904761904761,0.5761904761904761,0.5761904761904761,0.5761904761904761,0.5761904761904761,0.5761904761904761,0.5761904761904761,0.5761904761904761,0.5761904761904761,0.5761904761904761,0.5761904761904761,0.5761904761904761,0.5761904761904761,0.5761904761904761,0.5761904761904761,0.5761904761904761,0.5761904761904761,0.5571428571428572,0.5095238095238095,0.4523809523809524,0.36666666666666664,0.2714285714285714,0.23333333333333334,0.19523809523809524,0.1761904761904762,0.16666666666666666,0.16666666666666666,0.15714285714285714,0.14761904761904762,0.1380952380952381,0.12857142857142856,0.11904761904761904,0.10952380952380952,0.1,0.09047619047619047,0.09047619047619047,0.09047619047619047,0.08095238095238096,0.07142857142857142,0.06190476190476191,0.05238095238095238,0.04285714285714286,0.03333333333333333,0.03333333333333333,0.023809523809523808,0.023809523809523808,0.023809523809523808,0.014285714285714285,0.014285714285714285,0.004761904761904762,0.004761904761904762,0.004761904761904762,0.004761904761904762,0.004761904761904762,-0.004761904761904762,-0.004761904761904762,-0.004761904761904762,-0.004761904761904762,-0.004761904761904762,-0.004761904761904762,-0.004761904761904762,-0.004761904761904762,-0.004761904761904762,-0.004761904761904762,-0.004761904761904762,-0.004761904761904762,-0.004761904761904762,-0.004761904761904762,-0.004761904761904762,-0.004761904761904762,-0.004761904761904762,-0.004761904761904762,-0.004761904761904762,-0.004761904761904762,-0.004761904761904762,-0.004761904761904762,-0.004761904761904762,-0.004761904761904762,-0.004761904761904762,-0.004761904761904762,-0.004761904761904762,-0.004761904761904762,-0.004761904761904762,-0.004761904761904762,-0.004761904761904762,-0.004761904761904762,-0.004761904761904762,-0.004761904761904762,-0.004761904761904762,-0.004761904761904762,-0.004761904761904762,-0.004761904761904762,-0.004761904761904762,-0.004761904761904762,-0.004761904761904762,-0.004761904761904762,-0.004761904761904762,-0.004761904761904762,-0.004761904761904762,-0.004761904761904762,-0.004761904761904762,-0.004761904761904762,-0.004761904761904762,-0.004761904761904762,-0.004761904761904762,-0.004761904761904762,-0.004761904761904762,-0.004761904761904762,-0.004761904761904762,-0.004761904761904762,-0.023809523809523808,-0.08095238095238096,-0.12857142857142856,-0.14761904761904762,-0.14761904761904762,-0.14761904761904762,-0.14761904761904762,-0.15714285714285714,-0.16666666666666666,-0.16666666666666666,-0.16666666666666666,-0.16666666666666666,-0.16666666666666666,-0.16666666666666666,-0.16666666666666666,-0.16666666666666666,-0.16666666666666666,-0.16666666666666666,-0.16666666666666666,-0.16666666666666666,-0.16666666666666666,-0.1380952380952381,-0.11904761904761904,-0.10952380952380952,-0.09047619047619047,-0.07142857142857142,-0.06190476190476191,-0.05238095238095238,-0.03333333333333333,-0.03333333333333333,-0.03333333333333333,-0.03333333333333333,-0.03333333333333333,-0.03333333333333333,-0.03333333333333333,-0.03333333333333333,-0.03333333333333333,-0.03333333333333333,-0.03333333333333333,-0.03333333333333333,-0.03333333333333333,-0.03333333333333333,-0.03333333333333333,-0.03333333333333333,-0.03333333333333333,-0.03333333333333333,-0.03333333333333333,-0.03333333333333333,-0.03333333333333333,-0.03333333333333333,-0.03333333333333333,-0.03333333333333333,-0.03333333333333333,-0.03333333333333333,-0.03333333333333333,-0.03333333333333333,-0.03333333333333333,-0.03333333333333333,-0.03333333333333333,-0.03333333333333333,-0.03333333333333333,-0.03333333333333333,-0.03333333333333333,-0.03333333333333333,-0.03333333333333333,-0.03333333333333333,-0.03333333333333333,-0.03333333333333333,-0.03333333333333333,-0.03333333333333333,-0.03333333333333333,-0.03333333333333333,-0.03333333333333333,-0.03333333333333333,-0.03333333333333333,-0.03333333333333333,-0.03333333333333333,-0.03333333333333333,-0.03333333333333333,-0.03333333333333333,-0.03333333333333333,-0.03333333333333333,-0.03333333333333333,-0.03333333333333333,-0.03333333333333333,-0.03333333333333333,-0.03333333333333333,-0.03333333333333333,-0.03333333333333333,-0.03333333333333333,-0.03333333333333333,-0.03333333333333333,-0.03333333333333333,-0.03333333333333333,-0.03333333333333333,-0.03333333333333333,-0.03333333333333333,-0.03333333333333333,-0.03333333333333333,-0.03333333333333333,-0.03333333333333333,-0.03333333333333333,-0.03333333333333333,-0.03333333333333333,-0.03333333333333333,-0.03333333333333333,-0.03333333333333333,-0.03333333333333333,-0.03333333333333333,-0.03333333333333333,-0.03333333333333333,0.1,0.21428571428571427,0.32857142857142857,0.4523809523809524,0.5285714285714286,0.6047619047619047,0.6428571428571429,0.6714285714285714,0.6904761904761905,0.7,0.7095238095238096,0.719047619047619,0.7285714285714285,0.7285714285714285,0.7285714285714285,0.7095238095238096,0.6904761904761905,0.6714285714285714,0.6619047619047619,0.6619047619047619,0.6619047619047619,0.6714285714285714,0.7095238095238096,0.7380952380952381,0.7761904761904762,0.7761904761904762,0.7761904761904762,0.7761904761904762,0.7761904761904762,0.7761904761904762,0.7761904761904762,0.7761904761904762,0.7761904761904762,0.7761904761904762,0.7761904761904762,0.7761904761904762,0.7761904761904762,0.7761904761904762,0.7761904761904762,0.8047619047619048,0.8333333333333334,0.8904761904761904,0.9476190476190476,0.9857142857142858,1.0333333333333334,1.0714285714285714,1.1,1.119047619047619,1.1285714285714286,1.138095238095238,1.138095238095238,1.138095238095238,1.138095238095238,1.138095238095238,1.1285714285714286,1.1285714285714286,1.1285714285714286,1.1285714285714286,1.1285714285714286,1.119047619047619,1.119047619047619,1.1095238095238096,1.0904761904761904,1.0714285714285714,1.0523809523809524,1.0333333333333334,1.0238095238095237,1.0047619047619047,0.9952380952380953,0.9857142857142858,0.9761904761904762,0.9666666666666667,0.9666666666666667,0.9666666666666667,0.9571428571428572,0.9571428571428572,0.9571428571428572,0.9571428571428572,0.9571428571428572,0.9571428571428572,0.9571428571428572,0.9571428571428572,0.9571428571428572,0.9571428571428572,0.9571428571428572,0.9571428571428572,0.9571428571428572,0.9571428571428572,0.9571428571428572,0.9571428571428572,0.9571428571428572,0.9571428571428572,0.9571428571428572,0.9571428571428572,0.9571428571428572,0.9571428571428572,0.9571428571428572,0.9571428571428572,0.9571428571428572,0.9571428571428572,0.9571428571428572,0.9571428571428572,0.9571428571428572,0.9571428571428572,0.9571428571428572,0.9571428571428572,0.9571428571428572,0.9571428571428572,0.9571428571428572,0.9571428571428572,0.9571428571428572,0.9476190476190476,0.9,0.8428571428571429,0.7,0.5666666666666667,0.4142857142857143,0.3380952380952381,0.2523809523809524,0.21428571428571427,0.16666666666666666,0.1380952380952381,0.11904761904761904,0.1,0.08095238095238096,0.07142857142857142,0.06190476190476191,0.05238095238095238,0.05238095238095238,0.05238095238095238,0.05238095238095238,0.04285714285714286,0.04285714285714286,0.04285714285714286,0.04285714285714286,0.04285714285714286,0.04285714285714286,0.04285714285714286,0.04285714285714286,0.04285714285714286,0.04285714285714286,0.04285714285714286,0.04285714285714286,0.04285714285714286,0.04285714285714286,0.04285714285714286,0.04285714285714286,0.04285714285714286,0.03333333333333333,0.023809523809523808,0.023809523809523808,0.014285714285714285,0.014285714285714285,0.004761904761904762,0.004761904761904762,-0.004761904761904762,-0.014285714285714285,-0.023809523809523808,-0.03333333333333333,-0.03333333333333333,-0.04285714285714286,-0.04285714285714286,-0.04285714285714286,-0.04285714285714286,-0.04285714285714286,-0.04285714285714286,-0.04285714285714286,-0.04285714285714286,-0.04285714285714286,-0.04285714285714286,-0.04285714285714286,-0.04285714285714286,-0.04285714285714286,-0.04285714285714286,-0.04285714285714286,-0.04285714285714286,-0.04285714285714286,-0.04285714285714286,-0.04285714285714286,-0.04285714285714286,-0.04285714285714286,-0.04285714285714286,-0.04285714285714286,-0.04285714285714286,-0.04285714285714286,-0.04285714285714286,-0.03333333333333333,-0.023809523809523808,-0.023809523809523808,-0.023809523809523808,-0.023809523809523808,-0.03333333333333333,-0.04285714285714286,-0.07142857142857142,-0.08095238095238096,-0.08095238095238096,-0.09047619047619047,-0.09047619047619047,-0.09047619047619047,-0.09047619047619047,-0.09047619047619047,-0.08095238095238096,-0.07142857142857142,-0.05238095238095238,-0.04285714285714286,-0.03333333333333333,-0.03333333333333333,-0.023809523809523808,-0.023809523809523808,-0.014285714285714285,-0.004761904761904762,-0.004761904761904762,-0.004761904761904762,-0.004761904761904762,-0.004761904761904762,-0.004761904761904762,-0.004761904761904762,-0.004761904761904762,-0.004761904761904762,-0.004761904761904762,-0.004761904761904762,-0.004761904761904762,-0.004761904761904762,-0.004761904761904762,-0.004761904761904762,-0.004761904761904762,-0.004761904761904762,-0.004761904761904762,-0.004761904761904762,-0.004761904761904762,-0.004761904761904762,-0.004761904761904762,-0.004761904761904762,-0.004761904761904762,-0.004761904761904762,-0.004761904761904762,-0.004761904761904762,-0.004761904761904762,-0.004761904761904762,-0.004761904761904762,-0.004761904761904762,0.12857142857142856,0.28095238095238095,0.5285714285714286,0.919047619047619,1.1666666666666667,1.3571428571428572,1.5285714285714285,1.6047619047619048,1.6047619047619048,1.6047619047619048,1.6047619047619048,1.6047619047619048,1.6047619047619048,1.6047619047619048,1.6047619047619048,1.6047619047619048,1.6047619047619048,1.6047619047619048,1.6047619047619048,1.6047619047619048,1.6047619047619048,1.6047619047619048,1.6047619047619048,1.6047619047619048,1.6047619047619048,1.6047619047619048,1.6047619047619048,1.6047619047619048,1.6047619047619048,1.6047619047619048,1.6047619047619048,1.6047619047619048,1.6047619047619048,1.6047619047619048,1.6047619047619048,1.6047619047619048,1.6047619047619048,1.6047619047619048,1.6047619047619048,1.6047619047619048,1.6047619047619048,1.6047619047619048,1.6047619047619048,1.6047619047619048,1.6047619047619048,1.6047619047619048,1.6047619047619048,1.6047619047619048,1.6047619047619048,1.6047619047619048,1.6047619047619048,1.6047619047619048,1.6047619047619048,1.6047619047619048,1.6047619047619048,1.6047619047619048,1.6047619047619048,1.6047619047619048,1.6047619047619048,1.6047619047619048,1.6047619047619048,1.6047619047619048,1.6047619047619048,1.6047619047619048,1.6047619047619048,1.6047619047619048,1.6047619047619048,1.6047619047619048,1.6047619047619048,1.6047619047619048,1.6047619047619048,1.6047619047619048,1.6047619047619048,1.6047619047619048,1.6047619047619048,1.6047619047619048,1.6047619047619048,1.6047619047619048,1.6047619047619048,1.6047619047619048,1.6047619047619048,1.6047619047619048,1.6047619047619048,1.6047619047619048,1.6047619047619048,1.6047619047619048,1.6047619047619048,1.6047619047619048,1.6047619047619048,1.6047619047619048,1.6047619047619048,1.6047619047619048,1.6047619047619048,1.6047619047619048,1.6047619047619048,1.6047619047619048,1.6047619047619048,1.6047619047619048]},"final_keyboard_state":["S","T","R","N","I","A","Z","E","B"],"num_clicks":9,"points":11,"cheat":false,"trial_type":"Hangman","trial_index":5,"time_elapsed":77129,"internal_node_id":"0.0-4.0","protocol_sum":"","subject_identifier":110,"subject_sum":[2,210,11,189,126,57,74,213,153,154,76,235,171,172,150,25,115,44,52,58,76,172,153,71,12,3,226,59,162,189,194,188],"subject_pair":55,"STUDY_ID":"669a702db1122fc5150a13ce","PROLIFIC_PID":"6629497a938b0963356f7002","SESSION_ID":"669ab69f9a9812603249d407","practice_instructions":1,"leaderboard_instructions":0,"bonus":0,"reveal_word":false,"self_rating":"3","confidence":"85"},{"view_history":"[{\"page_index\":0,\"viewing_time\":2150.2999999970198},{\"page_index\":1,\"viewing_time\":14446.90000000596}]","rt":16600.10000000149,"trial_type":"instructions","trial_index":6,"time_elapsed":93731,"internal_node_id":"0.0-5.0","protocol_sum":"","subject_identifier":110,"subject_sum":[2,210,11,189,126,57,74,213,153,154,76,235,171,172,150,25,115,44,52,58,76,172,153,71,12,3,226,59,162,189,194,188],"subject_pair":55,"STUDY_ID":"669a702db1122fc5150a13ce","PROLIFIC_PID":"6629497a938b0963356f7002","SESSION_ID":"669ab69f9a9812603249d407","practice_instructions":1,"leaderboard_instructions":0,"bonus":0,"reveal_word":false,"self_rating":"3","confidence":"85"},{"rt":14303.10000000149,"responses":"{\"Q0\":\"...from <b>a previous session</b> that is part of the upcoming tournament.\"}","question_order":"[0]","trial_type":"survey-multi-choice","trial_index":7,"time_elapsed":108036,"internal_node_id":"0.0-6.0","protocol_sum":"","subject_identifier":110,"subject_sum":[2,210,11,189,126,57,74,213,153,154,76,235,171,172,150,25,115,44,52,58,76,172,153,71,12,3,226,59,162,189,194,188],"subject_pair":55,"correct":false,"test_part":"multichoice_leaderboard","STUDY_ID":"669a702db1122fc5150a13ce","PROLIFIC_PID":"6629497a938b0963356f7002","SESSION_ID":"669ab69f9a9812603249d407","practice_instructions":1,"leaderboard_instructions":0,"bonus":0,"reveal_word":false,"self_rating":"3","confidence":"85"},{"view_history":"[{\"page_index\":0,\"viewing_time\":2009}]","rt":2009.2000000029802,"trial_type":"instructions","trial_index":8,"time_elapsed":110048,"internal_node_id":"0.0-7.0-0.0","protocol_sum":"","subject_identifier":110,"subject_sum":[2,210,11,189,126,57,74,213,153,154,76,235,171,172,150,25,115,44,52,58,76,172,153,71,12,3,226,59,162,189,194,188],"subject_pair":55,"STUDY_ID":"669a702db1122fc5150a13ce","PROLIFIC_PID":"6629497a938b0963356f7002","SESSION_ID":"669ab69f9a9812603249d407","practice_instructions":1,"leaderboard_instructions":0,"bonus":0,"reveal_word":false,"self_rating":"3","confidence":"85"},{"rt":2202.5,"responses":"{\"Q0\":\"...from <b>a previous session</b> that is not part of the upcoming tournament.\"}","question_order":"[0]","trial_type":"survey-multi-choice","trial_index":9,"time_elapsed":112251,"internal_node_id":"0.0-7.0-1.0","protocol_sum":"","subject_identifier":110,"subject_sum":[2,210,11,189,126,57,74,213,153,154,76,235,171,172,150,25,115,44,52,58,76,172,153,71,12,3,226,59,162,189,194,188],"subject_pair":55,"correct":true,"test_part":"multichoice_leaderboard","STUDY_ID":"669a702db1122fc5150a13ce","PROLIFIC_PID":"6629497a938b0963356f7002","SESSION_ID":"669ab69f9a9812603249d407","practice_instructions":1,"leaderboard_instructions":0,"bonus":0,"reveal_word":false,"self_rating":"3","confidence":"85"},{"view_history":"[{\"page_index\":0,\"viewing_time\":15888.29999999702}]","rt":15888.59999999404,"trial_type":"instructions","trial_index":10,"time_elapsed":128142,"internal_node_id":"0.0-8.0","protocol_sum":"","subject_identifier":110,"subject_sum":[2,210,11,189,126,57,74,213,153,154,76,235,171,172,150,25,115,44,52,58,76,172,153,71,12,3,226,59,162,189,194,188],"subject_pair":55,"STUDY_ID":"669a702db1122fc5150a13ce","PROLIFIC_PID":"6629497a938b0963356f7002","SESSION_ID":"669ab69f9a9812603249d407","practice_instructions":1,"leaderboard_instructions":0,"bonus":0,"reveal_word":false,"self_rating":"3","confidence":"85"},{"rt":9509.30000000447,"responses":"{\"Q0\":\"...players' leaderboard position (in terms of <b>points</b>) in an <b>upcoming tournament.</b>\"}","question_order":"[0]","trial_type":"survey-multi-choice","trial_index":11,"time_elapsed":137654,"internal_node_id":"0.0-9.0","protocol_sum":"","subject_identifier":110,"subject_sum":[2,210,11,189,126,57,74,213,153,154,76,235,171,172,150,25,115,44,52,58,76,172,153,71,12,3,226,59,162,189,194,188],"subject_pair":55,"correct":true,"test_part":"multichoice_tournament","STUDY_ID":"669a702db1122fc5150a13ce","PROLIFIC_PID":"6629497a938b0963356f7002","SESSION_ID":"669ab69f9a9812603249d407","practice_instructions":1,"leaderboard_instructions":0,"bonus":0,"reveal_word":false,"self_rating":"3","confidence":"85"},{"view_history":"[{\"page_index\":0,\"viewing_time\":36534.20000000298}]","rt":36534.60000000149,"trial_type":"instructions","trial_index":12,"time_elapsed":174189,"internal_node_id":"0.0-11.0","protocol_sum":"","subject_identifier":110,"subject_sum":[2,210,11,189,126,57,74,213,153,154,76,235,171,172,150,25,115,44,52,58,76,172,153,71,12,3,226,59,162,189,194,188],"subject_pair":55,"STUDY_ID":"669a702db1122fc5150a13ce","PROLIFIC_PID":"6629497a938b0963356f7002","SESSION_ID":"669ab69f9a9812603249d407","practice_instructions":1,"leaderboard_instructions":0,"bonus":0,"reveal_word":false,"self_rating":"3","confidence":"85"},{"view_history":"[{\"page_index\":0,\"viewing_time\":10819.39999999851}]","rt":10819.70000000298,"trial_type":"instructions","trial_index":13,"time_elapsed":185011,"internal_node_id":"0.0-12.0-0.0","protocol_sum":"","subject_identifier":110,"subject_sum":[2,210,11,189,126,57,74,213,153,154,76,235,171,172,150,25,115,44,52,58,76,172,153,71,12,3,226,59,162,189,194,188],"subject_pair":55,"STUDY_ID":"669a702db1122fc5150a13ce","PROLIFIC_PID":"6629497a938b0963356f7002","SESSION_ID":"669ab69f9a9812603249d407","practice_instructions":1,"leaderboard_instructions":0,"bonus":0,"reveal_word":false,"self_rating":"3","confidence":"85"},{"word":"WRIST","click_log":{"letter":["","A","E","I","O","U","Y","S","H","R","W","T"],"t":[0,4047.2000000029802,5879.20000000298,7062.60000000149,9662.5,11195.39999999851,12895.39999999851,16895.60000000149,23528.10000000149,34179.5,35895.39999999851,37877.60000000149],"hit":[null,0,0,1,0,0,0,1,0,1,1,1],"asked":["","A","AE","AEI","AEIO","AEIOU","AEIOUY","AEIOUYS","AEIOUYSH","AEIOUYSHR","AEIOUYSHRW","AEIOUYSHRWT"],"word_state":["_____","_____","_____","__I__","__I__","__I__","__I__","__IS_","__IS_","_RIS_","WRIS_","WRIST"]},"hover_log":{"letter":["?","?","?","?","?","?","?","?","?","?","?","?","?","?","?","?","?","?","?","?","?","?","?","?","?","?","?","?","?","?","?","?","?","?","?","?","?","?","?","?","?","?","?","?","?","?","?","?","?","?","?","?","?","?","?","?","?","?","?","?","?","?","?","?","?","?","?","?","?","?","?","?","?","?","?","?","?","?","?","?","?","?","?","?","?","?","?","?","?","?","?","?","?","?","?","?","?","?","?","?","?","?","?","?","?","?","?","?","?","?","?","?","?","?","?","?","?","?","?","?","?","?","?","?","?","?","?","?","?","?","?","?","?","?","?","?","?","?","?","?","?","?","?","?","?","?","?","?","?","?","?","?","?","?","?","?","?","?","?","?","?","?","?","?","?","?","?","?","?","?","?","?","?","?","?","?","?","?","?","?","?","?","?","?","?","?","?","?","?","?","?","?","?","?","?","?","?","?","?","?","?","?","?","?","?","?","?","?","?","?","?","?","?","?","?","?","?","?","?","?","?","?","?","?","?","?","?","?","?","?","?","?","?","?","?","?","?","?","?","?","?","?","?","?","?","?","?","?","?","?","?","?","?","?","?","?","?","?","?","?","?","?","?","?","?","?","?","?","?","?","?","?","?","?","?","?","?","?","?","?","?","?","?","?","?","?","?","?","?","?","?","?","?","?","?","?","?","?","?","?","?","?","?","?","?","?","?","?","?","?","?","?","?","?","?","?","?","?","?","?","?","?","?","?","?","?","?","?","?","?","?","?","?","?","?","?","?","?","?","?","?","?","?","?","?","?","?","?","?","?","?","?","?","?","?","?","?","?","?","?","?","?","?","?","?","?","?","?","?","?","?","?","?","?","?","?","?","?","?","?","?","?","S","?","?","?","?","?","?","?","?","?","?","?","?","?","?","?","?","?","?","?","?","?","?","?","?","?","?","?","?","?","?","?","?","?","?","?","?","?","?","?","?","?","?","?","?","?","?","?","?","?","?","?","?","?","?","?","?","?","?","?","?","?","?","?","?","?","?","?","?","?","?","?","?","?","?","?","?","?","?","?","?","?","?","?","?","?","?","?","?","?","?","?","?","?","?","?","?","?","?","?","?","?","?","?","?","?","?","?","?","?","?","?","?","?","?","?","?","?","?","?","?","?","?","?","?","?","?","?","?","?","?","?","?","?","?","?","?","?","?","?","?","?","?","?","?","?","?","?","?","?","?","?","?","?","?","?","?","?","?","?","?","?","?","?","?","?","?","?","?","?","?","?","?","?","?","?","?","?","?","?","?","?","?","?","?","?","?","?","?","?","?","?","?","?","?","?","?","?","?","?","?","?","?","?","?","?","?","?","?","?","?","?","?","?","?","?","?","?","?","?","?","?","?","?","?","?","?","?","?","?","?","?","?","?","?","?","?","?","?","?","?","?","?","?","?","?","?","?","?","?","?","?","?","?","?","?","?","?","?","?","?","?","?","?","?","?","?","?","?","?","?","?","?","?","?","?","?","?","?","?","?","?","?","?","?","?","?","?","?","?","?","?","?","?","?","?","?","?","?","?","?","?","?","?","?","?","?","?","?","?","?","?","?","?","?","?","?","?","?","?","?","?","?","?","?","?","?","?","?","?","?","?","?","?","?","?","?","?","?","?","?","?","?","?","?","?","?","?","?","?","?","?","?","?","?","?","?","?","?","?","?","?","?","?","?","?","?","?","?","?","?","?","?","?","?","?","?","?","?","?","?","?","?","?","?","?","?","?","?","?","?","?","?","?","?","?","?","?","?","?","?","?","?","?","?","?","?","?","?","?","?","?","?","?","?","?","?","?","?","?","?","?","?","?","?","?","?","?","?","?","?","?","?","?","?","?","?","?","?","?","?","?","?","?","?","?","?","?","?","?","?","?","?","?","?","?","?","?","?","?","?","?","?","?","?","?","?","?","?","?","?","?","?","?","?","?","?","?","?","?","?","?","?","?","?","?","?","?","?","?","?","?","?","?","?","?","?","?","?","?","?","?","?","?","?","?","?","?","?","?","?","?","?","?","?","?","?","?","?","?","?","?","?","?","?","?","?","?","?","?","?","?","?","?","?","?","?","?","?","?","?","?","?","?","?","?","?","?","?","?","?","?","?","?","?","?","?","?","?","?","?","?","?","?","?","?","?","?","?","?","?","?","?","?","?","?","?","?","?","?","?","?","?","?","?","?","?","?","?","?","?","?","?","?","?","?","?","?","?","?","?","?","?","?","?","?","?","?","?","?","?","?","?","?","?","?","?","?","?","?","?","?","?","?","?","?","?","?","?","?","?","?","?","?","?","?","?","?","?","?","?","?","?","?","?","?","?","?","?","?","?","?","?","?","?","?","?","?","?","?","?","?","?","?","?","?","?","?","?","?","?","?","?","?","?","?","?","?","?","?","?","?","?","?","?","?","?","?","?","?","?","?","?","?","?","?","?","?","?","?","?","?","?","?","?","?","?","?","?","?","?","?","?","?","?","?","?","?","?","?","?","?","?","?","?","?","?","?","?","?","?","?","?","?","?","?","?","?","?","?","?","?","?","?","?","?","?","?","?","?","?","?","?","?","?","?","?","?","?","?","?","?","?","?","?","?","?","?","?","?","?","?","?","?","?","?","?","?","?","?","?","?","?","?","?","?","?","?","?","?","?","?","?","?","?","?","?","?","?","?","?","?","?","?","?","?","?","?","?","?","?","?","?","?","?","?","?","?","?","?","?","?","?","?","?","?","?","?","?","?","?","?","?","?","?","?","?","?","?","?","?","?","?","?","?","?","?","?","?","?","?","?","?","?","?","?","?","?","?","?","?","?","?","?","?","?","?","?","?","?","?","?","?","?","?","?","?","?","?","?","?","?","?","?","?","?","?","?","?","?","?","?","?","?","?","?","?","?","?","?","?","?","?","?","?","?","?","?","?","?","?","?","?","?","?","?","?","?","?","?","?","?","?","?","?","?","?","?","?","?","?","?","?","?","?","?","?","?","?","?","?","?","?","?","?","?","?","?","?","?","?","?","?","?","?","?","?","?","?","?","?","?","?","?","?","?","?","?","?","?","?","?","?","?","?","?","?","?","?","?","?","?","?","?","?","?","?","?","?","?","?","?","?","?","?","?","?","?","?","?","?","?","?","?","?","?","?","?","?","?","?","?","?","?","?","?","?","?","?","?","?","?","?","?","?","?","?","?","?","?","?","?","?","?","?","?","?","?","?","?","?","?","?","?","?","?","?","?","?","?","?","?","?","?","?","?","?","?","?","?","?","?","?","?","?","?","?","?","?","?","?","?","?","?","?","?","?","?","?","?","?","?","?","?","?","?","?","?","?","?","?","?","?","?","?","?","?","?","?","?","?","?","?","?","?","?","?","?","?","?","?","?","?","?","?","?","?","?","?","?","?","?","?","?","?","?","?","?","?","?","?","?","?","?","?","?","?","?","?","?","?","?","?","?","?","?","?","?","?","?","?","?","?","?","?","?","?","?","?","?","?","?","?","?","?","?","?","?","?","?","?","?","?","?","?","?","?","?","?","?","?","?","?","?","?","?","?","?","?","?","?","?","?","?","?","?","?","?","?","?","?","?","?","?","?","?","?","?","?","?","?","?","?","?","?","?","?","?","?","?","?","?","?","?","?","?","?","?","?","?","?","?","?","?","?","?","?","?","?","?","?","?","?","?","?","?","?","?","?","?","?","?","?","?","?","?","?","?","?","?","?","?","?","?","?","?","?","?","?","?","?","?","?","?","?","?","?","?","?","?","?","?","?","?","?","?","?","?","?","?","?","?","?","?","?","?","?","?","?","?","?","?","?","?","?","?","?","?","?","?","?","?","?","?","?","?","?","?","?","?","?","?","?","?","?","?","?","?","?","?","?","?","?","?","?","?","?","?","?","?","?","?","?","?","?","?","?","?","?","?","?","?","?","?","?","?","?","?","?","?","?","?","?","?","?","?","?","?","?","?","?","?","?","?","?","?","?","?","?","?","?","?","?","?","?","?","?","?","?","?","?","?","?","?","?","?","?","?","?","?","?","?","?","?","?","?","?","?","?","?","?","?","?","?","?","?","?","?","?","?","?","?","?","?","?","?","?","?","?","?","?","?","?","?","?","?","?","?","?","?","?","?","?","?","?","?","?","?","?","?","?","?","?","?","?","?","?","?","?","?","?","?","?","?","?","?","?","?","?","?","?","?","?","?","?","?","?","?","?","?","?","?","?","?","?","?","?","?","?","?","?","?","?","?","?","?","?","?","?","?","?","?","?","?","?","?","?","?","?","?","?","?","?","?","?","?","?","?","?","?","?","?","?","?","?","?","?","?","?","?","?","?","?","?","?","?","?","?","?","?","?","?","?","?","?","?","?","?","?","?","?","?","?","?","?","?","?","?","?","?","?","?","?","?","?","?","?","?","?","?","?","?","?","?","?","?","?","?","?","?","?","?","?","?","?","?","?","?","?","?","?","?","?","?","?","?","?","?","?","?","?","?","?","?","?","?","?","?","?","?","?","?","?","?","?","?","?","?","?","?","?","?","?","?","?","?","?","?","?","?","?","?","?","?","?","?","?","?","?","?","?","?","?","?","?","?","?","?","?","?","?","?","?","?","?","?","?","?","?","?","?","?","?","?","?","?","?","?","?","?","?","?","?","?","?","?","?","?","?","?","?","?","?","?","?","?","?","?","?","?","?","?","?","?","?","?","?","?","?","?","?","?","?","?","?","?","?","?","?","?","?","?","?","?","?","?","?","?","?","?","?","?","?","?","?","?","?","?","?","?","?","?","?","?","?","?","?","?","?","?","?","?","?","?","?","?","?","?","?","?","?","?","?","?","?","?","?","?","?","?","?","?","?","?","?","?","?","?","?","?","?","?","?","?","?","?","?","?","?","?","?","?","?","?","?","?","?","?","?","?","?","?","?","?","?","?","?","?","?","?","?","?","?","?","?","?","?","?","?","?","?","?","?","?","?","?","?","?","?","?","?","?","?","?","?","?","?","?","?","?","?","?","?","?","?","?","?","?","?","?","?","?","?","?","?","?","?","?","?","?","?","?","?","?","?","?","?","?","?","?","?","?","?","?","?","?","?","?","?","?","?","?","?","?","?","?","?","?","?","?","?","?","?","?","?","?","?","?","?","?","?","?","?","?","?","?","?","?","?","?","?","?","?","?","?","?","?","?","?","?","?","?","?","?","?","?","?","?","?","?","?","?","?","?","?","?","?","?","?","?","?","?","?","?","?","?","?","?","?","?","?","?","?","?","?","?","?","?","?","?","?","?","?","?","?","?","?","?","?","?","?","?","?","?","?","?","?","?","?","?","?","?","?","?","?","?","?","?","?","?","?","?","?","?","?","?","?","?","?","?","?","?","?","?","?","?","?","?","?","?","?","?","?","?","?","?","?","?","?","?","?","?","?","?","?","?","?","?","?","?","?","?","?","?","?","?","?","?","?","?","?","?","?","?","?","?","?","?","?","?","?","?","?","?","?","?","?","?","?","?","?","?","?","?","?","?","?","?","?","?","?","?","?","?","?","?","?","?","?","?","?","?","?","?","?","?","?","?","?","?","?","?","?","?","?","?","?","?","?","?","?","?","?","?","?","?","?","?","?","?","?","?","?","?","?","?","?","?","?","?","?","?","?","?","?","?","?","?","?","?","?","?","?","?","?","?","?","?","?","?","?","?","?","?","?","?","?","?","?","?","?","?","?","?","?","?","?","?","?","?","?","?","?","?","?","?","?","?","?","?","?","?","?","?","?","?","?","?","?","?","?","?","?","?","?","?","?","?","?","?","?","?","?","?","?","?","?","?","?","?","?","?","?","?","?","?","?","?","?","?","?","?","?","?","?","?","?","?","?","?","?","?","?","?","?","?","?","?","?","?","?","?","?","?","?","?","?","?","?","?","?","?","?","?","?","?","?","?","?","?","?","?","?","?","?","?","?","?","?","?","?","?","?","?","?","?","?","?","?","?","?","?","?","?","?","?","?","?","?","?","?","?","?","?","?","?","?","?","?","?","?","?","?","?","?","?","?","?","?","?","?","?","?","?","?","?","?","?","?","?","?","?","?","?","?","?","?","?","?","?","?","?","?","?","?","?","?","?","?","?","?","?","?","?","?","?","?","?","?","?","?","?","?","?","?","?","?","?","?","?","?","?","?","?","?","?","?","?","?","?","?","?","?","?","?","?","?","?","?","?","?","?","?","?","?","?","?","?","?","?","?","?","?","?","?","?","?","?","?","?","?","?","?","?","?","?","?","?","?","?","?","?","?","?","?","?","?","?","?","?","?","?","?","?","?","?","?","?","?","?","?","?","?","?","?","?","?","?","?","?","?","?","?","?","?","?","?","?","?","?","?","?","?","?","?","?","?","?","?","?","?","?","?","?","?","?","?","?","?","?","?","?","?","?","?","?","?","?","?","?","?","?","?","?","?","?","?","?","?","?","?","?","?","?","?","?","?","?","?","?","?","?","?","?","?","?","?","?","?","?","?","?","?","?","?","?","?","?","?","?","?","?","?","?","?","?","?","?","?","?","?","?","?","?","?","?","?","?","?","?","?","?","?","?","?","?","?","?","?","?","?","?","?","?","?","?","?","?","?","?","?","?","?","?","?","?","?","?","?","?","?","?","?","?","?","?","?","?","?","?","?","?","?","?","?","?","?","?","?","?","?","?","?","?","?","?","?","?","?","?","?","?","?","?","?","?","?","?","?","?","?","?","?","?","?","?","?","?","?","?","?","?","?","?","?","?","?","?","?","?","?","?","?","?","?","?","?","?","?","?","?","?","?","?","?","?","?","?","?","?","?","?","?","?","?","?","?","?","?","?","?","?","?","?","?","?","?","?","?","?","?","?","?","?","?","?","?","?","?","?","?","?","?","?","?","?","?","?","?","?","?","?","?","?","?","?","?","?","?","?","?","?","?","?","?","?","?","?","?","?","?","?","?","?","?","?","?","?","?","?","?","?","?","?","?","?","?","?","?","?","?","?","?","?","?","?","?","?","?","?","?","?","?","?","?","?","?","?","?","?","?","?","?","?","?","?","?","?","?","?","?","?","?","?","?","?","?","?","?","?","?","?","?","?","?","?","?","?","?","?","?","?","?","?","?","?","?","?","?","?","?","?","?","?","?","?","?","?","?","?","?","?","?","?","?","?","?","?","?","?","?","?","?","?","?","?","?","?","?","?","?","?","?","?","?","?","?","?","?","?","?","?","?","?","?","?","?","?","?","?","?","?","?","?","?","?","?","?","?","?","?","?","?","?","?","?","?","?","?","?","?","?","?","?","?","?","?","?","?","?","?","?","?","?","?","?","?","?","?","?","?","?","?","?","?","?","?","?","?","?","?","?","?","?","?","?","?","?","?","?","?","?","?","?","?","?","?","?","?","?","?","?","?","?","?","?","?","?","?","?","?","?","?","?","?","?","?","?","?","?","?","?","?","?","?","?","?","?","?","?","?","?","?","?","?","?","?","?","?","?","?","?","?","?","?","?","?","?","?","?","?","?","?","?","?","?","?","?","?","?","?","?","?","?","?","?","?","?","?","?","?","?","?","?","?","?","?","?","?","?","?","?","?","?","?","?","?","?","?","?","?","?","?","?","?","?","?","?","?","?","?","?","?","?","?","?","?","?","?","?","?","?","?","?","?","?","?","?","?","?","?","?","?","?","?","?","?","?","?","?","?","?","?","?","?","?","?","?","?","?","?","?","?","?","?","?","?","?","?","?","?","?","?","?","?","?","?","?","?","?","?","?","?","?","?","?","?","?","?","?","?","?","?","?","?","?","?","?","?","?","?","?","?","?","?","?","?","?","?","?","?","?","?","?","?","?","?","?","?","?","?","?","?","?","?","?","?","?","?","?","?","?","?","?","?","?","?","?","?","?","?","?","?","?","?","?","?","?","?","?","?","?","?","?","?","?","?","?","?","?","?","?","?","?","?","?","?","?","?","?","?","?","?","?","?","?","?","?","?","?","?","?","?","?","?","?","?","?","?","?","?","?","?","?","?","?","?","?","?","?","?","?","?","?","?","?","?","?","?","?","?","?","?","?","?","?","?","?","?","?","?","?","?","?","?","?","?","?","?","?","?","?","?","?","?","?","?","?","?","?","?","?","?","?","?","?","?","?","?","?","?","?","?","?","?","?","?","?","?","?","?","?","?","?","?","?","?","?","?","?","?","?","?","?","?","?","?","?","?","?","?","?","?","?","?","?","?","?","?","?","?","?","?","?","?","?","?","?","?","?","?","?","?","?","?","?","?","?","?","?","?","?","?","?","?","?","?","?","?","?","?","?","?","?","?","?","?","?","?","?","?","?","?","?","?","?","?","?","?","?","?","?","?","?","?","?","?","?","?","?","?","?","?","?","?","?","?","?","?","?","?","?","?","?","?","?","?","?","?","?","?","?","?","?","?","?","?","?","?","?","?","?","?","?","?","?","?","?","?","?","?","?","?","?","?","?","?","?","?","?","?","?","?","?","?","?","?","?","?","?","?","?","?","?","?","?","?","?","?","?","?","?","?","?","?","?","?","?","?","?","?","?","?","?","?","?","?","?","?","?","?","?","?","?","?","?","?","?","?","?","?","?","?","?","?","?","?","?","?","?","?","?","?","?","?","?","?","?","?","?","?","?","?","?","?","?","?","?","?","?","?","?","?","?","?","?","?","?","?","?","?","?","?","?","?","?","?","?","?","?","?","?","?","?","?","?","?","?","?","?","?","?","?","?","?","?","?","?","?","?","?","?","?","?","?","?","?","?","?","?","?","?","?","?","?","?","?","?","?","?","?","?","?","?","?","?","?","?","?","?","?","?","?","?","?","?","?","?","?","?","?","?","?","?","?","?","?","?","?","?","?","?","?","?","?","?","?","?","?","?","?","?","?","?","?","?","?","?","?","?","?","?","?","?","?","?","?","?","?","?","?","?","?","?","?","?","?","?","?","?","?","?","?","?","?","?","?","?","?","?","?","?","?","?","?","?","?","?","?","?","?","?","?","?","?","?","?","?","?","?","?","?","?","?","?","?","?","?","?","?","?","?","?","?","?","?","?","?","?","?","?","?","?","?","?","?","?","?","?","?","?","?","?","?","?","?","?","?","?","?","?","?","?","?","?","?","?","?","?","?","?","?","?","?","?","?","?","?","?","?","?","?","?","?","?","?","?","?","?","?","?","?","?","?","?","?","?","?","?","?","?","?","?","?","?","?","?","?","?","?","?","?","?","?","?","?","?","?","?","?","?","?","?","?","?","?","?","?","?","?","?","?","?","?","?","?","?","?","?","?","?","?","?","?","?","?","?","?","?","?","?","?","?","?","?","?","?","?","?","?","?","?","?","?","?","?","?","?","?","?","?","?","?","?","?","?","?","?","?","?","?","?","?","?","?","?","?","?","?","?","?","?","?","?","?","?","?","?","?","?","?","?","?","?","?","?","?","?","?","?","?","?","?","?","?","?","?","?","?","?","?","?","?","?","?","?","?","?","?","?","?","?","?","?","?","?","?","?","?","?","?","?","?","?","?","?","?","?","?","?","?","?","?","?","?","?","?","?","?","?","?","?","?","?","?","?","?","?","?","?","?","?","?","?","?","?","?","?","?","?","?","?","?","?","?","?","?","?","?","?","?","?","?","?","?","?","?","?","?","?","?","?","?","?","?","?","?","?","?","?","?","?","?","?","?","?","?","?","?","?","?","?","?","?","?","?","?","?","?","?","?","?","?","?","?","?","?","?","?","?","?","?","?","?","?","?","?","?","?","?","?","?","?","?","?","?","?","?","?","?","?","?","?","?","?","?","?","?","?","?","?","?","?","?","?","?","?","?","?","?","?","?","?","?","?","?","?","?","?","?","?","?","?","?","?","?","?","?","?","?","?","?","?","?","?","?","?","?","?","?","?","?","?","?","?","?","?","?","?","?","?","?","?","?","?","?","?","?","?","?","?","?","?","?","?","?","?","?","?","?","?","?","?","?","?","?","?","?","?","?","?","?","?","?","?","?","?","?","?","?","?","?","?","?","?","?","?","?","?","?","?","?","?","?","?","?","?","?","?","?","?","?","?","?","?","?","?","?","?","?","?","?","?","?","?","?","?","?","?","?","?","?","?","?","?","?","?","?","?","?","?","?","?","?","?","?","?","?","?","?","?","?","?","?","?","?","?","?","?","?","?","?","?","?","?","?","?","?","?","?","?","?","?","?","?","?","?","?","?","?","?","?","?","?","?","?","?","?","?","?","?","?","?","?","?","?","?","?","?","?","?","?","?","?","?","?","?","?","?","?","?","?","?","?","?","?","?","?","?","?","?","?","?","?","?","?","?","?","?","?","?","?","?","?","?","?","?","?","?","?","?","?","?","?","?","?","?","?","?","?","?","?","?","?","?","?","?","?","?","?","?","?","?","?","?","?","?","?","?","?","?","?","?","?","?","?","?","?","?","?","?","?","?","?","?","?","?","?","?","?","?","?","?","?","?","?","?","?","?","?","?","?","?","?","?","?","?","?","?","?","?","?","?","?","?","?","?","?","?","?","?","?","?","?","?","?","?","?","?","?","?","?","?","?","?","?","?","?","?","?","?","?","?","?","?","?","?","?","?","?","?","?","?","?","?","?","?","?","?","?","?","?","?","?","?","?","?","?","?","?","?","?","?","?","?","?","?","?","?","?","?","?","?","?","?","?","?","?","?","?","?","?","?","?","?","?","?","?","?","?","?","?","?","?","?","?","?","?","?","?","?","?","?","?","?","?","?","?","?","?","?","?","?","?","?","?","?","?","?","?","?","?","?","?","?","?","?","?","?","?","?","?","?","?","?","?","?","?","?","?","?","?","?","?","?","?","?","?","?","?","?","?","?","?","?","?","?","?","?","?","?","?","?","?","?","?","?","?","?","?","?","?","?","?","?","?","?","?","?","?","?","?","?","?","?","?","?","?","?","?","?","?","?","?","?","?","?","?","?","?","?","?","?","?","?","?","?","?","?","?","?","?","?","?","?","?","?","?","?","?","?","?","?","?","?","?","?","?","?","?","?","?","?","?","?","?","?","?","?","?","?","?","?","?","?","?","?","?","?","?","?","?","?","?","?","?","?","?","?","?","?","?","?","?","?","?","?","?","?","?","?","?","?","?","?","?","?","?","?","?","?","?","?","?","?","?","?","?","?","?","?","?","?","?","?","?","?","?","?","?","?","?","?","?","?","?","?","?","?","?","?","?","?","?","?","?","?","?","?","?","?","?","?","?","?","?","?","?","?","?","?","?","?","?","?","?","?","?","?","?","?","?","?","?","?","?","?","?","?","?","?","?","?","?","?","?","?","?","?","?","?","?","?","?","?","?","?","?","?","?","?","?","?","?","?","?","?","?","?","?","?","?","?","?","?","?","?","?","?","?","?","?","?","?","?","?","?","?","?","?","?","?","?","?","?","?","?","?","?","?","?","?","?","?","?","?","?","?","?","?","?","?","?","?","?","?","?","?","?","?","?","?","?","?","?","?","?","?","?","?","?","?","?","?","?","?","?","?","?","?","?","?","?","?","?","?","?","?","?","?","?","?","?","?","?","?","?","?","?","?","?","?","?","?","?","?","?","?","?","?","?","?","?","?","?","?","?","?","?","?","?","?","?","?","?","?","?","?","?","?","?","?","?","?","?","?","?","?","?","?","?","?","?","?","?","?","?","?","?","?","?","?","?","?","?","?","?","?","?","?","?","?","?","?","?","?","?","?","?","?","?","?","?","?","?","?","?","?","?","?","?","?","?","?","?","?","?","?","?","?","?","?","?","?","?","?","?","?","?","?","?","?","?","?","?","?","?","?","?","?","?","?","?","?","?","?","?","?","?","?","?","?","?","?","?","?","?","?","?","?","?","?","?","?","?","?","?","?","?","?","?","?","?","?","?","?","?","?","?","?","?","?","?","?","?","?","?","?","?","?","?","?","?","?","?","?","?","?","?","?","?","?","?","?","?","?","?","?","?","?","?","?","?","?","?","?","?","?","?","?","?","?","?","?","?","?","?","?","?","?","?","?","?","?","?","?","?","?","?","?","?","?","?","?","?","?","?","?","?","?","?","?","?","?","?","?","?","?","?","?","?","?","?","?","?","?","?","?","?","?","?","?","?","?","?","?","?","?","?","?","?","?","?","?","?","?","?","?","?","?","?","?","?","?","?","?","?","?","?","?","?","?","?","?","?","?","?","?","?","?","?","?","?","?","?","?","?","?","?","?","?","?","?","?","?","?","?","?","?","?","?","?","?","?","?","?","?","?","?","?","?","?","?","?","?","?","?","?","?","?","?","?","?","?","?","?","?","?","?","?","?","?","?","?","?","?","?","?","?","?","?","?","?","?","?","?","?","?","?","?","?","?","?","?","?","?","?","?","?","?","?","?","?","?","?","?","?","?","?","?","?","?","?","?","?","?","?","?","?","?","?","?","?","?","?","?","?","?","?","?","?","?","?","?","?","?","?","?","?","?","?","?","?","?","?","?","?","?","?","?","?","?","?","?","?","?","?","?","?","?","?","?","?","?","?","?","?","?","?","?","?","?","?","?","?","?","?","?","?","?","?","?","?","?","?","?","?","?","?","?","?","?","?","?","?","?","?","?","?","?","?","?","?","?","?","?","?","?","?","?","?","?","?","?","?","?","?","?","?","?","?","?","?","?","?","?","?","?","?","?","?","?","?","?","?","?","?","?","?","?","?","?","?","?","?","?","?","?","?","?","?","?","?","?","?","?","?","?","?","?","?","?","?","?","?","?","?","?","?","?","?","?","?","?","?","?","?","?","?","?","?","?","?","?","?","?","?","?","?","?","?","?","?","?","?","?","?","?","?","?","?","?","?","?","?","?","?","?","?","?","?","?","?","?","?","?","?","?","?","?","?","?","?","?","?","?","?","?","?","?","?","?","?","?","?","?","?","?","?","?","?","?","?","?","?","?","?","?","?","?","?","?","?","?","?","?","?","?","?","?","?","?","?","?","?","?","?","?","?","?","?","?","?","?","?","?","?","?","?","?","?","?","?","?","?","?","?","?","?","?","?","?","?","?","?","?","?","?","?","?","?","?","?","?","?","?","?","?","?","?","?","?","?","?","?","?","?","?","?","?","?","?","?","?","?","?","?","?","?","?","?","?","?","?","?","?","?","?","?","?","?","?","?","?","?","?","?","?","?","?","?","?","?","?","?","?","?","?","?","?","?","?","?","?","?","?","?","?","?","?","?","?","?","?","?","?","?","?","?","?","?","?","?","?","?","?","?","?","?","?","?","?","?","?","?","?","?","?","?","?","?","?","?","?","?","?","?","?","?","?","?","?","?","?","?","?","?","?","?","?","?","?","?","?","?","?","?","?","?","?","?","?","?","?","?","?","?","?","?","?","?","?","?","?","?","?","?","?","?","?","?","?","?","?","?","?","?","?","?","?","?","?","?","?","?","?","?","?","?","?","?","?","?","?","?","?","?","?","?","?","?","?","?","?","?","?","?","?","?","?","?","?","?","?","?","?","?","?","?","?","?","?","?","?","?","?","?","?","?","?","?","?","?","?","?","?","?","?","?","?","?","?","?","?","?","?","?","?","?","?","?","?","?","?","?","?","?","?","?","?","?","?","?","?","?","?","?","?","?","?","?","?","?","?","?","?","?","?","?","?","?","?","?","?","?","?","?","?","?","?","?","?","?","?","?","?","?","?","?","?","?","?","?","?","?","?","?","?","?","?","?","?","?","?","?","?","?","?","?","?","?","?","?","?","?","?","?","?","?","?","?","?","?","?","?","?","?","?","?","?","?","?","?","?","?","?","?","?","?","?","?","?","?","?","?","?","?","?","?","?","?","?","?","?","?","?","?","?","?","?","?","?","?","?","?","?","?","?","?","?","?","?","?","?","?","?","?","?","?","?","?","?","?","?","?","?","?","?","?","?","?","?","?","?","?","?","?","?","?","?","?","?","?","?","?","?","?","?","?","?","?","?","?","?","?","?","?","?","?","?","?","?","?","?","?","?","?","?","?","?","?","?","?","?","?","?","?","?","?","?","?","?","?","?","?","?","?","?","?","?","?","?","?","?","?","?","?","?","?","?","?","?","?","?","?","?","?","?","?","?","?","?","?","?","?","?","?","?","?","?","?","?","?","?","?","?","?","?","?","?","?","?","?","?","?","?","?","?","?","?","?","?","?","?","?","?","?","?","?","?","?","?","?","?","?","?","?","?","?","?","?","?","?","?","?","?","?","?","?","?","?","?","?","?","?","?","?","?","?","?","?","?","?","?","?","?","?","?","?","?","?","?","?","?","?","?","?","?","?","?","?","?","?","?","?","?","?","?","?","?","?","?","?","?","?","?","?","?","?","?","?","?","?","?","?","?","?","?","?","?","?","?","?","?","?","?","?","?","?","?","?","?","?","?","?","?","?","?","?","?","?","?","?","?","?","?","?","?","?","?","?","?","?","?","?","?","?","?","?","?","?","?","?","?","?","?","?","?","?","?","?","?","?","?","?","?","?","?","?","?","?","?","?","?","?","?","?","?","?","?","?","?","?","?","?","?","?","?","?","?","?","?","?","?","?","?","?","?","?","?","?","?","?","?","?","?","?","?","?","?","?","?","?","?","?","?","?","?","?","?","?","?","?","?","?","?","?","?","?","?","?","?","?","?","?","?","?","?","?","?","?","?","?","?","?","?","?","?","?","?","?","?","?","?","?","?","?","?","?","?","?","?","?","?","?","?","?","?","?","?","?","?","?","?","?","?","?","?","?","?","?","?","?","?","?","?","?","?","?","?","?","?","?","?","?","?","?","?","?","?","?","?","?","?","?","?","?","?","?","?","?","?","?","?","?","?","?","?","?","?","?","?","?","?","?","?","?","?","?","?","?","?","?","?","?","?","?","?","?","?","?","?","?","?","?","?","?","?","?","?","?","?","?","?","?","?","?","?","?","?","?","?","?","?","?","?","?","?","?","?","?","?","?","?","?","?","?","?","?","?","?","?","?","?","?","?","?","?","?","?","?","?","?","?","?","?","?","?","?","?","?","?","?","?","?","?","?","?","?","?","?","?","?","?","?","?","?","?","?","?","?","?","?","?","?","?","?","?","?","?","?","?","?","?","?","?","?","?","?","?","?","?","?","?","?","?","?","?","?","?","?","?","?","?","?","?","?","?","?","?","?","?","?","?","?","?","?","?","?","?","?","?","?","?","?","?","?","?","?","?","?","?","?","?","?","?","?","?","?","?","?","?","?","?","?","?","?","?","?","?","?","?","?","?","?","?","?","?","?","?","?","?","?","?","?","?","?","?","?","?","?","?","?","?","?","?","?","?","?","?","?","?","?","?","?","?","?","?","?","?","?","?","?","?","?","?","?","?","?","?","?","?","?","?","?","?","?","?","?","?","?","?","?","?","?","?","?","?","?","?","?","?","?","?","?","?","?","?","?","?","?","?","?","?","?","?","?","?","?","?","?","?","?","?","?","?","?","?","?","?","?","?","?","?","?","?","?","?","?","?","?","?","?","?","?","?","?","?","?","?","?","?","?","?","?","?","?","?","?","?","?","?","?","?","?","?","?","?","?","?","?","?","?","?","?","?","?","?","?","?","?","?","?","?","?","?","?","?","?","?","?","?","?","?","?","?","?","?","?","?","?","?","?","?","?","?","?","?","?","?","?","?","?","?","?","?","?","?","?","?","?","?","?","?","?","?","?","?","?","?","?","?","?","?","?","?","?","?","?","?","?","?","?","?","?","?","?","?","?","?","?","?","?","?","?","?","?","?","?","?","?","?","?","?","?","?","?","?","?","?","?","?","?","?","?","?","?","?","?","?","?","?","?","?","?","?","?","?","?","?","?","?","?","?","?","?","?","?","?","?","?","?","?","?","?","?","?","?","?","?","?","?","?","?","?","?","?","?","?","?","?","?","?","?","?","?","?","?","?","?","?","?","?","?","?","?","?","?","?","?","?","?","?","?","?","?","?","?","?","?","?","?","?","?","?","?","?","?","?","?","?","?","?","?","?","?","?","?","?","?