[{"success":true,"trial_type":"fullscreen","trial_index":0,"time_elapsed":2367,"internal_node_id":"0.0-0.0","protocol_sum":"","subject_identifier":515,"subject_sum":[76,151,0,4,176,103,141,67,159,23,126,119,211,202,189,183,233,164,77,247,112,148,141,220,36,103,203,199,107,114,17,195],"subject_pair":257,"STUDY_ID":"66a3ed3c5d10d0e7d8a6b9da","PROLIFIC_PID":"62dc6fd89dd8473b3671357e","SESSION_ID":"66a42f0aa7688d0427fcd81d","practice_instructions":1,"leaderboard_instructions":0,"bonus":0,"reveal_word":true,"self_rating":"1","confidence":"79"},{"view_history":"[{\"page_index\":0,\"viewing_time\":2087.60000000149}]","rt":2088,"trial_type":"instructions","trial_index":1,"time_elapsed":4456,"internal_node_id":"0.0-1.0","protocol_sum":"","subject_identifier":515,"subject_sum":[76,151,0,4,176,103,141,67,159,23,126,119,211,202,189,183,233,164,77,247,112,148,141,220,36,103,203,199,107,114,17,195],"subject_pair":257,"STUDY_ID":"66a3ed3c5d10d0e7d8a6b9da","PROLIFIC_PID":"62dc6fd89dd8473b3671357e","SESSION_ID":"66a42f0aa7688d0427fcd81d","practice_instructions":1,"leaderboard_instructions":0,"bonus":0,"reveal_word":true,"self_rating":"1","confidence":"79"},{"view_history":"[{\"page_index\":0,\"viewing_time\":121946.60000000149}]","rt":121947.10000000149,"trial_type":"instructions","trial_index":2,"time_elapsed":126405,"internal_node_id":"0.0-2.0-0.0","protocol_sum":"","subject_identifier":515,"subject_sum":[76,151,0,4,176,103,141,67,159,23,126,119,211,202,189,183,233,164,77,247,112,148,141,220,36,103,203,199,107,114,17,195],"subject_pair":257,"STUDY_ID":"66a3ed3c5d10d0e7d8a6b9da","PROLIFIC_PID":"62dc6fd89dd8473b3671357e","SESSION_ID":"66a42f0aa7688d0427fcd81d","practice_instructions":1,"leaderboard_instructions":0,"bonus":0,"reveal_word":true,"self_rating":"1","confidence":"79"},{"rt":6364.5,"responses":"{\"Q0\":\"... reveal the word with as <b>few letter guesses</b> as possible\"}","question_order":"[0]","trial_type":"survey-multi-choice","trial_index":3,"time_elapsed":132772,"internal_node_id":"0.0-2.0-1.0","protocol_sum":"","subject_identifier":515,"subject_sum":[76,151,0,4,176,103,141,67,159,23,126,119,211,202,189,183,233,164,77,247,112,148,141,220,36,103,203,199,107,114,17,195],"subject_pair":257,"correct":true,"test_part":"multichoice_nonpretend","STUDY_ID":"66a3ed3c5d10d0e7d8a6b9da","PROLIFIC_PID":"62dc6fd89dd8473b3671357e","SESSION_ID":"66a42f0aa7688d0427fcd81d","practice_instructions":1,"leaderboard_instructions":0,"bonus":0,"reveal_word":true,"self_rating":"1","confidence":"79"},{"view_history":"[{\"page_index\":0,\"viewing_time\":1073.3000000044703}]","rt":1073.7000000029802,"trial_type":"instructions","trial_index":4,"time_elapsed":133847,"internal_node_id":"0.0-3.0","protocol_sum":"","subject_identifier":515,"subject_sum":[76,151,0,4,176,103,141,67,159,23,126,119,211,202,189,183,233,164,77,247,112,148,141,220,36,103,203,199,107,114,17,195],"subject_pair":257,"STUDY_ID":"66a3ed3c5d10d0e7d8a6b9da","PROLIFIC_PID":"62dc6fd89dd8473b3671357e","SESSION_ID":"66a42f0aa7688d0427fcd81d","practice_instructions":1,"leaderboard_instructions":0,"bonus":0,"reveal_word":true,"self_rating":"1","confidence":"79"},{"word":"ZEBRA","click_log":{"letter":["","O","A","H","E","Z","B","R"],"t":[0,2691.5,5353.29999999702,23086.39999999851,29564.29999999702,32245.79999999702,34534.29999999702,35892.69999999553],"hit":[null,0,1,0,1,1,1,1],"asked":["","O","OA","OAH","OAHE","OAHEZ","OAHEZB","OAHEZBR"],"word_state":["_____","_____","____A","____A","_E__A","ZE__A","ZEB_A","ZEBRA"]},"hover_log":{"letter":["?","?","?","?","?","?","?","?","?","?","?","?","?","?","?","?","?","?","?","?","?","?","?","?","?","?","?","?","?","?","?","?","?","?","?","?","?","?","?","?","?","?","?","?","?","?","?","?","?","?","?","?","?","?","?","?","?","?","?","?","?","?","?","?","?","?","?","?","?","?","?","?","?","?","?","?","?","?","?","?","?","?","?","?","?","?","?","K","K","K","K","K","K","K","K","K","?","L","L","M","M","?","?","?","?","?","?","?","?","N","N","O","O","?","P","P","P","P","P","P","P","P","P","P","P","P","P","P","P","P","P","P","P","P","P","P","P","P","P","P","P","P","P","P","P","P","P","P","P","?","?","?","?","?","O","O","O","O","O","O","O","O","O","O","O","O","O","O","O","O","O","O","O","O","O","O","O","O","O","O","O","O","O","O","O","O","O","O","O","O","O","O","O","O","O","O","O","O","O","O","O","O","O","O","O","O","O","O","O","O","O","O","O","O","O","O","O","O","O","O","O","O","O","O","?","?","?","?","?","?","?","?","?","?","?","?","?","?","?","?","?","?","?","?","?","?","?","?","?","?","?","?","?","?","?","?","?","?","?","?","?","?","?","?","?","P","P","P","P","P","P","P","P","P","P","P","P","P","P","P","P","P","P","P","P","P","P","P","P","P","P","?","O","O","N","?","?","?","?","?","A","A","A","A","?","?","?","?","?","?","?","?","?","?","?","?","?","?","?","?","?","?","?","A","A","A","A","A","A","A","A","A","A","A","A","A","A","A","A","A","A","A","A","A","A","A","A","A","A","A","A","A","A","A","A","A","A","A","A","A","A","A","A","A","A","A","A","A","A","A","A","A","A","A","A","A","A","A","A","A","A","A","A","A","A","A","A","A","A","A","A","A","A","A","A","A","A","A","A","A","A","A","A","A","A","A","A","A","A","A","A","A","A","A","A","A","A","A","A","A","A","A","A","A","A","A","A","A","A","A","?","?","?","?","?","?","?","?","?","?","?","?","?","?","?","?","?","?","?","?","?","?","?","?","?","?","?","?","?","?","?","?","?","?","?","?","?","?","?","?","?","?","?","?","?","?","?","?","?","?","?","?","?","?","?","?","?","?","?","?","?","?","?","?","?","?","?","?","?","?","?","?","?","?","?","?","?","?","?","?","?","?","?","?","?","?","?","?","?","?","?","?","?","?","?","?","?","?","?","?","?","?","?","?","?","?","?","?","?","?","?","?","?","?","?","?","?","?","?","?","?","?","?","?","?","?","?","?","?","?","?","?","?","?","?","?","?","?","?","?","?","?","?","?","?","?","?","?","?","?","?","?","?","?","?","?","?","?","?","?","?","?","?","?","?","?","?","?","?","?","?","?","?","?","?","?","?","?","?","?","?","?","?","?","?","?","?","?","?","?","?","?","?","?","?","?","?","?","?","?","?","?","?","?","?","?","?","?","?","?","?","?","?","?","?","?","?","?","?","?","?","?","?","?","?","?","?","?","?","?","?","?","?","?","?","?","?","?","?","?","?","?","?","?","?","?","?","?","?","?","?","?","?","?","?","?","?","?","?","?","?","?","?","?","?","?","?","?","?","?","?","?","?","?","?","?","?","?","?","?","?","?","?","?","?","?","?","?","?","?","?","?","?","?","?","?","?","?","?","?","?","?","?","?","?","?","?","?","?","?","?","?","?","?","?","?","?","?","?","?","?","?","?","?","?","?","?","?","?","?","?","?","?","?","?","?","?","?","?","?","?","?","?","?","?","?","?","?","?","?","?","?","?","?","?","?","?","?","?","?","?","?","?","?","?","?","?","?","?","?","?","?","?","?","?","?","?","?","?","?","?","?","?","?","?","?","?","?","?","?","?","?","?","?","?","?","?","?","?","?","?","?","?","?","?","?","?","?","?","?","?","?","?","?","?","?","?","?","?","?","?","?","?","?","?","?","?","?","?","?","?","?","?","?","?","?","?","?","?","?","?","?","?","?","?","?","?","?","?","?","?","?","?","?","?","?","?","?","?","?","?","?","?","?","?","?","?","?","?","?","?","?","?","?","?","?","?","?","?","?","?","?","?","?","?","?","?","?","?","?","?","?","?","?","?","?","?","?","?","?","?","?","?","?","?","?","?","?","?","?","?","?","?","?","?","?","?","?","?","?","?","?","?","?","?","?","?","?","?","?","?","?","?","?","?","?","?","?","?","?","?","?","?","?","?","?","?","?","?","?","?","?","?","?","?","?","?","?","?","?","?","?","?","?","?","?","?","?","?","?","?","?","?","?","?","?","?","?","?","?","?","?","?","?","?","?","?","?","?","?","?","?","?","?","?","?","?","?","?","?","?","?","?","?","?","?","?","?","?","?","?","?","?","?","?","?","?","?","?","?","?","?","?","?","?","?","?","?","?","?","?","?","?","?","?","?","?","?","?","?","?","?","?","?","?","?","?","?","?","?","?","?","?","?","?","?","?","?","?","?","?","?","?","?","?","?","?","?","?","?","?","?","?","?","?","?","?","?","?","?","?","?","?","?","?","?","?","?","?","?","?","?","?","?","?","?","?","?","?","?","?","?","?","?","?","?","?","?","?","?","?","?","?","?","?","?","?","?","?","?","?","?","?","?","?","?","?","?","?","?","?","?","?","?","?","?","?","?","?","?","?","?","?","?","?","?","?","?","?","?","?","?","?","?","?","?","?","?","?","?","?","?","?","?","?","?","?","?","?","?","?","?","?","?","?","?","?","?","?","?","?","?","?","?","?","?","?","?","?","?","?","?","?","?","?","?","?","?","?","?","?","?","?","?","?","?","?","?","?","?","?","?","?","?","?","?","?","?","?","?","?","?","?","?","?","?","?","?","?","?","?","?","?","?","?","?","?","?","?","?","?","?","?","?","?","?","?","?","?","?","?","?","F","?","?","G","G","G","G","G","G","G","G","G","G","G","G","G","G","G","G","G","G","G","G","G","G","G","G","G","G","G","G","G","G","G","G","G","G","G","G","G","G","G","G","G","G","G","G","G","G","G","G","G","G","G","G","?","?","?","?","O","O","O","?","N","N","N","N","N","N","N","N","N","N","N","N","N","N","N","N","N","N","N","N","N","N","N","N","N","?","?","?","?","?","F","F","F","F","F","F","F","F","F","F","F","F","F","F","F","F","F","?","?","?","?","?","?","?","?","?","?","F","F","G","G","G","G","G","G","G","?","?","?","H","H","H","H","H","H","H","H","H","H","H","H","H","H","H","H","H","H","H","H","H","H","H","H","H","H","H","H","H","H","H","H","H","H","H","H","H","H","H","H","H","H","H","H","H","H","H","H","H","H","H","H","H","H","H","H","H","H","H","H","H","?","?","?","?","?","?","?","?","?","?","?","?","?","?","?","?","?","?","?","?","?","?","?","?","?","?","?","?","?","?","?","?","?","?","?","?","?","?","?","?","?","?","?","?","?","?","?","?","?","?","?","?","?","?","?","?","?","?","?","?","?","?","?","?","?","?","?","?","?","?","?","?","?","?","?","?","?","?","?","?","?","?","?","?","?","?","?","?","?","?","?","?","?","?","?","?","?","?","?","?","?","?","?","?","?","?","?","?","?","?","?","?","?","?","?","?","?","?","?","?","?","?","?","?","?","?","?","?","?","?","?","?","?","?","?","?","?","?","?","?","?","?","?","?","?","?","?","?","?","?","?","?","?","?","?","?","?","?","?","?","?","?","?","?","?","?","?","?","?","?","?","?","?","?","?","?","?","?","?","?","?","?","?","?","?","?","?","?","?","?","?","?","?","?","?","?","?","?","?","?","?","?","?","?","?","?","?","?","?","?","?","?","?","?","?","?","?","?","?","?","?","?","?","?","?","?","?","?","?","?","?","?","?","?","?","?","?","?","?","?","?","?","?","?","?","?","?","?","?","?","?","?","?","?","?","?","?","?","?","?","?","?","?","?","?","?","?","?","?","?","?","?","?","?","?","?","?","?","?","?","?","?","?","?","?","?","?","?","?","?","?","?","?","?","?","?","?","?","?","P","P","P","P","P","?","?","?","O","O","O","N","N","N","?","M","M","M","?","?","?","?","?","?","?","?","?","?","?","?","D","?","?","?","?","?","?","?","?","?","?","?","?","?","?","?","?","?","?","?","?","?","?","?","?","E","E","E","E","E","E","E","E","E","E","E","E","E","E","E","E","E","E","E","E","E","E","E","E","E","E","E","E","E","E","E","E","E","E","E","E","E","E","E","E","E","E","E","E","E","E","E","E","?","?","?","?","L","L","L","L","L","?","?","?","?","?","?","?","?","?","?","?","?","?","?","?","?","?","?","L","L","M","N","?","O","?","?","P","P","P","Q","Q","Q","?","?","?","?","?","?","?","?","?","?","?","?","?","?","?","?","?","?","?","?","?","?","?","?","?","?","?","?","?","?","?","?","?","?","?","?","?","?","?","?","?","?","?","?","?","?","?","?","?","?","?","?","?","?","?","Y","Y","Y","Y","Y","Y","Y","Y","Y","Y","Y","Y","Y","Y","Y","?","Z","Z","Z","Z","Z","Z","Z","Z","Z","Z","Z","Z","Z","Z","Z","Z","Z","Z","Z","Z","Z","Z","Z","Z","Z","Z","Z","Z","Z","Z","Z","Z","Z","Z","Z","Z","Z","Z","Z","Z","Z","Z","?","?","Y","?","?","?","?","?","?","?","?","?","?","?","X","X","?","?","?","?","?","?","?","?","?","?","?","?","?","?","?","O","?","P","P","P","P","P","P","P","P","P","P","?","?","?","?","?","?","?","?","?","?","P","P","P","P","?","?","?","?","?","E","E","?","D","D","D","?","?","?","?","?","?","?","?","?","?","?","?","C","C","C","C","C","C","C","C","C","B","B","B","?","?","?","?","?","?","?","?","?","?","?","B","B","B","B","B","B","B","B","B","B","B","B","B","B","B","B","B","B","B","B","B","B","B","B","B","B","B","B","B","B","B","C","D","?","?","?","O","?","P","P","P","P","P","P","P","P","P","P","P","P","P","P","P","P","P","P","P","P","P","P","P","P","P","P","P","P","P","Q","Q","Q","?","?","?","?","?","?","?","?","?","?","?","?","R","R","R","R","R","R","R","R","R","R","R","R","R","R","R","R","R","R","R","R","R","R","R","R","R","R","R","R","R","R","R","R","R","R","R","R","R","R","R","R","R","R","R","R","R","R","R","R","R","R","R","R","R","Q","Q","?","Y","?","X","?","?","?","?","?","?","?","?","?","?","?","?","?","?","?","?","?","?","?","?","?","?","?","?","?","?","?","?","?","?","?","?","?","?","?","?","?","?","?","?","?","?","?","?","?","?","?","?","?","?","?","?","?","?","?","?","?","?","?","?","?","?","?","?","?","?","?","?","?","?","?","?","?","?","?","?","?","?","?","?","?","?","?","?","?","?"],"t":[26,28,48,65,82,98,115,133,153,168,183,199,216,231,243,256,271,288,303,320,339,353,368,384,402,417,431,445,464,478,493,510,527,544,560,577,594,610,628,643,661,677,690,706,719,733,749,765,781,798,814,831,848,865,881,899,915,928,944,959,978,993,1009,1023,1036,1051,1063,1080,1093,1109,1125,1140,1153,1169,1182,1197,1210,1226,1241,1256,1269,1284,1299,1314,1326,1342,1358,1374,1390,1406,1423,1440,1455,1469,1484,1500,1516,1531,1548,1564,1582,1598,1615,1631,1649,1665,1679,1692,1706,1726,1741,1756,1774,1790,1806,1823,1841,1856,1873,1891,1906,1920,1935,1952,1967,1982,1998,2015,2030,2046,2058,2072,2089,2105,2120,2135,2151,2167,2182,2199,2213,2228,2244,2261,2278,2295,2311,2327,2345,2361,2377,2394,2412,2431,2450,2462,2479,2495,2511,2527,2544,2559,2574,2589,2606,2620,2637,2653,2667,2685,2701,2715,2731,2746,2762,2779,2793,2810,2826,2841,2854,2868,2880,2896,2912,2927,2944,2959,2972,2988,3006,3024,3038,3051,3067,3086,3100,3114,3127,3142,3155,3171,3186,3202,3219,3233,3252,3267,3285,3303,3316,3330,3345,3364,3379,3394,3411,3426,3444,3460,3476,3496,3513,3533,3544,3560,3577,3594,3608,3627,3644,3661,3680,3696,3708,3722,3737,3751,3768,3783,3799,3814,3830,3848,3861,3874,3889,3901,3916,3932,3947,3964,3979,3994,4011,4024,4037,4051,4062,4078,4093,4111,4126,4144,4160,4178,4192,4205,4223,4240,4256,4272,4294,4310,4328,4344,4360,4377,4395,4407,4421,4437,4457,4476,4491,4507,4524,4539,4562,4581,4599,4612,4626,4643,4661,4677,4695,4711,4728,4743,4761,4777,4793,4810,4827,4843,4860,4877,4891,4906,4923,4938,4952,4968,4984,4999,5014,5030,5045,5061,5077,5091,5106,5123,5137,5153,5168,5185,5201,5216,5229,5246,5261,5278,5293,5310,5328,5346,5363,5380,5395,5411,5427,5441,5458,5474,5487,5501,5519,5531,5546,5562,5576,5592,5604,5617,5632,5644,5660,5679,5694,5710,5726,5741,5758,5773,5787,5806,5821,5837,5852,5864,5876,5892,5908,5923,5939,5956,5972,5988,6006,6021,6036,6050,6068,6083,6099,6114,6131,6146,6164,6185,6201,6219,6235,6252,6269,6286,6302,6319,6336,6351,6363,6379,6392,6407,6421,6437,6457,6476,6490,6506,6523,6542,6558,6571,6584,6597,6612,6628,6643,6657,6674,6692,6710,6724,6741,6754,6771,6784,6802,6818,6835,6851,6870,6886,6901,6919,6936,6952,6972,6990,7008,7022,7037,7054,7070,7083,7100,7114,7131,7148,7161,7175,7189,7212,7232,7246,7263,7278,7295,7311,7328,7344,7362,7378,7394,7411,7427,7445,7461,7475,7490,7505,7518,7536,7553,7570,7585,7602,7617,7632,7648,7666,7682,7698,7715,7731,7744,7760,7773,7794,7809,7825,7838,7852,7864,7880,7897,7915,7930,7944,7960,7977,7994,8006,8022,8036,8052,8076,8096,8115,8133,8149,8166,8183,8199,8216,8232,8250,8266,8283,8299,8316,8333,8349,8366,8382,8400,8417,8433,8449,8466,8483,8499,8516,8533,8549,8566,8582,8599,8616,8633,8650,8666,8682,8700,8716,8733,8750,8766,8783,8800,8816,8833,8850,8867,8882,8899,8916,8933,8950,8966,8982,8999,9016,9033,9049,9066,9083,9099,9116,9133,9150,9166,9183,9199,9216,9233,9249,9266,9282,9299,9316,9332,9349,9366,9383,9400,9415,9433,9449,9466,9482,9499,9515,9532,9549,9566,9582,9599,9616,9632,9649,9666,9682,9699,9716,9732,9749,9766,9783,9800,9813,9827,9839,9854,9871,9886,9903,9919,9932,9948,9965,9982,9998,10015,10031,10044,10060,10073,10088,10101,10117,10134,10146,10160,10172,10188,10205,10223,10238,10252,10266,10285,10300,10317,10329,10344,10355,10371,10388,10400,10415,10426,10442,10458,10475,10490,10506,10519,10539,10555,10570,10585,10598,10613,10627,10640,10654,10673,10690,10707,10721,10735,10748,10762,10777,10795,10810,10826,10844,10859,10875,10888,10902,10913,10929,10945,10961,10977,10992,11006,11018,11033,11049,11067,11084,11096,11114,11130,11144,11160,11172,11184,11200,11216,11231,11248,11268,11282,11297,11313,11331,11346,11362,11375,11392,11412,11431,11446,11461,11479,11494,11510,11527,11542,11556,11577,11591,11608,11627,11640,11660,11676,11691,11704,11718,11730,11746,11762,11778,11794,11813,11829,11844,11859,11873,11885,11901,11916,11936,11951,11967,11980,11994,12006,12022,12037,12057,12071,12086,12100,12119,12135,12150,12164,12179,12198,12213,12228,12244,12261,12276,12294,12310,12328,12343,12357,12373,12386,12401,12414,12430,12446,12461,12478,12494,12507,12521,12536,12556,12571,12584,12602,12620,12634,12648,12663,12682,12696,12711,12726,12744,12759,12775,12790,12806,12823,12840,12857,12873,12890,12906,12924,12938,12952,12964,12980,12996,13015,13030,13044,13058,13073,13085,13100,13118,13136,13151,13170,13185,13203,13220,13237,13252,13270,13286,13304,13319,13337,13354,13370,13387,13403,13419,13436,13453,13470,13486,13503,13520,13537,13553,13569,13587,13603,13620,13637,13654,13669,13687,13703,13720,13737,13753,13770,13787,13803,13820,13836,13853,13870,13887,13904,13920,13937,13954,13970,13987,14003,14020,14037,14053,14070,14086,14104,14121,14137,14154,14170,14187,14203,14220,14236,14252,14270,14286,14304,14320,14337,14353,14370,14387,14402,14420,14436,14453,14470,14487,14503,14520,14537,14554,14570,14586,14603,14620,14638,14653,14670,14687,14704,14720,14736,14753,14770,14786,14803,14820,14836,14853,14869,14887,14903,14920,14936,14953,14970,14987,15003,15020,15035,15053,15070,15083,15098,15114,15132,15147,15161,15176,15190,15206,15219,15234,15247,15271,15287,15303,15320,15337,15353,15370,15387,15404,15420,15436,15453,15470,15486,15504,15520,15536,15554,15570,15587,15603,15620,15637,15654,15669,15687,15703,15719,15736,15754,15770,15786,15803,15820,15837,15854,15870,15887,15902,15920,15937,15954,15970,15987,16003,16020,16036,16053,16070,16087,16103,16119,16137,16154,16170,16187,16202,16220,16236,16254,16270,16287,16304,16320,16336,16353,16370,16386,16404,16420,16436,16453,16470,16487,16503,16520,16537,16554,16570,16587,16603,16620,16637,16652,16670,16687,16703,16720,16737,16753,16770,16786,16803,16820,16837,16852,16869,16887,16903,16920,16936,16953,16969,16987,17004,17020,17037,17053,17070,17086,17104,17120,17135,17153,17170,17187,17203,17220,17236,17254,17270,17286,17304,17320,17337,17354,17370,17387,17404,17420,17437,17453,17470,17487,17503,17521,17536,17553,17570,17587,17604,17620,17637,17653,17671,17686,17703,17719,17736,17753,17770,17786,17803,17820,17835,17853,17870,17884,17897,17912,17926,17939,17955,17971,17986,18003,18018,18031,18048,18060,18073,18091,18107,18120,18140,18155,18170,18184,18200,18216,18233,18245,18261,18275,18293,18312,18324,18338,18353,18366,18385,18400,18415,18430,18447,18462,18481,18497,18511,18526,18542,18554,18569,18589,18605,18619,18635,18652,18668,18686,18701,18716,18731,18748,18764,18781,18796,18809,18822,18838,18855,18871,18886,18902,18915,18931,18944,18964,18979,18995,19008,19021,19034,19050,19065,19082,19098,19114,19130,19154,19170,19186,19203,19219,19237,19253,19270,19286,19303,19320,19337,19353,19369,19387,19402,19420,19437,19453,19470,19487,19503,19520,19537,19553,19570,19586,19603,19620,19636,19654,19669,19686,19703,19720,19736,19754,19769,19786,19802,19819,19835,19852,19869,19886,19902,19918,19936,19953,19969,19986,20003,20020,20036,20052,20065,20082,20095,20108,20120,20135,20152,20170,20186,20201,20214,20231,20249,20266,20281,20294,20310,20327,20345,20359,20372,20388,20403,20420,20435,20453,20469,20486,20502,20521,20534,20549,20566,20581,20597,20616,20631,20648,20665,20681,20697,20716,20729,20746,20760,20773,20788,20803,20818,20831,20848,20864,20878,20894,20907,20921,20933,20948,20965,20982,20999,21014,21026,21042,21054,21068,21083,21101,21117,21133,21147,21163,21181,21201,21219,21232,21249,21265,21282,21296,21311,21331,21345,21360,21376,21388,21402,21419,21436,21452,21468,21486,21501,21519,21535,21552,21568,21587,21602,21620,21639,21652,21672,21688,21705,21721,21736,21753,21769,21785,21802,21819,21836,21852,21870,21886,21903,21920,21936,21952,21969,21986,22002,22019,22035,22053,22069,22086,22103,22119,22136,22150,22166,22181,22197,22218,22237,22252,22266,22280,22299,22314,22332,22348,22365,22382,22398,22414,22432,22449,22468,22483,22499,22515,22531,22548,22566,22582,22598,22615,22631,22648,22665,22681,22697,22715,22731,22749,22765,22782,22796,22813,22831,22845,22859,22874,22895,22911,22927,22941,22958,22979,22997,23012,23028,23044,23061,23078,23094,23111,23128,23148,23164,23181,23199,23215,23230,23248,23265,23279,23294,23310,23327,23343,23361,23376,23389,23402,23418,23433,23452,23467,23483,23499,23517,23528,23543,23563,23580,23596,23611,23628,23641,23656,23674,23686,23700,23716,23731,23748,23765,23783,23795,23809,23826,23843,23858,23873,23889,23906,23921,23939,23957,23972,23991,24008,24024,24041,24058,24074,24091,24107,24124,24141,24158,24174,24191,24207,24224,24240,24257,24274,24291,24308,24324,24341,24358,24374,24391,24408,24424,24441,24458,24474,24490,24507,24524,24541,24557,24574,24591,24607,24624,24641,24657,24675,24691,24708,24724,24740,24757,24775,24790,24807,24824,24841,24857,24874,24891,24908,24924,24941,24957,24974,24991,25007,25024,25041,25057,25074,25091,25108,25124,25141,25158,25174,25190,25208,25224,25241,25257,25274,25291,25307,25324,25340,25357,25374,25390,25407,25424,25441,25458,25474,25490,25507,25525,25541,25557,25574,25591,25608,25624,25641,25657,25674,25691,25707,25724,25741,25756,25769,25785,25805,25820,25836,25853,25868,25881,25897,25910,25925,25941,25956,25972,25989,26005,26020,26035,26048,26064,26077,26092,26105,26121,26138,26152,26170,26185,26202,26218,26235,26252,26269,26285,26298,26314,26327,26343,26356,26371,26387,26407,26421,26435,26451,26469,26485,26503,26518,26536,26551,26564,26581,26594,26611,26628,26644,26657,26672,26686,26698,26715,26730,26746,26762,26779,26791,26807,26821,26840,26857,26870,26889,26908,26920,26934,26951,26969,26982,26996,27013,27031,27045,27059,27074,27088,27105,27121,27137,27152,27167,27184,27200,27215,27232,27245,27259,27276,27293,27310,27324,27337,27353,27368,27385,27400,27416,27429,27443,27454,27470,27487,27502,27519,27534,27547,27568,27583,27597,27613,27630,27645,27659,27676,27692,27707,27722,27739,27754,27772,27787,27801,27816,27830,27847,27862,27877,27891,27910,27926,27941,27955,27972,27987,28005,28020,28037,28052,28072,28087,28100,28117,28135,28149,28162,28178,28197,28211,28226,28240,28260,28274,28289,28301,28313,28329,28345,28360,28376,28393,28410,28427,28444,28461,28476,28494,28510,28527,28543,28561,28578,28593,28611,28626,28643,28659,28677,28693,28710,28726,28744,28761,28776,28793,28810,28827,28843,28859,28877,28894,28909,28926,28943,28960,28976,28993,29010,29026,29045,29059,29073,29088,29107,29120,29136,29152,29169,29186,29201,29220,29233,29247,29264,29280,29294,29308,29324,29340,29356,29372,29389,29406,29424,29437,29453,29472,29491,29509,29524,29540,29556,29574,29588,29605,29619,29636,29650,29662,29681,29693,29709,29723,29737,29754,29774,29789,29802,29821,29838,29853,29867,29885,29900,29915,29930,29947,29963,29976,29988,30003,30020,30035,30051,30066,30085,30100,30114,30131,30147,30165,30180,30197,30214,30230,30247,30263,30282,30297,30315,30330,30348,30364,30380,30397,30415,30434,30452,30466,30481,30498,30515,30531,30548,30564,30580,30597,30615,30632,30648,30665,30681,30697,30714,30732,30747,30766,30782,30798,30814,30832,30848,30863,30878,30896,30911,30926,30943,30958,30973,30988,31004,31018,31036,31052,31069,31086,31102,31119,31136,31152,31168,31184,31200,31214,31231,31246,31261,31278,31299,31318,31332,31349,31365,31381,31398,31416,31433,31451,31469,31485,31502,31518,31536,31550,31569,31586,31603,31619,31635,31652,31669,31687,31703,31719,31736,31753,31769,31786,31803,31819,31836,31853,31866,31881,31892,31908,31924,31941,31956,31973,31990,32007,32023,32041,32058,32074,32089,32106,32122,32140,32157,32173,32189,32207,32221,32238,32255,32270,32285,32302,32317,32332,32349,32364,32381,32396,32412,32429,32445,32457,32472,32491,32503,32516,32531,32547,32564,32582,32599,32617,32633,32650,32666,32682,32700,32715,32732,32749,32765,32783,32799,32815,32832,32849,32865,32882,32899,32916,32933,32949,32965,32982,32999,33014,33028,33041,33058,33075,33091,33107,33124,33140,33158,33174,33191,33207,33225,33241,33258,33274,33291,33310,33328,33344,33361,33378,33393,33408,33426,33440,33457,33472,33486,33501,33520,33536,33553,33569,33586,33604,33621,33637,33653,33670,33687,33703,33719,33737,33754,33771,33786,33803,33820,33837,33852,33867,33881,33893,33908,33926,33940,33957,33973,33991,34010,34028,34042,34058,34075,34090,34107,34123,34141,34157,34174,34194,34207,34223,34239,34257,34271,34287,34305,34319,34336,34354,34370,34386,34404,34423,34438,34456,34473,34491,34508,34521,34535,34551,34569,34584,34600,34615,34632,34644,34661,34678,34695,34709,34726,34739,34757,34769,34788,34808,34825,34843,34860,34876,34893,34910,34927,34944,34960,34977,34994,35010,35027,35043,35061,35074,35088,35103,35118,35131,35145,35161,35177,35194,35211,35224,35237,35251,35267,35285,35300,35314,35329,35347,35362,35379,35394,35412,35428,35445,35461,35477,35493,35510,35528,35542,35557,35572,35590,35604,35621,35637,35653,35669,35686,35703,35717,35730,35742,35759,35775,35789,35806,35823,35841,35860,35874,35891,35909,35922,35939,35960,35980,35993,36007,36028,36048,36061,36078,36095,36111,36131,36146,36160,36174,36189,36206,36222,36240,36259,36278,36293,36309,36323,36337,36354,36366,36380,36393,36407,36424,36441,36456,36475,36494,36510,36527,36543,36560,36577,36594,36612,36624,36638,36654,36673,36687,36701,36717,36729,36743,36755,36771,36787,36803,36819,36835,36848,36868,36882,36899,36914,36927,36942,36963,36979,36992,37006,37018,37033,37048,37065,37082,37096,37110,37122,37138,37154,37170,37185,37208,37226,37241,37257,37273,37290,37306,37323,37337,37351,37363,37379,37394,37411,37428,37445,37458,37477,37491,37508,37522,37539,37554,37570,37586,37603,37616,37630,37648,37661,37675,37688,37704,37722,37742,37754,37767,37784,37802,37816,37830,37846,37867,37886,37903],"hit":[null],"x":[-2,-2,-2,-2,-2,-2,-2,-2,-2,-2,-2,-2,-2,-2,-2,-2,-2,-2,-2,-2,-2,-2,-2,-2,-2,-2,-2,-2,-2,-2,-2,-2,-2,-2,-2,-2,-2,-2,-2,-2,-2,-2,-2,-2,-2,-2,-2,-2,-2,-2,-2,-2,-2,-2,-2,-2,-2,-2,-2,-2,-2,-2,-2,-2,-2,-2,-2,-2,-2,-2,-2,-2,-2,-2,-2,-2,-2,-2,-2,-2,-2,-2,-2,0.06462585034013606,0.0782312925170068,0.09183673469387756,0.10204081632653061,0.11564625850340136,0.11904761904761904,0.12244897959183673,0.12585034013605442,0.1292517006802721,0.1326530612244898,0.1360544217687075,0.1564625850340136,0.18027210884353742,0.21768707482993196,0.2687074829931973,0.3401360544217687,0.4013605442176871,0.46258503401360546,0.4897959183673469,0.5,0.5034013605442177,0.5034013605442177,0.5068027210884354,0.5068027210884354,0.5068027210884354,0.5068027210884354,0.54421768707483,0.5986394557823129,0.6632653061224489,0.7414965986394558,0.8095238095238095,0.8401360544217688,0.8673469387755102,0.8775510204081632,0.8809523809523809,0.8843537414965986,0.8843537414965986,0.8843537414965986,0.8843537414965986,0.8843537414965986,0.8843537414965986,0.8843537414965986,0.8843537414965986,0.8843537414965986,0.8843537414965986,0.8843537414965986,0.8843537414965986,0.8843537414965986,0.8843537414965986,0.8843537414965986,0.8843537414965986,0.8843537414965986,0.8843537414965986,0.8809523809523809,0.8775510204081632,0.8741496598639455,0.8707482993197279,0.8673469387755102,0.8639455782312925,0.8605442176870748,0.8469387755102041,0.8367346938775511,0.826530612244898,0.8129251700680272,0.8061224489795918,0.8027210884353742,0.7959183673469388,0.7925170068027211,0.7857142857142857,0.7789115646258503,0.7755102040816326,0.7687074829931972,0.7653061224489796,0.7619047619047619,0.7585034013605442,0.7517006802721088,0.7482993197278912,0.7448979591836735,0.7448979591836735,0.7414965986394558,0.7414965986394558,0.7414965986394558,0.7414965986394558,0.7414965986394558,0.7414965986394558,0.7414965986394558,0.7414965986394558,0.7414965986394558,0.7414965986394558,0.7414965986394558,0.7414965986394558,0.7414965986394558,0.7414965986394558,0.7414965986394558,0.7414965986394558,0.7414965986394558,0.7414965986394558,0.7414965986394558,0.7414965986394558,0.7414965986394558,0.7414965986394558,0.7414965986394558,0.7414965986394558,0.7414965986394558,0.7414965986394558,0.7414965986394558,0.7414965986394558,0.7414965986394558,0.7414965986394558,0.7414965986394558,0.7414965986394558,0.7414965986394558,0.7414965986394558,0.7414965986394558,0.7414965986394558,0.7414965986394558,0.7414965986394558,0.7414965986394558,0.7414965986394558,0.7414965986394558,0.7414965986394558,0.7414965986394558,0.7414965986394558,0.7414965986394558,0.7414965986394558,0.7414965986394558,0.7414965986394558,0.7414965986394558,0.7414965986394558,0.7414965986394558,0.7414965986394558,0.7414965986394558,0.7448979591836735,0.7448979591836735,0.7448979591836735,0.7482993197278912,0.7482993197278912,0.7482993197278912,0.7482993197278912,0.7482993197278912,0.7482993197278912,0.7482993197278912,0.7517006802721088,0.7517006802721088,0.7517006802721088,0.7517006802721088,0.7517006802721088,0.7517006802721088,0.7517006802721088,0.7517006802721088,0.7517006802721088,0.7517006802721088,0.7517006802721088,0.7517006802721088,0.7517006802721088,0.7517006802721088,0.7517006802721088,0.7517006802721088,0.7517006802721088,0.7517006802721088,0.7551020408163265,0.7551020408163265,0.7551020408163265,0.7551020408163265,0.7551020408163265,0.7551020408163265,0.7551020408163265,0.7551020408163265,0.7585034013605442,0.7585034013605442,0.7585034013605442,0.7619047619047619,0.7619047619047619,0.7653061224489796,0.7721088435374149,0.782312925170068,0.7925170068027211,0.8061224489795918,0.8163265306122449,0.8231292517006803,0.8299319727891157,0.8367346938775511,0.8401360544217688,0.8435374149659864,0.8469387755102041,0.8503401360544217,0.8503401360544217,0.8537414965986394,0.8537414965986394,0.8537414965986394,0.8537414965986394,0.8537414965986394,0.8571428571428571,0.8571428571428571,0.8571428571428571,0.8571428571428571,0.8571428571428571,0.8571428571428571,0.8571428571428571,0.8571428571428571,0.8571428571428571,0.8571428571428571,0.8571428571428571,0.8571428571428571,0.8571428571428571,0.8503401360544217,0.8401360544217688,0.8197278911564626,0.7857142857142857,0.7278911564625851,0.6666666666666666,0.5952380952380952,0.4965986394557823,0.35034013605442177,0.24489795918367346,0.11904761904761904,0.061224489795918366,0.030612244897959183,-0.017006802721088437,-0.034013605442176874,-0.04081632653061224,-0.047619047619047616,-0.047619047619047616,-0.047619047619047616,-0.047619047619047616,-0.047619047619047616,-0.047619047619047616,-0.047619047619047616,-0.047619047619047616,-0.047619047619047616,-0.047619047619047616,-0.047619047619047616,-0.047619047619047616,-0.047619047619047616,-0.047619047619047616,-0.047619047619047616,-0.047619047619047616,-0.04421768707482993,-0.04421768707482993,-0.04421768707482993,-0.04081632653061224,-0.04081632653061224,-0.03741496598639456,-0.03741496598639456,-0.034013605442176874,-0.034013605442176874,-0.034013605442176874,-0.034013605442176874,-0.030612244897959183,-0.027210884353741496,-0.02040816326530612,-0.02040816326530612,-0.02040816326530612,-0.02040816326530612,-0.02040816326530612,-0.02040816326530612,-0.02040816326530612,-0.02040816326530612,-0.02040816326530612,-0.02040816326530612,-0.02040816326530612,-0.02040816326530612,-0.02040816326530612,-0.02040816326530612,-0.02040816326530612,-0.02040816326530612,-0.02040816326530612,-0.02040816326530612,-0.02040816326530612,-0.02040816326530612,-0.02040816326530612,-0.02040816326530612,-0.02040816326530612,-0.02040816326530612,-0.02040816326530612,-0.02040816326530612,-0.02040816326530612,-0.02040816326530612,-0.02040816326530612,-0.02040816326530612,-0.02040816326530612,-0.02040816326530612,-0.02040816326530612,-0.02040816326530612,-0.02040816326530612,-0.02040816326530612,-0.02040816326530612,-0.02040816326530612,-0.02040816326530612,-0.02040816326530612,-0.02040816326530612,-0.02040816326530612,-0.02040816326530612,-0.02040816326530612,-0.02040816326530612,-0.02040816326530612,-0.02040816326530612,-0.02040816326530612,-0.02040816326530612,-0.02040816326530612,-0.02040816326530612,-0.02040816326530612,-0.02040816326530612,-0.02040816326530612,-0.02040816326530612,-0.02040816326530612,-0.02040816326530612,-0.02040816326530612,-0.02040816326530612,-0.02040816326530612,-0.02040816326530612,-0.02040816326530612,-0.02040816326530612,-0.02040816326530612,-0.017006802721088437,-0.013605442176870748,-0.01020408163265306,-0.006802721088435374,-0.006802721088435374,-0.003401360544217687,-0.003401360544217687,-0.003401360544217687,0,0,0,0,0.003401360544217687,0.003401360544217687,0.003401360544217687,0.003401360544217687,0.003401360544217687,0.003401360544217687,0.003401360544217687,0.003401360544217687,0.003401360544217687,0.006802721088435374,0.006802721088435374,0.006802721088435374,0.006802721088435374,0.006802721088435374,0.006802721088435374,0.006802721088435374,0.01020408163265306,0.01020408163265306,0.013605442176870748,0.017006802721088437,0.023809523809523808,0.03741496598639456,0.061224489795918366,0.12585034013605442,0.16666666666666666,0.22108843537414966,0.25170068027210885,0.282312925170068,0.29931972789115646,0.30612244897959184,0.3163265306122449,0.3163265306122449,0.3163265306122449,0.3163265306122449,0.3163265306122449,0.3163265306122449,0.3163265306122449,0.3163265306122449,0.3163265306122449,0.3163265306122449,0.3163265306122449,0.3163265306122449,0.3163265306122449,0.3163265306122449,0.3163265306122449,0.3163265306122449,0.3163265306122449,0.3163265306122449,0.3163265306122449,0.3333333333333333,0.4013605442176871,0.5068027210884354,0.6292517006802721,0.7108843537414966,0.7721088435374149,0.8231292517006803,0.8469387755102041,0.8571428571428571,0.8605442176870748,0.8639455782312925,0.8639455782312925,0.8639455782312925,0.8639455782312925,0.8639455782312925,0.8639455782312925,0.8639455782312925,0.8639455782312925,0.8639455782312925,0.8639455782312925,0.8639455782312925,0.8639455782312925,0.8639455782312925,0.8639455782312925,0.8639455782312925,0.8639455782312925,0.8639455782312925,0.8639455782312925,0.8639455782312925,0.8639455782312925,0.8639455782312925,0.8639455782312925,0.8639455782312925,0.8639455782312925,0.8639455782312925,0.8639455782312925,0.8639455782312925,0.8639455782312925,0.8639455782312925,0.8639455782312925,0.8639455782312925,0.8639455782312925,0.8639455782312925,0.8639455782312925,0.8639455782312925,0.8639455782312925,0.8639455782312925,0.8639455782312925,0.8639455782312925,0.8639455782312925,0.8639455782312925,0.8639455782312925,0.8639455782312925,0.8639455782312925,0.8639455782312925,0.8639455782312925,0.8639455782312925,0.8639455782312925,0.8639455782312925,0.8639455782312925,0.8639455782312925,0.8639455782312925,0.8639455782312925,0.8639455782312925,0.8639455782312925,0.8639455782312925,0.8639455782312925,0.8639455782312925,0.8639455782312925,0.8639455782312925,0.8639455782312925,0.8639455782312925,0.8639455782312925,0.8639455782312925,0.8639455782312925,0.8639455782312925,0.8639455782312925,0.8639455782312925,0.8639455782312925,0.8639455782312925,0.8639455782312925,0.8639455782312925,0.8639455782312925,0.8639455782312925,0.8639455782312925,0.8639455782312925,0.8639455782312925,0.8639455782312925,0.8639455782312925,0.8639455782312925,0.8639455782312925,0.8639455782312925,0.8639455782312925,0.8639455782312925,0.8639455782312925,0.8639455782312925,0.8639455782312925,0.8639455782312925,0.8639455782312925,0.8639455782312925,0.8639455782312925,0.8639455782312925,0.8639455782312925,0.8639455782312925,0.8639455782312925,0.8639455782312925,0.8639455782312925,0.8639455782312925,0.8639455782312925,0.8639455782312925,0.8639455782312925,0.8639455782312925,0.8639455782312925,0.8639455782312925,0.8639455782312925,0.8639455782312925,0.8639455782312925,0.8639455782312925,0.8639455782312925,0.8639455782312925,0.8639455782312925,0.8639455782312925,0.8639455782312925,0.8639455782312925,0.8639455782312925,0.8639455782312925,0.8639455782312925,0.8639455782312925,0.8639455782312925,0.8639455782312925,0.8639455782312925,0.8639455782312925,0.8639455782312925,0.8639455782312925,0.8639455782312925,0.8639455782312925,0.8639455782312925,0.8639455782312925,0.8639455782312925,0.8639455782312925,0.8639455782312925,0.8639455782312925,0.8639455782312925,0.8639455782312925,0.8639455782312925,0.8639455782312925,0.8639455782312925,0.8639455782312925,0.8639455782312925,0.8639455782312925,0.8639455782312925,0.8639455782312925,0.8639455782312925,0.8639455782312925,0.8639455782312925,0.8639455782312925,0.8639455782312925,0.8639455782312925,0.8639455782312925,0.8639455782312925,0.8639455782312925,0.8639455782312925,0.8639455782312925,0.8639455782312925,0.8639455782312925,0.8639455782312925,0.8639455782312925,0.8639455782312925,0.8639455782312925,0.8639455782312925,0.8639455782312925,0.8639455782312925,0.8639455782312925,0.8639455782312925,0.8639455782312925,0.8639455782312925,0.8639455782312925,0.8639455782312925,0.8639455782312925,0.8639455782312925,0.8639455782312925,0.8639455782312925,0.8639455782312925,0.8639455782312925,0.8639455782312925,0.8639455782312925,0.8639455782312925,0.8639455782312925,0.8639455782312925,0.8639455782312925,0.8639455782312925,0.8639455782312925,0.8639455782312925,0.8639455782312925,0.8639455782312925,0.8639455782312925,0.8639455782312925,0.8639455782312925,0.8639455782312925,0.8639455782312925,0.8639455782312925,0.8639455782312925,0.8639455782312925,0.8639455782312925,0.8639455782312925,0.8639455782312925,0.8639455782312925,0.8639455782312925,0.8639455782312925,0.8639455782312925,0.8639455782312925,0.8639455782312925,0.8639455782312925,0.8639455782312925,0.8639455782312925,0.8639455782312925,0.8639455782312925,0.8639455782312925,0.8639455782312925,0.8639455782312925,0.8639455782312925,0.8639455782312925,0.8639455782312925,0.8639455782312925,0.8639455782312925,0.8639455782312925,0.8639455782312925,0.8639455782312925,0.8639455782312925,0.8639455782312925,0.8639455782312925,0.8639455782312925,0.8639455782312925,0.8639455782312925,0.8639455782312925,0.8639455782312925,0.8639455782312925,0.8639455782312925,0.8639455782312925,0.8639455782312925,0.8639455782312925,0.8639455782312925,0.8639455782312925,0.8639455782312925,0.8639455782312925,0.8639455782312925,0.8639455782312925,0.8639455782312925,0.8639455782312925,0.8639455782312925,0.8639455782312925,0.8639455782312925,0.8639455782312925,0.8639455782312925,0.8639455782312925,0.8639455782312925,0.8639455782312925,0.8639455782312925,0.8639455782312925,0.8639455782312925,0.8639455782312925,0.8639455782312925,0.8639455782312925,0.8639455782312925,0.8639455782312925,0.8639455782312925,0.8639455782312925,0.8639455782312925,0.8639455782312925,0.8639455782312925,0.8639455782312925,0.8639455782312925,0.8639455782312925,0.8639455782312925,0.8639455782312925,0.8639455782312925,0.8639455782312925,0.8639455782312925,0.8639455782312925,0.8639455782312925,0.8639455782312925,0.8639455782312925,0.8639455782312925,0.8639455782312925,0.8639455782312925,0.8639455782312925,0.8639455782312925,0.8639455782312925,0.8639455782312925,0.8639455782312925,0.8639455782312925,0.8639455782312925,0.8639455782312925,0.8639455782312925,0.8639455782312925,0.8639455782312925,0.8639455782312925,0.8639455782312925,0.8639455782312925,0.8639455782312925,0.8639455782312925,0.8639455782312925,0.8639455782312925,0.8639455782312925,0.8639455782312925,0.8639455782312925,0.8639455782312925,0.8639455782312925,0.8639455782312925,0.8639455782312925,0.8639455782312925,0.8639455782312925,0.8639455782312925,0.8639455782312925,0.8639455782312925,0.8639455782312925,0.8639455782312925,0.8639455782312925,0.8639455782312925,0.8639455782312925,0.8639455782312925,0.8639455782312925,0.8639455782312925,0.8639455782312925,0.8639455782312925,0.8639455782312925,0.8639455782312925,0.8639455782312925,0.8639455782312925,0.8639455782312925,0.8639455782312925,0.8639455782312925,0.8639455782312925,0.8639455782312925,0.8639455782312925,0.8639455782312925,0.8639455782312925,0.8639455782312925,0.8639455782312925,0.8639455782312925,0.8639455782312925,0.8639455782312925,0.8639455782312925,0.8639455782312925,0.8639455782312925,0.8639455782312925,0.8639455782312925,0.8639455782312925,0.8639455782312925,0.8639455782312925,0.8639455782312925,0.8639455782312925,0.8639455782312925,0.8639455782312925,0.8639455782312925,0.8639455782312925,0.8639455782312925,0.8639455782312925,0.8639455782312925,0.8639455782312925,0.8639455782312925,0.8639455782312925,0.8639455782312925,0.8639455782312925,0.8639455782312925,0.8639455782312925,0.8639455782312925,0.8639455782312925,0.8639455782312925,0.8639455782312925,0.8639455782312925,0.8639455782312925,0.8639455782312925,0.8639455782312925,0.8639455782312925,0.8639455782312925,0.8639455782312925,0.8639455782312925,0.8639455782312925,0.8639455782312925,0.8639455782312925,0.8639455782312925,0.8639455782312925,0.8639455782312925,0.8639455782312925,0.8639455782312925,0.8639455782312925,0.8639455782312925,0.8639455782312925,0.8639455782312925,0.8639455782312925,0.8639455782312925,0.8639455782312925,0.8639455782312925,0.8639455782312925,0.8639455782312925,0.8639455782312925,0.8639455782312925,0.8639455782312925,0.8639455782312925,0.8639455782312925,0.8639455782312925,0.8639455782312925,0.8639455782312925,0.8639455782312925,0.8639455782312925,0.8639455782312925,0.8639455782312925,0.8639455782312925,0.8639455782312925,0.8639455782312925,0.8639455782312925,0.8639455782312925,0.8639455782312925,0.8639455782312925,0.8639455782312925,0.8639455782312925,0.8639455782312925,0.8639455782312925,0.8639455782312925,0.8639455782312925,0.8639455782312925,0.8639455782312925,0.8639455782312925,0.8639455782312925,0.8639455782312925,0.8639455782312925,0.8639455782312925,0.8639455782312925,0.8639455782312925,0.8639455782312925,0.8639455782312925,0.8639455782312925,0.8639455782312925,0.8639455782312925,0.8639455782312925,0.8639455782312925,0.8639455782312925,0.8639455782312925,0.8639455782312925,0.8639455782312925,0.8639455782312925,0.8639455782312925,0.8639455782312925,0.8639455782312925,0.8639455782312925,0.8639455782312925,0.8639455782312925,0.8639455782312925,0.8639455782312925,0.8639455782312925,0.8639455782312925,0.8639455782312925,0.8639455782312925,0.8639455782312925,0.8639455782312925,0.8639455782312925,0.8639455782312925,0.8639455782312925,0.8639455782312925,0.8639455782312925,0.8639455782312925,0.8639455782312925,0.8639455782312925,0.8639455782312925,0.8639455782312925,0.8639455782312925,0.8639455782312925,0.8639455782312925,0.8639455782312925,0.8639455782312925,0.8639455782312925,0.8639455782312925,0.8639455782312925,0.8639455782312925,0.8639455782312925,0.8639455782312925,0.8639455782312925,0.8639455782312925,0.8639455782312925,0.8639455782312925,0.8639455782312925,0.8639455782312925,0.8639455782312925,0.8639455782312925,0.8639455782312925,0.8639455782312925,0.8639455782312925,0.8639455782312925,0.8639455782312925,0.8639455782312925,0.8639455782312925,0.8639455782312925,0.8639455782312925,0.8639455782312925,0.8639455782312925,0.8639455782312925,0.8639455782312925,0.8639455782312925,0.8639455782312925,0.8639455782312925,0.8639455782312925,0.8639455782312925,0.8639455782312925,0.8639455782312925,0.8639455782312925,0.8639455782312925,0.8639455782312925,0.8639455782312925,0.8639455782312925,0.8639455782312925,0.8639455782312925,0.8639455782312925,0.8639455782312925,0.8639455782312925,0.8639455782312925,0.8639455782312925,0.8639455782312925,0.8639455782312925,0.8639455782312925,0.8639455782312925,0.8639455782312925,0.8639455782312925,0.8639455782312925,0.8639455782312925,0.8639455782312925,0.8639455782312925,0.8639455782312925,0.8639455782312925,0.8639455782312925,0.8639455782312925,0.8639455782312925,0.8639455782312925,0.8639455782312925,0.8639455782312925,0.8639455782312925,0.8639455782312925,0.8639455782312925,0.8639455782312925,0.8639455782312925,0.8639455782312925,0.8639455782312925,0.8639455782312925,0.8639455782312925,0.8639455782312925,0.8639455782312925,0.8639455782312925,0.8639455782312925,0.8639455782312925,0.8639455782312925,0.8639455782312925,0.8639455782312925,0.8639455782312925,0.8639455782312925,0.8639455782312925,0.8639455782312925,0.8639455782312925,0.8639455782312925,0.8639455782312925,0.8639455782312925,0.8639455782312925,0.8639455782312925,0.8639455782312925,0.8639455782312925,0.8639455782312925,0.8639455782312925,0.8639455782312925,0.8639455782312925,0.8639455782312925,0.8639455782312925,0.8639455782312925,0.8639455782312925,0.8639455782312925,0.8639455782312925,0.8639455782312925,0.8639455782312925,0.8639455782312925,0.8639455782312925,0.8639455782312925,0.8639455782312925,0.8639455782312925,0.8639455782312925,0.8639455782312925,0.8639455782312925,0.8639455782312925,0.8639455782312925,0.8639455782312925,0.8639455782312925,0.8639455782312925,0.8639455782312925,0.8639455782312925,0.8639455782312925,0.8639455782312925,0.8639455782312925,0.8639455782312925,0.8639455782312925,0.8639455782312925,0.8639455782312925,0.8639455782312925,0.8639455782312925,0.8639455782312925,0.8639455782312925,0.8639455782312925,0.8639455782312925,0.8639455782312925,0.8639455782312925,0.8639455782312925,0.8639455782312925,0.8639455782312925,0.8639455782312925,0.8639455782312925,0.8639455782312925,0.8639455782312925,0.8639455782312925,0.8639455782312925,0.8639455782312925,0.8639455782312925,0.8639455782312925,0.8639455782312925,0.8639455782312925,0.8639455782312925,0.8639455782312925,0.8639455782312925,0.8639455782312925,0.8639455782312925,0.8639455782312925,0.8639455782312925,0.8639455782312925,0.8639455782312925,0.8639455782312925,0.8639455782312925,0.8639455782312925,0.8639455782312925,0.8639455782312925,0.8639455782312925,0.8639455782312925,0.8639455782312925,0.8639455782312925,0.8639455782312925,0.8639455782312925,0.8639455782312925,0.8639455782312925,0.8639455782312925,0.8639455782312925,0.8639455782312925,0.8639455782312925,0.8639455782312925,0.8639455782312925,0.8639455782312925,0.8639455782312925,0.8639455782312925,0.8639455782312925,0.8639455782312925,0.8639455782312925,0.8639455782312925,0.8639455782312925,0.8639455782312925,0.8639455782312925,0.8639455782312925,0.8639455782312925,0.8639455782312925,0.8639455782312925,0.8639455782312925,0.8639455782312925,0.8639455782312925,0.8639455782312925,0.8639455782312925,0.8639455782312925,0.8639455782312925,0.8639455782312925,0.8639455782312925,0.8639455782312925,0.8639455782312925,0.8639455782312925,0.8639455782312925,0.8639455782312925,0.8639455782312925,0.8639455782312925,0.8639455782312925,0.8639455782312925,0.8639455782312925,0.8639455782312925,0.8639455782312925,0.8639455782312925,0.8639455782312925,0.8639455782312925,0.8639455782312925,0.8639455782312925,0.8639455782312925,0.8639455782312925,0.8639455782312925,0.8639455782312925,0.8639455782312925,0.8639455782312925,0.8639455782312925,0.8639455782312925,0.8639455782312925,0.8639455782312925,0.8639455782312925,0.8639455782312925,0.8639455782312925,0.8639455782312925,0.8639455782312925,0.8639455782312925,0.8639455782312925,0.8639455782312925,0.8639455782312925,0.8639455782312925,0.8639455782312925,0.8639455782312925,0.8639455782312925,0.8639455782312925,0.8639455782312925,0.8639455782312925,0.8639455782312925,0.8639455782312925,0.8639455782312925,0.8639455782312925,0.8639455782312925,0.8639455782312925,0.8639455782312925,0.8639455782312925,0.8639455782312925,0.8639455782312925,0.8639455782312925,0.8639455782312925,0.8639455782312925,0.8639455782312925,0.8639455782312925,0.8639455782312925,0.8639455782312925,0.8639455782312925,0.8639455782312925,0.8639455782312925,0.8639455782312925,0.8639455782312925,0.8639455782312925,0.8639455782312925,0.8639455782312925,0.8639455782312925,0.8639455782312925,0.8639455782312925,0.8639455782312925,0.8639455782312925,0.8639455782312925,0.8639455782312925,0.8639455782312925,0.8639455782312925,0.8639455782312925,0.8639455782312925,0.8639455782312925,0.8639455782312925,0.8639455782312925,0.8639455782312925,0.8639455782312925,0.8639455782312925,0.8639455782312925,0.8639455782312925,0.8639455782312925,0.8639455782312925,0.8639455782312925,0.8639455782312925,0.8639455782312925,0.8639455782312925,0.8639455782312925,0.8639455782312925,0.8639455782312925,0.8639455782312925,0.8639455782312925,0.8639455782312925,0.8639455782312925,0.8639455782312925,0.8639455782312925,0.8639455782312925,0.8639455782312925,0.891156462585034,0.9149659863945578,0.9285714285714286,0.9421768707482994,0.95578231292517,0.9693877551020408,0.9727891156462585,0.9795918367346939,0.9829931972789115,0.9829931972789115,0.9829931972789115,0.9829931972789115,0.9659863945578231,0.9591836734693877,0.9455782312925171,0.9319727891156463,0.9251700680272109,0.9251700680272109,0.9251700680272109,0.9251700680272109,0.9251700680272109,0.9251700680272109,0.9251700680272109,0.9251700680272109,0.9251700680272109,0.9251700680272109,0.9251700680272109,0.9251700680272109,0.9251700680272109,0.9251700680272109,0.9251700680272109,0.9251700680272109,0.9251700680272109,0.9251700680272109,0.9251700680272109,0.9251700680272109,0.9251700680272109,0.9251700680272109,0.8979591836734694,0.8843537414965986,0.8639455782312925,0.826530612244898,0.8061224489795918,0.782312925170068,0.7755102040816326,0.7755102040816326,0.7721088435374149,0.7721088435374149,0.7721088435374149,0.7721088435374149,0.7789115646258503,0.7891156462585034,0.8061224489795918,0.8197278911564626,0.8367346938775511,0.8537414965986394,0.8673469387755102,0.8707482993197279,0.8775510204081632,0.8809523809523809,0.8809523809523809,0.8843537414965986,0.8877551020408163,0.8877551020408163,0.8877551020408163,0.8877551020408163,0.8877551020408163,0.8877551020408163,0.8877551020408163,0.8877551020408163,0.8877551020408163,0.8877551020408163,0.8877551020408163,0.8877551020408163,0.8877551020408163,0.8877551020408163,0.8877551020408163,0.8877551020408163,0.8877551020408163,0.8877551020408163,0.8877551020408163,0.8877551020408163,0.8877551020408163,0.8877551020408163,0.8877551020408163,0.8877551020408163,0.8877551020408163,0.8877551020408163,0.8877551020408163,0.8877551020408163,0.8877551020408163,0.8877551020408163,0.8877551020408163,0.8877551020408163,0.8877551020408163,0.8877551020408163,0.8877551020408163,0.8877551020408163,0.8877551020408163,0.8843537414965986,0.8843537414965986,0.8843537414965986,0.8809523809523809,0.8741496598639455,0.8673469387755102,0.8435374149659864,0.8163265306122449,0.7857142857142857,0.7448979591836735,0.6904761904761905,0.6768707482993197,0.6360544217687075,0.6190476190476191,0.5952380952380952,0.5816326530612245,0.5748299319727891,0.5748299319727891,0.5748299319727891,0.5748299319727891,0.5748299319727891,0.5748299319727891,0.5748299319727891,0.5748299319727891,0.5748299319727891,0.5748299319727891,0.5748299319727891,0.5748299319727891,0.5748299319727891,0.5748299319727891,0.5748299319727891,0.5748299319727891,0.5748299319727891,0.5748299319727891,0.5748299319727891,0.5748299319727891,0.5748299319727891,0.5748299319727891,0.5816326530612245,0.5986394557823129,0.6258503401360545,0.6462585034013606,0.6632653061224489,0.6802721088435374,0.6938775510204082,0.7006802721088435,0.7108843537414966,0.7142857142857143,0.717687074829932,0.7210884353741497,0.7210884353741497,0.7210884353741497,0.7210884353741497,0.7210884353741497,0.7210884353741497,0.7210884353741497,0.717687074829932,0.7108843537414966,0.7040816326530612,0.6904761904761905,0.673469387755102,0.6530612244897959,0.6394557823129252,0.6292517006802721,0.6224489795918368,0.6224489795918368,0.6190476190476191,0.6190476190476191,0.6224489795918368,0.6632653061224489,0.7142857142857143,0.7687074829931972,0.8027210884353742,0.8367346938775511,0.8537414965986394,0.8639455782312925,0.8673469387755102,0.8707482993197279,0.8741496598639455,0.8877551020408163,0.9047619047619048,0.935374149659864,0.9693877551020408,0.9829931972789115,1,1.0068027210884354,1.010204081632653,1.0136054421768708,1.0136054421768708,1.0136054421768708,1.0136054421768708,1.0136054421768708,1.010204081632653,1.0068027210884354,1.0034013605442176,1.0034013605442176,1,1,1,1,1,1,1,1,1,1,1,1,1,1,1,1,1,1,1,1,1,1,1,1,1,1,1,1,1,1,1,1,1,1,1,1,1,1,1,1,1,1,1,1,1,0.9931972789115646,0.9761904761904762,0.9659863945578231,0.9591836734693877,0.9523809523809523,0.9489795918367347,0.9455782312925171,0.9455782312925171,0.9455782312925171,0.9455782312925171,0.9455782312925171,0.9455782312925171,0.9455782312925171,0.9455782312925171,0.9455782312925171,0.9455782312925171,0.9455782312925171,0.9455782312925171,0.9455782312925171,0.9455782312925171,0.9455782312925171,0.9455782312925171,0.9455782312925171,0.9455782312925171,0.9455782312925171,0.9455782312925171,0.9455782312925171,0.9455782312925171,0.9455782312925171,0.9455782312925171,0.9455782312925171,0.9455782312925171,0.9455782312925171,0.9455782312925171,0.9455782312925171,0.9455782312925171,0.9455782312925171,0.9455782312925171,0.9455782312925171,0.9455782312925171,0.9455782312925171,0.9455782312925171,0.9455782312925171,0.9455782312925171,0.9455782312925171,0.9455782312925171,0.9455782312925171,0.9455782312925171,0.9455782312925171,0.9455782312925171,0.9455782312925171,0.9455782312925171,0.9455782312925171,0.9455782312925171,0.9455782312925171,0.9455782312925171,0.9455782312925171,0.9455782312925171,0.9455782312925171,0.9455782312925171,0.9455782312925171,0.9455782312925171,0.9455782312925171,0.9455782312925171,0.9455782312925171,0.9455782312925171,0.9455782312925171,0.9455782312925171,0.9455782312925171,0.9455782312925171,0.9455782312925171,0.9455782312925171,0.9455782312925171,0.9455782312925171,0.9455782312925171,0.9455782312925171,0.9455782312925171,0.9455782312925171,0.9455782312925171,0.9455782312925171,0.9455782312925171,0.9455782312925171,0.9455782312925171,0.9455782312925171,0.9455782312925171,0.9455782312925171,0.9455782312925171,0.9455782312925171,0.9455782312925171,0.9455782312925171,0.9455782312925171,0.9455782312925171,0.9455782312925171,0.9455782312925171,0.9455782312925171,0.9455782312925171,0.9455782312925171,0.9455782312925171,0.9455782312925171,0.9455782312925171,0.9455782312925171,0.9455782312925171,0.9455782312925171,0.9455782312925171,0.9455782312925171,0.9455782312925171,0.9455782312925171,0.9455782312925171,0.9455782312925171,0.9455782312925171,0.9455782312925171,0.9455782312925171,0.9455782312925171,0.9455782312925171,0.9455782312925171,0.9455782312925171,0.9455782312925171,0.9455782312925171,0.9455782312925171,0.9455782312925171,0.9455782312925171,0.9455782312925171,0.9455782312925171,0.9455782312925171,0.9455782312925171,0.9455782312925171,0.9455782312925171,0.9455782312925171,0.9455782312925171,0.9455782312925171,0.9455782312925171,0.9455782312925171,0.9455782312925171,0.9455782312925171,0.9455782312925171,0.9455782312925171,0.9455782312925171,0.9455782312925171,0.9455782312925171,0.9455782312925171,0.9455782312925171,0.9455782312925171,0.9455782312925171,0.9455782312925171,0.9455782312925171,0.9455782312925171,0.9455782312925171,0.9455782312925171,0.9455782312925171,0.9455782312925171,0.9455782312925171,0.9455782312925171,0.9455782312925171,0.9455782312925171,0.9455782312925171,0.9455782312925171,0.9455782312925171,0.9455782312925171,0.9455782312925171,0.9455782312925171,0.9455782312925171,0.9455782312925171,0.9455782312925171,0.9455782312925171,0.9455782312925171,0.9455782312925171,0.9455782312925171,0.9455782312925171,0.9455782312925171,0.9455782312925171,0.9455782312925171,0.9455782312925171,0.9455782312925171,0.9455782312925171,0.9455782312925171,0.9455782312925171,0.9455782312925171,0.9455782312925171,0.9455782312925171,0.9455782312925171,0.9455782312925171,0.9455782312925171,0.9455782312925171,0.9455782312925171,0.9455782312925171,0.9455782312925171,0.9455782312925171,0.9455782312925171,0.9455782312925171,0.9455782312925171,0.9455782312925171,0.9455782312925171,0.9455782312925171,0.9455782312925171,0.9455782312925171,0.9455782312925171,0.9455782312925171,0.9455782312925171,0.9455782312925171,0.9455782312925171,0.9455782312925171,0.9455782312925171,0.9455782312925171,0.9455782312925171,0.9455782312925171,0.9455782312925171,0.9455782312925171,0.9455782312925171,0.9455782312925171,0.9455782312925171,0.9455782312925171,0.9455782312925171,0.9455782312925171,0.9455782312925171,0.9455782312925171,0.9455782312925171,0.9455782312925171,0.9455782312925171,0.9455782312925171,0.9455782312925171,0.9455782312925171,0.9455782312925171,0.9455782312925171,0.9455782312925171,0.9455782312925171,0.9455782312925171,0.9455782312925171,0.9455782312925171,0.9455782312925171,0.9455782312925171,0.9455782312925171,0.9455782312925171,0.9455782312925171,0.9455782312925171,0.9455782312925171,0.9455782312925171,0.9455782312925171,0.9455782312925171,0.9455782312925171,0.9455782312925171,0.9455782312925171,0.9455782312925171,0.9455782312925171,0.9455782312925171,0.9455782312925171,0.9455782312925171,0.9455782312925171,0.9455782312925171,0.9455782312925171,0.9455782312925171,0.9455782312925171,0.9455782312925171,0.9455782312925171,0.9455782312925171,0.9455782312925171,0.9455782312925171,0.9455782312925171,0.9455782312925171,0.9455782312925171,0.9455782312925171,0.9455782312925171,0.9455782312925171,0.9455782312925171,0.9455782312925171,0.9455782312925171,0.9455782312925171,0.9455782312925171,0.9455782312925171,0.9455782312925171,0.9455782312925171,0.9455782312925171,0.9455782312925171,0.9455782312925171,0.9455782312925171,0.9455782312925171,0.9455782312925171,0.9455782312925171,0.9455782312925171,0.9455782312925171,0.9455782312925171,0.9455782312925171,0.9455782312925171,0.9455782312925171,0.9455782312925171,0.9455782312925171,0.9455782312925171,0.9455782312925171,0.9455782312925171,0.9455782312925171,0.9455782312925171,0.9455782312925171,0.9455782312925171,0.9455782312925171,0.9455782312925171,0.9421768707482994,0.9387755102040817,0.9319727891156463,0.9251700680272109,0.9149659863945578,0.9013605442176871,0.8877551020408163,0.8775510204081632,0.8605442176870748,0.8469387755102041,0.8333333333333334,0.8163265306122449,0.8061224489795918,0.7925170068027211,0.7687074829931972,0.7380952380952381,0.7006802721088435,0.673469387755102,0.6190476190476191,0.5782312925170068,0.5374149659863946,0.5,0.46258503401360546,0.41496598639455784,0.3877551020408163,0.36054421768707484,0.3401360544217687,0.3299319727891156,0.3197278911564626,0.30952380952380953,0.30272108843537415,0.29931972789115646,0.29591836734693877,0.29591836734693877,0.29591836734693877,0.3231292517006803,0.3673469387755102,0.41836734693877553,0.46598639455782315,0.48639455782312924,0.4931972789115646,0.4965986394557823,0.5,0.5,0.5,0.5034013605442177,0.5136054421768708,0.5272108843537415,0.5408163265306123,0.5510204081632653,0.5578231292517006,0.5578231292517006,0.5612244897959183,0.5612244897959183,0.5612244897959183,0.5612244897959183,0.5612244897959183,0.5612244897959183,0.5612244897959183,0.5612244897959183,0.5612244897959183,0.5612244897959183,0.5612244897959183,0.5612244897959183,0.5612244897959183,0.5612244897959183,0.5612244897959183,0.5612244897959183,0.5612244897959183,0.5612244897959183,0.5612244897959183,0.5612244897959183,0.5612244897959183,0.5612244897959183,0.5612244897959183,0.5612244897959183,0.5612244897959183,0.5612244897959183,0.5612244897959183,0.5612244897959183,0.5612244897959183,0.5612244897959183,0.5612244897959183,0.5612244897959183,0.5612244897959183,0.5612244897959183,0.5612244897959183,0.5612244897959183,0.5612244897959183,0.5612244897959183,0.5612244897959183,0.5612244897959183,0.5612244897959183,0.5612244897959183,0.5612244897959183,0.5612244897959183,0.5612244897959183,0.5612244897959183,0.5612244897959183,0.5612244897959183,0.5612244897959183,0.5612244897959183,0.5612244897959183,0.5612244897959183,0.5612244897959183,0.5612244897959183,0.5612244897959183,0.5612244897959183,0.5612244897959183,0.5272108843537415,0.48299319727891155,0.4421768707482993,0.40476190476190477,0.3707482993197279,0.3435374149659864,0.3231292517006803,0.29591836734693877,0.2789115646258503,0.2619047619047619,0.23809523809523808,0.22789115646258504,0.21768707482993196,0.20748299319727892,0.19727891156462585,0.1870748299319728,0.17687074829931973,0.16666666666666666,0.1598639455782313,0.15306122448979592,0.15306122448979592,0.15306122448979592,0.15306122448979592,0.15306122448979592,0.15306122448979592,0.15306122448979592,0.15306122448979592,0.16666666666666666,0.24149659863945577,0.3435374149659864,0.4387755102040816,0.5578231292517006,0.6564625850340136,0.7278911564625851,0.7585034013605442,0.7857142857142857,0.8061224489795918,0.8299319727891157,0.9013605442176871,0.9523809523809523,0.9931972789115646,1.030612244897959,1.054421768707483,1.064625850340136,1.0680272108843538,1.0714285714285714,1.0714285714285714,1.0714285714285714,1.0714285714285714,1.0714285714285714,1.0714285714285714,1.0714285714285714,1.0714285714285714,1.0680272108843538,1.064625850340136,1.0578231292517006,1.0510204081632653,1.0442176870748299,1.0374149659863945,1.0272108843537415,1.0204081632653061,1.0068027210884354,0.9965986394557823,0.9897959183673469,0.9863945578231292,0.9829931972789115,0.9795918367346939,0.9761904761904762,0.9761904761904762,0.9761904761904762,0.9761904761904762,0.9761904761904762,0.9761904761904762,0.9761904761904762,0.9761904761904762,0.9761904761904762,0.9761904761904762,0.9761904761904762,0.9761904761904762,0.9761904761904762,0.9795918367346939,0.9863945578231292,1.0068027210884354,1.0204081632653061,1.034013605442177,1.0374149659863945,1.0374149659863945,1.0374149659863945,1.030612244897959,1.0204081632653061,1.0034013605442176,0.9897959183673469,0.9727891156462585,0.9591836734693877,0.9421768707482994,0.9251700680272109,0.9115646258503401,0.891156462585034,0.8809523809523809,0.8707482993197279,0.8571428571428571,0.8401360544217688,0.826530612244898,0.8197278911564626,0.8163265306122449,0.8129251700680272,0.8129251700680272,0.8129251700680272,0.8129251700680272,0.8231292517006803,0.8571428571428571,0.8945578231292517,0.9183673469387755,0.9455782312925171,0.9591836734693877,0.9625850340136054,0.9659863945578231,0.9659863945578231,0.9659863945578231,0.9659863945578231,0.9659863945578231,0.9659863945578231,0.9659863945578231,0.9659863945578231,0.9693877551020408,0.9693877551020408,0.9693877551020408,0.9693877551020408,0.9693877551020408,0.9693877551020408,0.9693877551020408,0.9693877551020408,0.9693877551020408,0.9693877551020408,0.9693877551020408,0.9693877551020408,0.9693877551020408,0.9693877551020408,0.9693877551020408,0.9693877551020408,0.9693877551020408,0.9693877551020408,0.9693877551020408,0.9693877551020408,0.9693877551020408,0.9693877551020408,0.9693877551020408,0.9693877551020408,0.9693877551020408,0.9693877551020408,0.9693877551020408,0.9693877551020408,0.9693877551020408,0.9659863945578231,0.9489795918367347,0.9285714285714286,0.9115646258503401,0.8741496598639455,0.8333333333333334,0.8095238095238095,0.7891156462585034,0.7755102040816326,0.7653061224489796,0.7551020408163265,0.7482993197278912,0.7414965986394558,0.7312925170068028,0.7278911564625851,0.717687074829932,0.7074829931972789,0.6972789115646258,0.6802721088435374,0.6666666666666666,0.6564625850340136,0.6496598639455783,0.6496598639455783,0.6496598639455783,0.6496598639455783,0.6564625850340136,0.6632653061224489,0.6666666666666666,0.673469387755102,0.6768707482993197,0.6802721088435374,0.6904761904761905,0.7006802721088435,0.7482993197278912,0.7857142857142857,0.826530612244898,0.8469387755102041,0.8707482993197279,0.8843537414965986,0.891156462585034,0.8945578231292517,0.8945578231292517,0.8979591836734694,0.9013605442176871,0.9081632653061225,0.9183673469387755,0.9217687074829932,0.9285714285714286,0.9319727891156463,0.9319727891156463,0.9319727891156463,0.9319727891156463,0.9285714285714286,0.9217687074829932,0.9183673469387755,0.9115646258503401,0.8945578231292517,0.8537414965986394,0.8163265306122449,0.7755102040816326,0.7312925170068028,0.6870748299319728,0.6360544217687075,0.6054421768707483,0.5748299319727891,0.5476190476190477,0.5136054421768708,0.48299319727891155,0.43197278911564624,0.3979591836734694,0.35374149659863946,0.3333333333333333,0.3231292517006803,0.3197278911564626,0.3163265306122449,0.3163265306122449,0.3163265306122449,0.3163265306122449,0.3163265306122449,0.3163265306122449,0.3197278911564626,0.3197278911564626,0.3231292517006803,0.32653061224489793,0.32653061224489793,0.32653061224489793,0.32653061224489793,0.32653061224489793,0.3163265306122449,0.2891156462585034,0.23129251700680273,0.16326530612244897,0.12585034013605442,0.09183673469387756,0.0782312925170068,0.07142857142857142,0.06802721088435375,0.06802721088435375,0.06802721088435375,0.06802721088435375,0.06802721088435375,0.06802721088435375,0.07142857142857142,0.0782312925170068,0.08503401360544217,0.09863945578231292,0.10884353741496598,0.12244897959183673,0.1326530612244898,0.13945578231292516,0.14285714285714285,0.14625850340136054,0.14625850340136054,0.14625850340136054,0.14625850340136054,0.14625850340136054,0.14625850340136054,0.14625850340136054,0.14625850340136054,0.14625850340136054,0.14625850340136054,0.14625850340136054,0.14625850340136054,0.14625850340136054,0.14625850340136054,0.14625850340136054,0.14625850340136054,0.14625850340136054,0.14625850340136054,0.14625850340136054,0.14625850340136054,0.14625850340136054,0.14625850340136054,0.14625850340136054,0.1598639455782313,0.19727891156462585,0.3231292517006803,0.4013605442176871,0.5068027210884354,0.5986394557823129,0.6666666666666666,0.7482993197278912,0.7755102040816326,0.7993197278911565,0.8197278911564626,0.8299319727891157,0.8333333333333334,0.8367346938775511,0.8367346938775511,0.8367346938775511,0.8367346938775511,0.8401360544217688,0.8401360544217688,0.8401360544217688,0.8435374149659864,0.8469387755102041,0.8469387755102041,0.8469387755102041,0.8469387755102041,0.8469387755102041,0.8469387755102041,0.8469387755102041,0.8469387755102041,0.8469387755102041,0.8469387755102041,0.8469387755102041,0.8435374149659864,0.8435374149659864,0.8435374149659864,0.8435374149659864,0.8571428571428571,0.891156462585034,0.9489795918367347,0.9965986394557823,1.0374149659863945,1.064625850340136,1.0748299319727892,1.0782312925170068,1.0816326530612246,1.0816326530612246,1.0816326530612246,1.0850340136054422,1.0850340136054422,1.0850340136054422,1.0850340136054422,1.0850340136054422,1.0850340136054422,1.08843537414966,1.08843537414966,1.0918367346938775,1.0918367346938775,1.0918367346938775,1.0952380952380953,1.0952380952380953,1.098639455782313,1.1020408163265305,1.1054421768707483,1.1122448979591837,1.119047619047619,1.1224489795918366,1.1258503401360545,1.1258503401360545,1.1258503401360545,1.1258503401360545,1.1258503401360545,1.1258503401360545,1.1258503401360545,1.1258503401360545,1.1258503401360545,1.1258503401360545,1.1258503401360545,1.1258503401360545,1.1258503401360545,1.1258503401360545,1.1258503401360545,1.1258503401360545,1.1258503401360545,1.1258503401360545,1.1258503401360545,1.1258503401360545,1.1258503401360545,1.1258503401360545,1.1258503401360545,1.1258503401360545,1.1258503401360545,1.1258503401360545,1.1258503401360545,1.1258503401360545,1.1258503401360545,1.1258503401360545,1.1258503401360545,1.1258503401360545,1.1258503401360545,1.1258503401360545,1.1258503401360545,1.1258503401360545,1.1258503401360545,1.1258503401360545,1.119047619047619,1.1020408163265305,1.0374149659863945,0.9795918367346939,0.9149659863945578,0.8367346938775511,0.7755102040816326,0.6870748299319728,0.6700680272108843,0.6700680272108843,0.6700680272108843,0.6700680272108843,0.6700680272108843,0.6700680272108843,0.6700680272108843,0.6700680272108843,0.6700680272108843,0.6700680272108843,0.6700680272108843,0.6700680272108843,0.6700680272108843,0.6700680272108843,0.6700680272108843,0.6700680272108843,0.6700680272108843,0.6700680272108843,0.6700680272108843,0.6700680272108843,0.6700680272108843,0.6700680272108843,0.6700680272108843,0.6700680272108843,0.6700680272108843,0.6700680272108843,0.6700680272108843,0.6700680272108843,0.6700680272108843,0.6700680272108843,0.6700680272108843,0.6700680272108843,0.6700680272108843,0.6700680272108843,0.6700680272108843,0.6700680272108843,0.6700680272108843,0.6700680272108843,0.6700680272108843,0.6700680272108843,0.6700680272108843,0.6700680272108843,0.6700680272108843,0.6700680272108843,0.6700680272108843,0.6700680272108843,0.6700680272108843,0.6700680272108843,0.6700680272108843,0.6700680272108843,0.6700680272108843,0.6700680272108843,0.6700680272108843,0.6700680272108843,0.6700680272108843,0.6700680272108843,0.6700680272108843,0.6700680272108843,0.6700680272108843,0.6700680272108843,0.6700680272108843,0.6700680272108843,0.6700680272108843,0.6700680272108843,0.6700680272108843,0.6700680272108843,0.6700680272108843,0.6700680272108843,0.6700680272108843,0.6700680272108843,0.6700680272108843,0.6700680272108843,0.6700680272108843,0.6700680272108843,0.6700680272108843,0.6700680272108843,0.6700680272108843,0.6700680272108843,0.6700680272108843,0.6700680272108843,0.6700680272108843,0.6700680272108843,0.6700680272108843,0.6700680272108843,0.6700680272108843,0.6700680272108843],"y":[-3.496031746031746,-3.496031746031746,-3.496031746031746,-3.496031746031746,-3.496031746031746,-3.496031746031746,-3.496031746031746,-3.496031746031746,-3.496031746031746,-3.496031746031746,-3.496031746031746,-3.496031746031746,-3.496031746031746,-3.496031746031746,-3.496031746031746,-3.496031746031746,-3.496031746031746,-3.496031746031746,-3.496031746031746,-3.496031746031746,-3.496031746031746,-3.496031746031746,-3.496031746031746,-3.496031746031746,-3.496031746031746,-3.496031746031746,-3.496031746031746,-3.496031746031746,-3.496031746031746,-3.496031746031746,-3.496031746031746,-3.496031746031746,-3.496031746031746,-3.496031746031746,-3.496031746031746,-3.496031746031746,-3.496031746031746,-3.496031746031746,-3.496031746031746,-3.496031746031746,-3.496031746031746,-3.496031746031746,-3.496031746031746,-3.496031746031746,-3.496031746031746,-3.496031746031746,-3.496031746031746,-3.496031746031746,-3.496031746031746,-3.496031746031746,-3.496031746031746,-3.496031746031746,-3.496031746031746,-3.496031746031746,-3.496031746031746,-3.496031746031746,-3.496031746031746,-3.496031746031746,-3.496031746031746,-3.496031746031746,-3.496031746031746,-3.496031746031746,-3.496031746031746,-3.496031746031746,-3.496031746031746,-3.496031746031746,-3.496031746031746,-3.496031746031746,-3.496031746031746,-3.496031746031746,-3.496031746031746,-3.496031746031746,-3.496031746031746,-3.496031746031746,-3.496031746031746,-3.496031746031746,-3.496031746031746,-3.496031746031746,-3.496031746031746,-3.496031746031746,-3.496031746031746,-3.496031746031746,-3.496031746031746,0.6801587301587303,0.6706349206349208,0.6611111111111113,0.6515873015873017,0.6420634920634922,0.6420634920634922,0.6420634920634922,0.6420634920634922,0.6325396825396827,0.6325396825396827,0.6230158730158732,0.6134920634920636,0.5944444444444447,0.5753968253968256,0.5658730158730161,0.5658730158730161,0.5658730158730161,0.6039682539682542,0.6230158730158732,0.6325396825396827,0.6420634920634922,0.6420634920634922,0.6420634920634922,0.6420634920634922,0.6420634920634922,0.6420634920634922,0.5658730158730161,0.4992063492063494,0.44206349206349227,0.40396825396825414,0.3849206349206351,0.3849206349206351,0.3849206349206351,0.3849206349206351,0.3849206349206351,0.3849206349206351,0.3849206349206351,0.3849206349206351,0.3849206349206351,0.3849206349206351,0.3849206349206351,0.3849206349206351,0.3849206349206351,0.3849206349206351,0.3849206349206351,0.3849206349206351,0.3944444444444446,0.3944444444444446,0.3944444444444446,0.3944444444444446,0.3944444444444446,0.3944444444444446,0.40396825396825414,0.4134920634920637,0.4134920634920637,0.4230158730158732,0.4325396825396827,0.4325396825396827,0.44206349206349227,0.44206349206349227,0.4611111111111113,0.4706349206349208,0.4706349206349208,0.48015873015873034,0.48015873015873034,0.4896825396825399,0.4896825396825399,0.4896825396825399,0.4896825396825399,0.4896825396825399,0.4896825396825399,0.4896825396825399,0.4896825396825399,0.4896825396825399,0.4896825396825399,0.4896825396825399,0.4896825396825399,0.4896825396825399,0.4896825396825399,0.4896825396825399,0.4896825396825399,0.4896825396825399,0.4896825396825399,0.4896825396825399,0.4896825396825399,0.4896825396825399,0.4896825396825399,0.4896825396825399,0.4896825396825399,0.4896825396825399,0.4896825396825399,0.4896825396825399,0.4896825396825399,0.4896825396825399,0.4896825396825399,0.4896825396825399,0.4896825396825399,0.4896825396825399,0.4896825396825399,0.4896825396825399,0.4896825396825399,0.4896825396825399,0.4896825396825399,0.4896825396825399,0.4896825396825399,0.4896825396825399,0.4896825396825399,0.4896825396825399,0.4896825396825399,0.4896825396825399,0.4896825396825399,0.4896825396825399,0.4896825396825399,0.4896825396825399,0.4896825396825399,0.4896825396825399,0.4896825396825399,0.4896825396825399,0.4896825396825399,0.4896825396825399,0.4896825396825399,0.4896825396825399,0.4896825396825399,0.4896825396825399,0.4896825396825399,0.4896825396825399,0.4896825396825399,0.4896825396825399,0.4896825396825399,0.4896825396825399,0.4992063492063494,0.5373015873015875,0.5658730158730161,0.5753968253968256,0.5944444444444447,0.5944444444444447,0.6039682539682542,0.6039682539682542,0.6134920634920636,0.6230158730158732,0.6325396825396827,0.6420634920634922,0.6420634920634922,0.6515873015873017,0.6515873015873017,0.6611111111111113,0.6611111111111113,0.6611111111111113,0.6706349206349208,0.6706349206349208,0.6706349206349208,0.6801587301587303,0.6801587301587303,0.6801587301587303,0.6896825396825399,0.6992063492063494,0.6992063492063494,0.7087301587301589,0.7087301587301589,0.7087301587301589,0.7182539682539685,0.7182539682539685,0.7182539682539685,0.7182539682539685,0.7182539682539685,0.7182539682539685,0.7182539682539685,0.7182539682539685,0.7182539682539685,0.7182539682539685,0.7182539682539685,0.7182539682539685,0.7182539682539685,0.7087301587301589,0.7087301587301589,0.6992063492063494,0.6896825396825399,0.6896825396825399,0.6801587301587303,0.6706349206349208,0.6611111111111113,0.6611111111111113,0.6515873015873017,0.6420634920634922,0.6420634920634922,0.6420634920634922,0.6420634920634922,0.6325396825396827,0.6325396825396827,0.6325396825396827,0.6325396825396827,0.6325396825396827,0.6230158730158732,0.6230158730158732,0.6230158730158732,0.6230158730158732,0.6230158730158732,0.6230158730158732,0.6230158730158732,0.6230158730158732,0.6230158730158732,0.6230158730158732,0.6230158730158732,0.6230158730158732,0.6134920634920636,0.6134920634920636,0.6134920634920636,0.6134920634920636,0.6134920634920636,0.6039682539682542,0.5849206349206351,0.5658730158730161,0.5182539682539684,0.4230158730158732,0.346825396825397,0.21349206349206368,0.10873015873015891,0.051587301587301765,-0.05317460317460299,-0.10079365079365062,-0.11984126984126967,-0.12936507936507918,-0.12936507936507918,-0.12936507936507918,-0.12936507936507918,-0.12936507936507918,-0.12936507936507918,-0.12936507936507918,-0.12936507936507918,-0.12936507936507918,-0.12936507936507918,-0.12936507936507918,-0.12936507936507918,-0.12936507936507918,-0.12936507936507918,-0.12936507936507918,-0.12936507936507918,-0.12936507936507918,-0.12936507936507918,-0.12936507936507918,-0.11984126984126967,-0.11984126984126967,-0.11984126984126967,-0.11031746031746013,-0.10079365079365062,-0.10079365079365062,-0.10079365079365062,-0.10079365079365062,-0.09126984126984108,-0.08174603174603157,-0.06269841269841252,-0.06269841269841252,-0.06269841269841252,-0.06269841269841252,-0.06269841269841252,-0.06269841269841252,-0.06269841269841252,-0.06269841269841252,-0.06269841269841252,-0.06269841269841252,-0.06269841269841252,-0.06269841269841252,-0.06269841269841252,-0.06269841269841252,-0.06269841269841252,-0.06269841269841252,-0.06269841269841252,-0.06269841269841252,-0.06269841269841252,-0.06269841269841252,-0.06269841269841252,-0.06269841269841252,-0.06269841269841252,-0.06269841269841252,-0.06269841269841252,-0.06269841269841252,-0.06269841269841252,-0.06269841269841252,-0.06269841269841252,-0.06269841269841252,-0.06269841269841252,-0.06269841269841252,-0.06269841269841252,-0.06269841269841252,-0.06269841269841252,-0.06269841269841252,-0.06269841269841252,-0.06269841269841252,-0.06269841269841252,-0.06269841269841252,-0.06269841269841252,-0.06269841269841252,-0.06269841269841252,-0.06269841269841252,-0.06269841269841252,-0.06269841269841252,-0.06269841269841252,-0.06269841269841252,-0.06269841269841252,-0.06269841269841252,-0.06269841269841252,-0.06269841269841252,-0.06269841269841252,-0.06269841269841252,-0.06269841269841252,-0.06269841269841252,-0.06269841269841252,-0.06269841269841252,-0.06269841269841252,-0.06269841269841252,-0.06269841269841252,-0.06269841269841252,-0.06269841269841252,-0.06269841269841252,-0.06269841269841252,-0.06269841269841252,-0.06269841269841252,-0.06269841269841252,-0.07222222222222204,-0.07222222222222204,-0.07222222222222204,-0.07222222222222204,-0.07222222222222204,-0.07222222222222204,-0.07222222222222204,-0.07222222222222204,-0.07222222222222204,-0.07222222222222204,-0.07222222222222204,-0.07222222222222204,-0.07222222222222204,-0.07222222222222204,-0.07222222222222204,-0.07222222222222204,-0.07222222222222204,-0.07222222222222204,-0.07222222222222204,-0.07222222222222204,-0.07222222222222204,-0.07222222222222204,-0.07222222222222204,-0.07222222222222204,-0.07222222222222204,-0.07222222222222204,-0.08174603174603157,-0.09126984126984108,-0.11031746031746013,-0.1388888888888887,-0.20555555555555538,-0.4246031746031744,-0.5769841269841268,-0.7579365079365078,-0.8912698412698411,-0.9865079365079363,-1.0436507936507935,-1.0626984126984125,-1.1007936507936507,-1.1007936507936507,-1.1007936507936507,-1.1007936507936507,-1.1007936507936507,-1.1007936507936507,-1.1007936507936507,-1.1007936507936507,-1.1007936507936507,-1.1007936507936507,-1.1007936507936507,-1.1007936507936507,-1.1007936507936507,-1.1007936507936507,-1.1007936507936507,-1.1007936507936507,-1.1007936507936507,-1.1007936507936507,-1.1007936507936507,-1.1484126984126983,-1.3198412698412696,-1.5388888888888888,-1.7198412698412697,-1.7865079365079364,-1.8150793650793648,-1.8246031746031743,-1.8246031746031743,-1.8246031746031743,-1.8246031746031743,-1.8150793650793648,-1.7960317460317459,-1.7960317460317459,-1.7960317460317459,-1.7960317460317459,-1.7960317460317459,-1.7960317460317459,-1.7960317460317459,-1.7960317460317459,-1.7960317460317459,-1.7960317460317459,-1.7960317460317459,-1.7960317460317459,-1.7960317460317459,-1.7960317460317459,-1.7960317460317459,-1.7960317460317459,-1.7960317460317459,-1.7960317460317459,-1.7960317460317459,-1.7960317460317459,-1.7960317460317459,-1.7960317460317459,-1.7960317460317459,-1.7960317460317459,-1.7960317460317459,-1.7960317460317459,-1.7960317460317459,-1.7960317460317459,-1.7960317460317459,-1.7960317460317459,-1.7960317460317459,-1.7960317460317459,-1.7960317460317459,-1.7960317460317459,-1.7960317460317459,-1.7960317460317459,-1.7960317460317459,-1.7960317460317459,-1.7960317460317459,-1.7960317460317459,-1.7960317460317459,-1.7960317460317459,-1.7960317460317459,-1.7960317460317459,-1.7960317460317459,-1.7960317460317459,-1.7960317460317459,-1.7960317460317459,-1.7960317460317459,-1.7960317460317459,-1.7960317460317459,-1.7960317460317459,-1.7960317460317459,-1.7960317460317459,-1.7960317460317459,-1.7960317460317459,-1.7960317460317459,-1.7960317460317459,-1.7960317460317459,-1.7960317460317459,-1.7960317460317459,-1.7960317460317459,-1.7960317460317459,-1.7960317460317459,-1.7960317460317459,-1.7960317460317459,-1.7960317460317459,-1.7960317460317459,-1.7960317460317459,-1.7960317460317459,-1.7960317460317459,-1.7960317460317459,-1.7960317460317459,-1.7960317460317459,-1.7960317460317459,-1.7960317460317459,-1.7960317460317459,-1.7960317460317459,-1.7960317460317459,-1.7960317460317459,-1.7960317460317459,-1.7960317460317459,-1.7960317460317459,-1.7960317460317459,-1.7960317460317459,-1.7960317460317459,-1.7960317460317459,-1.7960317460317459,-1.7960317460317459,-1.7960317460317459,-1.7960317460317459,-1.7960317460317459,-1.7960317460317459,-1.7960317460317459,-1.7960317460317459,-1.7960317460317459,-1.7960317460317459,-1.7960317460317459,-1.7960317460317459,-1.7960317460317459,-1.7960317460317459,-1.7960317460317459,-1.7960317460317459,-1.7960317460317459,-1.7960317460317459,-1.7960317460317459,-1.7960317460317459,-1.7960317460317459,-1.7960317460317459,-1.7960317460317459,-1.7960317460317459,-1.7960317460317459,-1.7960317460317459,-1.7960317460317459,-1.7960317460317459,-1.7960317460317459,-1.7960317460317459,-1.7960317460317459,-1.7960317460317459,-1.7960317460317459,-1.7960317460317459,-1.7960317460317459,-1.7960317460317459,-1.7960317460317459,-1.7960317460317459,-1.7960317460317459,-1.7960317460317459,-1.7960317460317459,-1.7960317460317459,-1.7960317460317459,-1.7960317460317459,-1.7960317460317459,-1.7960317460317459,-1.7960317460317459,-1.7960317460317459,-1.7960317460317459,-1.7960317460317459,-1.7960317460317459,-1.7960317460317459,-1.7960317460317459,-1.7960317460317459,-1.7960317460317459,-1.7960317460317459,-1.7960317460317459,-1.7960317460317459,-1.7960317460317459,-1.7960317460317459,-1.7960317460317459,-1.7960317460317459,-1.7960317460317459,-1.7960317460317459,-1.7960317460317459,-1.7960317460317459,-1.7960317460317459,-1.7960317460317459,-1.7960317460317459,-1.7960317460317459,-1.7960317460317459,-1.7960317460317459,-1.7960317460317459,-1.7960317460317459,-1.7960317460317459,-1.7960317460317459,-1.7960317460317459,-1.7960317460317459,-1.7960317460317459,-1.7960317460317459,-1.7960317460317459,-1.7960317460317459,-1.7960317460317459,-1.7960317460317459,-1.7960317460317459,-1.7960317460317459,-1.7960317460317459,-1.7960317460317459,-1.7960317460317459,-1.7960317460317459,-1.7960317460317459,-1.7960317460317459,-1.7960317460317459,-1.7960317460317459,-1.7960317460317459,-1.7960317460317459,-1.7960317460317459,-1.7960317460317459,-1.7960317460317459,-1.7960317460317459,-1.7960317460317459,-1.7960317460317459,-1.7960317460317459,-1.7960317460317459,-1.7960317460317459,-1.7960317460317459,-1.7960317460317459,-1.7960317460317459,-1.7960317460317459,-1.7960317460317459,-1.7960317460317459,-1.7960317460317459,-1.7960317460317459,-1.7960317460317459,-1.7960317460317459,-1.7960317460317459,-1.7960317460317459,-1.7960317460317459,-1.7960317460317459,-1.7960317460317459,-1.7960317460317459,-1.7960317460317459,-1.7960317460317459,-1.7960317460317459,-1.7960317460317459,-1.7960317460317459,-1.7960317460317459,-1.7960317460317459,-1.7960317460317459,-1.7960317460317459,-1.7960317460317459,-1.7960317460317459,-1.7960317460317459,-1.7960317460317459,-1.7960317460317459,-1.7960317460317459,-1.7960317460317459,-1.7960317460317459,-1.7960317460317459,-1.7960317460317459,-1.7960317460317459,-1.7960317460317459,-1.7960317460317459,-1.7960317460317459,-1.7960317460317459,-1.7960317460317459,-1.7960317460317459,-1.7960317460317459,-1.7960317460317459,-1.7960317460317459,-1.7960317460317459,-1.7960317460317459,-1.7960317460317459,-1.7960317460317459,-1.7960317460317459,-1.7960317460317459,-1.7960317460317459,-1.7960317460317459,-1.7960317460317459,-1.7960317460317459,-1.7960317460317459,-1.7960317460317459,-1.7960317460317459,-1.7960317460317459,-1.7960317460317459,-1.7960317460317459,-1.7960317460317459,-1.7960317460317459,-1.7960317460317459,-1.7960317460317459,-1.7960317460317459,-1.7960317460317459,-1.7960317460317459,-1.7960317460317459,-1.7960317460317459,-1.7960317460317459,-1.7960317460317459,-1.7960317460317459,-1.7960317460317459,-1.7960317460317459,-1.7960317460317459,-1.7960317460317459,-1.7960317460317459,-1.7960317460317459,-1.7960317460317459,-1.7960317460317459,-1.7960317460317459,-1.7960317460317459,-1.7960317460317459,-1.7960317460317459,-1.7960317460317459,-1.7960317460317459,-1.7960317460317459,-1.7960317460317459,-1.7960317460317459,-1.7960317460317459,-1.7960317460317459,-1.7960317460317459,-1.7960317460317459,-1.7960317460317459,-1.7960317460317459,-1.7960317460317459,-1.7960317460317459,-1.7960317460317459,-1.7960317460317459,-1.7960317460317459,-1.7960317460317459,-1.7960317460317459,-1.7960317460317459,-1.7960317460317459,-1.7960317460317459,-1.7960317460317459,-1.7960317460317459,-1.7960317460317459,-1.7960317460317459,-1.7960317460317459,-1.7960317460317459,-1.7960317460317459,-1.7960317460317459,-1.7960317460317459,-1.7960317460317459,-1.7960317460317459,-1.7960317460317459,-1.7960317460317459,-1.7960317460317459,-1.7960317460317459,-1.7960317460317459,-1.7960317460317459,-1.7960317460317459,-1.7960317460317459,-1.7960317460317459,-1.7960317460317459,-1.7960317460317459,-1.7960317460317459,-1.7960317460317459,-1.7960317460317459,-1.7960317460317459,-1.7960317460317459,-1.7960317460317459,-1.7960317460317459,-1.7960317460317459,-1.7960317460317459,-1.7960317460317459,-1.7960317460317459,-1.7960317460317459,-1.7960317460317459,-1.7960317460317459,-1.7960317460317459,-1.7960317460317459,-1.7960317460317459,-1.7960317460317459,-1.7960317460317459,-1.7960317460317459,-1.7960317460317459,-1.7960317460317459,-1.7960317460317459,-1.7960317460317459,-1.7960317460317459,-1.7960317460317459,-1.7960317460317459,-1.7960317460317459,-1.7960317460317459,-1.7960317460317459,-1.7960317460317459,-1.7960317460317459,-1.7960317460317459,-1.7960317460317459,-1.7960317460317459,-1.7960317460317459,-1.7960317460317459,-1.7960317460317459,-1.7960317460317459,-1.7960317460317459,-1.7960317460317459,-1.7960317460317459,-1.7960317460317459,-1.7960317460317459,-1.7960317460317459,-1.7960317460317459,-1.7960317460317459,-1.7960317460317459,-1.7960317460317459,-1.7960317460317459,-1.7960317460317459,-1.7960317460317459,-1.7960317460317459,-1.7960317460317459,-1.7960317460317459,-1.7960317460317459,-1.7960317460317459,-1.7960317460317459,-1.7960317460317459,-1.7960317460317459,-1.7960317460317459,-1.7960317460317459,-1.7960317460317459,-1.7960317460317459,-1.7960317460317459,-1.7960317460317459,-1.7960317460317459,-1.7960317460317459,-1.7960317460317459,-1.7960317460317459,-1.7960317460317459,-1.7960317460317459,-1.7960317460317459,-1.7960317460317459,-1.7960317460317459,-1.7960317460317459,-1.7960317460317459,-1.7960317460317459,-1.7960317460317459,-1.7960317460317459,-1.7960317460317459,-1.7960317460317459,-1.7960317460317459,-1.7960317460317459,-1.7960317460317459,-1.7960317460317459,-1.7960317460317459,-1.7960317460317459,-1.7960317460317459,-1.7960317460317459,-1.7960317460317459,-1.7960317460317459,-1.7960317460317459,-1.7960317460317459,-1.7960317460317459,-1.7960317460317459,-1.7960317460317459,-1.7960317460317459,-1.7960317460317459,-1.7960317460317459,-1.7960317460317459,-1.7960317460317459,-1.7960317460317459,-1.7960317460317459,-1.7960317460317459,-1.7960317460317459,-1.7960317460317459,-1.7960317460317459,-1.7960317460317459,-1.7960317460317459,-1.7960317460317459,-1.7960317460317459,-1.7960317460317459,-1.7960317460317459,-1.7960317460317459,-1.7960317460317459,-1.7960317460317459,-1.7960317460317459,-1.7960317460317459,-1.7960317460317459,-1.7960317460317459,-1.7960317460317459,-1.7960317460317459,-1.7960317460317459,-1.7960317460317459,-1.7960317460317459,-1.7960317460317459,-1.7960317460317459,-1.7960317460317459,-1.7960317460317459,-1.7960317460317459,-1.7960317460317459,-1.7960317460317459,-1.7960317460317459,-1.7960317460317459,-1.7960317460317459,-1.7960317460317459,-1.7960317460317459,-1.7960317460317459,-1.7960317460317459,-1.7960317460317459,-1.7960317460317459,-1.7960317460317459,-1.7960317460317459,-1.7960317460317459,-1.7960317460317459,-1.7960317460317459,-1.7960317460317459,-1.7960317460317459,-1.7960317460317459,-1.7960317460317459,-1.7960317460317459,-1.7960317460317459,-1.7960317460317459,-1.7960317460317459,-1.7960317460317459,-1.7960317460317459,-1.7960317460317459,-1.7960317460317459,-1.7960317460317459,-1.7960317460317459,-1.7960317460317459,-1.7960317460317459,-1.7960317460317459,-1.7960317460317459,-1.7960317460317459,-1.7960317460317459,-1.7960317460317459,-1.7960317460317459,-1.7960317460317459,-1.7960317460317459,-1.7960317460317459,-1.7960317460317459,-1.7960317460317459,-1.7960317460317459,-1.7960317460317459,-1.7960317460317459,-1.7960317460317459,-1.7960317460317459,-1.7960317460317459,-1.7960317460317459,-1.7960317460317459,-1.7960317460317459,-1.7960317460317459,-1.7960317460317459,-1.7960317460317459,-1.7960317460317459,-1.7960317460317459,-1.7960317460317459,-1.7960317460317459,-1.7960317460317459,-1.7960317460317459,-1.7960317460317459,-1.7960317460317459,-1.7960317460317459,-1.7960317460317459,-1.7960317460317459,-1.7960317460317459,-1.7960317460317459,-1.7960317460317459,-1.7960317460317459,-1.7960317460317459,-1.7960317460317459,-1.7960317460317459,-1.7960317460317459,-1.7960317460317459,-1.7960317460317459,-1.7960317460317459,-1.7960317460317459,-1.7960317460317459,-1.7960317460317459,-1.7960317460317459,-1.7960317460317459,-1.7960317460317459,-1.7960317460317459,-1.7960317460317459,-1.7960317460317459,-1.7960317460317459,-1.7960317460317459,-1.7960317460317459,-1.7960317460317459,-1.7960317460317459,-1.7960317460317459,-1.7960317460317459,-1.7960317460317459,-1.7960317460317459,-1.7960317460317459,-1.7960317460317459,-1.7960317460317459,-1.7960317460317459,-1.7960317460317459,-1.7960317460317459,-1.7960317460317459,-1.7960317460317459,-1.7960317460317459,-1.7960317460317459,-1.7960317460317459,-1.7960317460317459,-1.7960317460317459,-1.7960317460317459,-1.7960317460317459,-1.7960317460317459,-1.7960317460317459,-1.7960317460317459,-1.7960317460317459,-1.7960317460317459,-1.7960317460317459,-1.7960317460317459,-1.7960317460317459,-1.7960317460317459,-1.7960317460317459,-1.7960317460317459,-1.7960317460317459,-1.7960317460317459,-1.7960317460317459,-1.7960317460317459,-1.7960317460317459,-1.7960317460317459,-1.7960317460317459,-1.7960317460317459,-1.7960317460317459,-1.7960317460317459,-1.7960317460317459,-1.7960317460317459,-1.7960317460317459,-1.7960317460317459,-1.7960317460317459,-1.7960317460317459,-1.7960317460317459,-1.7960317460317459,-1.7960317460317459,-1.7960317460317459,-1.7960317460317459,-1.7960317460317459,-1.7960317460317459,-1.7960317460317459,-1.7960317460317459,-1.7960317460317459,-1.7960317460317459,-1.7960317460317459,-1.7960317460317459,-1.7960317460317459,-1.7960317460317459,-1.7960317460317459,-1.7960317460317459,-1.7960317460317459,-1.7960317460317459,-1.7960317460317459,-1.7960317460317459,-1.7960317460317459,-1.7960317460317459,-1.7960317460317459,-1.7960317460317459,-1.7960317460317459,-1.7960317460317459,-1.7960317460317459,-1.7960317460317459,-1.7960317460317459,-1.7960317460317459,-1.7960317460317459,-1.7960317460317459,-1.7960317460317459,-1.7960317460317459,-1.7960317460317459,-1.7960317460317459,-1.7960317460317459,-1.7960317460317459,-1.7960317460317459,-1.7960317460317459,-1.7960317460317459,-1.7960317460317459,-1.7960317460317459,-1.7960317460317459,-1.7960317460317459,-1.7960317460317459,-1.7960317460317459,-1.7960317460317459,-1.7960317460317459,-1.7960317460317459,-1.7960317460317459,-1.7960317460317459,-1.7960317460317459,-1.7960317460317459,-1.7960317460317459,-1.7960317460317459,-1.7960317460317459,-1.7960317460317459,-1.7960317460317459,-1.7960317460317459,-1.7960317460317459,-1.7960317460317459,-1.7960317460317459,-1.7960317460317459,-1.7960317460317459,-1.7960317460317459,-1.7960317460317459,-1.7960317460317459,-1.7960317460317459,-1.7960317460317459,-1.7960317460317459,-1.7960317460317459,-1.7960317460317459,-1.7960317460317459,-1.7960317460317459,-1.7960317460317459,-1.7960317460317459,-1.7960317460317459,-1.7960317460317459,-1.7960317460317459,-1.7960317460317459,-1.7960317460317459,-1.7960317460317459,-1.7960317460317459,-1.7960317460317459,-1.7960317460317459,-1.7960317460317459,-1.7960317460317459,-1.7960317460317459,-1.7960317460317459,-1.7960317460317459,-1.7960317460317459,-1.7960317460317459,-1.7960317460317459,-1.7960317460317459,-1.7960317460317459,-1.7960317460317459,-1.7960317460317459,-1.7960317460317459,-1.7960317460317459,-1.7960317460317459,-1.7960317460317459,-1.7960317460317459,-1.7960317460317459,-1.7960317460317459,-1.7960317460317459,-1.7960317460317459,-1.7960317460317459,-1.7960317460317459,-1.7960317460317459,-1.7960317460317459,-1.7960317460317459,-1.7960317460317459,-1.7960317460317459,-1.7960317460317459,-1.7960317460317459,-1.7960317460317459,-1.7960317460317459,-1.7960317460317459,-1.7960317460317459,-1.7960317460317459,-1.7960317460317459,-1.7960317460317459,-1.7960317460317459,-1.7960317460317459,-1.7960317460317459,-1.7960317460317459,-1.7960317460317459,-1.7960317460317459,-1.7960317460317459,-1.7960317460317459,-1.7960317460317459,-1.7960317460317459,-1.7960317460317459,-1.7960317460317459,-1.7960317460317459,-1.7960317460317459,-1.7960317460317459,-1.7960317460317459,-1.7960317460317459,-1.7960317460317459,-1.7960317460317459,-1.7960317460317459,-1.7960317460317459,-1.7960317460317459,-1.7960317460317459,-1.7960317460317459,-1.7960317460317459,-1.7960317460317459,-1.7960317460317459,-1.7960317460317459,-1.7960317460317459,-1.7960317460317459,-1.7960317460317459,-1.7960317460317459,-1.7960317460317459,-1.7960317460317459,-1.7960317460317459,-1.7960317460317459,-1.7960317460317459,-1.7960317460317459,-1.7960317460317459,-1.7960317460317459,-1.7960317460317459,-1.7960317460317459,-1.7960317460317459,-1.7960317460317459,-1.7960317460317459,-1.7960317460317459,-1.7960317460317459,-1.7960317460317459,-1.7960317460317459,-1.7960317460317459,-1.7960317460317459,-1.7960317460317459,-1.7769841269841269,-1.7103174603174602,-1.6626984126984126,-1.615079365079365,-1.5198412698412698,-1.4436507936507934,-1.3769841269841268,-1.3007936507936506,-1.2246031746031745,-1.1769841269841268,-1.1007936507936507,-1.0055555555555553,-0.8817460317460316,-0.8055555555555554,-0.7198412698412696,-0.6246031746031744,-0.5769841269841268,-0.5769841269841268,-0.5769841269841268,-0.5769841269841268,-0.5769841269841268,-0.5769841269841268,-0.5769841269841268,-0.5769841269841268,-0.5769841269841268,-0.5769841269841268,-0.5769841269841268,-0.5769841269841268,-0.5769841269841268,-0.5769841269841268,-0.5769841269841268,-0.5769841269841268,-0.5769841269841268,-0.5769841269841268,-0.5769841269841268,-0.5769841269841268,-0.5769841269841268,-0.5769841269841268,-0.5103174603174602,-0.47222222222222204,-0.4055555555555554,-0.2817460317460316,-0.2150793650793649,-0.11984126984126967,-0.09126984126984108,-0.07222222222222204,-0.06269841269841252,-0.05317460317460299,-0.04365079365079347,-0.024603174603174422,-0.0150793650793649,0.0039682539682541484,0.04206349206349225,0.06111111111111129,0.08968253968253986,0.11825396825396843,0.12777777777777796,0.13730158730158748,0.13730158730158748,0.13730158730158748,0.13730158730158748,0.13730158730158748,0.13730158730158748,0.13730158730158748,0.13730158730158748,0.13730158730158748,0.13730158730158748,0.13730158730158748,0.13730158730158748,0.13730158730158748,0.13730158730158748,0.13730158730158748,0.13730158730158748,0.13730158730158748,0.13730158730158748,0.13730158730158748,0.13730158730158748,0.13730158730158748,0.13730158730158748,0.13730158730158748,0.13730158730158748,0.13730158730158748,0.13730158730158748,0.13730158730158748,0.13730158730158748,0.13730158730158748,0.13730158730158748,0.13730158730158748,0.13730158730158748,0.13730158730158748,0.13730158730158748,0.13730158730158748,0.13730158730158748,0.13730158730158748,0.13730158730158748,0.13730158730158748,0.13730158730158748,0.13730158730158748,0.13730158730158748,0.13730158730158748,0.13730158730158748,0.146825396825397,0.146825396825397,0.15634920634920654,0.17539682539682558,0.2230158730158732,0.2896825396825399,0.346825396825397,0.40396825396825414,0.4706349206349208,0.48015873015873034,0.4992063492063494,0.4992063492063494,0.4992063492063494,0.4611111111111113,0.4230158730158732,0.4230158730158732,0.4230158730158732,0.4230158730158732,0.4230158730158732,0.4230158730158732,0.4230158730158732,0.4230158730158732,0.4230158730158732,0.4230158730158732,0.4230158730158732,0.4230158730158732,0.4230158730158732,0.4230158730158732,0.4230158730158732,0.4230158730158732,0.4230158730158732,0.4230158730158732,0.4230158730158732,0.4230158730158732,0.4230158730158732,0.37539682539682556,0.31825396825396846,0.25158730158730175,0.16587301587301606,0.11825396825396843,0.08968253968253986,0.06111111111111129,0.051587301587301765,0.04206349206349225,0.04206349206349225,0.04206349206349225,0.04206349206349225,0.04206349206349225,0.04206349206349225,0.04206349206349225,0.04206349206349225,0.04206349206349225,0.04206349206349225,0.04206349206349225,0.04206349206349225,0.06111111111111129,0.08015873015873035,0.10873015873015891,0.16587301587301606,0.2325396825396827,0.28015873015873033,0.31825396825396846,0.3373015873015875,0.346825396825397,0.346825396825397,0.346825396825397,0.346825396825397,0.2611111111111113,0.146825396825397,0.023015873015873198,-0.04365079365079347,-0.10079365079365062,-0.12936507936507918,-0.1388888888888887,-0.14841269841269822,-0.14841269841269822,-0.14841269841269822,-0.14841269841269822,-0.1388888888888887,-0.07222222222222204,-0.024603174603174422,0.0039682539682541484,0.023015873015873198,0.03253968253968272,0.03253968253968272,0.03253968253968272,0.03253968253968272,0.03253968253968272,0.03253968253968272,0.03253968253968272,0.03253968253968272,0.03253968253968272,0.03253968253968272,0.03253968253968272,0.03253968253968272,0.03253968253968272,0.03253968253968272,0.023015873015873198,0.023015873015873198,0.023015873015873198,0.023015873015873198,0.023015873015873198,0.023015873015873198,0.023015873015873198,0.023015873015873198,0.023015873015873198,0.023015873015873198,0.023015873015873198,0.023015873015873198,0.023015873015873198,0.023015873015873198,0.023015873015873198,0.023015873015873198,0.023015873015873198,0.023015873015873198,0.023015873015873198,0.023015873015873198,0.023015873015873198,0.023015873015873198,0.023015873015873198,0.023015873015873198,0.023015873015873198,0.023015873015873198,0.023015873015873198,0.023015873015873198,0.023015873015873198,0.023015873015873198,0.023015873015873198,0.023015873015873198,0.023015873015873198,0.023015873015873198,0.023015873015873198,0.023015873015873198,0.023015873015873198,0.023015873015873198,0.023015873015873198,0.023015873015873198,0.023015873015873198,0.023015873015873198,0.06111111111111129,0.13730158730158748,0.1849206349206351,0.2325396825396827,0.2611111111111113,0.28015873015873033,0.2896825396825399,0.2896825396825399,0.2896825396825399,0.2896825396825399,0.2896825396825399,0.2896825396825399,0.2896825396825399,0.2896825396825399,0.2896825396825399,0.2896825396825399,0.2896825396825399,0.2896825396825399,0.2896825396825399,0.2896825396825399,0.2896825396825399,0.2896825396825399,0.2896825396825399,0.2896825396825399,0.2896825396825399,0.2896825396825399,0.2896825396825399,0.2896825396825399,0.2896825396825399,0.2896825396825399,0.2896825396825399,0.2896825396825399,0.2896825396825399,0.2896825396825399,0.2896825396825399,0.2896825396825399,0.2896825396825399,0.2896825396825399,0.2896825396825399,0.2896825396825399,0.2896825396825399,0.2896825396825399,0.2896825396825399,0.2896825396825399,0.2896825396825399,0.2896825396825399,0.2896825396825399,0.2896825396825399,0.2896825396825399,0.2896825396825399,0.2896825396825399,0.2896825396825399,0.2896825396825399,0.2896825396825399,0.2896825396825399,0.2896825396825399,0.2896825396825399,0.2896825396825399,0.2896825396825399,0.2896825396825399,0.2896825396825399,0.2896825396825399,0.2896825396825399,0.2896825396825399,0.2896825396825399,0.289682