[{"success":true,"trial_type":"fullscreen","trial_index":0,"time_elapsed":2522,"internal_node_id":"0.0-0.0","protocol_sum":"","subject_identifier":105,"subject_sum":[65,207,192,209,242,209,39,176,69,85,183,36,109,132,1,155,77,39,113,10,63,58,255,110,119,100,55,91,30,6,224,93],"subject_pair":52,"STUDY_ID":"669a702db1122fc5150a13ce","PROLIFIC_PID":"5df97cf6deea2b70989b6528","SESSION_ID":"669a8b4f423db2198ab7cba9","practice_instructions":1,"leaderboard_instructions":1,"bonus":0,"reveal_word":true,"self_rating":"4","confidence":"62"},{"view_history":"[{\"page_index\":0,\"viewing_time\":3995}]","rt":3995.5,"trial_type":"instructions","trial_index":1,"time_elapsed":6519,"internal_node_id":"0.0-1.0","protocol_sum":"","subject_identifier":105,"subject_sum":[65,207,192,209,242,209,39,176,69,85,183,36,109,132,1,155,77,39,113,10,63,58,255,110,119,100,55,91,30,6,224,93],"subject_pair":52,"STUDY_ID":"669a702db1122fc5150a13ce","PROLIFIC_PID":"5df97cf6deea2b70989b6528","SESSION_ID":"669a8b4f423db2198ab7cba9","practice_instructions":1,"leaderboard_instructions":1,"bonus":0,"reveal_word":true,"self_rating":"4","confidence":"62"},{"view_history":"[{\"page_index\":0,\"viewing_time\":13682}]","rt":13682.399999976158,"trial_type":"instructions","trial_index":2,"time_elapsed":20202,"internal_node_id":"0.0-2.0-0.0","protocol_sum":"","subject_identifier":105,"subject_sum":[65,207,192,209,242,209,39,176,69,85,183,36,109,132,1,155,77,39,113,10,63,58,255,110,119,100,55,91,30,6,224,93],"subject_pair":52,"STUDY_ID":"669a702db1122fc5150a13ce","PROLIFIC_PID":"5df97cf6deea2b70989b6528","SESSION_ID":"669a8b4f423db2198ab7cba9","practice_instructions":1,"leaderboard_instructions":1,"bonus":0,"reveal_word":true,"self_rating":"4","confidence":"62"},{"rt":13030.600000023842,"responses":"{\"Q0\":\"... reveal the word with as <b>few letter guesses</b> as possible\"}","question_order":"[0]","trial_type":"survey-multi-choice","trial_index":3,"time_elapsed":33235,"internal_node_id":"0.0-2.0-1.0","protocol_sum":"","subject_identifier":105,"subject_sum":[65,207,192,209,242,209,39,176,69,85,183,36,109,132,1,155,77,39,113,10,63,58,255,110,119,100,55,91,30,6,224,93],"subject_pair":52,"correct":true,"test_part":"multichoice_nonpretend","STUDY_ID":"669a702db1122fc5150a13ce","PROLIFIC_PID":"5df97cf6deea2b70989b6528","SESSION_ID":"669a8b4f423db2198ab7cba9","practice_instructions":1,"leaderboard_instructions":1,"bonus":0,"reveal_word":true,"self_rating":"4","confidence":"62"},{"view_history":"[{\"page_index\":0,\"viewing_time\":3281}]","rt":3281.399999976158,"trial_type":"instructions","trial_index":4,"time_elapsed":36518,"internal_node_id":"0.0-3.0","protocol_sum":"","subject_identifier":105,"subject_sum":[65,207,192,209,242,209,39,176,69,85,183,36,109,132,1,155,77,39,113,10,63,58,255,110,119,100,55,91,30,6,224,93],"subject_pair":52,"STUDY_ID":"669a702db1122fc5150a13ce","PROLIFIC_PID":"5df97cf6deea2b70989b6528","SESSION_ID":"669a8b4f423db2198ab7cba9","practice_instructions":1,"leaderboard_instructions":1,"bonus":0,"reveal_word":true,"self_rating":"4","confidence":"62"},{"word":"ZEBRA","click_log":{"letter":["","S","T","A","C","E","M","R","P","D","B","Z"],"t":[0,7459.800000071526,14545.900000095367,16842.400000095367,20975.800000071526,24775.700000047684,29209,34142.40000009537,44659.40000009537,52009.10000002384,53342.40000009537,55460.700000047684],"hit":[null,0,0,1,0,1,0,1,0,0,1,1],"asked":["","S","ST","STA","STAC","STACE","STACEM","STACEMR","STACEMRP","STACEMRPD","STACEMRPDB","STACEMRPDBZ"],"word_state":["_____","_____","_____","____A","____A","_E__A","_E__A","_E_RA","_E_RA","_E_RA","_EBRA","ZEBRA"]},"hover_log":{"letter":["?","?","?","?","?","?","?","?","?","?","?","?","?","?","?","?","?","?","?","?","?","?","?","?","?","?","?","?","?","?","?","?","?","?","?","?","?","?","?","?","?","?","?","?","?","?","?","?","?","?","S","S","S","S","S","S","S","S","S","S","S","S","S","S","S","S","S","S","S","S","S","S","?","J","?","?","?","?","?","?","?","?","?","?","?","?","?","?","?","?","?","?","?","?","?","?","?","?","?","?","?","?","?","?","?","?","?","?","?","?","?","?","?","?","?","?","?","?","?","?","?","?","?","?","?","?","?","?","?","?","?","?","?","?","?","?","?","?","?","?","?","?","?","?","?","?","?","?","?","?","?","?","?","?","?","?","?","?","?","?","?","?","?","?","?","?","?","?","?","?","?","?","?","?","?","?","?","?","?","?","?","?","?","?","?","?","?","?","?","?","?","?","?","?","?","?","?","?","?","?","?","?","?","?","?","?","?","?","?","?","?","?","?","?","?","?","?","?","?","?","?","?","?","?","?","?","?","?","?","?","?","?","?","?","?","?","?","?","?","?","?","?","?","?","?","?","?","?","?","?","?","?","?","?","?","?","?","?","?","?","?","?","?","?","?","?","?","?","?","?","?","?","?","?","?","?","?","?","?","?","?","?","?","?","?","?","?","?","?","?","?","?","?","?","?","?","?","?","?","?","?","?","?","?","?","?","?","?","?","?","?","?","?","?","?","?","?","?","?","?","?","?","?","?","?","?","?","?","?","?","?","?","?","?","?","?","?","?","?","?","?","?","?","?","?","?","?","?","?","?","?","?","?","?","?","?","?","?","?","?","?","?","?","?","?","?","?","?","?","?","?","?","?","?","?","?","?","?","?","?","?","?","?","?","?","?","?","?","?","?","?","?","?","?","?","?","?","?","?","B","?","?","?","?","?","?","?","?","?","S","S","S","S","S","S","S","S","S","S","S","S","S","S","S","S","S","S","S","S","S","S","S","S","S","S","S","S","S","S","S","S","S","S","S","S","S","S","S","S","S","S","S","S","S","S","S","S","S","S","S","S","S","S","S","S","S","S","S","S","S","S","S","S","S","S","S","S","S","S","S","S","S","S","S","S","S","S","S","S","S","S","S","S","S","S","S","S","S","S","S","S","S","S","S","S","S","S","S","S","S","S","S","?","J","?","?","?","?","?","?","?","?","?","?","?","?","?","?","?","?","?","?","?","?","?","?","?","?","?","?","?","?","?","?","?","?","?","?","?","?","?","?","?","?","?","?","?","?","?","?","?","?","?","?","?","?","?","?","?","?","?","?","?","?","?","?","?","?","?","?","?","?","?","?","?","?","?","?","?","?","?","?","?","?","?","?","?","?","?","?","?","?","?","?","?","?","?","?","?","?","?","?","?","?","?","?","?","?","?","?","?","?","?","?","?","?","?","?","?","?","?","?","?","?","?","?","?","?","?","?","?","?","?","?","?","?","?","?","?","?","?","?","?","?","?","?","?","?","E","O","Z","?","?","?","?","?","?","?","?","?","?","?","?","?","?","?","?","?","?","?","?","?","?","?","?","?","?","?","?","?","?","?","?","?","?","?","?","?","?","?","?","?","?","?","?","?","?","?","?","?","?","?","?","?","?","?","?","?","?","?","?","?","?","?","?","?","?","?","?","?","U","U","U","U","U","U","U","?","?","?","?","?","?","?","?","?","?","T","T","T","T","T","T","T","T","T","T","T","T","T","T","T","T","T","T","T","T","T","T","T","T","T","T","T","T","T","T","T","T","T","T","T","T","T","T","T","T","T","T","T","T","T","T","T","T","T","T","T","T","T","T","T","T","T","T","T","T","T","T","T","T","T","T","T","T","T","T","T","T","T","T","T","T","T","T","T","T","T","T","T","T","T","T","T","T","T","T","T","T","T","T","T","T","T","T","T","T","T","T","T","T","T","T","T","T","T","T","T","T","T","T","T","T","T","T","T","T","T","T","T","T","T","T","T","T","T","T","T","T","T","T","T","T","T","T","T","T","T","T","T","T","T","T","T","T","T","T","T","T","T","T","T","T","T","T","T","T","T","T","T","T","T","T","T","T","T","T","T","T","T","T","T","T","T","?","K","K","K","?","?","?","?","?","?","?","?","?","?","?","?","?","A","A","A","A","A","A","A","A","A","A","A","A","A","A","A","A","A","A","A","A","A","A","A","A","A","A","A","A","A","A","A","A","A","A","A","A","A","A","A","A","A","A","A","A","A","A","A","A","A","A","A","A","A","A","A","A","A","A","A","A","A","A","A","A","A","A","A","A","A","A","A","A","A","A","A","A","A","A","A","A","A","A","A","A","A","A","A","A","A","A","A","A","A","A","A","A","A","A","A","A","A","A","A","A","A","A","A","A","A","A","A","A","A","A","A","A","A","A","A","A","A","A","A","A","A","A","A","A","A","A","A","A","A","A","A","A","A","A","A","A","A","A","A","A","A","A","A","A","A","A","A","A","A","A","A","A","A","A","A","A","A","A","A","A","A","A","A","A","A","A","A","A","A","A","A","A","A","A","A","A","A","A","A","A","A","A","A","A","A","A","A","A","A","A","A","A","A","A","A","A","A","A","A","A","A","A","A","A","A","A","A","A","A","A","A","A","A","A","A","A","A","A","A","A","A","A","A","A","A","A","A","A","A","A","A","A","A","A","A","A","A","A","A","A","A","A","A","A","A","A","A","A","A","A","A","A","A","A","A","A","A","A","A","A","A","A","A","A","A","A","A","A","A","A","A","A","A","A","A","B","B","B","?","?","?","?","?","C","C","C","C","C","C","C","C","C","C","C","C","C","C","C","C","C","C","C","C","C","C","C","C","C","C","C","C","C","C","C","C","C","C","C","C","C","C","C","C","C","C","C","C","C","C","C","C","C","C","C","C","C","C","C","C","C","C","C","C","C","C","C","C","C","C","C","C","C","C","C","C","C","C","C","C","C","C","C","C","C","C","C","C","C","C","C","C","C","C","C","C","C","C","C","C","C","C","C","C","C","C","C","C","C","C","C","C","C","C","C","C","C","C","C","C","C","C","C","C","C","C","C","C","C","C","C","C","C","C","C","C","C","C","C","C","C","C","C","C","C","C","C","C","C","C","C","C","C","C","C","C","C","C","C","C","C","C","C","C","C","C","C","C","C","C","C","C","C","C","C","C","C","C","C","C","C","C","C","C","C","C","C","C","C","C","C","C","C","C","C","C","C","C","C","C","C","C","C","C","C","C","C","C","C","C","C","C","C","C","C","C","C","C","C","C","C","C","C","D","D","D","D","?","?","E","E","E","E","E","E","E","E","E","E","E","E","E","E","E","E","E","E","E","E","E","E","E","E","E","E","E","E","E","E","E","E","E","E","E","E","E","E","E","E","E","E","E","E","E","E","E","E","E","E","E","E","E","E","E","E","E","E","E","E","E","E","E","E","E","E","E","E","E","E","E","E","E","E","E","E","E","E","E","E","E","E","E","E","E","E","E","E","E","E","E","E","E","E","E","E","E","E","E","E","E","E","E","E","E","E","E","E","E","E","E","E","E","E","E","E","E","E","E","E","E","E","E","E","E","E","E","E","E","E","E","E","E","E","E","E","E","E","E","E","E","E","E","E","E","E","E","E","E","E","E","E","E","E","E","E","E","E","E","E","E","E","E","E","E","E","E","E","E","E","E","E","E","E","E","E","E","E","E","E","E","E","E","E","E","E","E","E","E","E","E","E","E","E","E","E","E","E","E","E","E","E","E","E","E","E","E","E","E","E","E","E","E","E","E","E","E","E","E","E","E","E","E","E","E","E","E","E","E","E","E","E","E","E","E","E","E","E","E","E","E","E","E","E","E","E","E","E","E","E","E","E","E","E","E","E","E","E","E","E","E","E","E","E","E","E","E","E","E","?","?","?","?","?","M","M","M","M","M","M","M","M","M","M","M","M","M","M","M","M","M","M","M","M","M","M","M","M","M","M","M","M","M","M","M","M","M","M","M","M","M","M","M","M","M","M","M","M","M","M","M","M","M","M","M","M","M","M","M","M","M","M","M","M","M","M","M","M","M","M","M","M","M","M","M","M","M","M","M","M","M","M","M","M","M","M","M","M","M","M","M","M","M","M","M","M","M","M","M","M","M","M","M","M","M","M","?","N","?","O","?","?","P","P","?","Q","Q","Q","R","R","R","R","R","R","R","R","R","R","R","R","R","R","R","R","R","R","R","R","R","R","R","R","R","R","R","R","R","R","R","R","R","R","R","R","R","R","R","R","R","R","R","R","R","R","R","R","R","R","R","R","R","R","R","R","R","R","R","R","R","R","R","R","R","R","R","R","R","R","R","R","R","R","R","R","R","R","R","R","R","R","R","R","R","R","R","R","R","R","R","R","R","R","R","R","R","R","R","R","R","R","R","R","R","R","R","R","R","R","R","R","R","R","R","R","R","R","R","R","R","R","R","R","R","R","R","R","R","R","R","R","R","R","R","R","R","R","R","R","R","R","R","R","R","R","R","R","R","R","R","R","R","R","R","R","R","R","R","R","R","R","R","R","R","R","R","R","R","R","R","R","R","R","R","R","R","R","R","R","R","R","R","R","R","R","R","R","R","R","R","R","R","R","R","R","R","R","R","R","R","R","R","R","R","R","R","R","R","R","R","R","R","R","R","R","R","R","R","R","R","R","R","R","R","R","R","R","R","R","R","R","R","R","R","R","R","R","R","R","R","R","R","R","R","R","R","R","R","R","R","R","R","R","R","R","R","R","R","R","R","R","R","R","R","R","R","R","R","R","R","R","R","R","R","R","R","R","R","R","R","R","R","R","R","R","R","R","R","R","R","R","R","R","R","R","R","R","R","R","R","R","R","R","R","R","R","R","R","R","R","R","R","R","R","R","R","R","R","R","R","R","R","R","R","R","R","R","R","R","R","R","R","R","R","R","R","R","R","R","R","R","R","R","R","R","R","R","R","R","R","R","R","R","R","R","R","R","R","R","R","R","R","R","R","R","R","R","R","R","R","R","R","R","R","R","R","R","R","R","R","R","R","R","R","R","R","R","R","R","R","R","R","R","R","R","R","R","R","R","R","R","R","R","R","R","R","R","R","R","R","R","R","R","R","R","R","R","R","R","R","R","R","R","R","R","R","R","R","R","R","R","R","R","R","R","R","R","R","R","R","R","R","R","R","R","R","R","R","R","R","R","R","R","R","R","R","R","R","R","R","R","R","R","R","R","R","R","R","R","R","R","R","R","R","R","R","R","R","R","R","R","R","R","R","R","R","R","R","R","R","R","R","R","R","R","R","R","R","R","R","R","R","R","R","R","R","R","R","R","R","R","R","R","R","R","R","R","R","R","R","R","R","R","R","R","R","R","R","R","R","R","R","R","R","R","R","R","R","R","R","R","R","R","R","R","R","R","R","R","R","R","R","R","R","R","R","R","R","R","R","R","R","R","R","R","R","R","R","R","R","R","R","R","R","R","R","R","R","R","R","R","R","R","R","R","R","R","R","R","R","R","R","R","R","R","R","R","R","R","R","R","R","R","R","R","R","R","R","R","R","R","R","R","R","R","R","R","R","R","R","R","R","R","R","R","R","R","R","R","R","R","R","R","R","R","R","R","R","R","R","R","R","R","R","R","R","R","R","R","R","R","R","R","R","R","R","R","R","R","R","R","R","R","R","R","R","R","R","R","R","R","R","R","R","R","R","R","R","R","R","R","R","R","R","R","R","R","R","R","R","R","R","R","R","R","R","R","R","R","R","R","R","R","R","R","R","R","R","R","R","R","R","R","R","R","R","R","R","R","R","R","R","R","R","R","R","R","R","R","R","R","R","R","R","R","R","R","R","R","R","R","R","R","R","R","R","R","R","R","R","R","R","R","R","R","R","R","R","R","R","R","R","R","R","R","R","R","R","R","R","R","R","R","R","R","R","R","R","R","R","R","R","R","R","R","R","R","R","R","R","R","R","R","R","R","R","R","R","R","Q","Q","Q","Q","Q","Q","Q","Q","Q","Q","Q","Q","Q","?","?","P","P","P","P","P","P","P","P","P","P","P","P","P","P","P","P","P","P","P","P","P","P","P","P","P","P","P","P","P","P","P","P","P","P","P","P","P","P","P","P","P","P","P","P","P","P","P","P","P","P","P","P","P","P","P","P","P","P","P","P","P","P","P","P","P","P","P","P","P","P","P","P","P","P","P","P","P","P","P","P","P","P","P","P","P","P","P","P","P","P","P","P","P","P","P","P","P","P","P","P","P","P","P","P","P","P","P","P","P","P","P","P","P","P","P","P","P","P","P","P","P","P","P","P","P","P","P","P","P","P","P","P","P","P","P","P","P","P","P","P","P","P","P","P","P","P","P","P","P","P","P","P","P","P","P","P","P","P","P","P","P","P","P","P","P","P","P","P","P","P","P","P","P","P","P","P","P","P","P","P","P","P","P","P","P","P","P","P","P","P","P","P","P","P","P","P","P","P","P","P","P","P","P","P","P","P","P","P","P","P","P","P","P","P","P","P","P","P","P","P","P","P","P","P","P","P","P","P","P","P","P","P","P","P","P","P","P","P","P","P","P","P","P","P","P","P","P","P","P","P","P","P","P","P","P","P","P","P","P","P","P","P","P","P","P","P","P","P","P","P","P","P","P","P","P","P","P","P","P","P","P","P","P","P","P","P","P","P","P","P","P","P","P","P","P","P","P","P","P","P","P","P","P","P","P","P","P","P","P","P","P","P","P","P","P","P","P","P","P","P","P","P","P","P","P","P","P","P","P","P","P","P","P","P","P","P","P","P","P","P","P","P","P","P","P","P","P","P","P","P","P","P","P","P","P","P","P","P","P","P","P","P","P","P","P","P","P","P","P","P","P","P","P","P","P","P","P","P","P","P","P","P","P","P","P","P","P","P","P","P","P","P","P","P","P","P","P","P","P","P","P","P","P","P","P","P","P","P","P","?","?","?","?","?","?","D","D","D","D","D","D","D","D","D","D","D","D","D","D","D","D","D","D","D","D","D","D","D","D","D","D","D","D","D","D","D","D","D","D","D","D","D","D","D","D","D","D","D","D","D","D","D","D","D","D","D","D","D","D","D","D","D","D","D","D","D","D","D","D","D","D","D","D","D","D","D","D","D","D","D","D","D","D","D","D","D","D","D","D","D","D","D","D","D","D","D","D","D","D","D","D","D","D","D","?","C","C","?","B","B","B","B","B","B","B","B","B","B","B","B","B","B","B","B","B","B","B","B","B","B","B","B","B","B","B","B","B","B","B","B","B","B","B","B","B","B","B","B","B","B","B","B","B","B","B","B","B","B","B","B","B","B","B","B","B","B","B","B","B","B","B","B","B","B","B","B","B","B","B","B","B","B","B","B","B","B","B","B","B","B","B","B","B","B","B","B","B","B","B","B","B","B","B","B","?","?","?","?","L","?","?","?","W","X","X","?","Y","Y","Y","Y","Y","Y","Y","Y","Y","Z","Z","Z","Z","Z","Z","Z","Z","Z","Z","Z","Z","Z","Z","Z","Z","Z","Z","Z","Z","Z","Z","Z","Z","Z","Z","Z","Z","Z","Z","Z","Z","Z","Z","Z","Z","Z","Z","?","?","?","?","?","?","?","?","?","?","?","?","?","?","?","?","?","?","?","?","?","?","?","?","?","?","?","?","?","?","?","?","?","?","?","?","?","?","?","?","?","?","?","?","?","?","?","?","?","?","?","?","?","?","?","?","?","?","?","?","?","?","?","?","?","?","?","?","?","?","?","?","?","?","?","?","?","?","?","?","?","?","?","?","?","?","?","?","?","?","?","?","?","?","?","?","?","?","?","?","?","?","?","?","?","?","?","?","?","?","?","?","?","?","?","?","?","?"],"t":[39,47,64,80,97,114,130,147,164,181,198,213,230,247,263,281,296,314,331,348,364,380,396,414,430,447,463,481,497,514,530,548,564,581,597,614,631,647,664,681,698,714,731,747,763,780,797,814,831,847,867,881,896,913,931,948,963,980,998,1014,1031,1048,1063,1081,1098,1113,1131,1148,1165,1181,1198,1215,1232,1247,1265,1280,1296,1313,1331,1349,1364,1380,1398,1414,1431,1447,1464,1481,1498,1514,1530,1547,1564,1580,1598,1614,1631,1648,1664,1680,1696,1714,1731,1747,1764,1781,1797,1814,1830,1847,1864,1881,1897,1913,1931,1947,1964,1980,1996,2014,2030,2048,2064,2081,2097,2113,2130,2148,2164,2181,2198,2213,2230,2247,2265,2280,2298,2314,2331,2348,2364,2381,2398,2414,2430,2448,2463,2481,2498,2514,2531,2548,2564,2581,2598,2615,2630,2648,2664,2681,2698,2714,2731,2748,2764,2781,2798,2814,2831,2847,2863,2881,2898,2913,2930,2946,2963,2981,2996,3014,3031,3048,3064,3081,3098,3114,3130,3148,3164,3181,3198,3214,3230,3247,3264,3279,3298,3314,3331,3346,3364,3381,3398,3413,3430,3447,3464,3481,3497,3513,3531,3547,3564,3580,3596,3615,3630,3647,3664,3681,3697,3714,3731,3747,3764,3780,3797,3813,3830,3848,3864,3881,3897,3914,3931,3948,3964,3981,3996,4014,4031,4047,4064,4079,4096,4113,4131,4147,4163,4180,4196,4213,4231,4247,4264,4280,4297,4313,4331,4346,4363,4381,4397,4413,4431,4446,4465,4481,4497,4514,4531,4548,4564,4580,4597,4614,4631,4647,4664,4681,4697,4713,4731,4748,4764,4781,4797,4814,4831,4847,4865,4881,4897,4913,4930,4947,4963,4981,4997,5014,5031,5047,5063,5080,5097,5114,5131,5146,5164,5180,5197,5214,5231,5247,5263,5279,5296,5312,5329,5347,5364,5380,5397,5414,5430,5447,5462,5479,5497,5514,5531,5547,5565,5580,5597,5614,5631,5646,5664,5681,5697,5714,5731,5747,5763,5779,5797,5813,5831,5847,5863,5881,5897,5914,5931,5948,5964,5980,5997,6014,6030,6046,6064,6081,6097,6113,6130,6147,6164,6180,6197,6214,6230,6247,6264,6280,6297,6313,6329,6346,6363,6380,6397,6414,6429,6447,6464,6479,6497,6513,6531,6547,6563,6580,6597,6614,6631,6647,6663,6681,6697,6714,6731,6748,6763,6781,6798,6813,6831,6848,6864,6881,6896,6914,6931,6947,6963,6980,6998,7014,7031,7047,7064,7080,7096,7114,7131,7146,7164,7180,7196,7214,7230,7247,7264,7280,7297,7314,7331,7348,7365,7380,7397,7414,7430,7447,7465,7480,7497,7514,7531,7548,7564,7581,7598,7613,7631,7648,7664,7680,7696,7713,7731,7748,7764,7780,7797,7813,7831,7848,7864,7881,7896,7914,7931,7948,7964,7981,7997,8014,8031,8048,8064,8081,8096,8114,8130,8146,8164,8181,8198,8215,8231,8247,8264,8279,8297,8313,8331,8347,8364,8381,8398,8414,8431,8448,8464,8481,8497,8513,8531,8548,8564,8580,8598,8613,8631,8649,8663,8680,8697,8714,8731,8748,8764,8781,8797,8815,8830,8846,8863,8881,8897,8913,8931,8947,8963,8980,8996,9014,9030,9048,9064,9081,9097,9113,9131,9148,9164,9180,9197,9214,9231,9247,9264,9280,9296,9312,9329,9346,9364,9380,9396,9413,9431,9446,9464,9481,9497,9514,9531,9548,9564,9581,9598,9614,9629,9647,9663,9681,9696,9714,9731,9748,9764,9781,9797,9813,9831,9847,9864,9881,9897,9914,9931,9948,9964,9981,9998,10014,10031,10048,10063,10081,10096,10113,10130,10146,10163,10180,10196,10213,10230,10247,10263,10280,10296,10314,10331,10346,10364,10381,10397,10413,10431,10447,10464,10480,10497,10514,10531,10548,10564,10579,10596,10614,10631,10647,10664,10681,10697,10714,10731,10746,10764,10781,10797,10814,10831,10847,10864,10881,10897,10914,10931,10947,10964,10981,10998,11013,11031,11048,11063,11081,11098,11114,11131,11148,11164,11181,11198,11214,11231,11246,11264,11280,11297,11313,11331,11347,11363,11379,11397,11414,11431,11448,11464,11481,11497,11514,11531,11547,11563,11580,11597,11614,11631,11647,11664,11681,11698,11714,11731,11747,11764,11780,11796,11814,11830,11848,11864,11881,11896,11913,11931,11947,11964,11981,11996,12014,12031,12046,12064,12081,12098,12113,12130,12147,12164,12181,12198,12214,12231,12248,12264,12281,12297,12314,12331,12348,12364,12381,12397,12414,12431,12448,12464,12479,12496,12513,12531,12547,12564,12581,12597,12614,12631,12647,12664,12680,12697,12714,12731,12746,12764,12781,12797,12814,12830,12847,12864,12881,12896,12914,12931,12947,12964,12980,12997,13014,13031,13047,13064,13081,13098,13114,13131,13147,13163,13181,13197,13214,13231,13247,13264,13280,13297,13314,13331,13348,13364,13381,13397,13414,13431,13447,13464,13480,13497,13514,13531,13546,13564,13581,13597,13614,13631,13647,13664,13681,13697,13714,13731,13747,13764,13781,13797,13814,13830,13847,13864,13880,13897,13914,13931,13948,13963,13981,13997,14014,14030,14047,14064,14081,14096,14114,14130,14147,14164,14180,14197,14214,14231,14247,14263,14280,14297,14314,14331,14346,14364,14381,14397,14413,14429,14446,14463,14480,14496,14513,14529,14547,14564,14581,14596,14614,14631,14646,14664,14681,14697,14714,14730,14747,14764,14781,14797,14814,14830,14846,14864,14881,14896,14914,14931,14947,14964,14981,14997,15014,15030,15047,15064,15081,15097,15113,15129,15148,15164,15181,15198,15214,15231,15247,15263,15280,15297,15313,15331,15346,15363,15381,15398,15414,15431,15448,15463,15480,15498,15514,15531,15548,15563,15581,15598,15613,15631,15646,15664,15681,15698,15715,15731,15747,15764,15781,15798,15814,15830,15848,15865,15880,15897,15913,15931,15946,15964,15981,15996,16014,16031,16047,16063,16081,16097,16114,16130,16146,16164,16181,16197,16214,16231,16247,16263,16281,16298,16313,16331,16347,16364,16381,16397,16414,16431,16446,16464,16481,16497,16514,16531,16547,16564,16580,16597,16614,16630,16646,16664,16681,16696,16713,16730,16746,16764,16781,16798,16813,16831,16848,16864,16881,16897,16914,16931,16947,16963,16981,16996,17014,17031,17048,17064,17081,17097,17114,17131,17148,17164,17181,17197,17214,17231,17247,17264,17280,17297,17313,17330,17346,17363,17381,17397,17414,17431,17447,17463,17481,17497,17514,17531,17546,17564,17581,17598,17614,17630,17647,17664,17680,17697,17714,17731,17747,17764,17781,17797,17814,17829,17846,17864,17881,17897,17914,17931,17948,17964,17981,17997,18014,18031,18046,18064,18081,18096,18114,18131,18147,18164,18181,18197,18214,18231,18248,18264,18279,18297,18314,18330,18346,18363,18381,18398,18414,18431,18446,18464,18480,18497,18514,18530,18547,18564,18581,18596,18614,18630,18648,18664,18681,18697,18714,18731,18746,18763,18780,18797,18814,18831,18847,18864,18881,18896,18914,18931,18947,18964,18980,18997,19014,19031,19048,19064,19080,19097,19113,19131,19147,19164,19181,19197,19214,19230,19247,19264,19281,19297,19314,19331,19347,19363,19381,19397,19414,19430,19447,19464,19480,19498,19513,19531,19548,19564,19581,19597,19613,19630,19647,19663,19681,19696,19714,19731,19747,19764,19780,19797,19814,19829,19847,19864,19881,19897,19914,19930,19947,19964,19981,19997,20014,20031,20047,20064,20081,20097,20114,20131,20148,20164,20180,20196,20212,20229,20247,20264,20281,20297,20314,20331,20347,20364,20381,20397,20413,20430,20448,20464,20480,20497,20514,20531,20547,20564,20580,20598,20614,20631,20648,20663,20681,20697,20714,20731,20748,20764,20781,20798,20814,20831,20847,20863,20881,20897,20914,20931,20947,20964,20981,20997,21014,21031,21047,21063,21079,21096,21112,21131,21148,21164,21181,21198,21214,21230,21247,21264,21281,21297,21314,21329,21347,21364,21380,21398,21413,21431,21447,21464,21481,21497,21514,21531,21547,21564,21581,21597,21614,21630,21648,21664,21680,21698,21714,21731,21747,21764,21781,21797,21812,21831,21847,21863,21881,21896,21914,21931,21947,21963,21980,21997,22014,22029,22046,22064,22081,22097,22114,22131,22147,22164,22181,22196,22214,22231,22246,22264,22280,22297,22314,22330,22346,22363,22380,22397,22414,22429,22447,22463,22479,22497,22514,22531,22547,22564,22581,22597,22614,22630,22646,22664,22681,22697,22713,22729,22747,22764,22781,22797,22814,22830,22847,22864,22881,22897,22914,22931,22948,22963,22980,22997,23012,23030,23047,23064,23080,23097,23114,23131,23146,23163,23181,23197,23214,23230,23247,23262,23279,23297,23313,23331,23348,23362,23380,23396,23413,23431,23447,23464,23481,23496,23513,23531,23548,23563,23581,23597,23614,23631,23647,23664,23681,23697,23714,23730,23747,23764,23780,23796,23812,23829,23847,23864,23879,23897,23913,23931,23947,23964,23981,23998,24014,24031,24047,24064,24079,24097,24114,24131,24147,24164,24181,24197,24212,24229,24247,24264,24280,24297,24314,24331,24346,24364,24381,24397,24414,24429,24446,24464,24481,24497,24514,24531,24547,24564,24580,24596,24614,24631,24648,24664,24679,24697,24713,24730,24748,24764,24781,24796,24814,24830,24846,24864,24881,24897,24914,24931,24948,24964,24979,24997,25014,25030,25046,25064,25080,25097,25114,25131,25148,25164,25181,25197,25214,25230,25247,25264,25281,25297,25314,25331,25346,25364,25381,25397,25414,25431,25446,25464,25479,25497,25513,25531,25547,25564,25581,25597,25614,25631,25647,25664,25681,25697,25713,25731,25747,25764,25779,25797,25814,25829,25846,25864,25879,25897,25913,25930,25947,25964,25981,25997,26014,26031,26047,26064,26081,26097,26114,26131,26146,26163,26181,26197,26214,26231,26247,26264,26281,26297,26313,26331,26347,26364,26381,26397,26414,26431,26447,26463,26480,26497,26514,26531,26548,26564,26579,26597,26613,26631,26647,26664,26681,26698,26713,26731,26747,26764,26781,26796,26813,26830,26848,26864,26881,26897,26912,26930,26947,26964,26981,26997,27014,27030,27047,27064,27081,27097,27114,27131,27147,27164,27181,27197,27213,27230,27246,27263,27280,27297,27313,27330,27347,27363,27380,27397,27414,27429,27447,27464,27481,27497,27514,27529,27547,27564,27579,27597,27614,27631,27647,27663,27681,27697,27714,27729,27746,27764,27781,27797,27814,27830,27847,27864,27881,27896,27914,27931,27947,27964,27981,27996,28014,28030,28046,28064,28080,28097,28114,28131,28148,28163,28179,28197,28214,28231,28247,28263,28281,28297,28314,28331,28347,28364,28381,28397,28414,28431,28447,28464,28480,28497,28514,28531,28546,28564,28579,28597,28613,28630,28645,28663,28680,28697,28714,28731,28746,28764,28781,28797,28814,28830,28848,28864,28881,28897,28914,28931,28947,28964,28980,28997,29014,29031,29047,29064,29081,29097,29113,29131,29147,29164,29181,29197,29214,29229,29247,29264,29280,29296,29314,29331,29347,29364,29380,29396,29414,29431,29447,29463,29479,29497,29514,29531,29547,29564,29581,29596,29614,29631,29647,29664,29681,29697,29714,29730,29747,29764,29781,29797,29814,29830,29846,29863,29880,29897,29914,29931,29947,29963,29980,29997,30014,30031,30045,30063,30080,30097,30114,30131,30147,30164,30179,30197,30214,30230,30247,30264,30280,30296,30314,30331,30346,30364,30381,30397,30414,30430,30447,30464,30480,30497,30514,30531,30546,30564,30581,30597,30614,30631,30648,30663,30681,30697,30714,30731,30747,30764,30781,30797,30814,30831,30847,30864,30879,30896,30914,30931,30946,30964,30979,30997,31014,31030,31047,31064,31081,31096,31114,31131,31147,31165,31180,31197,31214,31230,31246,31263,31280,31297,31314,31331,31348,31364,31381,31397,31414,31431,31447,31463,31480,31497,31514,31530,31546,31564,31581,31597,31614,31631,31646,31664,31679,31698,31714,31731,31747,31764,31779,31797,31814,31830,31847,31863,31881,31897,31914,31931,31946,31964,31981,31996,32014,32031,32047,32063,32079,32097,32114,32131,32147,32164,32179,32196,32214,32231,32247,32263,32281,32296,32314,32331,32347,32364,32381,32397,32414,32431,32447,32464,32479,32496,32514,32531,32547,32564,32580,32596,32614,32631,32647,32664,32681,32697,32714,32731,32747,32763,32780,32798,32814,32830,32846,32863,32879,32897,32913,32930,32946,32964,32980,32997,33013,33029,33046,33064,33079,33098,33114,33130,33148,33163,33181,33197,33214,33229,33247,33264,33280,33296,33314,33331,33346,33363,33380,33397,33414,33431,33447,33464,33481,33497,33514,33529,33547,33564,33580,33597,33614,33629,33647,33663,33681,33697,33714,33730,33747,33764,33780,33797,33814,33829,33846,33864,33880,33897,33914,33930,33947,33964,33980,33997,34013,34030,34046,34064,34080,34098,34114,34131,34147,34163,34180,34197,34214,34231,34247,34264,34280,34296,34312,34330,34347,34364,34381,34396,34412,34430,34447,34464,34479,34496,34514,34531,34547,34564,34580,34596,34614,34631,34647,34664,34679,34697,34714,34731,34747,34764,34780,34797,34814,34830,34847,34864,34879,34897,34913,34931,34947,34964,34979,34997,35014,35030,35047,35064,35080,35098,35113,35131,35146,35164,35180,35197,35214,35230,35247,35263,35280,35297,35312,35330,35347,35363,35379,35396,35413,35431,35447,35464,35481,35497,35513,35531,35546,35564,35581,35597,35614,35630,35647,35662,35679,35697,35713,35730,35747,35764,35780,35797,35814,35830,35847,35864,35881,35896,35914,35931,35948,35963,35979,35995,36014,36030,36046,36064,36081,36096,36114,36131,36148,36163,36180,36196,36214,36231,36246,36264,36280,36296,36313,36331,36347,36364,36381,36396,36412,36430,36446,36463,36479,36496,36514,36531,36547,36564,36579,36597,36613,36631,36647,36664,36680,36697,36714,36729,36747,36764,36779,36797,36814,36829,36847,36863,36880,36897,36914,36931,36946,36963,36980,36997,37014,37030,37047,37063,37079,37096,37113,37130,37147,37163,37180,37198,37214,37231,37247,37264,37280,37297,37314,37330,37346,37364,37381,37397,37414,37430,37447,37464,37481,37498,37513,37531,37547,37564,37581,37596,37614,37630,37647,37664,37681,37696,37714,37730,37748,37764,37781,37796,37813,37830,37846,37864,37880,37897,37914,37931,37946,37964,37981,37997,38012,38029,38047,38064,38080,38097,38114,38131,38147,38164,38179,38197,38214,38231,38247,38263,38280,38296,38313,38330,38346,38363,38380,38397,38413,38430,38446,38464,38481,38496,38512,38530,38547,38564,38581,38597,38614,38631,38647,38664,38679,38697,38714,38730,38746,38764,38781,38797,38814,38831,38846,38864,38880,38896,38914,38931,38947,38963,38980,38997,39013,39031,39048,39064,39081,39096,39113,39131,39148,39164,39180,39197,39214,39231,39247,39263,39281,39297,39314,39331,39347,39364,39381,39396,39414,39429,39446,39464,39481,39497,39514,39531,39547,39564,39581,39596,39613,39629,39646,39664,39679,39697,39714,39731,39747,39764,39781,39797,39812,39829,39846,39864,39880,39897,39914,39929,39947,39964,39981,39997,40013,40031,40047,40064,40080,40097,40114,40131,40148,40164,40181,40196,40214,40230,40247,40264,40280,40297,40314,40330,40346,40363,40379,40397,40413,40430,40447,40464,40481,40497,40514,40530,40547,40563,40579,40597,40614,40630,40647,40664,40681,40697,40713,40731,40747,40764,40781,40797,40814,40830,40847,40863,40881,40897,40914,40931,40947,40964,40981,40996,41014,41030,41047,41064,41081,41097,41114,41130,41147,41164,41179,41197,41213,41229,41247,41264,41279,41296,41315,41330,41346,41364,41380,41397,41414,41430,41446,41463,41480,41496,41514,41530,41547,41564,41581,41596,41614,41630,41647,41664,41679,41697,41714,41731,41746,41764,41781,41797,41814,41830,41846,41864,41880,41897,41914,41931,41946,41964,41979,41996,42012,42030,42047,42064,42079,42097,42114,42130,42147,42163,42180,42196,42214,42231,42247,42263,42279,42297,42314,42330,42347,42364,42380,42397,42413,42430,42447,42463,42480,42496,42514,42530,42547,42563,42581,42597,42613,42630,42647,42664,42680,42697,42714,42729,42747,42764,42779,42797,42814,42830,42847,42863,42880,42897,42914,42930,42947,42963,42980,42997,43013,43030,43047,43064,43081,43097,43114,43130,43146,43164,43180,43197,43214,43230,43247,43264,43280,43297,43314,43331,43347,43364,43379,43397,43414,43430,43447,43464,43479,43497,43514,43530,43547,43564,43580,43597,43614,43629,43646,43664,43680,43696,43714,43731,43747,43763,43779,43796,43814,43830,43847,43863,43880,43897,43913,43930,43947,43964,43981,43997,44013,44029,44047,44064,44081,44096,44114,44130,44147,44164,44181,44197,44214,44231,44247,44264,44280,44297,44314,44330,44346,44364,44381,44397,44413,44429,44446,44464,44480,44496,44513,44530,44548,44563,44580,44597,44614,44631,44647,44664,44681,44696,44713,44729,44746,44764,44780,44797,44813,44830,44847,44864,44881,44897,44914,44930,44947,44964,44980,44997,45014,45031,45047,45064,45081,45098,45113,45131,45147,45164,45180,45197,45214,45230,45246,45263,45280,45297,45314,45331,45347,45364,45380,45397,45413,45431,45447,45464,45481,45497,45514,45531,45547,45564,45581,45598,45614,45629,45647,45664,45681,45697,45714,45731,45747,45764,45781,45797,45814,45830,45847,45863,45881,45897,45913,45929,45946,45963,45979,45998,46014,46030,46048,46063,46079,46096,46113,46131,46147,46164,46181,46197,46213,46229,46247,46264,46281,46296,46314,46331,46346,46363,46380,46397,46413,46430,46447,46463,46480,46497,46514,46530,46547,46564,46580,46596,46614,46630,46647,46663,46680,46697,46714,46730,46746,46764,46779,46796,46813,46830,46847,46864,46879,46897,46914,46930,46947,46964,46980,46997,47014,47031,47046,47064,47079,47097,47114,47131,47146,47164,47180,47197,47214,47229,47247,47264,47279,47295,47314,47330,47347,47364,47380,47397,47414,47431,47447,47464,47480,47497,47514,47529,47547,47563,47580,47597,47614,47629,47647,47664,47679,47697,47713,47730,47747,47764,47780,47798,47813,47831,47847,47864,47880,47897,47914,47930,47947,47963,47980,47997,48014,48031,48047,48064,48080,48097,48112,48129,48147,48163,48180,48197,48214,48230,48247,48264,48280,48297,48314,48330,48347,48364,48380,48397,48414,48430,48447,48464,48480,48497,48513,48529,48546,48564,48580,48597,48614,48630,48647,48664,48681,48698,48714,48730,48747,48764,48779,48797,48814,48829,48847,48864,48880,48897,48914,48931,48947,48964,48980,48996,49014,49029,49046,49064,49081,49097,49114,49129,49147,49164,49181,49197,49214,49231,49247,49264,49279,49296,49314,49330,49346,49363,49381,49397,49413,49430,49447,49464,49480,49495,49512,49529,49547,49564,49580,49597,49614,49629,49646,49664,49680,49696,49713,49729,49747,49764,49780,49797,49813,49830,49846,49863,49879,49897,49913,49930,49947,49964,49980,49997,50013,50029,50047,50064,50079,50097,50114,50130,50147,50164,50181,50196,50213,50230,50247,50263,50279,50296,50314,50330,50347,50363,50380,50397,50414,50429,50446,50464,50480,50496,50512,50531,50547,50562,50579,50597,50614,50630,50646,50664,50680,50697,50714,50731,50747,50764,50780,50797,50814,50830,50846,50863,50880,50896,50914,50930,50946,50963,50980,50997,51013,51030,51047,51064,51081,51098,51114,51130,51147,51164,51181,51197,51214,51229,51247,51264,51280,51297,51314,51329,51347,51364,51381,51397,51414,51429,51447,51464,51480,51497,51513,51530,51546,51564,51580,51597,51614,51631,51647,51664,51680,51697,51714,51730,51747,51764,51780,51797,51814,51830,51846,51866,51879,51896,51913,51930,51947,51964,51980,51997,52014,52029,52047,52064,52080,52097,52114,52131,52146,52164,52181,52197,52212,52229,52247,52264,52280,52297,52314,52330,52347,52364,52379,52397,52413,52430,52446,52464,52480,52497,52514,52530,52547,52564,52580,52597,52614,52630,52647,52664,52680,52696,52714,52730,52747,52764,52780,52797,52814,52830,52847,52863,52881,52897,52914,52931,52946,52963,52980,52996,53014,53030,53045,53063,53080,53097,53114,53130,53147,53164,53179,53197,53213,53230,53247,53264,53279,53297,53312,53329,53347,53363,53380,53397,53414,53431,53447,53464,53480,53497,53513,53530,53546,53562,53580,53597,53614,53630,53647,53662,53680,53697,53713,53731,53747,53764,53780,53797,53813,53830,53847,53863,53880,53896,53914,53930,53947,53964,53980,53998,54013,54029,54047,54064,54080,54097,54114,54130,54146,54164,54179,54197,54214,54230,54247,54264,54280,54296,54313,54329,54347,54363,54379,54397,54414,54431,54447,54464,54480,54497,54514,54530,54547,54564,54581,54597,54614,54630,54647,54664,54681,54697,54713,54730,54747,54764,54781,54797,54814,54830,54847,54864,54879,54896,54913,54930,54946,54964,54981,54997,55013,55031,55047,55063,55080,55097,55113,55131,55147,55163,55179,55197,55213,55231,55247,55264,55280,55296,55313,55331,55347,55363,55380,55396,55414,55429,55447,55468,55479,55497,55514,55530,55547,55564,55580,55597,55613,55631,55648,55664,55681,55697,55714,55731,55747,55764,55781,55796,55814,55830,55846,55864,55881,55897,55914,55931,55946,55963,55980,55997,56014,56031,56046,56063,56081,56097,56114,56130,56148,56164,56179,56197,56214,56230,56246,56264,56281,56297,56314,56329,56347,56364,56379,56396,56414,56430,56447,56464,56481,56496,56514,56529,56547,56564,56581,56597,56613,56630,56647,56664,56681,56696,56713,56731,56747,56763,56781,56797,56814,56830,56846,56864,56880,56896,56914,56931,56947,56963,56980,56996,57014,57031,57047,57064,57080,57097,57114,57130,57146,57164,57180,57197,57212,57230,57247,57264,57280,57296,57314,57330,57347,57364,57380,57397,57414,57430,57446,57466],"hit":[null],"x":[-2.5323129251700682,-2.5323129251700682,-2.5323129251700682,-2.5323129251700682,-2.5323129251700682,-2.5323129251700682,-2.5323129251700682,-2.5323129251700682,-2.5323129251700682,-2.5323129251700682,-2.5323129251700682,-2.5323129251700682,-2.5323129251700682,-2.5323129251700682,-2.5323129251700682,-2.5323129251700682,-2.5323129251700682,-2.5323129251700682,-2.5323129251700682,-2.5323129251700682,-2.5323129251700682,-2.5323129251700682,-2.5323129251700682,-2.5323129251700682,-2.5323129251700682,-2.5323129251700682,-2.5323129251700682,-2.5323129251700682,-2.5323129251700682,-2.5323129251700682,-2.5323129251700682,-2.5323129251700682,-2.5323129251700682,-2.5323129251700682,-2.5323129251700682,-2.5323129251700682,-2.5323129251700682,-2.5323129251700682,-2.5323129251700682,-2.5323129251700682,-2.5323129251700682,-2.5323129251700682,-2.5323129251700682,-2.5323129251700682,-2.5323129251700682,-2.5323129251700682,-2.5323129251700682,-2.5323129251700682,-2.5323129251700682,-2.5323129251700682,0.013605442176870748,-0.006802721088435374,-0.006802721088435374,-0.006802721088435374,-0.006802721088435374,-0.006802721088435374,-0.006802721088435374,-0.006802721088435374,-0.006802721088435374,-0.006802721088435374,-0.006802721088435374,-0.006802721088435374,-0.006802721088435374,-0.006802721088435374,-0.006802721088435374,-0.006802721088435374,-0.006802721088435374,-0.006802721088435374,-0.006802721088435374,-0.006802721088435374,0.003401360544217687,0.01020408163265306,0.027210884353741496,0.030612244897959183,0.06462585034013606,0.08163265306122448,0.11564625850340136,0.12585034013605442,0.1360544217687075,0.1360544217687075,0.1360544217687075,0.1360544217687075,0.1360544217687075,0.1360544217687075,0.1360544217687075,0.1360544217687075,0.1360544217687075,0.1360544217687075,0.1360544217687075,0.1360544217687075,0.1360544217687075,0.1360544217687075,0.1360544217687075,0.1360544217687075,0.1360544217687075,0.1360544217687075,0.1360544217687075,0.1360544217687075,0.1360544217687075,0.1360544217687075,0.1360544217687075,0.1360544217687075,0.1360544217687075,0.1360544217687075,0.1360544217687075,0.1360544217687075,0.1360544217687075,0.1360544217687075,0.1360544217687075,0.1360544217687075,0.1360544217687075,0.1360544217687075,0.1360544217687075,0.1360544217687075,0.1360544217687075,0.1360544217687075,0.1360544217687075,0.1360544217687075,0.1360544217687075,0.1360544217687075,0.1360544217687075,0.1360544217687075,0.1360544217687075,0.1360544217687075,0.1360544217687075,0.1360544217687075,0.1360544217687075,0.1360544217687075,0.1360544217687075,0.1360544217687075,0.1360544217687075,0.1360544217687075,0.1360544217687075,0.1360544217687075,0.1360544217687075,0.1360544217687075,0.1360544217687075,0.1360544217687075,0.1360544217687075,0.1360544217687075,0.1360544217687075,0.1360544217687075,0.1360544217687075,0.1360544217687075,0.1360544217687075,0.1360544217687075,0.1360544217687075,0.1360544217687075,0.1360544217687075,0.1360544217687075,0.1360544217687075,0.1360544217687075,0.1360544217687075,0.1360544217687075,0.1360544217687075,0.1360544217687075,0.1360544217687075,0.1360544217687075,0.1360544217687075,0.1360544217687075,0.1360544217687075,0.1360544217687075,0.1360544217687075,0.1360544217687075,0.1360544217687075,0.1360544217687075,0.1360544217687075,0.1360544217687075,0.1360544217687075,0.1360544217687075,0.1360544217687075,0.1360544217687075,0.1360544217687075,0.1360544217687075,0.1360544217687075,0.1360544217687075,0.1360544217687075,0.1360544217687075,0.1360544217687075,0.1360544217687075,0.1360544217687075,0.1360544217687075,0.1360544217687075,0.1360544217687075,0.1360544217687075,0.1360544217687075,0.1360544217687075,0.1360544217687075,0.1360544217687075,0.1360544217687075,0.1360544217687075,0.1360544217687075,0.1360544217687075,0.1360544217687075,0.1360544217687075,0.1360544217687075,0.1360544217687075,0.1360544217687075,0.1360544217687075,0.1360544217687075,0.1360544217687075,0.1360544217687075,0.1360544217687075,0.1360544217687075,0.1360544217687075,0.1360544217687075,0.1360544217687075,0.1360544217687075,0.1360544217687075,0.1360544217687075,0.1360544217687075,0.1360544217687075,0.1360544217687075,0.1360544217687075,0.1360544217687075,0.1360544217687075,0.1360544217687075,0.1360544217687075,0.1360544217687075,0.1360544217687075,0.1360544217687075,0.1360544217687075,0.1360544217687075,0.1360544217687075,0.1360544217687075,0.1360544217687075,0.1360544217687075,0.1360544217687075,0.1360544217687075,0.1360544217687075,0.1360544217687075,0.1360544217687075,0.1360544217687075,0.1360544217687075,0.1360544217687075,0.1360544217687075,0.1360544217687075,0.1360544217687075,0.1360544217687075,0.1360544217687075,0.1360544217687075,0.1360544217687075,0.1360544217687075,0.1360544217687075,0.1360544217687075,0.1360544217687075,0.1360544217687075,0.1360544217687075,0.1360544217687075,0.1360544217687075,0.1360544217687075,0.1360544217687075,0.1360544217687075,0.1360544217687075,0.1360544217687075,0.1360544217687075,0.1360544217687075,0.1360544217687075,0.1360544217687075,0.1360544217687075,0.1360544217687075,0.1360544217687075,0.1360544217687075,0.1360544217687075,0.1360544217687075,0.1360544217687075,0.1360544217687075,0.1360544217687075,0.1360544217687075,0.1360544217687075,0.1360544217687075,0.1360544217687075,0.1360544217687075,0.1360544217687075,0.1360544217687075,0.1360544217687075,0.1360544217687075,0.1360544217687075,0.1360544217687075,0.1360544217687075,0.1360544217687075,0.1360544217687075,0.1360544217687075,0.1360544217687075,0.1360544217687075,0.1360544217687075,0.1360544217687075,0.1360544217687075,0.1360544217687075,0.1360544217687075,0.1360544217687075,0.1360544217687075,0.1360544217687075,0.1360544217687075,0.1360544217687075,0.1360544217687075,0.1360544217687075,0.1360544217687075,0.1360544217687075,0.1360544217687075,0.1360544217687075,0.1360544217687075,0.1360544217687075,0.1360544217687075,0.1360544217687075,0.1360544217687075,0.1360544217687075,0.1360544217687075,0.1360544217687075,0.1360544217687075,0.1360544217687075,0.1360544217687075,0.1360544217687075,0.1360544217687075,0.1360544217687075,0.1360544217687075,0.1360544217687075,0.1360544217687075,0.1360544217687075,0.1360544217687075,0.1360544217687075,0.1360544217687075,0.1360544217687075,0.1360544217687075,0.1360544217687075,0.1360544217687075,0.1360544217687075,0.1360544217687075,0.1360544217687075,0.1360544217687075,0.1360544217687075,0.1360544217687075,0.1360544217687075,0.1360544217687075,0.1360544217687075,0.1360544217687075,0.1360544217687075,0.1360544217687075,0.1360544217687075,0.1360544217687075,0.1360544217687075,0.1360544217687075,0.1360544217687075,0.1360544217687075,0.1360544217687075,0.1360544217687075,0.1360544217687075,0.1360544217687075,0.1360544217687075,0.1360544217687075,0.1360544217687075,0.1360544217687075,0.1360544217687075,0.1360544217687075,0.1360544217687075,0.1360544217687075,0.1360544217687075,0.1360544217687075,0.1360544217687075,0.1360544217687075,0.1360544217687075,0.1360544217687075,0.1360544217687075,0.1360544217687075,0.1360544217687075,0.1360544217687075,0.1360544217687075,0.1360544217687075,0.1360544217687075,0.1360544217687075,0.1360544217687075,0.1360544217687075,0.1360544217687075,0.1360544217687075,0.1360544217687075,0.1360544217687075,0.1360544217687075,0.1360544217687075,0.1360544217687075,0.1360544217687075,0.1360544217687075,0.1360544217687075,0.1360544217687075,0.1360544217687075,0.1360544217687075,0.1360544217687075,0.1360544217687075,0.1360544217687075,0.1360544217687075,0.1360544217687075,0.1360544217687075,0.1360544217687075,0.1360544217687075,0.1360544217687075,0.1360544217687075,0.1360544217687075,0.1360544217687075,0.1360544217687075,0.1054421768707483,0.09183673469387756,0.07482993197278912,0.06802721088435375,0.05442176870748299,0.05442176870748299,0.05102040816326531,0.05102040816326531,0.05102040816326531,0.047619047619047616,0.047619047619047616,0.04421768707482993,0.04081632653061224,0.03741496598639456,0.034013605442176874,0.023809523809523808,0.017006802721088437,0,-0.006802721088435374,-0.02040816326530612,-0.023809523809523808,-0.027210884353741496,-0.027210884353741496,-0.027210884353741496,-0.027210884353741496,-0.027210884353741496,-0.027210884353741496,-0.027210884353741496,-0.027210884353741496,-0.027210884353741496,-0.027210884353741496,-0.027210884353741496,-0.027210884353741496,-0.027210884353741496,-0.027210884353741496,-0.027210884353741496,-0.027210884353741496,-0.027210884353741496,-0.027210884353741496,-0.027210884353741496,-0.027210884353741496,-0.027210884353741496,-0.027210884353741496,-0.027210884353741496,-0.027210884353741496,-0.027210884353741496,-0.027210884353741496,-0.027210884353741496,-0.027210884353741496,-0.027210884353741496,-0.027210884353741496,-0.027210884353741496,-0.027210884353741496,-0.027210884353741496,-0.027210884353741496,-0.027210884353741496,-0.027210884353741496,-0.027210884353741496,-0.027210884353741496,-0.027210884353741496,-0.027210884353741496,-0.027210884353741496,-0.027210884353741496,-0.027210884353741496,-0.027210884353741496,-0.027210884353741496,-0.027210884353741496,-0.027210884353741496,-0.027210884353741496,-0.027210884353741496,-0.027210884353741496,-0.027210884353741496,-0.027210884353741496,-0.027210884353741496,-0.027210884353741496,-0.027210884353741496,-0.027210884353741496,-0.027210884353741496,-0.027210884353741496,-0.027210884353741496,-0.027210884353741496,-0.027210884353741496,-0.027210884353741496,-0.027210884353741496,-0.027210884353741496,-0.027210884353741496,-0.027210884353741496,-0.027210884353741496,-0.027210884353741496,-0.027210884353741496,-0.027210884353741496,-0.027210884353741496,-0.027210884353741496,-0.027210884353741496,-0.027210884353741496,-0.027210884353741496,-0.027210884353741496,-0.027210884353741496,-0.027210884353741496,-0.027210884353741496,-0.027210884353741496,-0.027210884353741496,-0.027210884353741496,-0.027210884353741496,-0.027210884353741496,-0.027210884353741496,-0.027210884353741496,-0.027210884353741496,-0.027210884353741496,-0.027210884353741496,-0.027210884353741496,-0.027210884353741496,-0.027210884353741496,-0.027210884353741496,-0.013605442176870748,0.006802721088435374,0.0782312925170068,0.1360544217687075,0.19727891156462585,0.22789115646258504,0.24489795918367346,0.25510204081632654,0.2619047619047619,0.2653061224489796,0.2653061224489796,0.2687074829931973,0.2687074829931973,0.2755102040816326,0.2755102040816326,0.2789115646258503,0.2789115646258503,0.2789115646258503,0.2789115646258503,0.2789115646258503,0.2789115646258503,0.2789115646258503,0.2789115646258503,0.2789115646258503,0.2789115646258503,0.2789115646258503,0.2789115646258503,0.2789115646258503,0.2789115646258503,0.2789115646258503,0.2789115646258503,0.2789115646258503,0.2789115646258503,0.2789115646258503,0.2789115646258503,0.2789115646258503,0.2789115646258503,0.2789115646258503,0.2789115646258503,0.2789115646258503,0.2789115646258503,0.2789115646258503,0.2789115646258503,0.2789115646258503,0.2789115646258503,0.2789115646258503,0.3129251700680272,0.3129251700680272,0.40476190476190477,0.43197278911564624,0.46258503401360546,0.46938775510204084,0.46938775510204084,0.46938775510204084,0.46938775510204084,0.46938775510204084,0.46938775510204084,0.46938775510204084,0.46938775510204084,0.46938775510204084,0.46938775510204084,0.46938775510204084,0.46938775510204084,0.46938775510204084,0.46938775510204084,0.47278911564625853,0.47619047619047616,0.4897959183673469,0.5034013605442177,0.5544217687074829,0.5918367346938775,0.6564625850340136,0.6768707482993197,0.6870748299319728,0.6904761904761905,0.6904761904761905,0.6904761904761905,0.6904761904761905,0.6904761904761905,0.6904761904761905,0.6904761904761905,0.6904761904761905,0.6904761904761905,0.6972789115646258,0.7040816326530612,0.7108843537414966,0.7585034013605442,0.7959183673469388,0.8775510204081632,0.9251700680272109,0.9965986394557823,1.010204081632653,1.0238095238095237,1.0238095238095237,1.0238095238095237,1.0238095238095237,1.0238095238095237,1.0238095238095237,1.0238095238095237,1.0238095238095237,1.0238095238095237,1.0238095238095237,1.0136054421768708,1.0034013605442176,0.9625850340136054,0.935374149659864,0.8979591836734694,0.8843537414965986,0.8707482993197279,0.8673469387755102,0.8673469387755102,0.8639455782312925,0.8639455782312925,0.8571428571428571,0.8503401360544217,0.826530612244898,0.8027210884353742,0.7585034013605442,0.7312925170068028,0.6836734693877551,0.6564625850340136,0.5782312925170068,0.5272108843537415,0.41156462585034015,0.35374149659863946,0.2687074829931973,0.22448979591836735,0.17346938775510204,0.1564625850340136,0.1360544217687075,0.1326530612244898,0.1292517006802721,0.1292517006802721,0.1292517006802721,0.1292517006802721,0.1292517006802721,0.1292517006802721,0.1292517006802721,0.1292517006802721,0.1326530612244898,0.14285714285714285,0.15306122448979592,0.20408163265306123,0.23469387755102042,0.336734693877551,0.4217687074829932,0.6054421768707483,0.7312925170068028,0.9455782312925171,1.0748299319727892,1.2789115646258504,1.3741496598639455,1.4761904761904763,1.5068027210884354,1.554421768707483,1.5578231292517006,1.5612244897959184,1.5612244897959184,1.5578231292517006,1.5578231292517006,1.5578231292517006,1.5578231292517006,1.5578231292517006,1.5578231292517006,1.5578231292517006,1.5578231292517006,1.5578231292517006,1.5578231292517006,1.5578231292517006,1.5578231292517006,1.5578231292517006,1.5578231292517006,1.5578231292517006,1.5578231292517006,1.5578231292517006,1.5578231292517006,1.5578231292517006,1.5578231292517006,1.5578231292517006,1.5578231292517006,1.5578231292517006,1.5578231292517006,1.5578231292517006,1.5578231292517006,1.5578231292517006,1.5578231292517006,1.5578231292517006,1.5578231292517006,1.5578231292517006,1.5578231292517006,1.5578231292517006,1.5578231292517006,1.5578231292517006,1.5578231292517006,1.5578231292517006,1.5578231292517006,1.5408163265306123,1.5238095238095237,1.445578231292517,1.346938775510204,1.2687074829931972,1.2142857142857142,1.0748299319727892,0.9829931972789115,0.8129251700680272,0.7142857142857143,0.5918367346938775,0.54421768707483,0.48639455782312924,0.45918367346938777,0.42517006802721086,0.41156462585034015,0.3877551020408163,0.38095238095238093,0.3673469387755102,0.36054421768707484,0.3435374149659864,0.336734693877551,0.3197278911564626,0.3129251700680272,0.30952380952380953,0.29931972789115646,0.29591836734693877,0.2857142857142857,0.2789115646258503,0.2585034013605442,0.25170068027210885,0.24149659863945577,0.24149659863945577,0.23469387755102042,0.22448979591836735,0.22108843537414966,0.21768707482993196,0.20068027210884354,0.19047619047619047,0.17346938775510204,0.16666666666666666,0.15306122448979592,0.14965986394557823,0.14625850340136054,0.14625850340136054,0.14625850340136054,0.14625850340136054,0.14625850340136054,0.14625850340136054,0.14625850340136054,0.14625850340136054,0.14625850340136054,0.14625850340136054,0.14625850340136054,0.14625850340136054,0.14625850340136054,0.14625850340136054,0.14625850340136054,0.14625850340136054,0.14625850340136054,0.14625850340136054,0.14625850340136054,0.14625850340136054,0.14625850340136054,0.14625850340136054,0.14625850340136054,0.14625850340136054,0.14625850340136054,0.14625850340136054,0.14625850340136054,0.14625850340136054,0.14625850340136054,0.14625850340136054,0.14625850340136054,0.14625850340136054,0.14625850340136054,0.14625850340136054,0.14625850340136054,0.14625850340136054,0.14625850340136054,0.14625850340136054,0.14625850340136054,0.14625850340136054,0.14625850340136054,0.14625850340136054,0.14625850340136054,0.14625850340136054,0.14625850340136054,0.14625850340136054,0.14625850340136054,0.14625850340136054,0.14625850340136054,0.14625850340136054,0.14625850340136054,0.14625850340136054,0.14625850340136054,0.14625850340136054,0.14625850340136054,0.14625850340136054,0.14625850340136054,0.14625850340136054,0.14625850340136054,0.14625850340136054,0.14625850340136054,0.14625850340136054,0.14625850340136054,0.14625850340136054,0.14625850340136054,0.14625850340136054,0.14625850340136054,0.14625850340136054,0.14625850340136054,0.14625850340136054,0.14625850340136054,0.14625850340136054,0.14625850340136054,0.14625850340136054,0.14625850340136054,0.14625850340136054,0.14625850340136054,0.14625850340136054,0.14625850340136054,0.14625850340136054,0.14625850340136054,0.14625850340136054,0.14625850340136054,0.14625850340136054,0.14625850340136054,0.14625850340136054,0.14625850340136054,0.14625850340136054,0.14625850340136054,0.14625850340136054,0.14625850340136054,0.14625850340136054,0.14625850340136054,0.14625850340136054,0.14625850340136054,0.14625850340136054,0.14625850340136054,0.14625850340136054,0.14625850340136054,0.14625850340136054,0.14625850340136054,0.14625850340136054,0.14625850340136054,0.14625850340136054,0.14625850340136054,0.14625850340136054,0.14625850340136054,0.14625850340136054,0.14625850340136054,0.14625850340136054,0.14625850340136054,0.14625850340136054,0.14625850340136054,0.14625850340136054,0.14625850340136054,0.14625850340136054,0.14625850340136054,0.14625850340136054,0.14625850340136054,0.14625850340136054,0.14625850340136054,0.14625850340136054,0.14625850340136054,0.14625850340136054,0.14625850340136054,0.14625850340136054,0.14625850340136054,0.14625850340136054,0.14625850340136054,0.14625850340136054,0.14625850340136054,0.14625850340136054,0.14625850340136054,0.14625850340136054,0.14625850340136054,0.14625850340136054,0.14625850340136054,0.14625850340136054,0.14625850340136054,0.14625850340136054,0.14625850340136054,0.14625850340136054,0.14625850340136054,0.14625850340136054,0.14625850340136054,0.14625850340136054,0.14625850340136054,0.14625850340136054,0.14625850340136054,0.14625850340136054,0.14625850340136054,0.14625850340136054,0.14625850340136054,0.14625850340136054,0.14625850340136054,0.14625850340136054,0.14625850340136054,0.14625850340136054,0.14625850340136054,0.14625850340136054,0.14625850340136054,0.14625850340136054,0.14625850340136054,0.14625850340136054,0.14625850340136054,0.14625850340136054,0.14625850340136054,0.14625850340136054,0.14625850340136054,0.14625850340136054,0.14625850340136054,0.14625850340136054,0.14625850340136054,0.14285714285714285,0.1292517006802721,0.12244897959183673,0.11564625850340136,0.09523809523809523,0.08503401360544217,0.07482993197278912,0.07142857142857142,0.07142857142857142,0.07142857142857142,0.07142857142857142,0.06802721088435375,0.06462585034013606,0.06462585034013606,0.06462585034013606,0.061224489795918366,0.05782312925170068,0.05442176870748299,0.047619047619047616,0.04421768707482993,0.03741496598639456,0.034013605442176874,0.023809523809523808,0.017006802721088437,0.01020408163265306,-0.003401360544217687,-0.01020408163265306,-0.01020408163265306,-0.01020408163265306,-0.01020408163265306,-0.006802721088435374,-0.006802721088435374,-0.006802721088435374,-0.006802721088435374,-0.006802721088435374,-0.006802721088435374,-0.006802721088435374,-0.006802721088435374,-0.006802721088435374,-0.006802721088435374,-0.006802721088435374,-0.006802721088435374,0,0.023809523809523808,0.04081632653061224,0.05102040816326531,0.05102040816326531,0.05102040816326531,0.05102040816326531,0.05102040816326531,0.05102040816326531,0.047619047619047616,0.04421768707482993,0.04081632653061224,0.03741496598639456,0.034013605442176874,0.023809523809523808,0.013605442176870748,0.006802721088435374,0,-0.006802721088435374,-0.006802721088435374,-0.006802721088435374,-0.006802721088435374,-0.006802721088435374,-0.006802721088435374,-0.006802721088435374,-0.006802721088435374,-0.006802721088435374,-0.006802721088435374,-0.006802721088435374,-0.006802721088435374,-0.006802721088435374,-0.006802721088435374,-0.006802721088435374,-0.006802721088435374,-0.006802721088435374,-0.006802721088435374,-0.006802721088435374,-0.006802721088435374,-0.006802721088435374,-0.006802721088435374,-0.006802721088435374,-0.006802721088435374,-0.006802721088435374,-0.006802721088435374,-0.006802721088435374,-0.006802721088435374,-0.006802721088435374,-0.006802721088435374,-0.006802721088435374,-0.006802721088435374,-0.006802721088435374,-0.006802721088435374,-0.006802721088435374,-0.006802721088435374,-0.006802721088435374,-0.006802721088435374,-0.006802721088435374,-0.006802721088435374,-0.006802721088435374,-0.006802721088435374,-0.006802721088435374,-0.006802721088435374,-0.006802721088435374,-0.006802721088435374,-0.006802721088435374,-0.006802721088435374,-0.006802721088435374,-0.006802721088435374,-0.006802721088435374,-0.006802721088435374,-0.006802721088435374,-0.006802721088435374,-0.006802721088435374,-0.006802721088435374,-0.006802721088435374,-0.006802721088435374,-0.006802721088435374,-0.006802721088435374,-0.006802721088435374,-0.006802721088435374,-0.006802721088435374,-0.006802721088435374,-0.006802721088435374,-0.006802721088435374,-0.006802721088435374,-0.006802721088435374,-0.006802721088435374,-0.006802721088435374,-0.006802721088435374,-0.006802721088435374,-0.006802721088435374,-0.006802721088435374,-0.006802721088435374,-0.006802721088435374,-0.006802721088435374,-0.006802721088435374,-0.006802721088435374,-0.006802721088435374,-0.006802721088435374,-0.006802721088435374,-0.006802721088435374,-0.006802721088435374,-0.006802721088435374,-0.006802721088435374,-0.006802721088435374,-0.006802721088435374,-0.006802721088435374,-0.006802721088435374,-0.006802721088435374,-0.006802721088435374,-0.006802721088435374,-0.006802721088435374,-0.006802721088435374,-0.006802721088435374,-0.006802721088435374,-0.006802721088435374,-0.006802721088435374,-0.006802721088435374,-0.006802721088435374,-0.006802721088435374,-0.006802721088435374,-0.006802721088435374,-0.006802721088435374,-0.006802721088435374,-0.006802721088435374,-0.006802721088435374,-0.01020408163265306,-0.013605442176870748,-0.027210884353741496,-0.04081632653061224,-0.04081632653061224,-0.04081632653061224,-0.04081632653061224,-0.04081632653061224,-0.04081632653061224,-0.04081632653061224,-0.04081632653061224,-0.04081632653061224,-0.04081632653061224,-0.04081632653061224,-0.04081632653061224,-0.04081632653061224,-0.04081632653061224,-0.04081632653061224,-0.04081632653061224,-0.04081632653061224,-0.04081632653061224,-0.034013605442176874,-0.034013605442176874,-0.027210884353741496,-0.023809523809523808,-0.02040816326530612,-0.017006802721088437,-0.017006802721088437,-0.017006802721088437,-0.017006802721088437,-0.017006802721088437,-0.017006802721088437,-0.017006802721088437,-0.017006802721088437,-0.017006802721088437,-0.017006802721088437,-0.017006802721088437,-0.017006802721088437,-0.017006802721088437,-0.017006802721088437,-0.017006802721088437,-0.017006802721088437,-0.017006802721088437,-0.017006802721088437,-0.017006802721088437,-0.017006802721088437,-0.017006802721088437,-0.017006802721088437,-0.017006802721088437,-0.017006802721088437,-0.017006802721088437,-0.017006802721088437,-0.017006802721088437,-0.017006802721088437,-0.017006802721088437,-0.017006802721088437,-0.017006802721088437,-0.017006802721088437,-0.017006802721088437,-0.017006802721088437,-0.017006802721088437,-0.017006802721088437,-0.017006802721088437,-0.017006802721088437,-0.017006802721088437,-0.017006802721088437,-0.017006802721088437,-0.017006802721088437,-0.017006802721088437,-0.017006802721088437,-0.017006802721088437,-0.017006802721088437,-0.017006802721088437,-0.017006802721088437,-0.017006802721088437,-0.017006802721088437,-0.017006802721088437,-0.017006802721088437,-0.017006802721088437,-0.017006802721088437,-0.017006802721088437,-0.017006802721088437,-0.017006802721088437,-0.017006802721088437,-0.017006802721088437,-0.017006802721088437,-0.017006802721088437,-0.017006802721088437,-0.017006802721088437,-0.017006802721088437,-0.017006802721088437,-0.017006802721088437,-0.017006802721088437,-0.017006802721088437,-0.017006802721088437,-0.017006802721088437,-0.017006802721088437,-0.017006802721088437,-0.017006802721088437,-0.017006802721088437,-0.017006802721088437,-0.017006802721088437,-0.017006802721088437,-0.017006802721088437,-0.017006802721088437,-0.017006802721088437,-0.017006802721088437,-0.017006802721088437,-0.017006802721088437,-0.017006802721088437,-0.017006802721088437,-0.017006802721088437,-0.017006802721088437,-0.017006802721088437,-0.017006802721088437,-0.017006802721088437,-0.017006802721088437,-0.017006802721088437,-0.013605442176870748,-0.013605442176870748,-0.013605442176870748,-0.013605442176870748,-0.01020408163265306,-0.006802721088435374,-0.006802721088435374,0.006802721088435374,0.03741496598639456,0.05782312925170068,0.08843537414965986,0.15306122448979592,0.17687074829931973,0.20408163265306123,0.2108843537414966,0.21768707482993196,0.22108843537414966,0.22448979591836735,0.22789115646258504,0.23129251700680273,0.23129251700680273,0.23469387755102042,0.23469387755102042,0.24489795918367346,0.25170068027210885,0.2789115646258503,0.2891156462585034,0.2925170068027211,0.2925170068027211,0.2925170068027211,0.2925170068027211,0.2925170068027211,0.2925170068027211,0.2925170068027211,0.2925170068027211,0.2925170068027211,0.2925170068027211,0.2925170068027211,0.2925170068027211,0.2925170068027211,0.2925170068027211,0.2925170068027211,0.2925170068027211,0.2925170068027211,0.2925170068027211,0.2925170068027211,0.2925170068027211,0.2925170068027211,0.2925170068027211,0.2925170068027211,0.2925170068027211,0.2925170068027211,0.2925170068027211,0.2925170068027211,0.2925170068027211,0.2925170068027211,0.2925170068027211,0.2925170068027211,0.2925170068027211,0.2925170068027211,0.2925170068027211,0.2925170068027211,0.2925170068027211,0.2925170068027211,0.2925170068027211,0.2925170068027211,0.2925170068027211,0.2925170068027211,0.2925170068027211,0.2925170068027211,0.2925170068027211,0.2925170068027211,0.2925170068027211,0.2925170068027211,0.2925170068027211,0.2925170068027211,0.2925170068027211,0.2925170068027211,0.2925170068027211,0.2925170068027211,0.2925170068027211,0.2925170068027211,0.2925170068027211,0.2925170068027211,0.2925170068027211,0.2925170068027211,0.2925170068027211,0.2925170068027211,0.2925170068027211,0.2925170068027211,0.2925170068027211,0.2925170068027211,0.2925170068027211,0.2925170068027211,0.2925170068027211,0.2925170068027211,0.2925170068027211,0.2925170068027211,0.2925170068027211,0.2925170068027211,0.2925170068027211,0.2925170068027211,0.2925170068027211,0.2925170068027211,0.2925170068027211,0.2925170068027211,0.2925170068027211,0.2925170068027211,0.2925170068027211,0.2925170068027211,0.2925170068027211,0.2925170068027211,0.2925170068027211,0.2925170068027211,0.2925170068027211,0.2925170068027211,0.2925170068027211,0.2925170068027211,0.2925170068027211,0.2925170068027211,0.2925170068027211,0.2925170068027211,0.2925170068027211,0.2925170068027211,0.2925170068027211,0.2925170068027211,0.2925170068027211,0.2925170068027211,0.2925170068027211,0.2925170068027211,0.2925170068027211,0.2925170068027211,0.2925170068027211,0.2925170068027211,0.2925170068027211,0.2925170068027211,0.2925170068027211,0.2925170068027211,0.2925170068027211,0.2925170068027211,0.2925170068027211,0.2925170068027211,0.2925170068027211,0.2925170068027211,0.2925170068027211,0.2925170068027211,0.2925170068027211,0.2925170068027211,0.2925170068027211,0.2925170068027211,0.2925170068027211,0.2925170068027211,0.2925170068027211,0.2925170068027211,0.2925170068027211,0.2925170068027211,0.2925170068027211,0.2925170068027211,0.2925170068027211,0.2925170068027211,0.2925170068027211,0.2925170068027211,0.2925170068027211,0.2925170068027211,0.2925170068027211,0.2925170068027211,0.2925170068027211,0.2925170068027211,0.2925170068027211,0.2925170068027211,0.2925170068027211,0.2925170068027211,0.2925170068027211,0.2925170068027211,0.2925170068027211,0.2925170068027211,0.2925170068027211,0.2925170068027211,0.2925170068027211,0.2925170068027211,0.2925170068027211,0.2925170068027211,0.2925170068027211,0.2925170068027211,0.2925170068027211,0.2925170068027211,0.2925170068027211,0.2925170068027211,0.2925170068027211,0.2925170068027211,0.2925170068027211,0.2925170068027211,0.2925170068027211,0.2925170068027211,0.2925170068027211,0.2925170068027211,0.2925170068027211,0.2925170068027211,0.2925170068027211,0.2925170068027211,0.2925170068027211,0.2925170068027211,0.2925170068027211,0.2925170068027211,0.2925170068027211,0.2925170068027211,0.2925170068027211,0.2925170068027211,0.2925170068027211,0.2925170068027211,0.2925170068027211,0.2925170068027211,0.2925170068027211,0.2925170068027211,0.2925170068027211,0.2925170068027211,0.2925170068027211,0.2925170068027211,0.2925170068027211,0.2925170068027211,0.2925170068027211,0.2925170068027211,0.2925170068027211,0.2925170068027211,0.2925170068027211,0.2925170068027211,0.2925170068027211,0.2925170068027211,0.2925170068027211,0.2925170068027211,0.2925170068027211,0.2925170068027211,0.2925170068027211,0.2925170068027211,0.2925170068027211,0.30952380952380953,0.3333333333333333,0.3741496598639456,0.3877551020408163,0.42857142857142855,0.4421768707482993,0.4931972789115646,0.5068027210884354,0.5272108843537415,0.5374149659863946,0.5476190476190477,0.5544217687074829,0.5578231292517006,0.5612244897959183,0.5612244897959183,0.5612244897959183,0.5612244897959183,0.5612244897959183,0.564625850340136,0.5680272108843537,0.5714285714285714,0.5714285714285714,0.5748299319727891,0.5748299319727891,0.5748299319727891,0.5748299319727891,0.5748299319727891,0.5748299319727891,0.5748299319727891,0.5748299319727891,0.5748299319727891,0.5748299319727891,0.5748299319727891,0.5748299319727891,0.5748299319727891,0.5748299319727891,0.5748299319727891,0.5748299319727891,0.5748299319727891,0.5748299319727891,0.5748299319727891,0.5748299319727891,0.5748299319727891,0.5748299319727891,0.5748299319727891,0.5748299319727891,0.5748299319727891,0.5748299319727891,0.5748299319727891,0.5748299319727891,0.5748299319727891,0.5748299319727891,0.5748299319727891,0.5748299319727891,0.5748299319727891,0.5748299319727891,0.5748299319727891,0.5748299319727891,0.5748299319727891,0.5748299319727891,0.5748299319727891,0.5748299319727891,0.5748299319727891,0.5748299319727891,0.5748299319727891,0.5748299319727891,0.5748299319727891,0.5748299319727891,0.5748299319727891,0.5748299319727891,0.5748299319727891,0.5748299319727891,0.5748299319727891,0.5748299319727891,0.5748299319727891,0.5748299319727891,0.5748299319727891,0.5748299319727891,0.5748299319727891,0.5748299319727891,0.5748299319727891,0.5748299319727891,0.5748299319727891,0.5748299319727891,0.5748299319727891,0.5748299319727891,0.5748299319727891,0.5748299319727891,0.5748299319727891,0.5748299319727891,0.5748299319727891,0.5748299319727891,0.5748299319727891,0.5748299319727891,0.5748299319727891,0.5748299319727891,0.5748299319727891,0.5748299319727891,0.5748299319727891,0.5748299319727891,0.5748299319727891,0.5748299319727891,0.5748299319727891,0.5748299319727891,0.5748299319727891,0.5748299319727891,0.5748299319727891,0.5748299319727891,0.5748299319727891,0.5748299319727891,0.5748299319727891,0.5748299319727891,0.5748299319727891,0.5748299319727891,0.5748299319727891,0.5748299319727891,0.5748299319727891,0.5748299319727891,0.5748299319727891,0.5748299319727891,0.5748299319727891,0.5748299319727891,0.5748299319727891,0.5748299319727891,0.5748299319727891,0.5748299319727891,0.5748299319727891,0.5748299319727891,0.5748299319727891,0.5748299319727891,0.5748299319727891,0.5748299319727891,0.5748299319727891,0.5748299319727891,0.5748299319727891,0.5748299319727891,0.5748299319727891,0.5748299319727891,0.5748299319727891,0.5748299319727891,0.5748299319727891,0.5748299319727891,0.5748299319727891,0.5748299319727891,0.5748299319727891,0.5748299319727891,0.5748299319727891,0.5748299319727891,0.5748299319727891,0.5748299319727891,0.5748299319727891,0.5748299319727891,0.5748299319727891,0.5748299319727891,0.5748299319727891,0.5748299319727891,0.5748299319727891,0.5748299319727891,0.5680272108843537,0.5680272108843537,0.564625850340136,0.5612244897959183,0.5612244897959183,0.5612244897959183,0.5612244897959183,0.5612244897959183,0.5612244897959183,0.5578231292517006,0.5544217687074829,0.5510204081632653,0.5510204081632653,0.5510204081632653,0.5510204081632653,0.5510204081632653,0.5510204081632653,0.5510204081632653,0.5510204081632653,0.5510204081632653,0.5510204081632653,0.5510204081632653,0.5510204081632653,0.5510204081632653,0.5510204081632653,0.5510204081632653,0.5510204081632653,0.5510204081632653,0.5510204081632653,0.5510204081632653,0.5510204081632653,0.5510204081632653,0.5510204081632653,0.5510204081632653,0.5510204081632653,0.5510204081632653,0.5510204081632653,0.5510204081632653,0.5510204081632653,0.5510204081632653,0.5510204081632653,0.5510204081632653,0.5510204081632653,0.5510204081632653,0.5510204081632653,0.5510204081632653,0.5510204081632653,0.5510204081632653,0.5510204081632653,0.5510204081632653,0.5510204081632653,0.5510204081632653,0.5510204081632653,0.5510204081632653,0.5510204081632653,0.5510204081632653,0.5510204081632653,0.5510204081632653,0.5510204081632653,0.5510204081632653,0.5510204081632653,0.5510204081632653,0.5510204081632653,0.5510204081632653,0.5510204081632653,0.5510204081632653,0.5510204081632653,0.5510204081632653,0.5510204081632653,0.5510204081632653,0.5510204081632653,0.5510204081632653,0.5510204081632653,0.5510204081632653,0.5510204081632653,0.5510204081632653,0.5510204081632653,0.5510204081632653,0.5510204081632653,0.5510204081632653,0.5510204081632653,0.5510204081632653,0.5510204081632653,0.5510204081632653,0.5510204081632653,0.5510204081632653,0.5510204081632653,0.5510204081632653,0.5510204081632653,0.5510204081632653,0.5510204081632653,0.5510204081632653,0.5510204081632653,0.5510204081632653,0.5510204081632653,0.5510204081632653,0.5510204081632653,0.5510204081632653,0.5510204081632653,0.5510204081632653,0.5510204081632653,0.5510204081632653,0.5510204081632653,0.5510204081632653,0.5510204081632653,0.5510204081632653,0.5510204081632653,0.5510204081632653,0.5510204081632653,0.5510204081632653,0.5510204081632653,0.5510204081632653,0.5510204081632653,0.5510204081632653,0.5510204081632653,0.5510204081632653,0.5510204081632653,0.5510204081632653,0.5408163265306123,0.5272108843537415,0.4897959183673469,0.47619047619047616,0.4523809523809524,0.445578231292517,0.43537414965986393,0.43197278911564624,0.42857142857142855,0.42857142857142855,0.42517006802721086,0.42517006802721086,0.42517006802721086,0.4217687074829932,0.4217687074829932,0.4217687074829932,0.4217687074829932,0.4217687074829932,0.4217687074829932,0.4217687074829932,0.4217687074829932,0.4217687074829932,0.4217687074829932,0.4217687074829932,0.4217687074829932,0.4217687074829932,0.4217687074829932,0.4217687074829932,0.4217687074829932,0.4217687074829932,0.4217687074829932,0.4217687074829932,0.4217687074829932,0.4217687074829932,0.4217687074829932,0.4217687074829932,0.4217687074829932,0.4217687074829932,0.4217687074829932,0.4217687074829932,0.4217687074829932,0.4217687074829932,0.4217687074829932,0.4217687074829932,0.4217687074829932,0.4217687074829932,0.4217687074829932,0.4217687074829932,0.4217687074829932,0.4217687074829932,0.4217687074829932,0.4217687074829932,0.4217687074829932,0.4217687074829932,0.4217687074829932,0.4217687074829932,0.4217687074829932,0.4217687074829932,0.4217687074829932,0.4217687074829932,0.4217687074829932,0.4217687074829932,0.4217687074829932,0.4217687074829932,0.4217687074829932,0.4217687074829932,0.4217687074829932,0.4217687074829932,0.4217687074829932,0.4217687074829932,0.4217687074829932,0.4217687074829932,0.4217687074829932,0.4217687074829932,0.4217687074829932,0.4217687074829932,0.4217687074829932,0.4217687074829932,0.4217687074829932,0.4217687074829932,0.4217687074829932,0.4217687074829932,0.4217687074829932,0.4217687074829932,0.4217687074829932,0.4217687074829932,0.4217687074829932,0.4217687074829932,0.4217687074829932,0.4217687074829932,0.4217687074829932,0.4217687074829932,0.4217687074829932,0.4217687074829932,0.4217687074829932,0.4217687074829932,0.4217687074829932,0.4217687074829932,0.4217687074829932,0.4217687074829932,0.4217687074829932,0.4217687074829932,0.4217687074829932,0.4217687074829932,0.4217687074829932,0.4217687074829932,0.4217687074829932,0.42517006802721086,0.4897959183673469,0.5374149659863946,0.6258503401360545,0.6802721088435374,0.7687074829931972,0.7959183673469388,0.8639455782312925,0.891156462585034,0.9387755102040817,0.9693877551020408,1.0272108843537415,1.0476190476190477,1.0918367346938775,1.1088435374149659,1.1224489795918366,1.1326530612244898,1.1360544217687074,1.1360544217687074,1.1360544217687074,1.1360544217687074,1.1360544217687074,1.1360544217687074,1.1360544217687074,1.1360544217687074,1.1360544217687074,1.1360544217687074,1.1360544217687074,1.1360544217687074,1.1360544217687074,1.1360544217687074,1.1360544217687074,1.1360544217687074,1.1360544217687074,1.1360544217687074,1.1360544217687074,1.1360544217687074,1.1360544217687074,1.1360544217687074,1.1360544217687074,1.1360544217687074,1.1360544217687074,1.1360544217687074,1.1360544217687074,1.1360544217687074,1.1360544217687074,1.1360544217687074,1.1360544217687074,1.1360544217687074,1.1360544217687074,1.1360544217687074,1.1360544217687074,1.1360544217687074,1.1360544217687074,1.1360544217687074,1.1360544217687074,1.1360544217687074,1.1360544217687074,1.1360544217687074,1.1360544217687074,1.1360544217687074,1.1360544217687074,1.1360544217687074,1.1360544217687074,1.1360544217687074,1.1360544217687074,1.1360544217687074,1.1360544217687074,1.1360544217687074,1.1360544217687074,1.1360544217687074,1.1360544217687074,1.1360544217687074,1.1360544217687074,1.1360544217687074,1.1360544217687074,1.1360544217687074,1.1360544217687074,1.1360544217687074,1.1360544217687074,1.1360544217687074,1.1360544217687074,1.1360544217687074,1.1360544217687074,1.1360544217687074,1.1360544217687074,1.1360544217687074,1.1360544217687074,1.1360544217687074,1.1360544217687074,1.1360544217687074,1.1360544217687074,1.1360544217687074,1.1360544217687074,1.1360544217687074,1.1360544217687074,1.1360544217687074,1.1360544217687074,1.1360544217687074,1.1360544217687074,1.1360544217687074,1.1360544217687074,1.1360544217687074,1.1360544217687074,1.1360544217687074,1.1360544217687074,1.1360544217687074,1.1360544217687074,1.1360544217687074,1.1360544217687074,1.1360544217687074,1.1360544217687074,1.1360544217687074,1.1360544217687074,1.1360544217687074,1.1360544217687074,1.1360544217687074,1.1360544217687074,1.1360544217687074,1.1360544217687074,1.1360544217687074,1.1360544217687074,1.1360544217687074,1.1360544217687074,1.1360544217687074,1.1360544217687074,1.1360544217687074,1.1360544217687074,1.1360544217687074,1.1360544217687074,1.1360544217687074,1.1360544217687074,1.1360544217687074,1.1360544217687074,1.1360544217687074,1.1360544217687074,1.1360544217687074,1.1360544217687074,1.1360544217687074,1.1360544217687074,1.1360544217687074,1.1360544217687074,1.1360544217687074,1.1360544217687074,1.1360544217687074,1.1360544217687074,1.1360544217687074,1.1360544217687074,1.1360544217687074,1.1360544217687074,1.1360544217687074,1.1360544217687074,1.1360544217687074,1.1360544217687074,1.1360544217687074,1.1360544217687074,1.1360544217687074,1.1360544217687074,1.1360544217687074,1.1360544217687074,1.1360544217687074,1.1360544217687074,1.1360544217687074,1.1360544217687074,1.1360544217687074,1.1360544217687074,1.1360544217687074,1.1360544217687074,1.1360544217687074,1.1360544217687074,1.1360544217687074,1.1360544217687074,1.1360544217687074,1.1360544217687074,1.1360544217687074,1.1360544217687074,1.1360544217687074,1.1360544217687074,1.1360544217687074,1.1360544217687074,1.1360544217687074,1.1360544217687074,1.1360544217687074,1.1360544217687074,1.1360544217687074,1.1360544217687074,1.1360544217687074,1.1360544217687074,1.1360544217687074,1.1360544217687074,1.1360544217687074,1.1360544217687074,1.1360544217687074,1.1360544217687074,1.1360544217687074,1.1360544217687074,1.1360544217687074,1.1360544217687074,1.1360544217687074,1.1360544217687074,1.1360544217687074,1.1360544217687074,1.1360544217687074,1.1360544217687074,1.1360544217687074,1.1360544217687074,1.1360544217687074,1.1360544217687074,1.1360544217687074,1.1360544217687074,1.1360544217687074,1.1360544217687074,1.1360544217687074,1.1360544217687074,1.1360544217687074,1.1360544217687074,1.1360544217687074,1.1360544217687074,1.1360544217687074,1.1360544217687074,1.1360544217687074,1.1360544217687074,1.1360544217687074,1.1360544217687074,1.1360544217687074,1.1360544217687074,1.1360544217687074,1.1360544217687074,1.1360544217687074,1.1360544217687074,1.1360544217687074,1.1360544217687074,1.1360544217687074,1.1360544217687074,1.1360544217687074,1.1360544217687074,1.1360544217687074,1.1360544217687074,1.1360544217687074,1.1360544217687074,1.1360544217687074,1.1360544217687074,1.1360544217687074,1.1360544217687074,1.1360544217687074,1.1360544217687074,1.1360544217687074,1.1360544217687074,1.1360544217687074,1.1360544217687074,1.1360544217687074,1.1360544217687074,1.1360544217687074,1.1360544217687074,1.1360544217687074,1.1360544217687074,1.1360544217687074,1.1360544217687074,1.1360544217687074,1.1360544217687074,1.1360544217687074,1.1360544217687074,1.1360544217687074,1.1360544217687074,1.1360544217687074,1.1360544217687074,1.1360544217687074,1.1360544217687074,1.1360544217687074,1.1360544217687074,1.1360544217687074,1.1360544217687074,1.1360544217687074,1.1360544217687074,1.1360544217687074,1.1360544217687074,1.1360544217687074,1.1360544217687074,1.1360544217687074,1.1360544217687074,1.1360544217687074,1.1360544217687074,1.1360544217687074,1.1360544217687074,1.1360544217687074,1.1360544217687074,1.1360544217687074,1.1360544217687074,1.1360544217687074,1.1360544217687074,1.1360544217687074,1.1360544217687074,1.1360544217687074,1.1360544217687074,1.1360544217687074,1.1360544217687074,1.1360544217687074,1.1360544217687074,1.1360544217687074,1.1360544217687074,1.1360544217687074,1.1360544217687074,1.1360544217687074,1.1360544217687074,1.1360544217687074,1.1360544217687074,1.1360544217687074,1.1360544217687074,1.1360544217687074,1.1360544217687074,1.1360544217687074,1.1360544217687074,1.1360544217687074,1.1360544217687074,1.1360544217687074,1.1360544217687074,1.1360544217687074,1.1360544217687074,1.1360544217687074,1.1360544217687074,1.1360544217687074,1.1360544217687074,1.1360544217687074,1.1360544217687074,1.1360544217687074,1.1360544217687074,1.1360544217687074,1.1360544217687074,1.1360544217687074,1.1360544217687074,1.1360544217687074,1.1360544217687074,1.1360544217687074,1.1360544217687074,1.1360544217687074,1.1360544217687074,1.1360544217687074,1.1360544217687074,1.1360544217687074,1.1360544217687074,1.1360544217687074,1.1360544217687074,1.1360544217687074,1.1360544217687074,1.1360544217687074,1.1360544217687074,1.1360544217687074,1.1360544217687074,1.1360544217687074,1.1360544217687074,1.1360544217687074,1.1360544217687074,1.1360544217687074,1.1360544217687074,1.1360544217687074,1.1360544217687074,1.1360544217687074,1.1360544217687074,1.1360544217687074,1.1360544217687074,1.1360544217687074,1.1360544217687074,1.1360544217687074,1.1360544217687074,1.1360544217687074,1.1360544217687074,1.1360544217687074,1.1360544217687074,1.1360544217687074,1.1360544217687074,1.1360544217687074,1.1360544217687074,1.1360544217687074,1.1360544217687074,1.1360544217687074,1.1360544217687074,1.1360544217687074,1.1360544217687074,1.1360544217687074,1.1360544217687074,1.1360544217687074,1.1360544217687074,1.1360544217687074,1.1360544217687074,1.1360544217687074,1.1360544217687074,1.1360544217687074,1.1360544217687074,1.1360544217687074,1.1360544217687074,1.1360544217687074,1.1360544217687074,1.1360544217687074,1.1360544217687074,1.1360544217687074,1.1360544217687074,1.1360544217687074,1.1360544217687074,1.1360544217687074,1.1360544217687074,1.1360544217687074,1.1360544217687074,1.1360544217687074,1.1360544217687074,1.1360544217687074,1.1360544217687074,1.1360544217687074,1.1360544217687074,1.1360544217687074,1.1360544217687074,1.1360544217687074,1.1360544217687074,1.1360544217687074,1.1360544217687074,1.1360544217687074,1.1360544217687074,1.1360544217687074,1.1360544217687074,1.1360544217687074,1.1360544217687074,1.1360544217687074,1.1360544217687074,1.1360544217687074,1.1360544217687074,1.1360544217687074,1.1360544217687074,1.1360544217687074,1.1360544217687074,1.1360544217687074,1.1360544217687074,1.1360544217687074,1.1360544217687074,1.1360544217687074,1.1360544217687074,1.1360544217687074,1.1360544217687074,1.1360544217687074,1.1360544217687074,1.1360544217687074,1.1360544217687074,1.1360544217687074,1.1360544217687074,1.1360544217687074,1.1360544217687074,1.1360544217687074,1.1360544217687074,1.1360544217687074,1.1360544217687074,1.1360544217687074,1.1360544217687074,1.1360544217687074,1.1360544217687074,1.1360544217687074,1.1360544217687074,1.1360544217687074,1.1360544217687074,1.1360544217687074,1.1360544217687074,1.1360544217687074,1.1360544217687074,1.1360544217687074,1.1360544217687074,1.1360544217687074,1.1360544217687074,1.1360544217687074,1.1360544217687074,1.1360544217687074,1.1360544217687074,1.1360544217687074,1.1360544217687074,1.1360544217687074,1.1360544217687074,1.1360544217687074,1.1360544217687074,1.1360544217687074,1.1360544217687074,1.1360544217687074,1.1360544217687074,1.1360544217687074,1.1360544217687074,1.1360544217687074,1.1360544217687074,1.1360544217687074,1.1360544217687074,1.1360544217687074,1.1360544217687074,1.1360544217687074,1.1360544217687074,1.1360544217687074,1.1360544217687074,1.1360544217687074,1.1360544217687074,1.1360544217687074,1.1360544217687074,1.1360544217687074,1.1360544217687074,1.1360544217687074,1.1360544217687074,1.1360544217687074,1.1360544217687074,1.1360544217687074,1.1360544217687074,1.1360544217687074,1.1360544217687074,1.1360544217687074,1.1360544217687074,1.1360544217687074,1.1360544217687074,1.1360544217687074,1.1360544217687074,1.1360544217687074,1.1360544217687074,1.1360544217687074,1.1360544217687074,1.1360544217687074,1.1360544217687074,1.1360544217687074,1.1360544217687074,1.1360544217687074,1.1360544217687074,1.1360544217687074,1.1360544217687074,1.1360544217687074,1.1360544217687074,1.1360544217687074,1.1360544217687074,1.1360544217687074,1.1360544217687074,1.1360544217687074,1.1360544217687074,1.1360544217687074,1.1360544217687074,1.1360544217687074,1.1360544217687074,1.1360544217687074,1.1360544217687074,1.1360544217687074,1.1360544217687074,1.1360544217687074,1.1360544217687074,1.1360544217687074,1.1360544217687074,1.1360544217687074,1.1360544217687074,1.1360544217687074,1.1360544217687074,1.1360544217687074,1.1360544217687074,1.1360544217687074,1.1360544217687074,1.1360544217687074,1.1360544217687074,1.1360544217687074,1.1360544217687074,1.1360544217687074,1.1360544217687074,1.1360544217687074,1.1360544217687074,1.1360544217687074,1.1360544217687074,1.1360544217687074,1.1360544217687074,1.1360544217687074,1.1360544217687074,1.1360544217687074,1.1360544217687074,1.1360544217687074,1.1360544217687074,1.1360544217687074,1.1360544217687074,1.1360544217687074,1.1360544217687074,1.1360544217687074,1.1360544217687074,1.1360544217687074,1.1360544217687074,1.1360544217687074,1.1360544217687074,1.1360544217687074,1.1360544217687074,1.1360544217687074,1.1360544217687074,1.1360544217687074,1.1360544217687074,1.1360544217687074,1.1360544217687074,1.1360544217687074,1.1360544217687074,1.1360544217687074,1.1360544217687074,1.1360544217687074,1.1360544217687074,1.1360544217687074,1.1360544217687074,1.1360544217687074,1.1360544217687074,1.1360544217687074,1.1360544217687074,1.1360544217687074,1.1360544217687074,1.1360544217687074,1.1360544217687074,1.1360544217687074,1.1360544217687074,1.1360544217687074,1.1360544217687074,1.1360544217687074,1.1360544217687074,1.1360544217687074,1.1360544217687074,1.1360544217687074,1.1360544217687074,1.1360544217687074,1.1360544217687074,1.1360544217687074,1.1360544217687074,1.1360544217687074,1.1360544217687074,1.1360544217687074,1.1360544217687074,1.1360544217687074,1.1360544217687074,1.1360544217687074,1.1360544217687074,1.1360544217687074,1.1360544217687074,1.1360544217687074,1.1360544217687074,1.1360544217687074,1.1360544217687074,1.1360544217687074,1.1360544217687074,1.1360544217687074,1.1360544217687074,1.1360544217687074,1.1360544217687074,1.1360544217687074,1.1360544217687074,1.1360544217687074,1.1360544217687074,1.1360544217687074,1.1360544217687074,1.1360544217687074,1.1360544217687074,1.1360544217687074,1.1360544217687074,1.1360544217687074,1.1360544217687074,1.1360544217687074,1.1360544217687074,1.1360544217687074,1.1360544217687074,1.1360544217687074,1.1360544217687074,1.1360544217687074,1.1360544217687074,1.1360544217687074,1.1360544217687074,1.1360544217687074,1.1360544217687074,1.1360544217687074,1.1360544217687074,1.1360544217687074,1.1360544217687074,1.1360544217687074,1.1360544217687074,1.1360544217687074,1.1360544217687074,1.1360544217687074,1.1360544217687074,1.1360544217687074,1.1360544217687074,1.1360544217687074,1.1360544217687074,1.1360544217687074,1.1360544217687074,1.1360544217687074,1.1360544217687074,1.1360544217687074,1.1360544217687074,1.1360544217687074,1.1360544217687074,1.1360544217687074,1.1360544217687074,1.1360544217687074,1.1360544217687074,1.1360544217687074,1.1360544217687074,1.1360544217687074,1.1360544217687074,1.1360544217687074,1.1360544217687074,1.1360544217687074,1.1360544217687074,1.1360544217687074,1.1360544217687074,1.1360544217687074,1.1360544217687074,1.1360544217687074,1.1360544217687074,1.1360544217687074,1.1360544217687074,1.1360544217687074,1.1360544217687074,1.1360544217687074,1.1360544217687074,1.1360544217687074,1.1360544217687074,1.1360544217687074,1.1360544217687074,1.1360544217687074,1.1360544217687074,1.1360544217687074,1.1360544217687074,1.1360544217687074,1.1360544217687074,1.1360544217687074,1.1360544217687074,1.1360544217687074,1.1360544217687074,1.1360544217687074,1.1360544217687074,1.1360544217687074,1.1360544217687074,1.1360544217687074,1.1360544217687074,1.1360544217687074,1.1360544217687074,1.1360544217687074,1.1360544217687074,1.1360544217687074,1.1360544217687074,1.1360544217687074,1.1360544217687074,1.1360544217687074,1.1360544217687074,1.1360544217687074,1.1360544217687074,1.1360544217687074,1.1360544217687074,1.1360544217687074,1.1360544217687074,1.1360544217687074,1.1360544217687074,1.1360544217687074,1.1360544217687074,1.1360544217687074,1.1360544217687074,1.1360544217687074,1.1360544217687074,1.1360544217687074,1.1360544217687074,1.1360544217687074,1.1360544217687074,1.1360544217687074,1.1360544217687074,1.1360544217687074,1.1360544217687074,1.1360544217687074,1.1360544217687074,1.1360544217687074,1.1360544217687074,1.1360544217687074,1.1360544217687074,1.1360544217687074,1.1360544217687074,1.1360544217687074,1.1360544217687074,1.1360544217687074,1.1360544217687074,1.1360544217687074,1.1360544217687074,1.1360544217687074,1.1360544217687074,1.1360544217687074,1.1360544217687074,1.1360544217687074,1.1360544217687074,1.1360544217687074,1.1360544217687074,1.1360544217687074,1.1360544217687074,1.1360544217687074,1.1360544217687074,1.1360544217687074,1.1360544217687074,1.1360544217687074,1.1360544217687074,1.1360544217687074,1.1360544217687074,1.1360544217687074,1.1360544217687074,1.1360544217687074,1.1360544217687074,1.1360544217687074,1.1360544217687074,1.1360544217687074,1.1360544217687074,1.1360544217687074,1.1360544217687074,1.1360544217687074,1.1360544217687074,1.1360544217687074,1.1360544217687074,1.1360544217687074,1.1360544217687074,1.1360544217687074,1.1360544217687074,1.1360544217687074,1.1360544217687074,1.1360544217687074,1.1088435374149659,1.0850340136054422,1.054421768707483,1.0442176870748299,1.030612244897959,1.0272108843537415,1.0238095238095237,1.0204081632653061,1.010204081632653,1.0068027210884354,0.9965986394557823,0.9897959183673469,0.9829931972789115,0.9761904761904762,0.9659863945578231,0.935374149659864,0.9217687074829932,0.8877551020408163,0.8707482993197279,0.8503401360544217,0.8469387755102041,0.8469387755102041,0.8503401360544217,0.8673469387755102,0.8775510204081632,0.8877551020408163,0.8877551020408163,0.8877551020408163,0.8877551020408163,0.8877551020408163,0.8877551020408163,0.8877551020408163,0.8877551020408163,0.8877551020408163,0.8877551020408163,0.8877551020408163,0.8877551020408163,0.8877551020408163,0.8877551020408163,0.891156462585034,0.891156462585034,0.891156462585034,0.891156462585034,0.891156462585034,0.891156462585034,0.891156462585034,0.891156462585034,0.891156462585034,0.891156462585034,0.891156462585034,0.891156462585034,0.891156462585034,0.891156462585034,0.891156462585034,0.891156462585034,0.891156462585034,0.891156462585034,0.891156462585034,0.891156462585034,0.891156462585034,0.891156462585034,0.891156462585034,0.891156462585034,0.891156462585034,0.891156462585034,0.891156462585034,0.891156462585034,0.891156462585034,0.891156462585034,0.891156462585034,0.891156462585034,0.891156462585034,0.891156462585034,0.891156462585034,0.891156462585034,0.891156462585034,0.891156462585034,0.891156462585034,0.891156462585034,0.891156462585034,0.891156462585034,0.891156462585034,0.891156462585034,0.891156462585034,0.891156462585034,0.891156462585034,0.891156462585034,0.891156462585034,0.891156462585034,0.8877551020408163,0.8877551020408163,0.8877551020408163,0.8877551020408163,0.8877551020408163,0.8877551020408163,0.8877551020408163,0.8877551020408163,0.8877551020408163,0.8877551020408163,0.8877551020408163,0.8877551020408163,0.8877551020408163,0.8877551020408163,0.8877551020408163,0.8877551020408163,0.8877551020408163,0.8877551020408163,0.8877551020408163,0.8877551020408163,0.8877551020408163,0.8877551020408163,0.8877551020408163,0.8877551020408163,0.8877551020408163,0.8877551020408163,0.8877551020408163,0.8877551020408163,0.8877551020408163,0.8877551020408163,0.8877551020408163,0.8877551020408163,0.8877551020408163,0.8877551020408163,0.8877551020408163,0.8877551020408163,0.8877551020408163,0.8877551020408163,0.8877551020408163,0.8877551020408163,0.8877551020408163,0.8877551020408163,0.8877551020408163,0.8877551020408163,0.8877551020408163,0.8877551020408163,0.8877551020408163,0.8877551020408163,0.8877551020408163,0.8877551020408163,0.8877551020408163,0.8877551020408163,0.8877551020408163,0.8877551020408163,0.8877551020408163,0.8877551020408163,0.8877551020408163,0.8877551020408163,0.8877551020408163,0.8877551020408163,0.8877551020408163,0.8877551020408163,0.8877551020408163,0.8877551020408163,0.8877551020408163,0.8877551020408163,0.8877551020408163,0.8877551020408163,0.8877551020408163,0.8877551020408163,0.8877551020408163,0.8877551020408163,0.8877551020408163,0.8877551020408163,0.8877551020408163,0.8877551020408163,0.8877551020408163,0.8877551020408163,0.8877551020408163,0.8877551020408163,0.8877551020408163,0.8877551020408163,0.8877551020408163,0.8877551020408163,0.8877551020408163,0.8877551020408163,0.8877551020408163,0.8877551020408163,0.8877551020408163,0.8877551020408163,0.8877551020408163,0.8877551020408163,0.8877551020408163,0.8877551020408163,0.8877551020408163,0.8877551020408163,0.8877551020408163,0.8877551020408163,0.8877551020408163,0.8877551020408163,0.8877551020408163,0.8877551020408163,0.8877551020408163,0.8877551020408163,0.8877551020408163,0.8877551020408163,0.8877551020408163,0.8877551020408163,0.8877551020408163,0.8877551020408163,0.8877551020408163,0.8877551020408163,0.8877551020408163,0.8877551020408163,0.8877551020408163,0.8877551020408163,0.8877551020408163,0.8877551020408163,0.8877551020408163,0.8877551020408163,0.8877551020408163,0.8877551020408163,0.8877551020408163,0.8877551020408163,0.8877551020408163,0.8877551020408163,0.8877551020408163,0.8877551020408163,0.8877551020408163,0.8877551020408163,0.8877551020408163,0.8877551020408163,0.8877551020408163,0.8877551020408163,0.8877551020408163,0.8877551020408163,0.8877551020408163,0.8877551020408163,0.8877551020408163,0.8877551020408163,0.8877551020408163,0.8877551020408163,0.8877551020408163,0.8877551020408163,0.8877551020408163,0.8877551020408163,0.8877551020408163,0.8877551020408163,0.8877551020408163,0.8877551020408163,0.8877551020408163,0.8877551020408163,0.8877551020408163,0.8877551020408163,0.8877551020408163,0.8877551020408163,0.8877551020408163,0.8877551020408163,0.8877551020408163,0.8877551020408163,0.8877551020408163,0.8877551020408163,0.8877551020408163,0.8877551020408163,0.8877551020408163,0.8877551020408163,0.8877551020408163,0.8877551020408163,0.8877551020408163,0.8877551020408163,0.8877551020408163,0.8877551020408163,0.8877551020408163,0.8877551020408163,0.8877551020408163,0.8877551020408163,0.8877551020408163,0.8877551020408163,0.8877551020408163,0.8877551020408163,0.8877551020408163,0.8877551020408163,0.8877551020408163,0.8877551020408163,0.8877551020408163,0.8877551020408163,0.8877551020408163,0.8877551020408163,0.8877551020408163,0.8877551020408163,0.8877551020408163,0.8877551020408163,0.8877551020408163,0.8877551020408163,0.8877551020408163,0.8877551020408163,0.8877551020408163,0.8877551020408163,0.8877551020408163,0.8877551020408163,0.8877551020408163,0.8877551020408163,0.8877551020408163,0.8877551020408163,0.8877551020408163,0.8877551020408163,0.8877551020408163,0.8877551020408163,0.8877551020408163,0.8877551020408163,0.8877551020408163,0.8877551020408163,0.8877551020408163,0.8877551020408163,0.8877551020408163,0.8877551020408163,0.8877551020408163,0.8877551020408163,0.8877551020408163,0.8877551020408163,0.8877551020408163,0.8877551020408163,0.8877551020408163,0.8877551020408163,0.8877551020408163,0.8877551020408163,0.8877551020408163,0.8877551020408163,0.8877551020408163,0.8877551020408163,0.8877551020408163,0.8877551020408163,0.8877551020408163,0.8877551020408163,0.8877551020408163,0.8877551020408163,0.8877551020408163,0.8877551020408163,0.8877551020408163,0.8877551020408163,0.8877551020408163,0.8877551020408163,0.8877551020408163,0.8877551020408163,0.8877551020408163,0.8877551020408163,0.8877551020408163,0.8877551020408163,0.8877551020408163,0.8877551020408163,0.8877551020408163,0.8877551020408163,0.8877551020408163,0.8877551020408163,0.8877551020408163,0.8877551020408163,0.8877551020408163,0.8877551020408163,0.8877551020408163,0.8877551020408163,0.8877551020408163,0.8877551020408163,0.8877551020408163,0.8877551020408163,0.8877551020408163,0.8877551020408163,0.8877551020408163,0.8877551020408163,0.8877551020408163,0.8877551020408163,0.8877551020408163,0.8877551020408163,0.8877551020408163,0.8877551020408163,0.8877551020408163,0.8877551020408163,0.8877551020408163,0.8877551020408163,0.8877551020408163,0.8877551020408163,0.8877551020408163,0.8877551020408163,0.8877551020408163,0.8877551020408163,0.8877551020408163,0.8877551020408163,0.8877551020408163,0.8877551020408163,0.8877551020408163,0.8877551020408163,0.8877551020408163,0.8877551020408163,0.8877551020408163,0.8877551020408163,0.8877551020408163,0.8877551020408163,0.8877551020408163,0.8877551020408163,0.8877551020408163,0.8877551020408163,0.8877551020408163,0.8877551020408163,0.8877551020408163,0.8877551020408163,0.8877551020408163,0.8877551020408163,0.8877551020408163,0.8877551020408163,0.8877551020408163,0.8877551020408163,0.8877551020408163,0.8877551020408163,0.8877551020408163,0.8877551020408163,0.8877551020408163,0.8877551020408163,0.8877551020408163,0.8877551020408163,0.8877551020408163,0.8877551020408163,0.8877551020408163,0.8877551020408163,0.8877551020408163,0.8877551020408163,0.8877551020408163,0.8877551020408163,0.8877551020408163,0.8877551020408163,0.8877551020408163,0.8877551020408163,0.8877551020408163,0.8877551020408163,0.8877551020408163,0.8877551020408163,0.8877551020408163,0.8809523809523809,0.8129251700680272,0.7551020408163265,0.717687074829932,0.6190476190476191,0.5918367346938775,0.5306122448979592,0.5136054421768708,0.45918367346938777,0.42857142857142855,0.3979591836734694,0.391156462585034,0.3843537414965986,0.38095238095238093,0.38095238095238093,0.38095238095238093,0.38095238095238093,0.37755102040816324,0.37755102040816324,0.37755102040816324,0.37755102040816324,0.37755102040816324,0.37755102040816324,0.37755102040816324,0.37755102040816324,0.37755102040816324,0.37755102040816324,0.37755102040816324,0.37755102040816324,0.3877551020408163,0.4013605442176871,0.42517006802721086,0.43197278911564624,0.4387755102040816,0.4387755102040816,0.4387755102040816,0.4387755102040816,0.4387755102040816,0.4387755102040816,0.4387755102040816,0.4387755102040816,0.4387755102040816,0.4387755102040816,0.4387755102040816,0.4387755102040816,0.4387755102040816,0.4387755102040816,0.4387755102040816,0.4387755102040816,0.4387755102040816,0.4387755102040816,0.4387755102040816,0.4387755102040816,0.4387755102040816,0.4387755102040816,0.4387755102040816,0.4387755102040816,0.4387755102040816,0.4387755102040816,0.4387755102040816,0.4387755102040816,0.4387755102040816,0.4387755102040816,0.4387755102040816,0.4387755102040816,0.4387755102040816,0.4387755102040816,0.4387755102040816,0.4387755102040816,0.4387755102040816,0.4387755102040816,0.4387755102040816,0.4387755102040816,0.4387755102040816,0.4387755102040816,0.4387755102040816,0.4387755102040816,0.4387755102040816,0.4387755102040816,0.4387755102040816,0.4387755102040816,0.4387755102040816,0.4387755102040816,0.4387755102040816,0.4387755102040816,0.4387755102040816,0.4387755102040816,0.4387755102040816,0.4387755102040816,0.4387755102040816,0.4387755102040816,0.4387755102040816,0.4387755102040816,0.4387755102040816,0.4387755102040816,0.4387755102040816,0.4387755102040816,0.4387755102040816,0.4387755102040816,0.4387755102040816,0.4387755102040816,0.4387755102040816,0.4387755102040816,0.4387755102040816,0.4387755102040816,0.43197278911564624,0.3877551020408163,0.35374149659863946,0.2891156462585034,0.25510204081632654,0.20408163265306123,0.1836734693877551,0.1598639455782313,0.15306122448979592,0.14625850340136054,0.14625850340136054,0.14965986394557823,0.14965986394557823,0.14965986394557823,0.14965986394557823,0.14965986394557823,0.14965986394557823,0.14965986394557823,0.14965986394557823,0.14965986394557823,0.14965986394557823,0.14965986394557823,0.14965986394557823,0.14965986394557823,0.14965986394557823,0.14965986394557823,0.14965986394557823,0.14965986394557823,0.14965986394557823,0.14965986394557823,0.14965986394557823,0.14965986394557823,0.14965986394557823,0.14965986394557823,0.14965986394557823,0.14965986394557823,0.14965986394557823,0.14965986394557823,0.14965986394557823,0.14965986394557823,0.14965986394557823,0.14965986394557823,0.14965986394557823,0.14965986394557823,0.14965986394557823,0.14965986394557823,0.14965986394557823,0.14965986394557823,0.1496598639455