[{"success":true,"trial_type":"fullscreen","trial_index":0,"time_elapsed":3942,"internal_node_id":"0.0-0.0","protocol_sum":"","subject_identifier":119,"subject_sum":[62,30,150,126,155,121,62,144,143,142,174,131,199,77,186,155,204,204,230,165,83,91,75,70,43,217,153,69,55,191,225,92],"subject_pair":59,"STUDY_ID":"669a702db1122fc5150a13ce","PROLIFIC_PID":"66882c4e8bcda7f9bf988fe1","SESSION_ID":"669ad75707e7aca642cc592b","practice_instructions":1,"leaderboard_instructions":0,"bonus":0,"reveal_word":true,"self_rating":"2","confidence":"76"},{"view_history":"[{\"page_index\":0,\"viewing_time\":5513}]","rt":5513.5,"trial_type":"instructions","trial_index":1,"time_elapsed":9457,"internal_node_id":"0.0-1.0","protocol_sum":"","subject_identifier":119,"subject_sum":[62,30,150,126,155,121,62,144,143,142,174,131,199,77,186,155,204,204,230,165,83,91,75,70,43,217,153,69,55,191,225,92],"subject_pair":59,"STUDY_ID":"669a702db1122fc5150a13ce","PROLIFIC_PID":"66882c4e8bcda7f9bf988fe1","SESSION_ID":"669ad75707e7aca642cc592b","practice_instructions":1,"leaderboard_instructions":0,"bonus":0,"reveal_word":true,"self_rating":"2","confidence":"76"},{"view_history":"[{\"page_index\":0,\"viewing_time\":13798.40000000596}]","rt":13798.699999988079,"trial_type":"instructions","trial_index":2,"time_elapsed":23257,"internal_node_id":"0.0-2.0-0.0","protocol_sum":"","subject_identifier":119,"subject_sum":[62,30,150,126,155,121,62,144,143,142,174,131,199,77,186,155,204,204,230,165,83,91,75,70,43,217,153,69,55,191,225,92],"subject_pair":59,"STUDY_ID":"669a702db1122fc5150a13ce","PROLIFIC_PID":"66882c4e8bcda7f9bf988fe1","SESSION_ID":"669ad75707e7aca642cc592b","practice_instructions":1,"leaderboard_instructions":0,"bonus":0,"reveal_word":true,"self_rating":"2","confidence":"76"},{"rt":11231.799999982119,"responses":"{\"Q0\":\"... reveal the word with as <b>few letter guesses</b> as possible\"}","question_order":"[0]","trial_type":"survey-multi-choice","trial_index":3,"time_elapsed":34492,"internal_node_id":"0.0-2.0-1.0","protocol_sum":"","subject_identifier":119,"subject_sum":[62,30,150,126,155,121,62,144,143,142,174,131,199,77,186,155,204,204,230,165,83,91,75,70,43,217,153,69,55,191,225,92],"subject_pair":59,"correct":true,"test_part":"multichoice_nonpretend","STUDY_ID":"669a702db1122fc5150a13ce","PROLIFIC_PID":"66882c4e8bcda7f9bf988fe1","SESSION_ID":"669ad75707e7aca642cc592b","practice_instructions":1,"leaderboard_instructions":0,"bonus":0,"reveal_word":true,"self_rating":"2","confidence":"76"},{"view_history":"[{\"page_index\":0,\"viewing_time\":1447.8999999761581}]","rt":1448.199999988079,"trial_type":"instructions","trial_index":4,"time_elapsed":35941,"internal_node_id":"0.0-3.0","protocol_sum":"","subject_identifier":119,"subject_sum":[62,30,150,126,155,121,62,144,143,142,174,131,199,77,186,155,204,204,230,165,83,91,75,70,43,217,153,69,55,191,225,92],"subject_pair":59,"STUDY_ID":"669a702db1122fc5150a13ce","PROLIFIC_PID":"66882c4e8bcda7f9bf988fe1","SESSION_ID":"669ad75707e7aca642cc592b","practice_instructions":1,"leaderboard_instructions":0,"bonus":0,"reveal_word":true,"self_rating":"2","confidence":"76"},{"word":"ZEBRA","click_log":{"letter":["","D","L","R","E","N","A","Z","B"],"t":[0,2971,8056.300000011921,10470.200000017881,14087.90000000596,17837.80000001192,19354.90000000596,22355,23488.70000001788],"hit":[null,0,0,1,1,0,1,1,1],"asked":["","D","DL","DLR","DLRE","DLREN","DLRENA","DLRENAZ","DLRENAZB"],"word_state":["_____","_____","_____","___R_","_E_R_","_E_R_","_E_RA","ZE_RA","ZEBRA"]},"hover_log":{"letter":["?","?","?","?","?","?","?","?","?","?","?","?","?","?","?","?","?","?","?","?","?","?","?","?","?","?","?","?","?","?","?","?","?","?","?","?","?","?","?","?","?","?","?","?","?","?","?","?","?","?","?","?","?","?","?","?","?","?","?","?","?","?","?","?","?","?","?","?","?","?","?","?","?","?","?","?","?","?","?","?","?","?","J","J","?","K","L","?","V","?","?","?","?","?","?","?","?","?","?","?","?","?","?","?","?","?","?","?","?","?","?","?","?","?","?","?","?","?","?","?","?","V","V","V","?","?","?","?","?","?","?","?","?","?","?","?","?","?","?","?","?","?","?","?","?","D","D","D","D","D","D","D","D","D","D","D","D","D","D","D","D","D","D","D","D","D","D","D","D","D","D","D","D","D","D","D","D","D","D","D","D","D","D","D","D","D","D","D","D","D","D","D","D","D","D","D","D","D","D","D","D","D","D","D","D","D","D","D","D","D","D","D","D","D","D","D","D","D","D","D","D","D","D","D","D","D","D","D","D","D","D","D","D","D","D","D","D","D","D","D","D","D","D","D","D","D","D","D","D","D","D","D","D","D","D","D","D","D","D","D","D","D","D","D","D","D","D","D","D","D","D","D","D","D","D","D","D","D","D","D","D","D","D","D","D","D","D","D","D","D","D","D","D","D","D","D","D","D","D","D","D","D","D","D","D","D","D","D","D","D","D","D","D","D","D","D","D","D","D","D","D","D","D","D","D","D","D","D","D","D","D","D","D","D","D","D","D","D","D","D","D","D","D","D","D","D","D","D","D","D","D","D","D","D","D","D","D","D","D","D","D","D","D","D","D","D","D","D","D","D","D","D","D","D","D","D","D","D","D","D","D","D","D","D","D","D","D","D","D","D","D","D","D","D","D","D","D","D","D","D","D","D","D","D","D","D","D","D","D","D","D","D","D","D","D","D","D","D","D","D","D","D","D","D","D","D","D","D","D","D","D","D","D","D","D","D","D","D","D","D","D","D","D","D","D","D","D","D","D","D","D","D","D","D","D","D","D","?","?","?","?","?","?","L","L","L","L","L","L","L","L","L","L","L","L","L","L","L","L","L","L","L","L","L","L","L","L","L","L","L","L","L","L","L","L","L","L","L","L","L","L","L","L","L","L","L","L","L","L","L","L","L","L","L","L","L","L","L","L","L","L","L","L","L","L","L","L","L","L","L","L","L","L","L","L","L","L","L","L","L","L","L","L","L","L","L","L","L","L","L","L","L","L","L","L","L","L","L","L","L","L","L","L","L","L","L","L","L","L","L","L","L","L","L","L","L","L","L","L","?","M","?","N","O","O","?","P","P","P","?","?","Q","Q","Q","Q","Q","Q","Q","Q","Q","Q","Q","Q","Q","Q","?","?","R","R","R","R","R","R","R","R","R","R","R","R","R","R","R","R","R","R","R","R","R","R","R","R","R","R","R","R","R","R","R","R","R","R","R","R","R","R","R","R","R","R","R","R","R","R","R","R","R","R","R","R","R","R","R","R","R","R","R","R","R","R","R","R","R","R","R","R","R","R","R","R","R","R","R","R","R","R","R","R","R","R","R","R","R","R","R","R","R","R","R","R","R","R","R","R","R","R","R","R","R","R","R","R","R","R","R","R","R","R","R","R","R","R","R","R","R","R","R","R","R","R","R","R","R","R","R","R","R","R","R","R","R","R","R","R","R","R","R","R","R","R","R","R","R","R","R","R","R","R","R","R","R","R","R","R","R","R","R","R","R","R","R","R","R","R","R","R","R","R","R","R","R","R","R","R","R","R","R","R","R","R","R","R","R","R","R","R","R","R","R","R","R","R","Q","Q","?","?","?","?","?","?","?","?","?","F","F","F","F","F","F","F","F","F","?","?","?","E","E","E","E","E","E","E","E","E","E","E","E","E","E","E","E","E","E","E","E","E","E","E","E","E","E","E","E","E","E","E","E","E","E","E","E","E","E","E","E","E","E","E","E","E","E","E","E","E","E","E","E","E","E","E","E","E","E","E","E","E","E","E","E","E","E","E","E","E","E","E","E","E","E","E","E","E","E","E","E","E","E","E","E","E","E","E","E","E","E","E","E","E","E","E","E","E","E","E","E","E","E","E","E","E","E","E","E","E","E","E","E","E","E","E","E","E","E","E","E","E","E","E","E","E","E","E","E","E","E","E","E","E","E","E","E","E","E","E","E","E","E","E","E","E","E","E","E","E","E","E","E","E","E","E","E","E","E","E","E","E","E","E","E","E","E","E","E","E","E","E","E","E","E","E","E","E","E","E","E","E","E","E","E","E","E","E","E","E","E","E","E","E","E","E","E","E","E","E","E","E","E","E","E","E","E","E","E","E","E","E","E","E","E","E","E","E","E","E","?","?","?","N","N","N","N","N","N","N","N","N","N","N","N","N","N","N","N","N","N","N","N","N","N","N","N","N","N","N","N","N","N","N","N","N","N","N","N","N","N","N","N","N","N","N","N","N","N","N","N","N","N","N","N","N","N","N","N","N","N","N","N","N","N","N","N","N","N","N","?","?","?","?","?","?","?","?","?","B","B","B","B","B","B","B","B","B","B","B","B","B","?","?","?","?","A","A","A","A","A","A","A","A","A","A","A","A","A","A","A","A","A","A","A","A","A","A","A","A","A","A","A","A","A","A","A","A","A","A","A","A","A","A","A","A","A","A","A","A","A","A","A","A","A","A","A","A","A","A","A","A","A","A","A","A","A","A","A","A","A","A","A","A","A","A","A","A","A","A","A","A","A","A","A","A","A","A","A","A","A","A","A","A","A","A","A","A","A","A","A","A","A","A","A","A","A","A","A","A","A","A","A","A","A","A","A","A","A","A","A","A","A","A","A","A","A","A","A","A","A","A","A","A","?","K","L","?","?","W","W","?","X","X","X","X","X","X","X","?","?","Y","Y","Y","Y","Y","Y","Y","Y","Y","Y","Y","?","?","?","?","?","?","?","?","?","?","?","?","?","?","Z","Z","Z","Z","Z","Z","Z","Z","Z","Z","Z","Z","Z","Z","Z","Z","Z","Z","Z","Z","Z","Z","Z","Z","Z","Z","Z","Z","Z","Z","Z","Z","Z","Z","Z","Z","Z","Z","Z","Z","Z","Z","Z","Z","Z","Z","Z","Z","Z","Z","Y","Y","Y","?","?","?","N","N","?","?","?","?","?","?","?","D","D","?","?","C","C","C","C","?","?","B","B","B","B","B","B","B","B","B","B","B","B","B","B","B","B","B","B","B","B","B","B","B","B","B","B","B","B","B","B","B","B","B","B","B","B","B","B","B","B","B","B","B","B","B","B","B","B","B","B","B","B","B","B","B","B","B","B","B","B","B","B","B","B","B","B","B","B","B","B","B","B","B","B","B","B","B","B","B","B","B","B","B","B","B","B","B","B","B","B","B","B","B","B","B","B","B","B","B","B","B","B","B","B","B","B","B","B","B","B","B","B","B","B","B","B","B","B","B","B","B","B","B","B","B","B","B","B","B","B","B","B","B","B","B","B","B","B","B","B"],"t":[46,97,121,137,153,170,187,203,220,236,253,268,286,303,319,336,352,370,386,402,419,435,452,469,485,502,519,535,552,569,585,602,619,635,652,669,685,702,719,735,752,769,785,802,819,835,852,869,885,902,919,935,952,968,985,1002,1019,1035,1052,1069,1085,1102,1119,1135,1152,1169,1186,1202,1219,1235,1251,1268,1285,1302,1318,1336,1352,1368,1387,1402,1419,1435,1454,1468,1485,1503,1519,1537,1553,1570,1586,1603,1619,1635,1652,1669,1686,1702,1719,1736,1753,1769,1786,1802,1819,1836,1852,1869,1885,1902,1919,1935,1952,1967,1984,2003,2019,2036,2052,2069,2085,2103,2119,2135,2153,2169,2187,2204,2220,2236,2253,2268,2284,2301,2318,2335,2353,2369,2386,2404,2419,2436,2452,2468,2486,2502,2518,2537,2554,2569,2587,2604,2620,2636,2653,2667,2685,2702,2719,2735,2753,2768,2786,2802,2819,2836,2853,2869,2886,2902,2918,2935,2953,2969,2986,3003,3022,3039,3053,3070,3089,3106,3121,3137,3154,3170,3187,3203,3221,3237,3253,3268,3286,3305,3320,3337,3353,3370,3387,3403,3420,3437,3452,3469,3486,3503,3520,3536,3553,3570,3587,3603,3620,3637,3653,3669,3686,3704,3719,3736,3753,3770,3786,3802,3819,3837,3853,3869,3885,3904,3919,3936,3952,3970,3986,4003,4019,4037,4053,4069,4086,4103,4120,4136,4153,4170,4186,4202,4220,4236,4253,4267,4285,4303,4319,4336,4353,4370,4386,4403,4419,4437,4453,4469,4485,4503,4519,4536,4552,4570,4586,4603,4619,4637,4653,4668,4685,4703,4719,4735,4752,4770,4786,4802,4819,4837,4853,4869,4885,4904,4919,4936,4952,4970,4986,5002,5019,5036,5052,5069,5086,5103,5119,5135,5152,5169,5186,5202,5219,5236,5253,5267,5285,5303,5320,5336,5352,5370,5386,5402,5419,5436,5452,5470,5486,5503,5519,5536,5553,5569,5586,5601,5619,5637,5653,5669,5685,5704,5717,5736,5752,5770,5786,5802,5819,5837,5853,5869,5885,5903,5919,5936,5952,5970,5986,6002,6019,6037,6053,6069,6085,6103,6119,6136,6152,6170,6186,6202,6219,6237,6253,6267,6284,6303,6319,6335,6352,6370,6385,6403,6419,6437,6453,6469,6486,6503,6519,6535,6552,6570,6586,6602,6619,6637,6653,6669,6685,6703,6719,6736,6752,6770,6786,6802,6819,6837,6853,6869,6886,6903,6919,6935,6952,6970,6986,7002,7019,7037,7053,7069,7086,7103,7120,7136,7152,7170,7186,7202,7219,7237,7253,7267,7285,7303,7319,7335,7352,7370,7386,7402,7419,7437,7453,7469,7485,7503,7519,7536,7552,7570,7586,7602,7619,7634,7652,7669,7686,7702,7719,7735,7751,7771,7787,7802,7819,7838,7852,7869,7885,7903,7919,7936,7953,7971,7987,8003,8019,8037,8053,8069,8086,8102,8119,8137,8153,8169,8186,8203,8219,8235,8252,8268,8286,8302,8319,8336,8352,8368,8386,8403,8419,8436,8452,8469,8485,8502,8520,8536,8552,8569,8586,8602,8620,8637,8653,8669,8686,8702,8719,8736,8753,8769,8785,8802,8819,8836,8852,8870,8885,8901,8918,8935,8951,8968,8986,9004,9019,9035,9051,9069,9085,9102,9120,9136,9152,9169,9186,9202,9218,9236,9253,9268,9285,9302,9318,9336,9353,9369,9386,9403,9419,9436,9452,9470,9486,9502,9519,9535,9552,9569,9586,9603,9618,9636,9652,9669,9686,9703,9721,9736,9753,9769,9786,9802,9818,9838,9854,9869,9885,9902,9919,9936,9951,9969,9987,10003,10019,10036,10051,10070,10087,10102,10120,10135,10153,10169,10186,10203,10222,10235,10253,10269,10286,10303,10321,10339,10353,10370,10387,10405,10419,10436,10452,10469,10525,10533,10553,10569,10586,10603,10619,10636,10653,10669,10686,10702,10719,10735,10752,10769,10786,10802,10819,10836,10852,10869,10886,10902,10918,10936,10952,10969,10986,11002,11019,11036,11052,11069,11085,11102,11119,11136,11152,11169,11186,11202,11220,11235,11252,11268,11286,11302,11319,11335,11352,11369,11386,11402,11419,11436,11452,11469,11486,11502,11519,11535,11552,11569,11586,11602,11619,11636,11653,11669,11686,11702,11719,11735,11752,11769,11785,11802,11819,11836,11852,11869,11885,11902,11919,11936,11952,11969,11986,12002,12018,12036,12052,12069,12085,12102,12118,12136,12152,12169,12186,12202,12220,12235,12252,12268,12286,12302,12319,12336,12353,12369,12385,12402,12419,12435,12452,12468,12486,12502,12519,12535,12552,12569,12586,12602,12619,12636,12653,12669,12686,12702,12719,12736,12752,12769,12786,12802,12819,12836,12852,12869,12886,12902,12918,12936,12952,12969,12985,13002,13018,13035,13052,13068,13085,13102,13119,13136,13152,13168,13186,13202,13219,13235,13252,13268,13286,13302,13319,13336,13352,13370,13386,13402,13420,13436,13452,13470,13486,13501,13519,13535,13552,13569,13586,13603,13619,13636,13654,13668,13685,13701,13720,13736,13752,13768,13786,13803,13820,13836,13853,13870,13885,13903,13919,13935,13952,13969,13986,14003,14019,14036,14053,14070,14086,14102,14118,14136,14153,14169,14186,14202,14219,14235,14253,14268,14286,14304,14319,14335,14352,14368,14386,14403,14419,14436,14453,14469,14486,14502,14519,14535,14552,14569,14586,14602,14619,14636,14652,14669,14686,14702,14719,14736,14752,14768,14786,14802,14819,14836,14852,14869,14886,14902,14919,14935,14952,14969,14985,15003,15019,15035,15052,15069,15085,15102,15119,15136,15152,15169,15186,15202,15219,15235,15252,15268,15286,15302,15319,15335,15352,15369,15385,15403,15419,15435,15452,15468,15485,15502,15519,15536,15552,15569,15586,15602,15620,15636,15653,15668,15686,15702,15718,15736,15752,15769,15786,15802,15819,15836,15852,15869,15886,15902,15919,15936,15952,15969,15986,16002,16019,16035,16052,16069,16086,16102,16119,16136,16153,16169,16185,16202,16219,16235,16253,16268,16286,16302,16319,16335,16352,16369,16386,16402,16419,16436,16452,16469,16486,16503,16519,16535,16552,16569,16585,16602,16619,16635,16652,16669,16686,16702,16719,16735,16752,16769,16786,16802,16819,16835,16852,16869,16886,16902,16919,16935,16952,16969,16985,17002,17019,17036,17052,17069,17085,17101,17118,17135,17151,17168,17186,17202,17219,17235,17252,17267,17284,17302,17319,17336,17352,17369,17386,17402,17418,17435,17452,17468,17486,17503,17518,17536,17553,17570,17585,17602,17618,17635,17653,17669,17685,17702,17719,17737,17752,17769,17787,17802,17819,17836,17853,17870,17885,17902,17919,17936,17952,17969,17986,18002,18019,18035,18052,18069,18085,18102,18119,18135,18152,18169,18186,18203,18220,18236,18252,18268,18286,18303,18319,18336,18352,18369,18385,18402,18419,18436,18453,18469,18485,18502,18519,18536,18552,18568,18586,18602,18619,18636,18652,18669,18686,18703,18718,18736,18751,18770,18786,18802,18819,18835,18853,18870,18886,18902,18920,18936,18951,18969,18986,19001,19020,19036,19052,19069,19086,19103,19120,19135,19153,19169,19186,19202,19219,19235,19253,19268,19285,19301,19319,19336,19352,19368,19386,19403,19419,19436,19452,19469,19485,19502,19519,19536,19552,19569,19585,19602,19619,19635,19652,19669,19685,19701,19719,19736,19752,19768,19785,19802,19819,19835,19852,19868,19885,19902,19919,19936,19952,19969,19986,20002,20019,20035,20052,20069,20086,20102,20119,20135,20152,20169,20186,20203,20219,20236,20253,20268,20285,20303,20319,20336,20352,20369,20386,20402,20419,20436,20452,20469,20486,20502,20519,20536,20553,20569,20586,20602,20619,20636,20652,20669,20686,20702,20719,20736,20752,20769,20786,20802,20819,20835,20853,20869,20886,20902,20919,20936,20952,20969,20985,21002,21019,21036,21052,21069,21086,21102,21119,21136,21152,21169,21186,21202,21220,21236,21253,21269,21285,21303,21320,21335,21353,21369,21385,21402,21420,21436,21453,21470,21486,21504,21520,21535,21553,21568,21586,21601,21619,21636,21653,21670,21686,21703,21720,21735,21753,21768,21787,21802,21819,21836,21853,21870,21887,21903,21921,21937,21952,21968,21987,22001,22020,22035,22051,22069,22085,22103,22120,22136,22153,22169,22186,22202,22220,22237,22254,22268,22286,22302,22319,22336,22353,22369,22386,22402,22419,22436,22452,22469,22486,22503,22519,22536,22552,22569,22586,22603,22619,22635,22652,22669,22686,22702,22720,22736,22753,22768,22786,22801,22818,22835,22852,22869,22887,22902,22918,22935,22952,22970,22986,23002,23018,23037,23053,23069,23086,23102,23120,23137,23153,23169,23185,23203,23219,23235,23251,23268,23285,23302,23319,23336,23353,23370,23386,23403,23418,23436,23452,23470,23487,23507,23519,23536,23552,23569,23586,23603,23619,23636,23652,23669,23685,23703,23719,23736,23752,23769,23784,23803,23819,23835,23852,23869,23885,23903,23919,23936,23953,23969,23985,24002,24019,24036,24053,24069,24085,24102,24119,24135,24153,24169,24185,24203,24218,24236,24252,24268,24285,24303,24319,24336,24353,24369,24386,24403,24419,24435,24453,24469,24486,24502,24519,24536,24553,24569,24586,24603,24619,24636,24653,24669,24686,24702,24719,24736,24752,24769,24785,24803,24819,24836,24853,24869,24886,24903,24919,24936,24952,24969,24986,25002,25019,25036,25052,25069,25086,25103,25119,25136,25152,25169,25186,25202,25220,25236,25252,25268,25286,25302,25319,25336,25353,25369,25386,25402,25419,25436,25453,25469,25486,25504],"hit":[null],"x":[-1.751700680272109,-1.751700680272109,-1.751700680272109,-1.751700680272109,-1.751700680272109,-1.751700680272109,-1.751700680272109,-1.751700680272109,-1.751700680272109,-1.751700680272109,-1.751700680272109,-1.751700680272109,-1.751700680272109,-1.751700680272109,-1.751700680272109,-1.751700680272109,-1.751700680272109,-1.751700680272109,-1.751700680272109,-1.751700680272109,-1.751700680272109,-1.751700680272109,-1.751700680272109,-1.751700680272109,-1.751700680272109,-1.751700680272109,-1.751700680272109,-1.751700680272109,-1.751700680272109,-1.751700680272109,-1.751700680272109,-1.751700680272109,-1.751700680272109,-1.751700680272109,-1.751700680272109,-1.751700680272109,-1.751700680272109,-1.751700680272109,-1.751700680272109,-1.751700680272109,-1.751700680272109,-1.751700680272109,-1.751700680272109,-1.751700680272109,-1.751700680272109,-1.751700680272109,-1.751700680272109,-1.751700680272109,-1.751700680272109,-1.751700680272109,-1.751700680272109,-1.751700680272109,-1.751700680272109,-1.751700680272109,-1.751700680272109,-1.751700680272109,-1.751700680272109,-1.751700680272109,-1.751700680272109,-1.751700680272109,-1.751700680272109,-1.751700680272109,-1.751700680272109,-1.751700680272109,-1.751700680272109,-1.751700680272109,-1.751700680272109,-1.751700680272109,-1.751700680272109,-1.751700680272109,-1.751700680272109,-1.751700680272109,-1.751700680272109,-1.751700680272109,-1.751700680272109,-1.751700680272109,-1.751700680272109,-1.751700680272109,-0.023809523809523808,-0.03741496598639456,-0.04081632653061224,-0.04081632653061224,-0.023809523809523808,0.013605442176870748,0.07482993197278912,0.17006802721088435,0.25510204081632654,0.35034013605442177,0.41496598639455784,0.48639455782312924,0.4965986394557823,0.4965986394557823,0.4965986394557823,0.4965986394557823,0.4965986394557823,0.4965986394557823,0.4965986394557823,0.4965986394557823,0.4965986394557823,0.4965986394557823,0.4965986394557823,0.4965986394557823,0.4965986394557823,0.4965986394557823,0.4965986394557823,0.4965986394557823,0.4965986394557823,0.4965986394557823,0.4965986394557823,0.4965986394557823,0.4965986394557823,0.4965986394557823,0.4965986394557823,0.4965986394557823,0.4965986394557823,0.4965986394557823,0.4965986394557823,0.4965986394557823,0.4965986394557823,0.4965986394557823,0.47278911564625853,0.445578231292517,0.41836734693877553,0.3945578231292517,0.3741496598639456,0.36054421768707484,0.35714285714285715,0.35714285714285715,0.35714285714285715,0.36394557823129253,0.3673469387755102,0.3707482993197279,0.3707482993197279,0.3707482993197279,0.3707482993197279,0.3673469387755102,0.36394557823129253,0.36054421768707484,0.35714285714285715,0.35374149659863946,0.35374149659863946,0.35034013605442177,0.35034013605442177,0.35714285714285715,0.3673469387755102,0.38095238095238093,0.391156462585034,0.40476190476190477,0.41156462585034015,0.41496598639455784,0.41836734693877553,0.4217687074829932,0.4217687074829932,0.4217687074829932,0.4217687074829932,0.4217687074829932,0.4217687074829932,0.4217687074829932,0.4217687074829932,0.4217687074829932,0.4217687074829932,0.4217687074829932,0.4217687074829932,0.4217687074829932,0.4217687074829932,0.4217687074829932,0.4217687074829932,0.4217687074829932,0.4217687074829932,0.4217687074829932,0.4217687074829932,0.4217687074829932,0.4217687074829932,0.4217687074829932,0.4217687074829932,0.4217687074829932,0.4217687074829932,0.4217687074829932,0.4217687074829932,0.4217687074829932,0.4217687074829932,0.4217687074829932,0.4217687074829932,0.4217687074829932,0.4217687074829932,0.4217687074829932,0.4217687074829932,0.4217687074829932,0.4217687074829932,0.4217687074829932,0.4217687074829932,0.4217687074829932,0.4217687074829932,0.4217687074829932,0.4217687074829932,0.4217687074829932,0.4217687074829932,0.4217687074829932,0.4217687074829932,0.4217687074829932,0.4217687074829932,0.4217687074829932,0.4217687074829932,0.4217687074829932,0.4217687074829932,0.4217687074829932,0.4217687074829932,0.4217687074829932,0.4217687074829932,0.4217687074829932,0.4217687074829932,0.4217687074829932,0.4217687074829932,0.4217687074829932,0.4217687074829932,0.4217687074829932,0.4217687074829932,0.4217687074829932,0.4217687074829932,0.4217687074829932,0.4217687074829932,0.4217687074829932,0.4217687074829932,0.4217687074829932,0.4217687074829932,0.4217687074829932,0.4217687074829932,0.4217687074829932,0.4217687074829932,0.4217687074829932,0.4217687074829932,0.4217687074829932,0.4217687074829932,0.4217687074829932,0.4217687074829932,0.4217687074829932,0.4217687074829932,0.4217687074829932,0.4217687074829932,0.4217687074829932,0.4217687074829932,0.4217687074829932,0.4217687074829932,0.4217687074829932,0.4217687074829932,0.4217687074829932,0.4217687074829932,0.4217687074829932,0.4217687074829932,0.4217687074829932,0.4217687074829932,0.4217687074829932,0.4217687074829932,0.4217687074829932,0.4217687074829932,0.4217687074829932,0.4217687074829932,0.4217687074829932,0.4217687074829932,0.4217687074829932,0.4217687074829932,0.4217687074829932,0.4217687074829932,0.4217687074829932,0.4217687074829932,0.4217687074829932,0.4217687074829932,0.4217687074829932,0.4217687074829932,0.4217687074829932,0.4217687074829932,0.4217687074829932,0.4217687074829932,0.4217687074829932,0.4217687074829932,0.4217687074829932,0.4217687074829932,0.4217687074829932,0.4217687074829932,0.4217687074829932,0.4217687074829932,0.4217687074829932,0.4217687074829932,0.4217687074829932,0.4217687074829932,0.4217687074829932,0.4217687074829932,0.4217687074829932,0.4217687074829932,0.4217687074829932,0.4217687074829932,0.4217687074829932,0.4217687074829932,0.4217687074829932,0.4217687074829932,0.4217687074829932,0.4217687074829932,0.4217687074829932,0.4217687074829932,0.4217687074829932,0.4217687074829932,0.4217687074829932,0.4217687074829932,0.4217687074829932,0.4217687074829932,0.4217687074829932,0.4217687074829932,0.4217687074829932,0.4217687074829932,0.4217687074829932,0.4217687074829932,0.4217687074829932,0.4217687074829932,0.4217687074829932,0.4217687074829932,0.4217687074829932,0.4217687074829932,0.4217687074829932,0.4217687074829932,0.4217687074829932,0.4217687074829932,0.4217687074829932,0.4217687074829932,0.4217687074829932,0.4217687074829932,0.4217687074829932,0.4217687074829932,0.4217687074829932,0.4217687074829932,0.4217687074829932,0.4217687074829932,0.4217687074829932,0.4217687074829932,0.4217687074829932,0.4217687074829932,0.4217687074829932,0.4217687074829932,0.4217687074829932,0.4217687074829932,0.4217687074829932,0.4217687074829932,0.4217687074829932,0.4217687074829932,0.4217687074829932,0.4217687074829932,0.4217687074829932,0.4217687074829932,0.4217687074829932,0.4217687074829932,0.4217687074829932,0.4217687074829932,0.4217687074829932,0.4217687074829932,0.4217687074829932,0.4217687074829932,0.4217687074829932,0.4217687074829932,0.4217687074829932,0.4217687074829932,0.4217687074829932,0.4217687074829932,0.4217687074829932,0.4217687074829932,0.4217687074829932,0.4217687074829932,0.4217687074829932,0.4217687074829932,0.4217687074829932,0.4217687074829932,0.4217687074829932,0.4217687074829932,0.4217687074829932,0.4217687074829932,0.4217687074829932,0.4217687074829932,0.4217687074829932,0.4217687074829932,0.4217687074829932,0.4217687074829932,0.4217687074829932,0.4217687074829932,0.4217687074829932,0.4217687074829932,0.4217687074829932,0.4217687074829932,0.4217687074829932,0.4217687074829932,0.4217687074829932,0.4217687074829932,0.4217687074829932,0.4217687074829932,0.4217687074829932,0.4217687074829932,0.4217687074829932,0.4217687074829932,0.4217687074829932,0.4217687074829932,0.4217687074829932,0.4217687074829932,0.4217687074829932,0.4217687074829932,0.4217687074829932,0.4217687074829932,0.4217687074829932,0.4217687074829932,0.4217687074829932,0.4217687074829932,0.4217687074829932,0.4217687074829932,0.4217687074829932,0.4217687074829932,0.4217687074829932,0.4217687074829932,0.4217687074829932,0.4217687074829932,0.4217687074829932,0.4217687074829932,0.4217687074829932,0.4217687074829932,0.4217687074829932,0.4217687074829932,0.4217687074829932,0.4217687074829932,0.4217687074829932,0.4217687074829932,0.4217687074829932,0.4217687074829932,0.4217687074829932,0.4217687074829932,0.4217687074829932,0.4217687074829932,0.4217687074829932,0.4217687074829932,0.4217687074829932,0.4217687074829932,0.4217687074829932,0.4217687074829932,0.4217687074829932,0.4217687074829932,0.4217687074829932,0.4217687074829932,0.4217687074829932,0.4217687074829932,0.4217687074829932,0.4217687074829932,0.4217687074829932,0.4217687074829932,0.4217687074829932,0.4217687074829932,0.4217687074829932,0.4217687074829932,0.4217687074829932,0.4217687074829932,0.4217687074829932,0.4217687074829932,0.41836734693877553,0.4013605442176871,0.38095238095238093,0.36054421768707484,0.3469387755102041,0.3401360544217687,0.3299319727891156,0.32653061224489793,0.3231292517006803,0.3231292517006803,0.3197278911564626,0.3197278911564626,0.3197278911564626,0.3197278911564626,0.3197278911564626,0.3197278911564626,0.3163265306122449,0.3163265306122449,0.3163265306122449,0.3163265306122449,0.3163265306122449,0.3163265306122449,0.3163265306122449,0.3163265306122449,0.3163265306122449,0.3163265306122449,0.3163265306122449,0.3163265306122449,0.3163265306122449,0.3163265306122449,0.3163265306122449,0.3163265306122449,0.3163265306122449,0.3163265306122449,0.3163265306122449,0.3163265306122449,0.3163265306122449,0.3163265306122449,0.3163265306122449,0.3163265306122449,0.3163265306122449,0.3163265306122449,0.3163265306122449,0.3163265306122449,0.3163265306122449,0.3163265306122449,0.3163265306122449,0.3163265306122449,0.3163265306122449,0.3163265306122449,0.3163265306122449,0.3163265306122449,0.3163265306122449,0.3163265306122449,0.3163265306122449,0.3163265306122449,0.3163265306122449,0.3163265306122449,0.3163265306122449,0.3163265306122449,0.3163265306122449,0.3163265306122449,0.3163265306122449,0.3163265306122449,0.3163265306122449,0.3163265306122449,0.3163265306122449,0.3163265306122449,0.3163265306122449,0.3163265306122449,0.3163265306122449,0.3163265306122449,0.3163265306122449,0.3163265306122449,0.3163265306122449,0.3163265306122449,0.3163265306122449,0.3163265306122449,0.3163265306122449,0.3163265306122449,0.3163265306122449,0.3163265306122449,0.3163265306122449,0.3163265306122449,0.3163265306122449,0.3163265306122449,0.3163265306122449,0.3163265306122449,0.3163265306122449,0.3163265306122449,0.3163265306122449,0.3163265306122449,0.3163265306122449,0.3163265306122449,0.3163265306122449,0.3163265306122449,0.3163265306122449,0.3163265306122449,0.3163265306122449,0.3163265306122449,0.3163265306122449,0.3163265306122449,0.3163265306122449,0.3163265306122449,0.3163265306122449,0.3163265306122449,0.3163265306122449,0.3163265306122449,0.3163265306122449,0.3163265306122449,0.3163265306122449,0.3163265306122449,0.3163265306122449,0.3163265306122449,0.3163265306122449,0.3163265306122449,0.3163265306122449,0.3163265306122449,0.3163265306122449,0.3163265306122449,0.3163265306122449,0.3163265306122449,0.3163265306122449,0.3231292517006803,0.35034013605442177,0.40476190476190477,0.47959183673469385,0.5612244897959183,0.6598639455782312,0.7244897959183674,0.7789115646258503,0.8197278911564626,0.8571428571428571,0.8843537414965986,0.9115646258503401,0.935374149659864,0.95578231292517,0.9727891156462585,0.9863945578231292,0.9965986394557823,1.0068027210884354,1.0136054421768708,1.0170068027210883,1.0204081632653061,1.0204081632653061,1.0238095238095237,1.0238095238095237,1.0272108843537415,1.034013605442177,1.0476190476190477,1.0680272108843538,1.0850340136054422,1.1122448979591837,1.1258503401360545,1.1360544217687074,1.1462585034013606,1.1496598639455782,1.153061224489796,1.1564625850340136,1.1598639455782314,1.1598639455782314,1.163265306122449,1.163265306122449,1.163265306122449,1.163265306122449,1.163265306122449,1.163265306122449,1.163265306122449,1.163265306122449,1.163265306122449,1.163265306122449,1.163265306122449,1.163265306122449,1.163265306122449,1.163265306122449,1.163265306122449,1.163265306122449,1.163265306122449,1.163265306122449,1.163265306122449,1.163265306122449,1.163265306122449,1.163265306122449,1.163265306122449,1.163265306122449,1.163265306122449,1.163265306122449,1.163265306122449,1.163265306122449,1.163265306122449,1.163265306122449,1.163265306122449,1.163265306122449,1.163265306122449,1.163265306122449,1.163265306122449,1.163265306122449,1.163265306122449,1.163265306122449,1.163265306122449,1.163265306122449,1.163265306122449,1.163265306122449,1.163265306122449,1.163265306122449,1.163265306122449,1.163265306122449,1.163265306122449,1.163265306122449,1.163265306122449,1.163265306122449,1.163265306122449,1.163265306122449,1.163265306122449,1.163265306122449,1.163265306122449,1.163265306122449,1.163265306122449,1.163265306122449,1.163265306122449,1.163265306122449,1.163265306122449,1.163265306122449,1.163265306122449,1.163265306122449,1.163265306122449,1.163265306122449,1.163265306122449,1.163265306122449,1.163265306122449,1.163265306122449,1.163265306122449,1.163265306122449,1.163265306122449,1.163265306122449,1.163265306122449,1.163265306122449,1.163265306122449,1.163265306122449,1.163265306122449,1.163265306122449,1.163265306122449,1.163265306122449,1.163265306122449,1.163265306122449,1.163265306122449,1.163265306122449,1.163265306122449,1.163265306122449,1.163265306122449,1.163265306122449,1.163265306122449,1.163265306122449,1.163265306122449,1.163265306122449,1.163265306122449,1.163265306122449,1.163265306122449,1.163265306122449,1.163265306122449,1.163265306122449,1.163265306122449,1.163265306122449,1.163265306122449,1.163265306122449,1.163265306122449,1.163265306122449,1.163265306122449,1.163265306122449,1.163265306122449,1.163265306122449,1.163265306122449,1.163265306122449,1.163265306122449,1.163265306122449,1.163265306122449,1.163265306122449,1.163265306122449,1.163265306122449,1.163265306122449,1.163265306122449,1.163265306122449,1.163265306122449,1.163265306122449,1.163265306122449,1.163265306122449,1.163265306122449,1.163265306122449,1.163265306122449,1.163265306122449,1.163265306122449,1.163265306122449,1.163265306122449,1.163265306122449,1.163265306122449,1.163265306122449,1.163265306122449,1.163265306122449,1.163265306122449,1.163265306122449,1.163265306122449,1.163265306122449,1.163265306122449,1.163265306122449,1.163265306122449,1.163265306122449,1.163265306122449,1.163265306122449,1.163265306122449,1.163265306122449,1.163265306122449,1.163265306122449,1.163265306122449,1.163265306122449,1.163265306122449,1.163265306122449,1.163265306122449,1.163265306122449,1.163265306122449,1.163265306122449,1.163265306122449,1.163265306122449,1.163265306122449,1.163265306122449,1.163265306122449,1.163265306122449,1.163265306122449,1.163265306122449,1.163265306122449,1.163265306122449,1.163265306122449,1.163265306122449,1.163265306122449,1.163265306122449,1.163265306122449,1.163265306122449,1.163265306122449,1.163265306122449,1.163265306122449,1.163265306122449,1.163265306122449,1.163265306122449,1.163265306122449,1.1598639455782314,1.1360544217687074,1.1054421768707483,1.0408163265306123,1,0.9523809523809523,0.9217687074829932,0.8945578231292517,0.8707482993197279,0.8537414965986394,0.8333333333333334,0.8129251700680272,0.7959183673469388,0.7687074829931972,0.7517006802721088,0.7278911564625851,0.717687074829932,0.7040816326530612,0.6972789115646258,0.6904761904761905,0.6802721088435374,0.673469387755102,0.6632653061224489,0.6530612244897959,0.6394557823129252,0.6258503401360545,0.608843537414966,0.5986394557823129,0.5850340136054422,0.5748299319727891,0.5714285714285714,0.5680272108843537,0.5680272108843537,0.564625850340136,0.564625850340136,0.564625850340136,0.564625850340136,0.564625850340136,0.564625850340136,0.564625850340136,0.564625850340136,0.564625850340136,0.564625850340136,0.564625850340136,0.564625850340136,0.564625850340136,0.564625850340136,0.564625850340136,0.564625850340136,0.564625850340136,0.564625850340136,0.564625850340136,0.564625850340136,0.564625850340136,0.564625850340136,0.564625850340136,0.564625850340136,0.564625850340136,0.564625850340136,0.564625850340136,0.564625850340136,0.564625850340136,0.564625850340136,0.564625850340136,0.564625850340136,0.564625850340136,0.564625850340136,0.564625850340136,0.564625850340136,0.564625850340136,0.564625850340136,0.564625850340136,0.564625850340136,0.564625850340136,0.564625850340136,0.564625850340136,0.564625850340136,0.564625850340136,0.564625850340136,0.564625850340136,0.564625850340136,0.564625850340136,0.564625850340136,0.564625850340136,0.564625850340136,0.564625850340136,0.564625850340136,0.564625850340136,0.564625850340136,0.564625850340136,0.564625850340136,0.564625850340136,0.564625850340136,0.564625850340136,0.564625850340136,0.564625850340136,0.564625850340136,0.564625850340136,0.564625850340136,0.564625850340136,0.564625850340136,0.564625850340136,0.564625850340136,0.564625850340136,0.564625850340136,0.564625850340136,0.564625850340136,0.564625850340136,0.564625850340136,0.564625850340136,0.564625850340136,0.564625850340136,0.564625850340136,0.564625850340136,0.564625850340136,0.564625850340136,0.564625850340136,0.564625850340136,0.564625850340136,0.564625850340136,0.564625850340136,0.564625850340136,0.564625850340136,0.564625850340136,0.564625850340136,0.564625850340136,0.564625850340136,0.564625850340136,0.564625850340136,0.564625850340136,0.564625850340136,0.564625850340136,0.564625850340136,0.564625850340136,0.564625850340136,0.564625850340136,0.564625850340136,0.564625850340136,0.564625850340136,0.564625850340136,0.564625850340136,0.564625850340136,0.564625850340136,0.564625850340136,0.564625850340136,0.564625850340136,0.564625850340136,0.564625850340136,0.564625850340136,0.564625850340136,0.564625850340136,0.564625850340136,0.564625850340136,0.564625850340136,0.564625850340136,0.564625850340136,0.564625850340136,0.564625850340136,0.564625850340136,0.564625850340136,0.564625850340136,0.564625850340136,0.564625850340136,0.564625850340136,0.564625850340136,0.564625850340136,0.564625850340136,0.564625850340136,0.564625850340136,0.564625850340136,0.564625850340136,0.564625850340136,0.564625850340136,0.564625850340136,0.564625850340136,0.564625850340136,0.564625850340136,0.564625850340136,0.564625850340136,0.564625850340136,0.564625850340136,0.564625850340136,0.564625850340136,0.564625850340136,0.564625850340136,0.564625850340136,0.564625850340136,0.564625850340136,0.564625850340136,0.564625850340136,0.564625850340136,0.564625850340136,0.564625850340136,0.564625850340136,0.564625850340136,0.564625850340136,0.564625850340136,0.564625850340136,0.564625850340136,0.564625850340136,0.564625850340136,0.564625850340136,0.564625850340136,0.564625850340136,0.564625850340136,0.564625850340136,0.564625850340136,0.564625850340136,0.564625850340136,0.564625850340136,0.564625850340136,0.564625850340136,0.564625850340136,0.564625850340136,0.564625850340136,0.564625850340136,0.564625850340136,0.564625850340136,0.564625850340136,0.564625850340136,0.564625850340136,0.564625850340136,0.564625850340136,0.564625850340136,0.564625850340136,0.564625850340136,0.564625850340136,0.564625850340136,0.564625850340136,0.564625850340136,0.564625850340136,0.564625850340136,0.564625850340136,0.564625850340136,0.564625850340136,0.564625850340136,0.564625850340136,0.564625850340136,0.564625850340136,0.564625850340136,0.564625850340136,0.564625850340136,0.564625850340136,0.564625850340136,0.564625850340136,0.5612244897959183,0.5612244897959183,0.5612244897959183,0.5612244897959183,0.564625850340136,0.564625850340136,0.5680272108843537,0.5680272108843537,0.5680272108843537,0.5680272108843537,0.5714285714285714,0.5714285714285714,0.5748299319727891,0.5748299319727891,0.5748299319727891,0.5748299319727891,0.5748299319727891,0.5748299319727891,0.5748299319727891,0.5748299319727891,0.5748299319727891,0.5748299319727891,0.5748299319727891,0.5748299319727891,0.5748299319727891,0.5748299319727891,0.5748299319727891,0.5748299319727891,0.5748299319727891,0.5748299319727891,0.5748299319727891,0.5748299319727891,0.5748299319727891,0.5748299319727891,0.5748299319727891,0.5748299319727891,0.5748299319727891,0.5748299319727891,0.5748299319727891,0.5748299319727891,0.5748299319727891,0.5748299319727891,0.5748299319727891,0.5748299319727891,0.5748299319727891,0.5748299319727891,0.5748299319727891,0.5748299319727891,0.5748299319727891,0.5748299319727891,0.5748299319727891,0.5748299319727891,0.5748299319727891,0.5748299319727891,0.5748299319727891,0.5748299319727891,0.5748299319727891,0.5748299319727891,0.5748299319727891,0.5748299319727891,0.5748299319727891,0.5748299319727891,0.5748299319727891,0.5748299319727891,0.5748299319727891,0.5748299319727891,0.5748299319727891,0.5748299319727891,0.5748299319727891,0.5510204081632653,0.5102040816326531,0.46938775510204084,0.4217687074829932,0.3333333333333333,0.282312925170068,0.24489795918367346,0.21428571428571427,0.19727891156462585,0.17687074829931973,0.16666666666666666,0.1564625850340136,0.15306122448979592,0.14965986394557823,0.14965986394557823,0.14965986394557823,0.14965986394557823,0.14625850340136054,0.14285714285714285,0.1360544217687075,0.1292517006802721,0.11564625850340136,0.10204081632653061,0.08843537414965986,0.07142857142857142,0.061224489795918366,0.05102040816326531,0.04421768707482993,0.03741496598639456,0.034013605442176874,0.027210884353741496,0.02040816326530612,0.017006802721088437,0.013605442176870748,0.01020408163265306,0.006802721088435374,0.006802721088435374,0.006802721088435374,0.006802721088435374,0.006802721088435374,0.006802721088435374,0.006802721088435374,0.006802721088435374,0.006802721088435374,0.006802721088435374,0.006802721088435374,0.006802721088435374,0.006802721088435374,0.006802721088435374,0.006802721088435374,0.006802721088435374,0.006802721088435374,0.006802721088435374,0.006802721088435374,0.006802721088435374,0.006802721088435374,0.006802721088435374,0.006802721088435374,0.006802721088435374,0.006802721088435374,0.006802721088435374,0.006802721088435374,0.006802721088435374,0.006802721088435374,0.006802721088435374,0.006802721088435374,0.006802721088435374,0.006802721088435374,0.006802721088435374,0.006802721088435374,0.006802721088435374,0.006802721088435374,0.006802721088435374,0.006802721088435374,0.006802721088435374,0.006802721088435374,0.006802721088435374,0.006802721088435374,0.006802721088435374,0.006802721088435374,0.006802721088435374,0.006802721088435374,0.006802721088435374,0.006802721088435374,0.006802721088435374,0.006802721088435374,0.006802721088435374,0.006802721088435374,0.006802721088435374,0.006802721088435374,0.006802721088435374,0.006802721088435374,0.006802721088435374,0.006802721088435374,0.006802721088435374,0.006802721088435374,0.006802721088435374,0.006802721088435374,0.006802721088435374,0.006802721088435374,0.006802721088435374,0.006802721088435374,0.006802721088435374,0.006802721088435374,0.006802721088435374,0.006802721088435374,0.006802721088435374,0.006802721088435374,0.006802721088435374,0.006802721088435374,0.006802721088435374,0.006802721088435374,0.006802721088435374,0.006802721088435374,0.006802721088435374,0.006802721088435374,0.006802721088435374,0.006802721088435374,0.006802721088435374,0.006802721088435374,0.006802721088435374,0.006802721088435374,0.006802721088435374,0.006802721088435374,0.006802721088435374,0.006802721088435374,0.006802721088435374,0.006802721088435374,0.006802721088435374,0.006802721088435374,0.006802721088435374,0.006802721088435374,0.006802721088435374,0.006802721088435374,0.006802721088435374,0.006802721088435374,0.006802721088435374,0.006802721088435374,0.006802721088435374,0.006802721088435374,0.006802721088435374,0.006802721088435374,0.006802721088435374,0.006802721088435374,0.006802721088435374,0.006802721088435374,0.006802721088435374,0.006802721088435374,0.006802721088435374,0.006802721088435374,0.006802721088435374,0.006802721088435374,0.006802721088435374,0.01020408163265306,0.030612244897959183,0.08503401360544217,0.1598639455782313,0.25170068027210885,0.3333333333333333,0.42857142857142855,0.5612244897959183,0.608843537414966,0.6462585034013606,0.673469387755102,0.6870748299319728,0.6938775510204082,0.7006802721088435,0.7040816326530612,0.7142857142857143,0.7346938775510204,0.7687074829931972,0.8095238095238095,0.8503401360544217,0.8809523809523809,0.8979591836734694,0.9047619047619048,0.9047619047619048,0.9081632653061225,0.9081632653061225,0.9081632653061225,0.9081632653061225,0.9081632653061225,0.9115646258503401,0.9183673469387755,0.9251700680272109,0.9319727891156463,0.935374149659864,0.935374149659864,0.935374149659864,0.935374149659864,0.935374149659864,0.935374149659864,0.935374149659864,0.935374149659864,0.935374149659864,0.9387755102040817,0.9387755102040817,0.9455782312925171,0.9489795918367347,0.95578231292517,0.9591836734693877,0.9659863945578231,0.9693877551020408,0.9761904761904762,0.9795918367346939,0.9795918367346939,0.9829931972789115,0.9863945578231292,0.9863945578231292,0.9863945578231292,0.9897959183673469,0.9897959183673469,0.9897959183673469,0.9897959183673469,0.9897959183673469,0.9897959183673469,0.9897959183673469,0.9897959183673469,0.9897959183673469,0.9897959183673469,0.9897959183673469,0.9897959183673469,0.9897959183673469,0.9897959183673469,0.9897959183673469,0.9897959183673469,0.9897959183673469,0.9897959183673469,0.9897959183673469,0.9897959183673469,0.9897959183673469,0.9897959183673469,0.9897959183673469,0.9897959183673469,0.9897959183673469,0.9897959183673469,0.9897959183673469,0.9897959183673469,0.9897959183673469,0.9897959183673469,0.9897959183673469,0.9897959183673469,0.9897959183673469,0.9897959183673469,0.9897959183673469,0.9897959183673469,0.9693877551020408,0.9081632653061225,0.8639455782312925,0.8197278911564626,0.7448979591836735,0.6870748299319728,0.6394557823129252,0.5986394557823129,0.5714285714285714,0.5374149659863946,0.5102040816326531,0.48299319727891155,0.46938775510204084,0.4557823129251701,0.43537414965986393,0.4217687074829932,0.40816326530612246,0.391156462585034,0.3741496598639456,0.3469387755102041,0.3197278911564626,0.2891156462585034,0.2619047619047619,0.23469387755102042,0.21768707482993196,0.19727891156462585,0.1870748299319728,0.17346938775510204,0.16666666666666666,0.16326530612244897,0.16326530612244897,0.1598639455782313,0.1564625850340136,0.1564625850340136,0.1564625850340136,0.1564625850340136,0.1564625850340136,0.15306122448979592,0.15306122448979592,0.15306122448979592,0.15306122448979592,0.15306122448979592,0.15306122448979592,0.15306122448979592,0.15306122448979592,0.15306122448979592,0.15306122448979592,0.15306122448979592,0.15306122448979592,0.15306122448979592,0.15306122448979592,0.15306122448979592,0.15306122448979592,0.15306122448979592,0.15306122448979592,0.15306122448979592,0.15306122448979592,0.15306122448979592,0.15306122448979592,0.15306122448979592,0.15306122448979592,0.15306122448979592,0.15306122448979592,0.15306122448979592,0.15306122448979592,0.15306122448979592,0.15306122448979592,0.15306122448979592,0.15306122448979592,0.15306122448979592,0.15306122448979592,0.15306122448979592,0.15306122448979592,0.15306122448979592,0.15306122448979592,0.15306122448979592,0.15306122448979592,0.15306122448979592,0.15306122448979592,0.15306122448979592,0.15306122448979592,0.15306122448979592,0.15306122448979592,0.15306122448979592,0.15306122448979592,0.15306122448979592,0.15306122448979592,0.15306122448979592,0.15306122448979592,0.15306122448979592,0.15306122448979592,0.15306122448979592,0.15306122448979592,0.15306122448979592,0.15306122448979592,0.15306122448979592,0.15306122448979592,0.15306122448979592,0.15306122448979592,0.15306122448979592,0.15306122448979592,0.15306122448979592,0.15306122448979592,0.15306122448979592,0.15306122448979592,0.15306122448979592,0.15306122448979592,0.15306122448979592,0.15306122448979592,0.15306122448979592,0.15306122448979592,0.15306122448979592,0.15306122448979592,0.15306122448979592,0.15306122448979592,0.15306122448979592,0.15306122448979592,0.15306122448979592,0.15306122448979592,0.15306122448979592,0.15306122448979592,0.15306122448979592,0.15306122448979592,0.15306122448979592,0.15306122448979592,0.15306122448979592,0.15306122448979592,0.15306122448979592,0.15306122448979592,0.15306122448979592,0.15306122448979592,0.15306122448979592,0.15306122448979592,0.15306122448979592,0.15306122448979592,0.15306122448979592,0.15306122448979592,0.15306122448979592,0.15306122448979592,0.15306122448979592,0.15306122448979592,0.15306122448979592,0.15306122448979592,0.15306122448979592,0.15306122448979592,0.15306122448979592,0.15306122448979592,0.15306122448979592,0.15306122448979592,0.15306122448979592,0.15306122448979592,0.15306122448979592,0.15306122448979592,0.15306122448979592,0.15306122448979592,0.15306122448979592,0.15306122448979592,0.15306122448979592,0.15306122448979592,0.15306122448979592,0.15306122448979592,0.15306122448979592,0.15306122448979592,0.15306122448979592,0.15306122448979592,0.15306122448979592],"y":[-3.0476190476190474,-3.0476190476190474,-3.0476190476190474,-3.0476190476190474,-3.0476190476190474,-3.0476190476190474,-3.0476190476190474,-3.0476190476190474,-3.0476190476190474,-3.0476190476190474,-3.0476190476190474,-3.0476190476190474,-3.0476190476190474,-3.0476190476190474,-3.0476190476190474,-3.0476190476190474,-3.0476190476190474,-3.0476190476190474,-3.0476190476190474,-3.0476190476190474,-3.0476190476190474,-3.0476190476190474,-3.0476190476190474,-3.0476190476190474,-3.0476190476190474,-3.0476190476190474,-3.0476190476190474,-3.0476190476190474,-3.0476190476190474,-3.0476190476190474,-3.0476190476190474,-3.0476190476190474,-3.0476190476190474,-3.0476190476190474,-3.0476190476190474,-3.0476190476190474,-3.0476190476190474,-3.0476190476190474,-3.0476190476190474,-3.0476190476190474,-3.0476190476190474,-3.0476190476190474,-3.0476190476190474,-3.0476190476190474,-3.0476190476190474,-3.0476190476190474,-3.0476190476190474,-3.0476190476190474,-3.0476190476190474,-3.0476190476190474,-3.0476190476190474,-3.0476190476190474,-3.0476190476190474,-3.0476190476190474,-3.0476190476190474,-3.0476190476190474,-3.0476190476190474,-3.0476190476190474,-3.0476190476190474,-3.0476190476190474,-3.0476190476190474,-3.0476190476190474,-3.0476190476190474,-3.0476190476190474,-3.0476190476190474,-3.0476190476190474,-3.0476190476190474,-3.0476190476190474,-3.0476190476190474,-3.0476190476190474,-3.0476190476190474,-3.0476190476190474,-3.0476190476190474,-3.0476190476190474,-3.0476190476190474,-3.0476190476190474,-3.0476190476190474,-3.0476190476190474,0.7380952380952381,0.7,0.6714285714285714,0.6428571428571429,0.5952380952380952,0.5571428571428572,0.5285714285714286,0.5285714285714286,0.6142857142857143,0.7952380952380952,0.9476190476190476,1.119047619047619,1.1476190476190475,1.1476190476190475,1.1476190476190475,1.1476190476190475,1.1476190476190475,1.1476190476190475,1.1476190476190475,1.1476190476190475,1.1476190476190475,1.1476190476190475,1.1476190476190475,1.1476190476190475,1.1476190476190475,1.1476190476190475,1.1476190476190475,1.1476190476190475,1.1476190476190475,1.1476190476190475,1.1476190476190475,1.1476190476190475,1.1476190476190475,1.1476190476190475,1.1476190476190475,1.1476190476190475,1.1476190476190475,1.1476190476190475,1.1476190476190475,1.1476190476190475,1.1476190476190475,1.1476190476190475,1.119047619047619,1.061904761904762,0.9857142857142858,0.9095238095238095,0.8142857142857143,0.719047619047619,0.6238095238095238,0.5190476190476191,0.46190476190476193,0.4142857142857143,0.36666666666666664,0.35714285714285715,0.3476190476190476,0.3380952380952381,0.319047619047619,0.30952380952380953,0.3,0.2904761904761905,0.28095238095238095,0.2619047619047619,0.24285714285714285,0.21428571428571427,0.1761904761904762,0.12857142857142856,0.09047619047619047,0.07142857142857142,0.05238095238095238,0.04285714285714286,0.03333333333333333,0.023809523809523808,0.023809523809523808,0.014285714285714285,0.004761904761904762,-0.004761904761904762,-0.023809523809523808,-0.023809523809523808,-0.023809523809523808,-0.023809523809523808,-0.023809523809523808,-0.023809523809523808,-0.023809523809523808,-0.023809523809523808,-0.023809523809523808,-0.023809523809523808,-0.023809523809523808,-0.023809523809523808,-0.023809523809523808,-0.023809523809523808,-0.023809523809523808,-0.023809523809523808,-0.023809523809523808,-0.023809523809523808,-0.023809523809523808,-0.023809523809523808,-0.023809523809523808,-0.023809523809523808,-0.023809523809523808,-0.023809523809523808,-0.023809523809523808,-0.023809523809523808,-0.023809523809523808,-0.023809523809523808,-0.023809523809523808,-0.023809523809523808,-0.023809523809523808,-0.023809523809523808,-0.023809523809523808,-0.023809523809523808,-0.023809523809523808,-0.023809523809523808,-0.023809523809523808,-0.023809523809523808,-0.023809523809523808,-0.023809523809523808,-0.023809523809523808,-0.023809523809523808,-0.023809523809523808,-0.023809523809523808,-0.023809523809523808,-0.023809523809523808,-0.023809523809523808,-0.023809523809523808,-0.023809523809523808,-0.023809523809523808,-0.023809523809523808,-0.023809523809523808,-0.023809523809523808,-0.023809523809523808,-0.023809523809523808,-0.023809523809523808,-0.023809523809523808,-0.023809523809523808,-0.023809523809523808,-0.023809523809523808,-0.023809523809523808,-0.023809523809523808,-0.023809523809523808,-0.023809523809523808,-0.023809523809523808,-0.023809523809523808,-0.023809523809523808,-0.023809523809523808,-0.023809523809523808,-0.023809523809523808,-0.023809523809523808,-0.023809523809523808,-0.023809523809523808,-0.023809523809523808,-0.023809523809523808,-0.023809523809523808,-0.023809523809523808,-0.023809523809523808,-0.023809523809523808,-0.023809523809523808,-0.023809523809523808,-0.023809523809523808,-0.023809523809523808,-0.023809523809523808,-0.023809523809523808,-0.023809523809523808,-0.023809523809523808,-0.023809523809523808,-0.023809523809523808,-0.023809523809523808,-0.023809523809523808,-0.023809523809523808,-0.023809523809523808,-0.023809523809523808,-0.023809523809523808,-0.023809523809523808,-0.023809523809523808,-0.023809523809523808,-0.023809523809523808,-0.023809523809523808,-0.023809523809523808,-0.023809523809523808,-0.023809523809523808,-0.023809523809523808,-0.023809523809523808,-0.023809523809523808,-0.023809523809523808,-0.023809523809523808,-0.023809523809523808,-0.023809523809523808,-0.023809523809523808,-0.023809523809523808,-0.023809523809523808,-0.023809523809523808,-0.023809523809523808,-0.023809523809523808,-0.023809523809523808,-0.023809523809523808,-0.023809523809523808,-0.023809523809523808,-0.023809523809523808,-0.023809523809523808,-0.023809523809523808,-0.023809523809523808,-0.023809523809523808,-0.023809523809523808,-0.023809523809523808,-0.023809523809523808,-0.023809523809523808,-0.023809523809523808,-0.023809523809523808,-0.023809523809523808,-0.023809523809523808,-0.023809523809523808,-0.023809523809523808,-0.023809523809523808,-0.023809523809523808,-0.023809523809523808,-0.023809523809523808,-0.023809523809523808,-0.023809523809523808,-0.023809523809523808,-0.023809523809523808,-0.023809523809523808,-0.023809523809523808,-0.023809523809523808,-0.023809523809523808,-0.023809523809523808,-0.023809523809523808,-0.023809523809523808,-0.023809523809523808,-0.023809523809523808,-0.023809523809523808,-0.023809523809523808,-0.023809523809523808,-0.023809523809523808,-0.023809523809523808,-0.023809523809523808,-0.023809523809523808,-0.023809523809523808,-0.023809523809523808,-0.023809523809523808,-0.023809523809523808,-0.023809523809523808,-0.023809523809523808,-0.023809523809523808,-0.023809523809523808,-0.023809523809523808,-0.023809523809523808,-0.023809523809523808,-0.023809523809523808,-0.023809523809523808,-0.023809523809523808,-0.023809523809523808,-0.023809523809523808,-0.023809523809523808,-0.023809523809523808,-0.023809523809523808,-0.023809523809523808,-0.023809523809523808,-0.023809523809523808,-0.023809523809523808,-0.023809523809523808,-0.023809523809523808,-0.023809523809523808,-0.023809523809523808,-0.023809523809523808,-0.023809523809523808,-0.023809523809523808,-0.023809523809523808,-0.023809523809523808,-0.023809523809523808,-0.023809523809523808,-0.023809523809523808,-0.023809523809523808,-0.023809523809523808,-0.023809523809523808,-0.023809523809523808,-0.023809523809523808,-0.023809523809523808,-0.023809523809523808,-0.023809523809523808,-0.023809523809523808,-0.023809523809523808,-0.023809523809523808,-0.023809523809523808,-0.023809523809523808,-0.023809523809523808,-0.023809523809523808,-0.023809523809523808,-0.023809523809523808,-0.023809523809523808,-0.023809523809523808,-0.023809523809523808,-0.023809523809523808,-0.023809523809523808,-0.023809523809523808,-0.023809523809523808,-0.023809523809523808,-0.023809523809523808,-0.023809523809523808,-0.023809523809523808,-0.023809523809523808,-0.023809523809523808,-0.023809523809523808,-0.023809523809523808,-0.023809523809523808,-0.023809523809523808,-0.023809523809523808,-0.023809523809523808,-0.023809523809523808,-0.023809523809523808,-0.023809523809523808,-0.023809523809523808,-0.023809523809523808,-0.023809523809523808,-0.023809523809523808,-0.023809523809523808,-0.023809523809523808,-0.023809523809523808,-0.023809523809523808,-0.023809523809523808,-0.023809523809523808,-0.023809523809523808,-0.023809523809523808,-0.023809523809523808,-0.023809523809523808,-0.023809523809523808,-0.023809523809523808,-0.023809523809523808,-0.023809523809523808,-0.023809523809523808,-0.023809523809523808,-0.023809523809523808,-0.023809523809523808,-0.023809523809523808,-0.023809523809523808,-0.023809523809523808,-0.023809523809523808,-0.023809523809523808,-0.023809523809523808,-0.023809523809523808,-0.023809523809523808,-0.023809523809523808,-0.023809523809523808,-0.023809523809523808,-0.023809523809523808,-0.023809523809523808,-0.023809523809523808,-0.023809523809523808,-0.023809523809523808,-0.023809523809523808,-0.023809523809523808,-0.023809523809523808,-0.023809523809523808,-0.023809523809523808,-0.023809523809523808,-0.023809523809523808,-0.023809523809523808,-0.023809523809523808,-0.023809523809523808,-0.023809523809523808,-0.023809523809523808,-0.023809523809523808,-0.023809523809523808,-0.023809523809523808,-0.023809523809523808,-0.023809523809523808,-0.023809523809523808,-0.023809523809523808,-0.023809523809523808,-0.023809523809523808,-0.023809523809523808,-0.023809523809523808,-0.023809523809523808,-0.023809523809523808,-0.023809523809523808,-0.023809523809523808,-0.023809523809523808,-0.023809523809523808,-0.023809523809523808,0.004761904761904762,0.08095238095238096,0.14761904761904762,0.22380952380952382,0.2714285714285714,0.3,0.3380952380952381,0.35714285714285715,0.3761904761904762,0.3761904761904762,0.38571428571428573,0.38571428571428573,0.38571428571428573,0.38571428571428573,0.38571428571428573,0.38571428571428573,0.38571428571428573,0.38571428571428573,0.38571428571428573,0.38571428571428573,0.38571428571428573,0.38571428571428573,0.38571428571428573,0.38571428571428573,0.38571428571428573,0.38571428571428573,0.38571428571428573,0.38571428571428573,0.38571428571428573,0.38571428571428573,0.38571428571428573,0.38571428571428573,0.38571428571428573,0.38571428571428573,0.38571428571428573,0.38571428571428573,0.38571428571428573,0.38571428571428573,0.38571428571428573,0.38571428571428573,0.38571428571428573,0.38571428571428573,0.38571428571428573,0.38571428571428573,0.38571428571428573,0.38571428571428573,0.38571428571428573,0.38571428571428573,0.38571428571428573,0.38571428571428573,0.38571428571428573,0.38571428571428573,0.38571428571428573,0.38571428571428573,0.38571428571428573,0.38571428571428573,0.38571428571428573,0.38571428571428573,0.38571428571428573,0.38571428571428573,0.38571428571428573,0.38571428571428573,0.38571428571428573,0.38571428571428573,0.38571428571428573,0.38571428571428573,0.38571428571428573,0.38571428571428573,0.38571428571428573,0.38571428571428573,0.38571428571428573,0.38571428571428573,0.38571428571428573,0.38571428571428573,0.38571428571428573,0.38571428571428573,0.38571428571428573,0.38571428571428573,0.38571428571428573,0.38571428571428573,0.38571428571428573,0.38571428571428573,0.38571428571428573,0.38571428571428573,0.38571428571428573,0.38571428571428573,0.38571428571428573,0.38571428571428573,0.38571428571428573,0.38571428571428573,0.38571428571428573,0.38571428571428573,0.38571428571428573,0.38571428571428573,0.38571428571428573,0.38571428571428573,0.38571428571428573,0.38571428571428573,0.38571428571428573,0.38571428571428573,0.38571428571428573,0.38571428571428573,0.38571428571428573,0.38571428571428573,0.38571428571428573,0.38571428571428573,0.38571428571428573,0.38571428571428573,0.38571428571428573,0.38571428571428573,0.38571428571428573,0.38571428571428573,0.38571428571428573,0.38571428571428573,0.38571428571428573,0.38571428571428573,0.38571428571428573,0.38571428571428573,0.38571428571428573,0.38571428571428573,0.38571428571428573,0.38571428571428573,0.38571428571428573,0.38571428571428573,0.38571428571428573,0.38571428571428573,0.40476190476190477,0.4523809523809524,0.5095238095238095,0.5285714285714286,0.5476190476190477,0.5666666666666667,0.5761904761904761,0.5857142857142857,0.5952380952380952,0.5952380952380952,0.6047619047619047,0.6142857142857143,0.6142857142857143,0.6142857142857143,0.6142857142857143,0.6142857142857143,0.6142857142857143,0.6142857142857143,0.6142857142857143,0.6047619047619047,0.6047619047619047,0.6047619047619047,0.5952380952380952,0.5952380952380952,0.5857142857142857,0.5761904761904761,0.5666666666666667,0.5571428571428572,0.5571428571428572,0.5476190476190477,0.5380952380952381,0.5380952380952381,0.5285714285714286,0.5285714285714286,0.5190476190476191,0.5190476190476191,0.5190476190476191,0.5190476190476191,0.5190476190476191,0.5190476190476191,0.5190476190476191,0.5190476190476191,0.5190476190476191,0.5190476190476191,0.5190476190476191,0.5190476190476191,0.5190476190476191,0.5190476190476191,0.5190476190476191,0.5190476190476191,0.5190476190476191,0.5190476190476191,0.5190476190476191,0.5190476190476191,0.5190476190476191,0.5190476190476191,0.5190476190476191,0.5190476190476191,0.5190476190476191,0.5190476190476191,0.5190476190476191,0.5190476190476191,0.5190476190476191,0.5190476190476191,0.5190476190476191,0.5190476190476191,0.5190476190476191,0.5190476190476191,0.5190476190476191,0.5190476190476191,0.5190476190476191,0.5190476190476191,0.5190476190476191,0.5190476190476191,0.5190476190476191,0.5190476190476191,0.5190476190476191,0.5190476190476191,0.5190476190476191,0.5190476190476191,0.5190476190476191,0.5190476190476191,0.5190476190476191,0.5190476190476191,0.5190476190476191,0.5190476190476191,0.5190476190476191,0.5190476190476191,0.5190476190476191,0.5190476190476191,0.5190476190476191,0.5190476190476191,0.5190476190476191,0.5190476190476191,0.5190476190476191,0.5190476190476191,0.5190476190476191,0.5190476190476191,0.5190476190476191,0.5190476190476191,0.5190476190476191,0.5190476190476191,0.5190476190476191,0.5190476190476191,0.5190476190476191,0.5190476190476191,0.5190476190476191,0.5190476190476191,0.5190476190476191,0.5190476190476191,0.5190476190476191,0.5190476190476191,0.5190476190476191,0.5190476190476191,0.5190476190476191,0.5190476190476191,0.5190476190476191,0.5190476190476191,0.5190476190476191,0.5190476190476191,0.5190476190476191,0.5190476190476191,0.5190476190476191,0.5190476190476191,0.5190476190476191,0.5190476190476191,0.5190476190476191,0.5190476190476191,0.5190476190476191,0.5190476190476191,0.5190476190476191,0.5190476190476191,0.5190476190476191,0.5190476190476191,0.5190476190476191,0.5190476190476191,0.5190476190476191,0.5190476190476191,0.5190476190476191,0.5190476190476191,0.5190476190476191,0.5190476190476191,0.5190476190476191,0.5190476190476191,0.5190476190476191,0.5190476190476191,0.5190476190476191,0.5190476190476191,0.5190476190476191,0.5190476190476191,0.5190476190476191,0.5190476190476191,0.5190476190476191,0.5190476190476191,0.5190476190476191,0.5190476190476191,0.5190476190476191,0.5190476190476191,0.5190476190476191,0.5190476190476191,0.5190476190476191,0.5190476190476191,0.5190476190476191,0.5190476190476191,0.5190476190476191,0.5190476190476191,0.5190476190476191,0.5190476190476191,0.5190476190476191,0.5190476190476191,0.5190476190476191,0.5190476190476191,0.5190476190476191,0.5190476190476191,0.5190476190476191,0.5190476190476191,0.5190476190476191,0.5190476190476191,0.5190476190476191,0.5190476190476191,0.5190476190476191,0.5190476190476191,0.5190476190476191,0.5190476190476191,0.5190476190476191,0.5190476190476191,0.5190476190476191,0.5190476190476191,0.5190476190476191,0.5190476190476191,0.5190476190476191,0.5190476190476191,0.5190476190476191,0.5190476190476191,0.5190476190476191,0.5190476190476191,0.5190476190476191,0.5190476190476191,0.5190476190476191,0.5190476190476191,0.5190476190476191,0.5190476190476191,0.5190476190476191,0.5190476190476191,0.5190476190476191,0.5190476190476191,0.5190476190476191,0.5190476190476191,0.5190476190476191,0.5190476190476191,0.5190476190476191,0.5190476190476191,0.5190476190476191,0.5190476190476191,0.5190476190476191,0.5190476190476191,0.5190476190476191,0.5190476190476191,0.5095238095238095,0.48095238095238096,0.43333333333333335,0.3952380952380952,0.3476190476190476,0.319047619047619,0.2714285714285714,0.23333333333333334,0.19523809523809524,0.15714285714285714,0.11904761904761904,0.09047619047619047,0.07142857142857142,0.06190476190476191,0.06190476190476191,0.06190476190476191,0.06190476190476191,0.06190476190476191,0.06190476190476191,0.06190476190476191,0.06190476190476191,0.06190476190476191,0.07142857142857142,0.09047619047619047,0.09047619047619047,0.09047619047619047,0.09047619047619047,0.06190476190476191,0.03333333333333333,0.014285714285714285,0.004761904761904762,-0.004761904761904762,-0.014285714285714285,-0.014285714285714285,-0.014285714285714285,-0.014285714285714285,-0.014285714285714285,-0.014285714285714285,-0.014285714285714285,-0.014285714285714285,-0.014285714285714285,-0.014285714285714285,-0.014285714285714285,-0.014285714285714285,-0.014285714285714285,-0.014285714285714285,-0.014285714285714285,-0.014285714285714285,-0.014285714285714285,-0.014285714285714285,-0.014285714285714285,-0.014285714285714285,-0.014285714285714285,-0.014285714285714285,-0.014285714285714285,-0.014285714285714285,-0.014285714285714285,-0.014285714285714285,-0.014285714285714285,-0.014285714285714285,-0.014285714285714285,-0.014285714285714285,-0.014285714285714285,-0.014285714285714285,-0.014285714285714285,-0.014285714285714285,-0.014285714285714285,-0.014285714285714285,-0.014285714285714285,-0.014285714285714285,-0.014285714285714285,-0.014285714285714285,-0.014285714285714285,-0.014285714285714285,-0.014285714285714285,-0.014285714285714285,-0.014285714285714285,-0.014285714285714285,-0.014285714285714285,-0.014285714285714285,-0.014285714285714285,-0.014285714285714285,-0.014285714285714285,-0.014285714285714285,-0.014285714285714285,-0.014285714285714285,-0.014285714285714285,-0.014285714285714285,-0.014285714285714285,-0.014285714285714285,-0.014285714285714285,-0.014285714285714285,-0.014285714285714285,-0.014285714285714285,-0.014285714285714285,-0.014285714285714285,-0.014285714285714285,-0.014285714285714285,-0.014285714285714285,-0.014285714285714285,-0.014285714285714285,-0.014285714285714285,-0.014285714285714285,-0.014285714285714285,-0.014285714285714285,-0.014285714285714285,-0.014285714285714285,-0.014285714285714285,-0.014285714285714285,-0.014285714285714285,-0.014285714285714285,-0.014285714285714285,-0.014285714285714285,-0.014285714285714285,-0.014285714285714285,-0.014285714285714285,-0.014285714285714285,-0.014285714285714285,-0.014285714285714285,-0.014285714285714285,-0.014285714285714285,-0.014285714285714285,-0.014285714285714285,-0.014285714285714285,-0.014285714285714285,-0.014285714285714285,-0.014285714285714285,-0.014285714285714285,-0.014285714285714285,-0.014285714285714285,-0.014285714285714285,-0.014285714285714285,-0.014285714285714285,-0.014285714285714285,-0.014285714285714285,-0.014285714285714285,-0.014285714285714285,-0.014285714285714285,-0.014285714285714285,-0.014285714285714285,-0.014285714285714285,-0.014285714285714285,-0.014285714285714285,-0.014285714285714285,-0.014285714285714285,-0.014285714285714285,-0.014285714285714285,-0.014285714285714285,-0.014285714285714285,-0.014285714285714285,-0.014285714285714285,-0.014285714285714285,-0.014285714285714285,-0.014285714285714285,-0.014285714285714285,-0.014285714285714285,-0.014285714285714285,-0.014285714285714285,-0.014285714285714285,-0.014285714285714285,-0.014285714285714285,-0.014285714285714285,-0.014285714285714285,-0.014285714285714285,-0.014285714285714285,-0.014285714285714285,-0.014285714285714285,-0.014285714285714285,-0.014285714285714285,-0.014285714285714285,-0.014285714285714285,-0.014285714285714285,-0.014285714285714285,-0.014285714285714285,-0.014285714285714285,-0.014285714285714285,-0.014285714285714285,-0.014285714285714285,-0.014285714285714285,-0.014285714285714285,-0.014285714285714285,-0.014285714285714285,-0.014285714285714285,-0.014285714285714285,-0.014285714285714285,-0.014285714285714285,-0.014285714285714285,-0.014285714285714285,-0.014285714285714285,-0.014285714285714285,-0.014285714285714285,-0.014285714285714285,-0.014285714285714285,-0.014285714285714285,-0.014285714285714285,-0.014285714285714285,-0.014285714285714285,-0.014285714285714285,-0.014285714285714285,-0.014285714285714285,-0.014285714285714285,-0.014285714285714285,-0.014285714285714285,-0.014285714285714285,-0.014285714285714285,-0.014285714285714285,-0.014285714285714285,-0.014285714285714285,-0.014285714285714285,-0.014285714285714285,-0.014285714285714285,-0.014285714285714285,-0.014285714285714285,-0.014285714285714285,-0.014285714285714285,-0.014285714285714285,-0.014285714285714285,-0.014285714285714285,-0.014285714285714285,-0.014285714285714285,-0.014285714285714285,-0.014285714285714285,-0.014285714285714285,-0.014285714285714285,-0.014285714285714285,-0.014285714285714285,-0.014285714285714285,-0.014285714285714285,-0.014285714285714285,-0.014285714285714285,-0.014285714285714285,-0.014285714285714285,-0.014285714285714285,-0.014285714285714285,-0.014285714285714285,-0.014285714285714285,-0.014285714285714285,-0.014285714285714285,-0.014285714285714285,-0.014285714285714285,-0.014285714285714285,-0.014285714285714285,0.014285714285714285,0.08095238095238096,0.1761904761904762,0.2714285714285714,0.319047619047619,0.36666666666666664,0.38571428571428573,0.3952380952380952,0.40476190476190477,0.40476190476190477,0.40476190476190477,0.4142857142857143,0.4142857142857143,0.4238095238095238,0.4238095238095238,0.4238095238095238,0.4238095238095238,0.4238095238095238,0.4238095238095238,0.4238095238095238,0.4238095238095238,0.4238095238095238,0.4238095238095238,0.4238095238095238,0.4238095238095238,0.4238095238095238,0.4238095238095238,0.4238095238095238,0.4238095238095238,0.4238095238095238,0.4238095238095238,0.4238095238095238,0.4238095238095238,0.4238095238095238,0.4238095238095238,0.4238095238095238,0.4238095238095238,0.4238095238095238,0.4238095238095238,0.4238095238095238,0.4238095238095238,0.4238095238095238,0.4238095238095238,0.4238095238095238,0.4238095238095238,0.4238095238095238,0.4238095238095238,0.4238095238095238,0.4238095238095238,0.4238095238095238,0.4238095238095238,0.4238095238095238,0.4238095238095238,0.4238095238095238,0.4238095238095238,0.4238095238095238,0.4238095238095238,0.4238095238095238,0.4238095238095238,0.4238095238095238,0.4238095238095238,0.4238095238095238,0.4238095238095238,0.4238095238095238,0.4238095238095238,0.4238095238095238,0.4238095238095238,0.4238095238095238,0.4238095238095238,0.4238095238095238,0.4238095238095238,0.4142857142857143,0.3761904761904762,0.3380952380952381,0.3,0.2523809523809524,0.22380952380952382,0.19523809523809524,0.1761904761904762,0.15714285714285714,0.1380952380952381,0.12857142857142856,0.11904761904761904,0.10952380952380952,0.10952380952380952,0.10952380952380952,0.10952380952380952,0.10952380952380952,0.1,0.1,0.1,0.1,0.1,0.1,0.1,0.10952380952380952,0.10952380952380952,0.10952380952380952,0.1,0.08095238095238096,0.07142857142857142,0.05238095238095238,0.04285714285714286,0.04285714285714286,0.03333333333333333,0.03333333333333333,0.023809523809523808,0.014285714285714285,0.014285714285714285,0.014285714285714285,0.014285714285714285,0.014285714285714285,0.014285714285714285,0.014285714285714285,0.014285714285714285,0.014285714285714285,0.014285714285714285,0.014285714285714285,0.014285714285714285,0.014285714285714285,0.014285714285714285,0.014285714285714285,0.014285714285714285,0.014285714285714285,0.014285714285714285,0.014285714285714285,0.014285714285714285,0.014285714285714285,0.014285714285714285,0.014285714285714285,0.014285714285714285,0.014285714285714285,0.014285714285714285,0.014285714285714285,0.014285714285714285,0.014285714285714285,0.014285714285714285,0.014285714285714285,0.014285714285714285,0.014285714285714285,0.014285714285714285,0.014285714285714285,0.014285714285714285,0.014285714285714285,0.014285714285714285,0.014285714285714285,0.014285714285714285,0.014285714285714285,0.014285714285714285,0.014285714285714285,0.014285714285714285,0.014285714285714285,0.014285714285714285,0.014285714285714285,0.014285714285714285,0.014285714285714285,0.014285714285714285,0.014285714285714285,0.014285714285714285,0.014285714285714285,0.014285714285714285,0.014285714285714285,0.014285714285714285,0.014285714285714285,0.014285714285714285,0.014285714285714285,0.014285714285714285,0.014285714285714285,0.014285714285714285,0.014285714285714285,0.014285714285714285,0.014285714285714285,0.014285714285714285,0.014285714285714285,0.014285714285714285,0.014285714285714285,0.014285714285714285,0.014285714285714285,0.014285714285714285,0.014285714285714285,0.014285714285714285,0.014285714285714285,0.014285714285714285,0.014285714285714285,0.014285714285714285,0.014285714285714285,0.014285714285714285,0.014285714285714285,0.014285714285714285,0.014285714285714285,0.014285714285714285,0.014285714285714285,0.014285714285714285,0.014285714285714285,0.014285714285714285,0.014285714285714285,0.014285714285714285,0.014285714285714285,0.014285714285714285,0.014285714285714285,0.014285714285714285,0.014285714285714285,0.014285714285714285,0.014285714285714285,0.014285714285714285,0.014285714285714285,0.014285714285714285,0.014285714285714285,0.014285714285714285,0.014285714285714285,0.014285714285714285,0.014285714285714285,0.014285714285714285,0.014285714285714285,0.014285714285714285,0.014285714285714285,0.014285714285714285,0.014285714285714285,0.014285714285714285,0.014285714285714285,0.014285714285714285,0.014285714285714285,0.014285714285714285,0.014285714285714285,0.04285714285714286,0.1,0.24285714285714285,0.3761904761904762,0.5190476190476191,0.6238095238095238,0.7476190476190476,0.8904761904761904,0.9571428571428572,0.9952380952380953,1.0238095238095237,1.0523809523809524,1.061904761904762,1.0714285714285714,1.0714285714285714,1.0809523809523809,1.0904761904761904,1.1,1.1,1.1,1.0809523809523809,1.0714285714285714,1.0523809523809524,1.0523809523809524,1.042857142857143,1.042857142857143,1.042857142857143,1.042857142857143,1.042857142857143,1.042857142857143,1.042857142857143,1.0523809523809524,1.0523809523809524,1.061904761904762,1.061904761904762,1.061904761904762,1.061904761904762,1.061904761904762,1.061904761904762,1.061904761904762,1.061904761904762,1.061904761904762,1.061904761904762,1.061904761904762,1.0523809523809524,1.0523809523809524,1.0523809523809524,1.0523809523809524,1.0523809523809524,1.0523809523809524,1.0523809523809524,1.0523809523809524,1.0523809523809524,1.0523809523809524,1.0523809523809524,1.0523809523809524,1.0523809523809524,1.0523809523809524,1.0523809523809524,1.0523809523809524,1.0523809523809524,1.0523809523809524,1.0523809523809524,1.0523809523809524,1.0523809523809524,1.0523809523809524,1.0523809523809524,1.0523809523809524,1.0523809523809524,1.0523809523809524,1.0523809523809524,1.0523809523809524,1.0523809523809524,1.0523809523809524,1.0523809523809524,1.0523809523809524,1.0523809523809524,1.0523809523809524,1.0523809523809524,1.0523809523809524,1.0523809523809524,1.0523809523809524,1.0523809523809524,1.0523809523809524,1.0523809523809524,1.0523809523809524,1.0523809523809524,1.0523809523809524,1.0523809523809524,1.0523809523809524,1.0523809523809524,1.0523809523809524,1.0523809523809524,1.0523809523809524,1.0047619047619047,0.9571428571428572,0.9095238095238095,0.7952380952380952,0.680952380952381,0.5571428571428572,0.46190476190476193,0.3952380952380952,0.3380952380952381,0.2904761904761905,0.2523809523809524,0.24285714285714285,0.22380952380952382,0.18571428571428572,0.16666666666666666,0.14761904761904762,0.12857142857142856,0.1,0.08095238095238096,0.06190476190476191,0.06190476190476191,0.06190476190476191,0.06190476190476191,0.06190476190476191,0.07142857142857142,0.07142857142857142,0.06190476190476191,0.04285714285714286,0.03333333333333333,0.023809523809523808,0.014285714285714285,0.004761904761904762,0.004761904761904762,0.004761904761904762,0.004761904761904762,-0.004761904761904762,-0.004761904761904762,-0.004761904761904762,-0.004761904761904762,-0.004761904761904762,-0.004761904761904762,-0.004761904761904762,-0.004761904761904762,-0.004761904761904762,-0.004761904761904762,-0.004761904761904762,-0.004761904761904762,-0.004761904761904762,-0.004761904761904762,-0.004761904761904762,-0.004761904761904762,-0.004761904761904762,-0.004761904761904762,-0.004761904761904762,-0.004761904761904762,-0.004761904761904762,-0.004761904761904762,-0.004761904761904762,-0.004761904761904762,-0.004761904761904762,-0.004761904761904762,-0.004761904761904762,-0.004761904761904762,-0.004761904761904762,-0.004761904761904762,-0.004761904761904762,-0.004761904761904762,-0.004761904761904762,-0.004761904761904762,-0.004761904761904762,-0.004761904761904762,-0.004761904761904762,-0.004761904761904762,-0.004761904761904762,-0.004761904761904762,-0.004761904761904762,-0.004761904761904762,-0.004761904761904762,-0.004761904761904762,-0.004761904761904762,-0.004761904761904762,-0.004761904761904762,-0.004761904761904762,-0.004761904761904762,-0.004761904761904762,-0.004761904761904762,-0.004761904761904762,-0.004761904761904762,-0.004761904761904762,-0.004761904761904762,-0.004761904761904762,-0.004761904761904762,-0.004761904761904762,-0.004761904761904762,-0.004761904761904762,-0.004761904761904762,-0.004761904761904762,-0.004761904761904762,-0.004761904761904762,-0.004761904761904762,-0.004761904761904762,-0.004761904761904762,-0.004761904761904762,-0.004761904761904762,-0.004761904761904762,-0.004761904761904762,-0.004761904761904762,-0.004761904761904762,-0.004761904761904762,-0.004761904761904762,-0.004761904761904762,-0.004761904761904762,-0.004761904761904762,-0.004761904761904762,-0.004761904761904762,-0.004761904761904762,-0.004761904761904762,-0.004761904761904762,-0.004761904761904762,-0.004761904761904762,-0.004761904761904762,-0.004761904761904762,-0.004761904761904762,-0.004761904761904762,-0.004761904761904762,-0.004761904761904762,-0.004761904761904762,-0.004761904761904762,-0.004761904761904762,-0.004761904761904762,-0.004761904761904762,-0.004761904761904762,-0.004761904761904762,-0.004761904761904762,-0.004761904761904762,-0.004761904761904762,-0.004761904761904762,-0.004761904761904762,-0.004761904761904762,-0.004761904761904762,-0.004761904761904762,-0.004761904761904762,-0.004761904761904762,-0.004761904761904762,-0.004761904761904762,-0.004761904761904762,-0.004761904761904762,-0.004761904761904762,-0.004761904761904762,-0.004761904761904762,-0.004761904761904762,-0.004761904761904762,-0.004761904761904762,-0.004761904761904762,-0.004761904761904762,-0.004761904761904762,-0.004761904761904762,-0.004761904761904762,-0.004761904761904762,-0.004761904761904762,-0.004761904761904762,-0.004761904761904762,-0.004761904761904762,-0.004761904761904762,-0.004761904761904762]},"final_keyboard_state":["D","L","R","E","N","A","Z","B"],"num_clicks":8,"points":12,"cheat":false,"trial_type":"Hangman","trial_index":5,"time_elapsed":61472,"internal_node_id":"0.0-4.0","protocol_sum":"","subject_identifier":119,"subject_sum":[62,30,150,126,155,121,62,144,143,142,174,131,199,77,186,155,204,204,230,165,83,91,75,70,43,217,153,69,55,191,225,92],"subject_pair":59,"STUDY_ID":"669a702db1122fc5150a13ce","PROLIFIC_PID":"66882c4e8bcda7f9bf988fe1","SESSION_ID":"669ad75707e7aca642cc592b","practice_instructions":1,"leaderboard_instructions":0,"bonus":0,"reveal_word":true,"self_rating":"2","confidence":"76"},{"view_history":"[{\"page_index\":0,\"viewing_time\":2817.4000000059605},{\"page_index\":1,\"viewing_time\":10666.5}]","rt":13485,"trial_type":"instructions","trial_index":6,"time_elapsed":74959,"internal_node_id":"0.0-5.0","protocol_sum":"","subject_identifier":119,"subject_sum":[62,30,150,126,155,121,62,144,143,142,174,131,199,77,186,155,204,204,230,165,83,91,75,70,43,217,153,69,55,191,225,92],"subject_pair":59,"STUDY_ID":"669a702db1122fc5150a13ce","PROLIFIC_PID":"66882c4e8bcda7f9bf988fe1","SESSION_ID":"669ad75707e7aca642cc592b","practice_instructions":1,"leaderboard_instructions":0,"bonus":0,"reveal_word":true,"self_rating":"2","confidence":"76"},{"rt":8514.09999999404,"responses":"{\"Q0\":\"...from <b>a previous session</b> that is not part of the upcoming tournament.\"}","question_order":"[0]","trial_type":"survey-multi-choice","trial_index":7,"time_elapsed":83476,"internal_node_id":"0.0-6.0","protocol_sum":"","subject_identifier":119,"subject_sum":[62,30,150,126,155,121,62,144,143,142,174,131,199,77,186,155,204,204,230,165,83,91,75,70,43,217,153,69,55,191,225,92],"subject_pair":59,"correct":true,"test_part":"multichoice_leaderboard","STUDY_ID":"669a702db1122fc5150a13ce","PROLIFIC_PID":"66882c4e8bcda7f9bf988fe1","SESSION_ID":"669ad75707e7aca642cc592b","practice_instructions":1,"leaderboard_instructions":0,"bonus":0,"reveal_word":true,"self_rating":"2","confidence":"76"},{"view_history":"[{\"page_index\":0,\"viewing_time\":13681.5}]","rt":13681.799999982119,"trial_type":"instructions","trial_index":8,"time_elapsed":97159,"internal_node_id":"0.0-8.0","protocol_sum":"","subject_identifier":119,"subject_sum":[62,30,150,126,155,121,62,144,143,142,174,131,199,77,186,155,204,204,230,165,83,91,75,70,43,217,153,69,55,191,225,92],"subject_pair":59,"STUDY_ID":"669a702db1122fc5150a13ce","PROLIFIC_PID":"66882c4e8bcda7f9bf988fe1","SESSION_ID":"669ad75707e7aca642cc592b","practice_instructions":1,"leaderboard_instructions":0,"bonus":0,"reveal_word":true,"self_rating":"2","confidence":"76"},{"rt":7883.0999999940395,"responses":"{\"Q0\":\"...players' leaderboard position (in terms of <b>points</b>) in an <b>upcoming tournament.</b>\"}","question_order":"[0]","trial_type":"survey-multi-choice","trial_index":9,"time_elapsed":105044,"internal_node_id":"0.0-9.0","protocol_sum":"","subject_identifier":119,"subject_sum":[62,30,150,126,155,121,62,144,143,142,174,131,199,77,186,155,204,204,230,165,83,91,75,70,43,217,153,69,55,191,225,92],"subject_pair":59,"correct":true,"test_part":"multichoice_tournament","STUDY_ID":"669a702db1122fc5150a13ce","PROLIFIC_PID":"66882c4e8bcda7f9bf988fe1","SESSION_ID":"669ad75707e7aca642cc592b","practice_instructions":1,"leaderboard_instructions":0,"bonus":0,"reveal_word":true,"self_rating":"2","confidence":"76"},{"view_history":"[{\"page_index\":0,\"viewing_time\":6847.700000017881}]","rt":6847.9000000059605,"trial_type":"instructions","trial_index":10,"time_elapsed":111893,"internal_node_id":"0.0-11.0","protocol_sum":"","subject_identifier":119,"subject_sum":[62,30,150,126,155,121,62,144,143,142,174,131,199,77,186,155,204,204,230,165,83,91,75,70,43,217,153,69,55,191,225,92],"subject_pair":59,"STUDY_ID":"669a702db1122fc5150a13ce","PROLIFIC_PID":"66882c4e8bcda7f9bf988fe1","SESSION_ID":"669ad75707e7aca642cc592b","practice_instructions":1,"leaderboard_instructions":0,"bonus":0,"reveal_word":true,"self_rating":"2","confidence":"76"},{"view_history":"[{\"page_index\":0,\"viewing_time\":15532.5}]","rt":15532.699999988079,"trial_type":"instructions","trial_index":11,"time_elapsed":127427,"internal_node_id":"0.0-12.0-0.0","protocol_sum":"","subject_identifier":119,"subject_sum":[62,30,150,126,155,121,62,144,143,142,174,131,199,77,186,155,204,204,230,165,83,91,75,70,43,217,153,69,55,191,225,92],"subject_pair":59,"STUDY_ID":"669a702db1122fc5150a13ce","PROLIFIC_PID":"66882c4e8bcda7f9bf988fe1","SESSION_ID":"669ad75707e7aca642cc592b","practice_instructions":1,"leaderboard_instructions":0,"bonus":0,"reveal_word":true,"self_rating":"2","confidence":"76"},{"rt":7514,"response":"WRIST","responses":["WRIST"],"trial_type":"type-this","trial_index":12,"time_elapsed":135445,"internal_node_id":"0.0-12.0-1.0","protocol_sum":"","subject_identifier":119,"subject_sum":[62,30,150,126,155,121,62,144,143,142,174,131,199,77,186,155,204,204,230,165,83,91,75,70,43,217,153,69,55,191,225,92],"subject_pair":59,"STUDY_ID":"669a702db1122fc5150a13ce","PROLIFIC_PID":"66882c4e8bcda7f9bf988fe1","SESSION_ID":"669ad75707e7aca642cc592b","practice_instructions":1,"leaderboard_instructions":0,"bonus":0,"reveal_word":true,"self_rating":"2","confidence":"76"},{"word":"WRIST","click_log":{"letter":["","E","A","O","I","P","R","T","S","W"],"t":[0,9185.299999982119,10334.199999988079,12184.09999999404,13934.09999999404,18217.59999999404,19934.29999998212,23600.899999976158,26201,27251],"hit":[null,0,0,0,1,0,1,1,1,1],"asked":["","E","EA","EAO","EAOI","EAOIP","EAOIPR","EAOIPRT","EAOIPRTS","EAOIPRTSW"],"word_state":["_____","_____","_____","_____","__I__","__I__","_RI__","_RI_T","_RIST","WRIST"]},"hover_log":{"letter":["?","?","?","?","?","?","?","?","?","?","?","?","?","?","?","?","?","?","?","?","?","?","?","?","?","?","?","?","?","?","?","?","?","?","?","?","?","?","?","?","?","?","?","?","?","?","?","?","?","?","?","?","?","?","?","?","?","?","?","?","?","?","?","?","?","?","?","?","?","?","?","?","?","?","?","?","?","?","?","?","?","?","?","?","?","?","?","?","?","?","?","?","?","?","?","?","?","?","?","?","?","?","?","?","?","?","?","?","?","?","?","?","?","?","?","?","?","?","?","?","?","?","?","?","?","?","?","?","?","?","?","?","?","?","?","?","?","?","?","?","?","?","?","?","?","?","?","?","?","?","?","?","?","?","?","?","?","?","?","?","?","?","?","?","?","?","?","?","?","?","?","?","?","?","?","?","?","?","?","?","?","?","?","?","?","?","?","?","?","?","?","?","?","?","?","?","?","?","?","?","?","?","?","?","?","?","?","?","?","?","?","?","?","?","?","?","?","?","?","?","?","?","?","?","?","?","?","?","?","?","?","?","?","?","?","?","?","?","?","?","?","?","?","?","?","?","?","?","?","?","?","?","?","?","?","?","?","?","?","?","?","?","?","?","?","?","?","?","?","?","?","?","?","?","?","?","?","?","?","?","?","?","?","?","?","?","?","?","?","?","?","?","?","?","?","?","?","?","?","?","?","?","?","?","?","?","?","?","?","?","?","?","?","?","?","?","?","?","?","?","?","?","?","?","?","?","?","?","?","?","?","?","?","?","?","?","?","?","?","?","?","?","?","?","?","?","?","?","?","?","?","?","?","?","?","?","?","?","?","?","?","?","?","?","?","?","?","?","?","?","?","?","?","?","?","?","?","?","?","?","?","?","?","?","?","?","?","?","?","?","?","?","?","?","?","?","?","?","?","?","?","?","?","?","?","?","?","?","?","?","?","?","?","?","?","?","?","?","?","?","?","?","?","?","?","?","?","?","?","?","?","?","?","?","?","?","?","?","?","?","?","?","?","?","?","?","?","?","?","?","?","?","?","?","?","?","?","?","?","?","?","?","?","?","?","?","?","?","?","?","?","?","?","?","?","?","?","?","?","?","?","?","?","?","?","?","?","?","?","?","?","?","?","?","?","?","?","?","?","?","?","?","?","?","?","?","?","?","?","?","?","?","?","?","?","?","?","?","?","?","?","?","?","?","?","?","?","?","?","?","?","?","?","?","?","?","?","?","?","?","?","?","?","?","?","?","?","?","?","?","?","?","?","?","?","?","?","?","?","?","?","?","?","?","?","?","?","?","?","?","?","?","?","?","?","?","?","?","?","?","?","?","?","?","?","?","?","?","?","?","?","?","?","?","?","?","?","?","?","?","?","?","?","?","?","?","?","?","?","?","?","?","?","?","?","?","?","?","?","?","?","?","?","?","?","?","?","?","?","?","?","?","?","?","?","?","?","?","?","?","?","?","?","?","?","?","?","?","?","?","?","?","?","?","?","?","?","?","?","?","?","?","?","?","?","?","?","?","?","?","?","?","?","?","?","?","?","?","?","?","?","?","?","?","?","?","?","?","?","?","?","?","?","?","?","?","?","?","?","?","?","?","?","?","?","?","?","?","?","?","?","?","?","?","?","?","?","?","?","?","?","?","?","?","?","?","?","?","?","?","?","?","?","?","?","?","?","?","?","?","?","?","?","?","?","?","?","?","?","?","?","?","?","?","?","?","?","?","?","?","?","?","?","?","?","?","?","?","?","?","?","?","?","?","?","?","?","?","?","?","?","?","?","?","?","?","?","?","?","?","?","?","?","?","?","?","?","?","?","?","?","?","?","?","?","?","?","?","?","?","?","?","?","?","?","?","?","?","?","?","?","?","?","?","?","?","?","?","?","?","?","?","?","?","?","?","?","?","?","?","?","?","?","?","?","?","?","?","?","?","?","?","?","?","?","?","?","?","?","?","?","?","?","?","?","?","?","?","?","?","?","?","?","?","?","?","?","?","?","?","?","?","?","?","?","?","?","?","?","?","?","?","?","?","?","?","?","?","?","?","?","?","?","?","?","?","?","?","?","?","?","?","?","?","?","?","?","?","?","?","?","?","?","?","?","?","?","?","?","?","?","?","?","?","?","?","?","?","?","?","?","?","?","?","?","?","?","?","?","?","?","?","?","?","?","?","?","?","?","?","?","?","?","?","?","?","?","?","?","?","?","?","?","?","?","?","?","?","?","?","?","?","?","?","?","?","?","?","?","?","?","?","?","?","?","?","?","?","?","?","?","?","?","?","?","?","?","?","?","?","?","?","?","?","?","?","?","?","?","?","?","?","?","?","?","?","?","?","?","?","?","?","?","?","?","?","?","?","?","?","?","?","?","?","?","?","?","?","?","?","?","?","?","?","?","?","?","?","?","?","?","?","?","?","?","?","?","?","?","?","?","?","?","?","?","?","?","?","?","?","?","?","?","?","?","?","?","?","?","?","?","?","?","?","?","?","?","?","?","?","?","?","?","?","?","?","?","?","?","?","?","?","?","?","?","?","?","?","?","?","?","?","?","?","?","?","?","?","?","?","?","?","?","?","?","?","?","?","?","?","?","?","?","?","?","?","?","?","?","?","?","?","?","?","?","?","?","?","?","?","?","?","?","?","?","?","?","?","?","?","?","?","?","?","?","?","?","?","?","?","?","?","?","?","?","?","?","?","?","?","?","?","?","?","?","?","?","?","?","?","?","?","?","?","?","?","?","?","?","?","?","?","?","?","?","?","?","?","?","?","?","?","?","?","?","?","?","?","?","?","?","?","?","?","?","?","?","?","?","?","?","?","?","?","?","?","?","?","?","?","?","?","?","?","?","?","?","?","?","?","?","?","?","?","?","?","?","?","?","?","?","?","?","?","?","?","?","?","?","?","?","?","?","?","?","?","?","?","?","?","?","?","?","?","?","?","?","?","?","?","?","?","?","?","?","?","?","?","?","?","?","?","?","?","?","?","?","?","?","?","?","?","?","?","?","?","?","?","?","?","?","?","?","?","?","?","?","?","?","?","?","?","?","?","?","?","?","?","?","?","?","?","?","?","?","?","?","?","?","?","?","?","?","?","?","?","?","?","?","?","?","?","?","?","?","?","?","?","?","?","?","?","?","?","?","?","?","?","?","?","?","?","?","?","?","?","?","?","?","?","?","?","?","?","?","?","?","?","?","?","?","?","?","?","?","?","?","?","?","?","?","?","?","?","?","?","?","?","?","?","?","?","?","?","?","?","?","?","?","?","?","?","?","?","?","?","?","?","?","?","?","?","?","?","?","?","?","?","?","?","?","?","?","?","?","?","?","?","?","?","?","?","?","?","?","?","?","?","?","?","?","?","?","?","?","?","?","?","?","?","?","?","?","?","?","?","?","?","?","?","?","?","?","?","?","?","?","?","?","?","?","?","?","?","?","?","?","?","?","?","?","?","?","?","?","?","?","?","?","?","?","?","?","?","?","?","?","?","?","?","?","?","?","?","?","?","?","?","?","?","?","?","?","?","?","?","?","?","?","?","?","?","?","?","?","?","?","?","?","?","?","?","?","?","?","?","?","?","?","?","?","?","?","?","?","?","?","?","?","?","?","?","?","?","?","?","?","?","?","?","?","?","?","?","?","?","?","?","?","?","?","?","?","?","?","?","?","?","?","?","?","?","?","?","?","?","?","?","?","?","?","?","?","?","?","?","?","?","?","?","?","?","?","?","?","?","?","?","?","?","?","?","?","?","?","?","?","?","?","?","?","?","?","?","?","?","?","?","?","?","?","?","?","?","?","?","?","?","?","?","?","?","?","?","?","?","?","?","?","?","?","?","?","?","?","?","?","?","?","?","?","?","?","?","?","?","?","?","?","?","?","?","?","?","?","?","?","?","?","?","?","?","?","?","?","?","?","?","?","?","?","?","?","?","?","?","?","?","?","?","?","?","?","?","?","?","?","?","?","?","?","?","?","?","?","?","?","?","?","?","?","?","?","?","?","?","?","?","?","?","?","?","?","?","?","?","?","?","?","?","?","?","?","?","?","?","?","?","?","?","?","?","?","?","?","?","?","?","?","?","?","?","?","?","?","?","?","?","?","?","?","?","?","?","?","?","?","?","?","?","?","?","?","?","?","?","?","?","?","?","?","?","?","?","?","?","?","?","?","?","?","?","?","?","?","?","?","?","?","?","?","?","?","?","?","?","?","?","?","?","?","?","?","?","?","?","?","?","?","?","?","?","?","?","?","?","?","?","?","?","?","?","?","?","?","?","?","?","?","?","?","?","?","?","?","?","?","?","?","?","?","?","?","?","?","?","?","?","?","?","?","?","?","?","?","?","?","?","?","?","?","?","?","?","?","?","?","?","?","?","?","?","?","?","?","?","?","?","?","?","?","?","?","?","?","?","?","?","?","?","?","?","?","?","?","?","?","?","?","?","?","?","?","?","?","?","?","?","?","?","?","?","?","?","?","?","?","?","?","?","?","?","?","?","?","?","?","?","?","?","?","?","?","?","?","?","?","?","?","?","?","?","?","?","?","?","?","?","?","?","?","?","?","?","?","?","?","?","?","?","?","?","?","?","?","?","?","?","?","?","?","?","?","?","?","?","?","?","?","?","?","?","?","?","?","?","?","?","?","?","?","?","?","?","?","?","?","?","?","?","?","?","?","?","?","?","?","?","?","?","?","?","?","?","?","?","?","?","?","?","?","?","?","?","?","?","?","?","?","?","?","?","?","?","?","?","?","?","?","?","?","?","?","?","?","?","?","?","?","?","?","?","?","?","?","?","?","?","?","?","?","?","?","?","?","?","?","?","?","?","?","?","?","?","?","?","?","?","?","?","?","?","?","?","?","?","?","?","?","?","?","?","?","?","?","?","?","?","?","?","?","?","?","?","?","?","?","?","?","?","?","?","?","?","?","?","?","?","?","?","?","?","?","?","?","?","?","?","?","?","?","?","?","?","?","?","?","?","?","?","?","?","?","?","?","?","?","?","?","?","?","?","?","?","?","?","?","?","?","?","?","?","?","?","?","?","?","?","?","?","?","?","?","?","?","?","?","?","?","?","?","?","?","?","?","?","?","?","?","?","?","?","?","?","?","?","?","?","?","?","?","?","?","?","?","?","?","?","?","?","?","?","?","?","?","?","?","?","?","?","?","?","?","?","?","?","?","?","?","?","?","?","?","?","?","?","?","?","?","?","?","?","?","?","?","?","?","?","?","?","?","?","?","?","?","?","?","?","?","?","?","?","?","?","?","?","?","?","?","?","?","?","?","?","?","?","?","?","?","?","?","?","?","?","?","?","?","?","?","?","?","?","?","?","?","?","?","?","?","?","?","?","?","?","?","?","?","?","?","?","?","?","?","?","?","?","?","?","?","?","?","?","?","?","?","?","?","?","?","?","?","?","?","?","?","?","?","?","?","?","?","?","?","?","?","?","?","?","?","?","?","?","?","?","?","?","?","?","?","?","?","?","?","?","?","?","?","?","?","?","?","?","?","?","?","?","?","?","?","?","?","?","?","?","?","?","?","?","?","?","?","?","?","?","?","?","?","?","?","?","?","?","?","?","?","?","?","?","?","?","?","?","?","?","?","?","?","?","?","?","?","?","?","?","?","?","?","?","?","?","?","?","?","?","?","?","?","?","?","?","?","?","?","?","?","?","?","?","?","?","?","?","?","?","?","?","?","?","?","?","?","?","?","?","?","?","?","?","?","?","?","?","?","?","?","?","?","?","?","?","?","?","?","?","?","?","?","?","?","?","?","?","?","?","?","?","?","?","?","?","?","?","?","?","?","?","?","?","?","?","?","?","?","?","?","?","?","?","?","?","?","?","?","?","?","?","?","?","?","?","?","?","?","?","?","?","?","?","?","?","?","?","?","?","?","?","?","?","?","?","?","?","?","?","?","?","?","?","?","?","?","?","?","?","?","?","?","?","?","?","?","?","?","?","?","?","?","?","?","?","?","?","?","?","?","?","?","?","?","?","?","?","?","?","?","?","?","?","?","?","?","?","?","?","?","?","?","?","?","?","?","?","?","?","?","?","?","?","?","?","?","?","?","?","?","?","?","?","?","?","?","?","?","?","?","?","?","?","?","?","?","?","?","?","?","?","?","?","?","?","?","?","?","?","?","?","?","?","?","?","?","?","?","?","?","?","?","?","?","?","?","?","?","?","?","?","?","?","?","?","?","?","?","?","?","?","?","?","?","?","?","?","?","?","?","?","?","?","?","?","?","?","?","?","?","?","?","?","?","?","?","?","?","?","?","?","?","?","?","?","?","?","?","?","?","?","?","?","?","?","?","?","?","?","?","?","?","?","?","?","?","?","?","?","?","?","?","?","?","?","?","?","?","?","?","?","?","?","?","?","?","?","?","?","?","?","?","?","?","?","?","?","?","?","?","?","?","?","?","?","?","?","?","?","?","?","?","?","?","?","?","?","?","?","?","?","?","?","?","?","?","?","?","?","?","?","?","?","?","?","?","?","?","?","?","?","?","?","?","?","?","?","?","?","?","?","?","?","?","?","?","?","?","?","?","?","?","?","?","?","?","?","?","?","?","?","?","?","?","?","?","?","?","?","?","?","?","?","?","?","?","?","?","?","?","?","?","?","?","?","?","?","?","?","?","?","?","?","?","?","?","?","?","?","?","?","?","?","?","?","?","?","?","?","?","?","?","?","?","?","?","?","?","?","?","?","?","?","?","?","?","?","?","?","?","?","?","?","?","?","?","?","?","?","?","?","?","?","?","?","?","?","?","?","?","?","?","?","?","?","?","?","?","?","?","?","?","?","?","?","?","?","?","?","?","?","?","?","?","?","?","?","?","?","?","?","?","?","?","?","?","?","?","?","?","?","?","?","?","?","?","?","?","?","?","?","?","?","?","?","?","?","?","?","?","?","?","?","?","?","?","?","?","?","?","?","?","?","?","?","?","?","?","?","?","?","?","?","?","?","?","?","?","?","?","?","?","?","?","?","?","?","?","?","?","?","?","?","?","?","?","?","?","?","?","?","?","?","?","?","?","?","?","?","?","?","?","?","?","?","?","?","?","?","?","?","?","?","?","?","?","?","?","?","?","?","?","?","?","?","?","?","?","?","?","?","?","?","?","?","?","?","?","?","?","?","?","?","?","?","?","?","?","?","?","?","?","?","?","?","?","?","?","?","?","?","?","?","?","?","?","?","?","?","?","?","?","?","?","?","?","?","?","?","?","?","?","?","?","?","?","?","?","?","?","?","?","?","?","?","?","?","?","?","?","?","?","?","?","?","?","?","?","?","?","?","?","?","?","?","?","?","?","?","?","?","?","?","?","?","?","?","?","?","?","?","?","?","?","?","?","?","?","?","?","?","?","?","?","?","?","?","?","?","?","?","?","?","?","?","?","?","?","?","?","?","?","?","?","?","?","?","?","?","?","?","?","?","?","?","?","?","?","?","?","?","?","?","?","?","?","?","?","?","?","?","?","?","?","?","?","?","?","?","?","?","?","?","?","?","?","?","?","?","?","?","?","?","?","?","?","?","?","?","?","?","?","?","?","?","?","?","?","?","?","?","?","?","?","?","?","?","?","?","?","?","?","?","?","?","?","?","?","?","?","?","?","?","?","?","?","?","?","?","?","?","?","?","?","?","?","?","?","?","?","?","?","?","?","?","?","?","?","?","?","?","?","?","?","?","?","?","?","?","?","?","?","?","?","?","?","?","?","?","?","?","?","?","?","?","?","?","?","?","?","?","?","?","?","?","?","?","?","?","?","?","?","?","?","?","?","?","?","?","?","?","?","?","?","?","?","?","?","?","?","?","?","?","?","?","?","?","?","?","?","?","?","?","?","?","?","?","?","?","?","?","?","?","?","?","?","?","?","?","?","?","?","?","?","?","?","?","?","?","?","?","?","?","?","?","?","?","?","?","?","?","?","?","?","?","?","?","?","?","?","?","?","?","?","?","?","?","?","?","?","?","?","?","?","?","?","?","?","?","?","?","?","?","?","?","?","?","?","?","?","?","?","?","?","?","?","?","?","?","?","?","?","?","?","?","?","?","?","?","?","?","?","?","?","?","?","?","?","?","?","?","?","?","?","?","?","?","?","?","?","?","?","?","?","?","?","?","?","?","?","?","?","?","?","?","?","?","?","?","?","?","?","?","?","?","?","?","?","?","?","?","?","?","?","?","?","?","?","?","?","?","?","?","?","?","?","?","?","?","?","?","?","?","?","?","?","?","?","?","?","?","?","?","?","?","?","?","?","?","?","?","?","?","?","?","?","?","?","?","?","?","?","?","?","?","?","?","?","?","?","?","?","?","?","?","?","?","?","?","?","?","?","?","?","?","?","?","?","?","?","?","?","?","?","?","?","?","?","?","?","?","?","?","?","?","?","?","?","?","?","?","?","?","?","?","?","?","?","?","?","?","?","?","?","?","?","?","?","?","?","?","?","?","?","?","?","?","?","?","?","?","?","?","?","?","?","?","?","?","?","?","?","?","?","?","?","?","?","?","?","?","?","?","?","?","?","?","?","?","?","?","?","?","?","?","?","?","?","?","?","?","?","?","?","?","?","?","?","?","?","?","?","?","?","?","?","?","?","?","?","?","?","?","?","?","?","?","?","?","?","?","?","?","?","?","?","?","?","?","?","?","?","?","?","?","?","?","?","?","?","?","?","?","?","?","?","?","?","?","?","?","?","?","?","?","?","?","?","?","?","?","?","?","?","?","?","?","?","?","?","?","?","?","?","?","?","?","?","?","?","?","?","?","?","?","?","?","?","?","?","?","?","?","?","?","?","?","?","?","?","?","?","?","?","?","?","?","?","?","?","?","?","?","?","?","?","?","?","?","?","?","?","?","?","?","?","?","?","?","?","?","?","?","?","?","?","?","?","?","?","?","?","?","?","?","?","?","?","?","?","?","?","?","?","?","?","?","?","?","?","?","?","?","?","?","?","?","?","?","?","?","?","?","?","?","?","?","?","?","?","?","?","?","?","?","?","?","?","?","?","?","?","?","?","?","?","?","?","?","?","?","?","?","?","?","?","?","?","?