[{"success":true,"trial_type":"fullscreen","trial_index":0,"time_elapsed":12388,"internal_node_id":"0.0-0.0","protocol_sum":"","subject_identifier":329,"subject_sum":[63,152,7,203,154,233,251,108,48,148,42,246,19,153,9,210,119,83,165,224,63,229,165,198,233,59,1,79,91,23,54,111],"subject_pair":164,"STUDY_ID":"66a0b3911f23dfc7665bb169","PROLIFIC_PID":"663a3ebfce4f0542b41546ca","SESSION_ID":"66a15d98249e3d0eb40458a4","practice_instructions":1,"leaderboard_instructions":1,"bonus":1,"reveal_word":true,"self_rating":"3","confidence":"77"},{"view_history":"[{\"page_index\":0,\"viewing_time\":7169}]","rt":7169,"trial_type":"instructions","trial_index":1,"time_elapsed":19559,"internal_node_id":"0.0-1.0","protocol_sum":"","subject_identifier":329,"subject_sum":[63,152,7,203,154,233,251,108,48,148,42,246,19,153,9,210,119,83,165,224,63,229,165,198,233,59,1,79,91,23,54,111],"subject_pair":164,"STUDY_ID":"66a0b3911f23dfc7665bb169","PROLIFIC_PID":"663a3ebfce4f0542b41546ca","SESSION_ID":"66a15d98249e3d0eb40458a4","practice_instructions":1,"leaderboard_instructions":1,"bonus":1,"reveal_word":true,"self_rating":"3","confidence":"77"},{"view_history":"[{\"page_index\":0,\"viewing_time\":39710}]","rt":39710,"trial_type":"instructions","trial_index":2,"time_elapsed":59270,"internal_node_id":"0.0-2.0-0.0","protocol_sum":"","subject_identifier":329,"subject_sum":[63,152,7,203,154,233,251,108,48,148,42,246,19,153,9,210,119,83,165,224,63,229,165,198,233,59,1,79,91,23,54,111],"subject_pair":164,"STUDY_ID":"66a0b3911f23dfc7665bb169","PROLIFIC_PID":"663a3ebfce4f0542b41546ca","SESSION_ID":"66a15d98249e3d0eb40458a4","practice_instructions":1,"leaderboard_instructions":1,"bonus":1,"reveal_word":true,"self_rating":"3","confidence":"77"},{"rt":19702,"responses":"{\"Q0\":\"... reveal the word with as <b>few letter guesses</b> as possible\"}","question_order":"[0]","trial_type":"survey-multi-choice","trial_index":3,"time_elapsed":78976,"internal_node_id":"0.0-2.0-1.0","protocol_sum":"","subject_identifier":329,"subject_sum":[63,152,7,203,154,233,251,108,48,148,42,246,19,153,9,210,119,83,165,224,63,229,165,198,233,59,1,79,91,23,54,111],"subject_pair":164,"correct":true,"test_part":"multichoice_nonpretend","STUDY_ID":"66a0b3911f23dfc7665bb169","PROLIFIC_PID":"663a3ebfce4f0542b41546ca","SESSION_ID":"66a15d98249e3d0eb40458a4","practice_instructions":1,"leaderboard_instructions":1,"bonus":1,"reveal_word":true,"self_rating":"3","confidence":"77"},{"view_history":"[{\"page_index\":0,\"viewing_time\":2020}]","rt":2020,"trial_type":"instructions","trial_index":4,"time_elapsed":80999,"internal_node_id":"0.0-3.0","protocol_sum":"","subject_identifier":329,"subject_sum":[63,152,7,203,154,233,251,108,48,148,42,246,19,153,9,210,119,83,165,224,63,229,165,198,233,59,1,79,91,23,54,111],"subject_pair":164,"STUDY_ID":"66a0b3911f23dfc7665bb169","PROLIFIC_PID":"663a3ebfce4f0542b41546ca","SESSION_ID":"66a15d98249e3d0eb40458a4","practice_instructions":1,"leaderboard_instructions":1,"bonus":1,"reveal_word":true,"self_rating":"3","confidence":"77"},{"word":"ZEBRA","click_log":{"letter":["","T","I","G","E","A","C","D","F","H","L","M","O","Z","B","R"],"t":[0,33989,39576,42765,46267,57972,63875,66102,67907,69771,72754,74667,77139,89970,93763,97812],"hit":[null,0,0,0,1,1,0,0,0,0,0,0,0,1,1,1],"asked":["","T","TI","TIG","TIGE","TIGEA","TIGEAC","TIGEACD","TIGEACDF","TIGEACDFH","TIGEACDFHL","TIGEACDFHLM","TIGEACDFHLMO","TIGEACDFHLMOZ","TIGEACDFHLMOZB","TIGEACDFHLMOZBR"],"word_state":["_____","_____","_____","_____","_E___","_E__A","_E__A","_E__A","_E__A","_E__A","_E__A","_E__A","_E__A","ZE__A","ZEB_A","ZEBRA"]},"hover_log":{"letter":["?","?","?","?","?","?","?","?","?","?","?","?","?","?","?","?","?","?","?","?","?","?","?","?","?","?","?","?","?","?","?","?","?","?","?","?","?","?","?","?","?","?","?","?","?","?","?","?","?","?","?","?","?","?","?","?","?","?","?","?","?","?","?","?","?","?","?","?","?","?","?","?","J","J","J","J","J","J","J","J","J","J","J","J","J","J","J","J","J","J","J","J","J","J","J","J","J","J","J","J","J","J","J","J","J","J","J","J","J","J","J","J","J","J","J","J","J","J","J","J","J","J","J","J","J","?","?","?","?","?","?","?","?","?","?","?","?","?","?","?","?","?","?","?","?","?","?","?","?","?","?","?","?","?","?","?","?","?","?","?","?","?","?","?","?","?","?","?","?","?","?","?","?","?","?","?","?","?","?","?","?","?","?","?","?","?","?","?","?","?","?","?","?","?","A","A","A","?","?","?","?","?","?","?","?","?","?","?","?","?","?","?","?","?","?","?","?","?","?","?","?","?","?","?","?","?","?","?","?","?","?","?","?","?","?","?","?","?","?","?","?","?","?","?","?","?","?","?","?","?","?","?","?","?","?","?","?","?","?","?","?","?","?","?","?","?","?","?","?","?","?","?","?","?","?","?","?","?","?","?","?","?","?","?","?","?","?","?","?","?","?","?","?","?","?","?","?","?","?","?","?","?","?","?","?","?","?","?","?","?","?","?","?","?","?","?","?","?","?","?","?","?","?","?","?","?","?","?","?","?","?","?","?","?","?","?","?","?","?","?","?","?","?","?","?","?","?","?","?","?","?","?","?","?","?","?","?","?","?","?","?","?","?","?","?","?","?","?","?","?","?","?","?","?","?","?","?","?","?","?","?","?","?","?","?","?","?","?","?","?","?","?","?","?","?","?","?","?","?","?","?","?","?","?","?","?","?","?","?","?","?","?","?","?","?","?","?","?","?","?","?","?","?","?","?","?","?","?","?","?","?","?","?","?","?","?","?","?","?","?","?","?","?","?","?","?","?","?","?","?","?","?","?","?","?","?","?","?","?","?","?","?","?","?","?","?","?","?","?","?","?","?","?","?","?","?","?","?","?","?","?","?","?","?","?","?","?","?","?","?","?","?","?","?","?","?","?","?","?","?","?","?","?","?","?","?","?","?","?","?","?","?","?","?","?","?","?","?","?","?","?","?","?","?","?","?","?","?","?","?","?","?","?","?","?","?","?","?","?","?","?","?","?","?","?","?","?","?","?","?","?","?","?","?","?","?","?","?","?","?","?","?","?","?","?","?","?","?","?","?","?","?","?","?","?","?","?","?","?","?","?","?","?","?","?","?","?","?","?","?","?","?","?","?","?","?","?","?","?","?","?","?","?","?","?","?","?","?","?","?","?","?","?","?","?","?","?","?","?","?","?","?","?","?","?","?","?","?","?","?","?","?","?","?","?","?","?","?","?","?","?","?","?","?","?","?","?","?","?","?","?","?","?","?","?","?","?","?","?","?","?","?","?","?","?","?","?","?","?","?","?","?","?","?","?","?","?","?","?","C","C","C","C","C","C","C","C","C","C","C","C","C","C","C","C","C","C","C","C","C","C","C","C","C","C","C","C","C","C","C","C","C","C","C","C","C","C","C","C","C","C","C","C","C","C","C","C","C","C","C","C","C","C","C","C","C","C","C","C","C","C","C","C","C","C","C","C","C","C","C","C","C","C","C","C","C","C","C","C","C","C","C","C","C","C","C","C","C","C","C","C","C","C","C","C","C","C","C","C","C","C","C","C","C","C","C","C","C","C","C","C","C","C","C","C","C","C","C","C","C","C","C","C","C","C","C","C","C","C","C","C","C","C","C","C","C","C","C","C","C","C","C","C","C","C","C","C","C","C","C","C","C","C","C","C","C","C","C","C","C","C","C","C","C","C","C","C","C","C","C","C","C","C","C","C","C","C","C","C","C","C","C","C","C","C","C","C","C","C","C","C","C","C","C","C","C","C","C","C","C","C","C","C","C","C","C","C","C","C","C","C","C","C","C","C","C","C","C","C","C","C","C","C","C","C","C","C","C","C","C","C","C","C","C","C","C","C","C","C","C","C","C","C","C","C","C","C","C","C","C","C","C","C","C","C","C","C","C","C","C","C","C","C","C","C","C","C","C","C","C","C","C","C","C","C","C","C","C","C","C","C","C","C","C","C","C","C","C","C","C","C","C","C","C","C","C","C","C","C","C","C","C","C","C","C","C","C","C","C","C","C","C","C","C","C","C","C","C","C","C","C","C","C","C","C","C","C","C","C","C","C","C","C","C","C","C","C","C","C","C","C","C","C","C","C","C","C","C","C","C","C","C","C","C","C","C","C","C","C","C","C","C","C","C","C","C","C","C","C","?","?","?","?","?","?","?","?","?","?","?","?","?","?","?","?","?","?","?","?","?","?","?","?","?","?","?","?","?","?","?","?","?","?","?","?","?","?","?","?","?","?","?","?","?","?","?","?","?","?","?","?","?","?","?","?","?","?","?","?","?","?","?","?","?","?","?","?","?","?","?","?","?","?","?","?","?","?","?","?","?","?","?","?","?","?","?","?","?","?","?","?","?","?","?","?","?","?","?","?","?","?","?","?","?","?","?","?","?","?","?","?","?","?","?","?","?","?","?","?","?","?","?","?","?","?","?","?","?","?","?","?","?","?","?","?","?","?","?","?","?","?","?","?","?","?","?","?","?","?","?","?","?","?","?","?","?","?","?","?","?","?","?","?","?","?","?","?","?","?","?","?","?","?","?","?","?","?","?","?","?","?","?","?","?","?","?","?","?","?","?","?","?","?","?","?","?","?","?","?","?","?","?","?","?","?","?","?","?","?","?","?","?","?","?","?","?","?","?","?","?","?","?","?","?","?","?","?","?","?","?","?","?","?","?","?","?","?","?","?","?","?","?","?","?","?","?","?","?","?","?","?","?","?","?","?","?","?","?","?","?","?","?","?","?","?","?","?","?","?","?","?","?","?","?","?","?","?","?","?","?","?","?","?","?","?","?","?","?","?","?","?","?","?","?","?","?","?","?","?","?","?","?","?","?","?","?","?","?","?","?","?","?","?","?","?","?","?","?","?","?","?","?","?","?","?","?","?","?","?","?","?","?","?","?","?","?","?","?","?","?","?","?","?","?","?","?","?","?","?","?","?","?","?","?","?","?","?","?","?","?","?","?","?","?","?","?","?","?","?","?","?","?","?","?","?","?","?","?","?","?","?","?","?","?","?","?","?","?","?","?","?","?","?","?","?","?","?","?","?","?","?","?","?","?","?","?","?","?","?","?","?","?","?","?","?","?","?","?","?","?","?","?","?","?","?","?","?","?","?","?","?","?","?","?","?","?","?","?","?","?","?","?","?","?","?","?","?","?","?","?","?","?","?","?","?","?","?","?","?","?","?","?","?","?","?","?","?","?","?","?","?","?","?","?","?","?","?","?","?","?","?","?","?","?","?","?","?","?","?","?","?","?","?","?","?","?","?","?","?","?","?","?","?","?","?","?","?","?","?","?","?","?","?","?","?","?","?","?","?","?","?","?","?","?","?","?","?","?","?","?","?","?","?","?","?","?","?","?","?","?","?","?","?","?","?","?","?","?","?","?","?","?","?","?","?","?","?","?","?","?","?","?","?","?","?","?","?","?","?","?","?","?","?","?","?","?","?","?","?","?","?","?","?","?","?","?","?","?","?","?","?","?","?","?","?","?","?","?","?","?","?","?","?","?","?","?","?","?","?","?","?","?","?","?","?","?","?","?","?","?","?","?","?","?","?","?","?","?","?","?","?","?","?","?","?","?","?","?","?","?","?","?","?","?","?","?","?","?","?","?","?","?","?","?","?","?","?","?","?","?","?","?","?","?","?","?","?","?","?","?","?","?","?","?","?","?","?","?","?","?","?","?","?","?","?","?","?","?","?","?","?","?","?","?","?","?","?","?","?","?","?","?","?","?","?","?","?","?","?","?","?","?","?","?","?","?","?","F","F","F","F","F","?","?","?","?","?","?","?","?","?","N","N","N","N","N","N","N","M","M","M","M","M","M","M","M","M","M","M","M","M","M","M","M","M","M","M","M","?","?","?","?","?","?","?","?","?","?","?","?","?","?","?","W","?","?","?","?","?","?","?","?","?","?","?","P","P","P","P","P","P","?","?","?","?","?","?","?","?","?","?","?","?","?","?","?","?","?","?","?","?","?","?","?","?","?","?","?","?","?","?","?","?","?","?","?","?","P","?","O","?","N","N","?","?","?","?","?","M","M","?","?","?","?","?","?","?","?","?","?","L","L","L","L","L","L","L","L","L","L","L","L","?","?","?","?","?","?","?","?","?","?","?","?","?","?","?","?","?","?","?","?","?","?","?","?","?","?","?","?","?","?","?","?","?","?","?","?","?","?","?","?","?","?","?","?","?","?","?","?","?","?","?","?","?","?","?","?","?","?","?","?","?","?","?","?","?","?","?","?","?","?","?","?","?","?","?","T","T","T","T","T","T","T","T","T","T","T","T","T","T","T","T","T","T","T","T","T","T","T","T","T","T","T","T","T","T","T","T","T","T","T","T","T","T","T","T","T","T","T","T","T","T","T","T","T","T","T","T","T","T","T","T","T","T","T","T","T","T","?","?","?","L","?","?","M","M","M","M","?","?","?","?","?","?","?","?","?","?","?","?","?","?","?","?","?","?","?","?","?","?","?","?","?","?","?","?","?","?","?","?","?","?","?","?","?","?","?","?","?","?","?","?","?","?","?","?","?","E","E","E","E","E","E","?","F","F","F","F","F","?","?","G","G","?","?","?","?","?","?","?","H","H","H","H","H","H","H","H","H","H","H","H","H","H","H","H","H","H","H","H","H","H","H","H","H","H","H","H","H","H","H","H","H","?","?","I","I","I","I","I","I","I","I","I","I","I","I","I","I","I","I","I","I","I","I","I","I","I","I","I","I","I","I","I","I","I","I","I","I","I","I","I","I","I","I","I","I","I","I","I","I","I","I","I","I","I","I","I","I","I","I","I","I","I","I","I","I","I","I","I","I","I","I","I","I","I","I","I","I","I","I","I","I","I","I","I","I","I","I","I","I","I","I","I","I","I","I","I","I","I","I","I","I","I","I","I","I","I","I","I","I","I","I","I","I","I","I","I","I","I","I","I","I","I","I","I","I","I","I","I","I","I","I","I","I","I","I","I","I","I","I","I","I","I","I","I","I","I","I","I","I","I","I","I","I","I","I","I","I","I","I","I","I","I","I","I","I","I","I","I","I","I","I","I","I","I","I","I","I","I","I","I","I","I","I","I","I","I","I","I","I","I","I","I","I","I","I","I","I","I","I","I","I","I","I","I","I","I","I","I","I","I","I","I","?","?","?","?","?","?","?","?","?","P","P","P","?","?","O","O","?","?","?","?","?","?","?","?","?","?","?","?","?","?","?","?","?","?","?","?","?","?","?","L","L","L","L","L","L","L","L","L","L","L","L","L","L","L","L","L","L","L","L","L","L","L","L","L","L","L","L","?","K","K","K","K","K","K","K","K","K","K","K","K","?","?","L","L","?","?","?","?","?","?","?","?","?","?","?","?","?","?","?","?","?","?","?","?","?","?","?","?","?","?","?","?","?","?","?","?","?","?","?","?","?","?","?","?","?","?","?","?","?","?","?","G","G","G","G","G","G","G","G","G","G","G","G","G","G","G","G","G","G","G","G","G","G","G","G","G","G","G","G","G","G","G","G","G","G","G","G","G","G","G","G","G","G","G","G","G","G","G","G","G","G","G","G","G","G","G","G","G","G","G","G","G","G","G","G","G","?","?","?","?","?","?","?","?","?","?","?","?","?","?","?","?","?","?","?","?","?","?","?","?","?","?","?","?","C","C","C","C","?","?","?","B","B","B","B","?","?","?","?","?","?","?","?","?","?","?","?","?","?","?","?","B","B","B","?","?","?","?","?","?","?","?","?","L","L","L","L","L","L","L","L","L","?","?","?","?","?","?","?","?","?","?","?","?","?","?","?","?","?","?","?","?","?","?","?","?","?","?","?","?","?","O","O","O","O","O","O","O","O","?","?","?","?","?","?","?","?","?","?","?","?","?","F","F","F","F","F","F","F","F","F","F","F","F","F","F","F","?","?","?","E","E","E","E","E","E","E","E","E","E","E","E","E","E","E","E","E","E","E","E","E","E","E","E","E","E","E","E","E","E","E","E","E","E","E","E","E","E","E","E","E","E","?","?","N","?","?","?","?","?","?","?","?","?","?","?","?","?","?","?","W","W","X","X","X","X","X","X","X","X","?","Y","Y","Y","?","?","?","?","?","?","?","?","?","?","?","?","?","P","P","P","P","P","P","P","P","P","P","P","P","P","P","P","P","P","P","P","P","P","?","?","?","?","?","?","?","?","?","?","?","?","?","?","?","?","?","?","?","?","F","F","F","F","F","F","F","F","F","F","F","F","F","F","F","F","F","F","F","F","F","F","F","F","F","F","F","F","F","F","F","F","F","F","F","F","F","F","F","F","F","F","F","F","F","F","F","F","F","F","F","F","F","F","F","F","F","F","F","F","F","F","F","F","F","F","F","F","F","F","F","F","F","F","F","F","F","F","F","F","F","F","F","F","F","F","F","F","F","F","F","F","F","F","F","F","F","F","F","F","F","F","F","F","F","F","F","F","F","F","F","F","F","F","F","F","F","F","F","F","F","F","F","F","F","F","F","F","F","F","F","F","F","F","F","F","F","F","F","F","F","F","F","F","F","F","F","F","F","F","F","F","F","F","F","F","F","F","F","F","F","F","F","F","F","F","F","F","F","F","F","F","F","F","F","F","F","F","F","F","F","F","F","F","F","F","F","F","F","F","F","F","F","F","F","F","F","F","F","F","F","F","F","F","F","F","F","F","F","F","F","F","F","F","F","F","F","F","F","F","F","F","F","F","F","F","F","F","F","F","F","F","F","F","F","F","F","F","F","F","F","F","F","F","F","F","F","F","F","F","F","F","F","F","F","F","F","F","F","?","?","?","?","?","?","?","?","?","?","?","?","?","?","?","?","?","?","?","?","?","?","?","?","?","?","?","?","?","?","?","?","?","?","?","?","?","?","?","?","?","?","?","?","?","?","?","?","?","?","?","?","?","?","?","?","?","?","?","?","?","?","?","?","?","?","?","?","?","?","?","?","?","?","?","?","?","?","?","?","?","?","?","?","?","?","?","?","?","?","?","?","?","?","?","?","?","?","?","?","?","?","?","?","?","?","?","?","?","?","?","?","?","?","?","?","?","?","?","?","?","?","?","?","?","?","?","?","?","?","?","?","?","?","?","?","?","?","?","?","?","?","?","?","?","?","?","?","?","?","?","?","?","?","?","?","?","?","?","?","?","?","?","?","?","?","?","?","?","?","?","?","?","?","?","?","?","?","?","?","?","?","?","?","?","?","?","?","?","?","?","?","?","?","?","?","?","?","?","?","?","?","?","?","?","?","?","?","?","?","?","?","?","?","?","?","?","?","?","?","?","?","?","?","?","?","?","?","?","?","?","?","?","?","?","?","?","?","?","?","?","?","?","?","?","?","?","?","?","?","?","?","?","?","?","?","?","?","?","?","?","?","?","?","?","?","?","?","?","?","?","?","?","?","?","?","?","?","?","?","?","?","?","?","?","?","?","?","?","?","?","?","?","?","?","?","?","?","?","?","?","?","?","?","?","?","?","?","B","B","?","?","A","A","A","A","A","A","A","A","A","A","A","A","A","A","A","A","A","A","A","A","A","A","A","A","A","A","A","A","A","A","A","A","A","A","A","A","A","A","A","A","A","A","A","A","A","A","A","A","A","A","A","A","A","A","A","A","A","A","A","A","A","A","A","A","A","A","A","A","A","A","A","A","A","?","?","?","B","B","B","B","B","B","B","B","B","B","B","B","B","B","B","B","B","B","B","B","B","B","B","B","B","B","B","B","B","B","B","B","B","B","B","B","B","B","B","B","B","B","B","B","B","B","B","B","B","B","B","B","B","B","B","B","B","B","B","B","B","B","B","B","B","B","B","B","B","B","B","B","B","B","B","B","B","B","B","B","B","B","B","B","B","B","B","B","B","B","B","B","B","B","B","B","B","B","B","B","B","B","B","B","B","B","B","B","B","B","B","B","B","B","B","B","B","B","B","B","B","B","B","B","B","B","B","B","B","B","B","B","B","B","B","B","B","B","B","B","B","B","B","B","B","B","B","B","B","B","B","B","B","B","B","B","B","B","B","B","B","B","B","B","B","B","B","B","B","B","B","B","B","B","B","B","B","B","B","B","B","B","B","B","B","B","B","B","B","B","B","B","B","B","B","B","B","B","B","B","B","B","B","B","B","B","B","B","B","B","B","B","B","B","B","B","B","B","B","B","B","B","B","B","B","B","B","B","B","B","B","B","B","B","B","B","B","B","B","B","B","B","B","B","B","B","B","B","B","B","B","B","B","B","C","C","C","C","C","C","C","C","C","C","C","C","C","C","C","C","C","C","C","C","C","C","C","C","C","C","C","C","C","C","C","C","C","C","C","C","C","C","C","C","C","C","C","C","C","C","C","C","C","C","C","C","C","C","C","C","C","C","C","C","C","C","C","C","C","C","C","C","C","C","C","C","C","C","C","C","C","C","C","C","C","C","C","C","C","C","C","C","C","C","C","C","C","C","C","C","C","C","?","?","?","?","?","?","?","?","?","?","?","?","?","?","?","?","?","?","?","?","?","?","?","?","?","?","?","?","?","?","?","?","?","?","?","?","?","?","?","?","?","?","?","?","?","?","?","D","D","D","D","D","D","D","D","D","D","D","D","D","D","D","D","D","D","D","D","D","D","D","D","D","D","D","D","D","D","D","D","D","D","D","D","D","D","D","D","D","D","D","D","D","D","D","D","D","D","D","D","D","D","D","D","D","D","D","D","D","D","D","D","D","D","D","D","D","D","D","D","D","D","D","D","D","D","D","D","D","D","D","D","?","E","E","E","?","?","?","?","?","?","?","?","?","?","?","?","?","?","?","?","?","?","?","?","?","?","?","?","?","?","?","?","F","F","F","F","F","F","F","F","F","F","F","F","F","F","F","F","F","F","F","F","F","F","F","F","F","F","F","F","F","F","F","F","F","F","F","F","F","F","F","F","F","F","F","F","F","F","F","F","F","F","F","F","F","F","F","F","F","F","F","F","F","F","F","F","F","F","F","F","F","F","F","F","F","F","F","F","F","F","F","F","F","F","F","F","F","F","F","F","F","F","F","F","F","F","?","G","G","G","?","?","?","?","?","?","?","?","?","?","?","?","?","?","?","?","H","H","H","H","H","H","H","H","H","H","H","H","H","H","H","H","H","H","H","H","H","H","H","H","H","H","H","H","H","H","H","H","H","H","H","H","H","H","H","H","H","H","H","H","H","H","H","H","H","H","H","H","H","H","H","H","H","H","H","H","H","H","H","H","H","H","H","H","H","H","H","H","H","H","?","?","?","?","?","?","?","?","?","?","O","O","?","N","N","N","?","M","M","M","M","?","?","?","?","L","L","L","L","L","?","?","?","?","?","?","?","?","?","?","?","?","?","?","?","?","?","?","?","?","?","?","?","?","?","?","?","?","?","?","?","?","?","?","?","?","?","?","?","?","?","?","?","?","?","?","?","?","?","?","?","?","?","?","?","?","?","?","?","?","?","?","?","?","?","?","?","?","?","?","?","?","L","L","L","L","L","L","L","L","L","L","L","L","L","L","L","L","L","L","L","L","L","L","L","L","L","L","L","L","L","L","L","L","L","L","L","L","L","L","L","L","L","L","L","L","L","L","L","L","L","L","L","L","L","L","L","L","L","L","L","L","L","L","L","L","L","L","L","L","L","L","L","L","M","M","?","N","N","N","N","N","N","N","N","N","N","N","N","N","N","N","N","N","N","N","N","N","N","N","N","N","N","N","N","?","?","?","?","?","?","M","M","M","M","M","M","M","M","M","M","M","M","M","M","M","M","M","M","M","M","M","M","M","M","M","M","M","M","M","M","M","M","M","M","M","M","M","M","M","M","M","M","M","M","M","M","M","M","M","M","M","M","M","M","M","M","M","M","M","M","M","M","M","M","M","M","M","M","M","M","M","M","M","M","M","M","M","M","M","M","M","M","M","M","M","M","M","M","M","M","M","M","M","M","M","M","M","M","M","?","?","?","?","?","?","?","?","?","?","?","?","?","?","?","?","?","?","?","?","?","?","?","?","?","?","?","?","?","?","P","P","?","?","O","O","O","O","O","O","O","O","O","O","O","O","O","O","O","O","O","O","O","O","O","O","O","O","O","O","O","O","O","O","O","O","O","O","O","O","O","O","O","O","O","O","O","O","O","O","O","O","O","O","O","O","O","O","O","O","O","O","O","O","O","O","O","O","O","O","O","O","O","O","O","O","O","O","O","O","O","O","O","O","O","O","O","O","O","O","O","O","O","O","O","O","O","O","O","O","O","O","O","O","O","O","O","O","O","O","O","O","O","O","O","O","O","O","O","O","O","O","O","O","O","O","O","O","O","O","O","O","O","O","O","O","O","O","O","O","?","P","P","P","P","P","P","P","P","P","P","P","P","P","P","P","P","P","P","P","P","?","?","Q","Q","Q","Q","Q","Q","Q","Q","Q","Q","Q","Q","Q","Q","Q","Q","Q","Q","Q","Q","Q","Q","Q","Q","Q","Q","Q","Q","Q","Q","Q","Q","Q","Q","Q","Q","Q","Q","Q","?","?","?","?","?","?","?","?","?","?","?","?","?","?","?","?","?","?","?","?","?","?","?","?","?","?","?","?","?","?","?","?","?","?","?","?","?","?","?","?","?","?","?","?","?","?","?","?","?","?","?","?","?","?","?","?","?","?","?","?","?","?","?","?","?","?","?","?","?","?","?","?","?","?","?","?","?","?","?","?","?","?","?","?","?","?","?","?","?","?","?","?","?","?","?","?","?","?","?","?","?","?","?","?","?","?","?","?","?","?","?","?","?","?","?","?","?","?","?","?","?","?","?","?","?","?","?","?","D","D","D","D","D","D","D","D","D","D","D","D","D","D","D","D","D","D","D","D","?","?","?","?","?","E","E","E","E","E","E","E","E","E","E","E","E","E","E","E","E","E","E","E","E","E","E","E","E","E","E","E","E","E","E","E","E","E","E","E","E","E","E","E","E","E","E","E","E","E","E","E","E","E","E","E","E","E","E","E","E","E","E","E","E","E","E","E","E","E","E","E","E","E","E","E","E","E","E","E","E","E","E","E","E","E","E","E","E","E","E","E","E","E","E","E","E","E","E","E","E","E","E","E","E","E","E","E","E","E","E","E","E","E","E","E","E","E","E","E","E","E","E","E","E","E","E","E","E","E","E","E","E","E","E","E","E","E","E","E","E","E","E","E","E","E","E","E","E","E","E","E","E","E","E","E","E","E","E","E","E","E","E","E","E","E","E","E","E","E","E","E","E","E","E","E","E","E","E","E","E","E","E","E","E","E","E","E","E","E","E","E","E","E","E","E","E","?","?","?","?","?","?","M","M","M","M","M","?","?","?","?","?","?","?","?","?","?","?","?","?","?","?","?","?","?","?","?","?","?","?","?","?","?","?","?","U","U","?","?","?","?","?","?","?","?","?","?","?","?","?","?","?","?","?","?","?","?","?","?","?","?","?","?","?","K","K","K","K","K","K","K","K","K","K","K","K","K","K","K","K","K","K","K","K","K","K","K","K","K","K","K","K","K","K","K","K","K","K","K","K","K","K","L","L","L","L","L","L","L","L","L","L","L","L","?","?","?","?","?","?","?","?","?","?","?","?","V","V","V","V","V","V","V","V","V","V","V","V","V","V","V","V","?","?","?","?","?","?","?","?","W","W","W","W","W","W","W","W","W","W","W","W","W","W","W","W","W","W","W","W","W","W","W","W","W","W","W","W","W","W","W","W","W","W","W","W","W","W","W","W","W","W","W","W","W","W","W","W","W","W","W","W","W","W","W","W","W","W","W","W","W","W","W","W","W","W","W","W","?","X","X","X","?","Y","Y","Y","Y","Y","Y","Y","Y","Y","Y","Y","Y","Y","Y","Y","Y","?","Z","Z","Z","Z","Z","Z","Z","Z","Z","Z","Z","Z","Z","Z","Z","Z","Z","Z","Z","Z","Z","Z","Z","Z","Z","Z","Z","Z","Z","Z","Z","Z","Z","Z","Z","Z","Z","Z","Z","Z","Z","Z","Z","Z","Z","Z","Z","Z","Z","Z","Z","Z","Z","Z","Z","Z","Z","Z","Z","Z","Z","Z","Z","Z","Z","Z","Z","Z","Z","Z","Z","Z","Z","Z","Z","Z","Z","Z","Z","Z","Z","Z","?","?","?","?","?","?","?","?","?","?","?","?","?","?","?","?","?","?","?","?","O","O","O","N","N","N","N","N","?","?","?","?","?","?","?","?","?","?","?","C","C","C","C","C","C","C","C","C","C","C","C","C","C","C","C","C","C","C","C","C","?","?","?","?","?","?","?","?","?","?","?","?","?","?","?","?","?","?","?","?","?","?","?","?","?","?","?","?","?","?","?","?","?","?","?","?","?","?","?","?","?","?","?","?","?","?","?","?","?","?","?","?","?","?","?","?","?","?","?","?","?","?","?","?","?","?","?","?","B","B","B","B","B","B","B","B","B","B","B","B","B","B","B","B","B","B","B","B","B","B","B","B","B","B","B","B","B","B","B","B","B","B","B","B","B","B","B","B","B","B","B","B","B","B","B","B","B","B","B","B","B","B","B","B","B","B","B","B","B","B","B","B","B","B","B","B","B","B","B","B","B","B","B","B","B","B","B","B","B","B","B","B","B","?","?","?","?","?","?","?","?","?","?","?","?","L","L","L","L","L","L","L","L","L","L","L","L","L","L","L","L","?","?","?","?","?","?","?","?","?","?","?","?","?","?","?","?","?","?","?","?","?","?","?","?","?","?","?","?","?","?","?","?","?","?","?","?","?","?","?","?","?","?","?","?","?","?","?","?","N","N","N","N","N","N","N","N","N","N","N","N","N","N","N","N","N","N","N","N","N","N","N","N","N","N","N","N","N","N","N","N","N","?","?","O","O","O","O","O","O","O","O","O","O","?","?","?","P","P","P","P","P","P","P","P","P","P","P","P","P","P","P","P","P","P","P","P","P","Q","R","R","R","R","R","R","R","R","R","R","R","R","R","R","R","R","R","R","R","R","R","R","R","R","R","R","R","R","R","R","R","R","R","R","R","R","R","R","R","R","R","R","R","R","R","R","R","R","R","R","R","R","R","R","R","R","R","R","R","R","R","R","R","R","R","R","R","R","R","R","R","R","R","R","R","R","R","R","R","R","R","R","R","R","R","R","R","R","R","R","R","R","R","R","R","R","R","R","R","R","R","R","R","R","R","R","R","R","R","R","R","R","R","R","R","R","R","R","R","R","R","R","R","R","R","R","R","R","R","R","R","R","R","R","R","R","R","R","R","R","R","R","?","?","?","?","?","?","?","Y","Y","?","X","?","?","?","?","?","?","?","?","?","?","?","?","?","?","?","?","?","?","?","?","?","?","?"],"t":[57,64,118,136,161,179,196,212,229,245,265,277,297,311,331,346,363,380,397,412,430,445,464,479,497,512,530,545,563,579,597,614,631,645,665,678,696,712,732,745,764,780,797,815,830,846,865,878,897,913,931,947,964,981,999,1012,1032,1045,1067,1079,1098,1112,1134,1146,1165,1182,1199,1213,1231,1246,1266,1280,1303,1314,1334,1348,1368,1382,1398,1413,1432,1448,1466,1480,1498,1514,1532,1550,1567,1583,1600,1614,1634,1647,1666,1681,1699,1716,1733,1751,1765,1782,1801,1813,1832,1848,1867,1883,1899,1915,1933,1951,1965,1981,2000,2015,2034,2049,2066,2081,2101,2116,2134,2149,2168,2182,2200,2215,2234,2248,2269,2285,2301,2319,2335,2350,2368,2381,2403,2416,2437,2467,2483,2503,2518,2534,2550,2569,2582,2602,2617,2640,2669,2683,2702,2717,2735,2749,2770,2783,2801,2816,2835,2851,2869,2886,2901,2919,2935,2952,2967,2987,3000,3019,3034,3053,3070,3088,3102,3120,3134,3153,3167,3187,3201,3220,3235,3254,3271,3287,3300,3320,3334,3353,3368,3388,3401,3422,3437,3453,3469,3489,3502,3520,3534,3554,3569,3589,3607,3622,3639,3656,3668,3689,3702,3723,3735,3754,3768,3788,3803,3821,3838,3855,3870,3888,3903,3921,3935,3953,3969,3988,4003,4020,4036,4054,4068,4089,4102,4121,4135,4155,4171,4186,4205,4221,4236,4256,4270,4289,4304,4323,4336,4354,4371,4390,4404,4424,4437,4456,4470,4488,4503,4520,4537,4554,4572,4588,4603,4623,4637,4657,4670,4687,4704,4723,4738,4757,4773,4789,4804,4824,4838,4857,4871,4887,4904,4926,4941,4960,4974,4993,5008,5027,5044,5060,5074,5093,5108,5126,5141,5161,5175,5193,5209,5228,5245,5261,5275,5295,5308,5328,5342,5361,5376,5394,5408,5424,5439,5460,5473,5492,5507,5526,5541,5558,5575,5593,5609,5626,5641,5661,5673,5693,5707,5727,5743,5759,5773,5793,5809,5825,5839,5858,5877,5892,5907,5924,5946,5961,5976,5996,6010,6030,6051,6064,6091,6108,6125,6141,6161,6174,6193,6209,6227,6242,6261,6277,6294,6311,6327,6342,6361,6376,6394,6409,6427,6442,6462,6477,6494,6510,6529,6543,6562,6576,6593,6610,6628,6643,6662,6679,6694,6709,6729,6743,6763,6777,6794,6809,6828,6843,6860,6878,6891,6909,6929,6942,6959,6976,6995,7010,7026,7043,7060,7078,7093,7109,7127,7142,7160,7176,7193,7210,7227,7244,7261,7278,7294,7310,7329,7344,7360,7377,7399,7414,7430,7446,7463,7482,7499,7514,7528,7549,7565,7580,7599,7614,7632,7646,7666,7680,7700,7714,7733,7747,7766,7784,7799,7812,7831,7848,7863,7878,7897,7912,7930,7945,7963,7979,7998,8017,8029,8047,8063,8081,8095,8112,8131,8145,8163,8180,8197,8213,8229,8247,8263,8281,8301,8315,8335,8349,8365,8384,8402,8416,8434,8452,8467,8481,8499,8516,8532,8545,8565,8580,8597,8613,8631,8649,8665,8680,8699,8713,8730,8747,8767,8780,8799,8815,8833,8850,8865,8881,8899,8914,8932,8947,8963,8981,8998,9014,9033,9048,9068,9099,9114,9130,9147,9165,9181,9203,9217,9233,9252,9267,9282,9299,9315,9335,9349,9367,9383,9400,9417,9434,9455,9470,9485,9505,9521,9536,9554,9571,9586,9605,9621,9638,9652,9669,9685,9706,9719,9739,9754,9772,9787,9804,9819,9833,9852,9866,9888,9900,9917,9932,9950,9967,9983,9999,10017,10033,10050,10067,10084,10102,10117,10133,10152,10167,10184,10202,10221,10237,10256,10270,10290,10303,10321,10339,10356,10373,10390,10404,10423,10437,10455,10471,10488,10504,10523,10539,10556,10569,10587,10603,10619,10638,10654,10670,10687,10704,10721,10738,10756,10771,10790,10802,10821,10837,10856,10870,10887,10903,10920,10938,10952,10969,10988,11004,11021,11037,11055,11069,11086,11106,11124,11139,11157,11171,11187,11205,11219,11236,11256,11269,11288,11302,11320,11337,11353,11371,11390,11407,11424,11439,11458,11471,11489,11503,11522,11537,11555,11572,11588,11603,11623,11637,11655,11670,11687,11710,11727,11741,11759,11775,11791,11808,11830,11853,11872,11889,11904,11924,11938,11955,11975,11988,12005,12024,12039,12057,12075,12090,12107,12123,12140,12157,12172,12191,12205,12225,12239,12257,12273,12289,12306,12323,12342,12357,12373,12391,12407,12427,12441,12461,12476,12493,12509,12528,12543,12558,12572,12591,12606,12623,12639,12656,12674,12690,12707,12724,12740,12761,12776,12795,12810,12827,12841,12860,12873,12892,12909,12924,12940,12959,12974,12990,13009,13029,13043,13061,13077,13095,13111,13128,13142,13162,13175,13196,13210,13228,13243,13263,13278,13295,13309,13328,13346,13363,13375,13394,13408,13429,13443,13461,13478,13494,13510,13528,13545,13559,13576,13595,13609,13628,13643,13660,13677,13694,13712,13727,13743,13763,13779,13793,13810,13829,13843,13862,13876,13895,13911,13927,13943,13960,13979,13992,14009,14029,14043,14062,14076,14093,14112,14131,14146,14164,14181,14198,14211,14230,14246,14266,14303,14309,14328,14345,14360,14378,14394,14410,14429,14443,14461,14477,14494,14510,14527,14545,14561,14579,14596,14611,14630,14644,14661,14680,14700,14712,14732,14747,14767,14781,14800,14815,14833,14850,14865,14879,14898,14911,14931,14945,14961,14979,14996,15013,15030,15049,15062,15081,15095,15115,15129,15146,15168,15181,15202,15215,15234,15249,15268,15284,15301,15314,15334,15348,15368,15382,15401,15416,15434,15450,15469,15484,15501,15515,15534,15551,15568,15586,15602,15616,15634,15649,15665,15681,15700,15714,15734,15748,15766,15780,15799,15815,15832,15851,15869,15882,15902,15915,15935,15949,15967,15981,15997,16015,16032,16050,16064,16086,16103,16117,16137,16151,16170,16185,16203,16220,16234,16250,16271,16282,16302,16317,16337,16351,16371,16387,16403,16420,16438,16449,16469,16482,16502,16516,16534,16549,16571,16585,16603,16621,16637,16651,16671,16685,16704,16718,16739,16752,16772,16787,16802,16821,16835,16855,16871,16888,16901,16919,16933,16953,16968,16984,17000,17020,17033,17053,17068,17086,17100,17119,17135,17153,17169,17185,17201,17221,17233,17254,17268,17286,17301,17319,17335,17352,17370,17386,17401,17421,17435,17452,17469,17487,17501,17520,17535,17553,17569,17586,17606,17620,17635,17656,17670,17688,17703,17721,17736,17756,17774,17792,17820,17836,17856,17870,17889,17902,17922,17937,17953,17971,17986,18002,18021,18037,18055,18069,18085,18103,18119,18137,18153,18173,18187,18204,18221,18238,18255,18269,18286,18303,18321,18338,18354,18370,18390,18406,18421,18437,18456,18471,18490,18505,18524,18538,18556,18574,18591,18607,18623,18638,18659,18673,18690,18704,18721,18738,18755,18771,18788,18804,18826,18840,18858,18873,18895,18906,18927,18939,18955,18974,18992,19006,19024,19038,19056,19071,19088,19105,19122,19139,19156,19174,19188,19205,19225,19239,19258,19272,19290,19307,19323,19341,19359,19374,19393,19406,19425,19440,19457,19473,19491,19507,19523,19540,19559,19573,19592,19606,19629,19642,19662,19678,19696,19708,19726,19743,19759,19777,19794,19808,19826,19841,19859,19873,19893,19910,19929,19943,19957,19976,19992,20007,20025,20040,20056,20077,20095,20110,20128,20145,20161,20176,20197,20209,20228,20244,20263,20277,20297,20312,20329,20349,20365,20391,20410,20429,20444,20464,20477,20495,20512,20530,20547,20563,20577,20598,20613,20630,20644,20663,20678,20696,20713,20730,20744,20765,20778,20797,20811,20831,20847,20864,20879,20897,20916,20931,20943,20962,20976,20995,21009,21029,21043,21062,21076,21093,21113,21126,21143,21161,21177,21194,21210,21227,21244,21261,21278,21294,21312,21327,21344,21363,21378,21396,21411,21429,21443,21462,21478,21495,21511,21531,21544,21563,21578,21596,21611,21628,21646,21662,21678,21698,21712,21730,21745,21764,21780,21797,21812,21830,21846,21863,21879,21898,21914,21933,21945,21965,21979,21998,22011,22029,22046,22062,22081,22102,22114,22135,22148,22166,22181,22200,22217,22235,22251,22268,22282,22300,22315,22336,22349,22369,22382,22402,22417,22435,22450,22469,22482,22502,22514,22536,22550,22569,22583,22602,22618,22635,22649,22670,22683,22702,22718,22734,22749,22767,22782,22800,22817,22832,22848,22866,22882,22901,22916,22932,22948,22967,22982,22999,23017,23031,23050,23065,23081,23097,23117,23137,23151,23169,23186,23200,23217,23237,23250,23270,23284,23302,23318,23335,23352,23370,23384,23403,23417,23437,23451,23470,23486,23504,23519,23538,23552,23569,23587,23601,23617,23638,23651,23671,23685,23704,23719,23738,23753,23770,23784,23802,23820,23833,23852,23867,23885,23901,23920,23935,23952,23967,23986,24000,24017,24033,24049,24067,24084,24100,24117,24135,24150,24167,24186,24200,24217,24234,24251,24267,24284,24303,24322,24340,24355,24370,24388,24403,24422,24437,24456,24471,24488,24505,24523,24537,24556,24570,24590,24603,24622,24637,24655,24672,24690,24707,24722,24737,24757,24770,24790,24804,24824,24838,24856,24872,24890,24905,24924,24939,24955,24969,24990,25002,25020,25036,25054,25070,25087,25103,25122,25135,25153,25172,25189,25203,25219,25236,25256,25271,25289,25303,25321,25338,25354,25370,25391,25405,25425,25441,25458,25472,25489,25505,25522,25539,25555,25571,25590,25608,25625,25638,25656,25671,25691,25705,25723,25738,25756,25772,25790,25806,25824,25838,25858,25873,25891,25904,25926,25941,25958,25975,25990,26005,26024,26039,26054,26074,26094,26108,26127,26143,26162,26178,26194,26206,26227,26241,26260,26274,26294,26310,26329,26344,26362,26376,26395,26408,26427,26442,26460,26475,26493,26510,26527,26544,26560,26575,26594,26608,26628,26641,26660,26676,26696,26712,26730,26745,26762,26776,26796,26809,26832,26845,26858,26878,26892,26908,26927,26943,26960,26973,26993,27008,27024,27040,27057,27076,27094,27111,27128,27143,27163,27178,27194,27213,27228,27245,27265,27279,27297,27314,27330,27344,27364,27377,27396,27411,27431,27444,27464,27479,27495,27510,27530,27544,27562,27577,27597,27611,27630,27645,27664,27680,27696,27711,27730,27748,27763,27778,27797,27812,27832,27846,27863,27881,27897,27910,27931,27943,27962,27976,27995,28009,28027,28044,28060,28076,28098,28112,28132,28143,28161,28177,28197,28211,28229,28245,28261,28277,28297,28311,28330,28344,28362,28377,28395,28412,28429,28447,28461,28478,28497,28511,28530,28544,28563,28578,28595,28611,28629,28646,28662,28679,28698,28711,28731,28746,28765,28778,28796,28812,28831,28846,28863,28882,28897,28912,28933,28945,28964,28978,28998,29012,29031,29046,29064,29081,29095,29112,29132,29146,29165,29181,29199,29213,29231,29247,29265,29280,29306,29329,29346,29366,29382,29399,29415,29432,29449,29463,29480,29500,29513,29533,29548,29567,29582,29601,29615,29633,29650,29666,29680,29701,29715,29734,29748,29767,29783,29800,29815,29832,29847,29868,29881,29902,29914,29934,29950,29968,29983,30000,30017,30035,30049,30066,30082,30102,30116,30136,30151,30169,30184,30201,30214,30234,30248,30267,30281,30301,30315,30333,30349,30366,30383,30401,30415,30436,30449,30469,30484,30503,30516,30533,30550,30568,30585,30599,30616,30635,30650,30669,30684,30704,30719,30733,30752,30768,30784,30799,30819,30833,30854,30867,30886,30902,30920,30935,30953,30969,30985,31000,31022,31033,31054,31068,31087,31103,31120,31134,31153,31169,31186,31200,31221,31234,31253,31270,31287,31301,31318,31336,31351,31367,31387,31402,31421,31435,31454,31468,31486,31502,31521,31534,31554,31569,31587,31603,31621,31640,31654,31670,31688,31702,31722,31735,31753,31769,31788,31805,31822,31837,31855,31869,31888,31903,31922,31936,31955,31970,31990,32005,32023,32037,32056,32069,32087,32103,32122,32137,32156,32171,32188,32206,32222,32236,32256,32270,32289,32303,32321,32337,32354,32372,32387,32403,32423,32436,32455,32470,32489,32503,32521,32538,32556,32572,32590,32606,32624,32637,32656,32671,32690,32703,32723,32739,32757,32772,32791,32807,32826,32841,32859,32877,32891,32906,32924,32939,32957,32971,32991,33005,33025,33039,33058,33072,33089,33105,33125,33138,33159,33174,33190,33205,33225,33238,33258,33272,33291,33306,33326,33340,33357,33372,33392,33406,33424,33440,33460,33473,33492,33508,33525,33540,33559,33573,33593,33606,33626,33640,33657,33673,33693,33709,33725,33741,33759,33773,33792,33809,33827,33843,33859,33878,33894,33908,33929,33941,33961,33974,33994,34010,34026,34043,34060,34075,34094,34108,34128,34142,34161,34175,34194,34209,34227,34244,34259,34275,34295,34309,34328,34342,34361,34376,34394,34410,34428,34443,34463,34477,34496,34510,34528,34543,34563,34577,34595,34612,34629,34644,34663,34678,34696,34710,34729,34744,34760,34777,34796,34813,34828,34843,34864,34876,34895,34910,34929,34944,34961,34978,34993,35010,35029,35043,35062,35076,35096,35110,35128,35144,35162,35179,35196,35211,35229,35244,35261,35281,35295,35310,35329,35345,35363,35380,35398,35411,35431,35447,35464,35478,35497,35512,35531,35547,35565,35578,35599,35613,35632,35647,35665,35678,35698,35712,35732,35747,35763,35779,35799,35811,35832,35846,35867,35880,35898,35912,35932,35949,35965,35979,35998,36012,36032,36046,36065,36080,36097,36113,36130,36146,36166,36179,36199,36214,36231,36246,36265,36280,36298,36314,36330,36346,36364,36380,36399,36413,36432,36447,36464,36480,36499,36516,36531,36546,36566,36581,36600,36613,36631,36647,36666,36681,36698,36714,36734,36746,36767,36780,36800,36814,36832,36849,36866,36884,36898,36914,36935,36947,36967,36981,37001,37015,37032,37049,37067,37081,37100,37115,37132,37148,37166,37181,37198,37215,37232,37250,37267,37282,37302,37318,37332,37349,37368,37382,37398,37415,37434,37449,37466,37483,37500,37516,37534,37549,37568,37583,37601,37616,37633,37650,37667,37683,37699,37719,37733,37750,37766,37783,37800,37816,37834,37851,37868,37885,37900,37918,37935,37953,37967,37985,38000,38019,38034,38052,38067,38087,38101,38120,38134,38153,38168,38184,38202,38220,38236,38252,38268,38287,38301,38319,38334,38354,38368,38385,38403,38421,38437,38452,38468,38487,38503,38520,38535,38555,38568,38585,38602,38620,38638,38651,38668,38687,38702,38721,38736,38753,38770,38787,38803,38819,38836,38855,38872,38886,38903,38922,38937,38955,38969,38987,39003,39023,39036,39054,39069,39089,39103,39121,39136,39155,39171,39188,39203,39223,39237,39257,39270,39290,39304,39323,39337,39357,39372,39389,39404,39424,39437,39456,39471,39490,39503,39521,39537,39556,39574,39589,39604,39623,39638,39657,39671,39689,39705,39722,39740,39755,39772,39791,39805,39824,39838,39857,39872,39890,39906,39924,39942,39959,39973,39992,40006,40024,40040,40060,40073,40092,40109,40127,40142,40159,40175,40193,40207,40225,40239,40260,40273,40293,40307,40326,40343,40360,40373,40393,40408,40424,40440,40461,40475,40493,40509,40526,40540,40559,40574,40593,40606,40626,40641,40660,40676,40693,40708,40726,40742,40762,40777,40796,40807,40828,40841,40860,40877,40894,40907,40928,40943,40961,40975,40994,41008,41028,41045,41062,41080,41095,41109,41127,41143,41161,41175,41195,41209,41229,41259,41276,41295,41311,41329,41343,41362,41375,41395,41410,41430,41448,41462,41478,41497,41510,41528,41543,41562,41576,41596,41612,41630,41644,41663,41679,41696,41711,41730,41743,41763,41781,41796,41813,41835,41847,41863,41879,41897,41912,41931,41945,41965,41978,41997,42011,42031,42046,42063,42082,42097,42110,42131,42145,42164,42179,42202,42228,42245,42264,42278,42298,42311,42331,42345,42365,42377,42398,42413,42430,42447,42464,42478,42502,42513,42530,42544,42564,42579,42599,42628,42644,42665,42679,42698,42711,42731,42745,42764,42779,42798,42813,42830,42845,42865,42883,42896,42913,42932,42947,42966,42979,42998,43013,43032,43047,43064,43080,43099,43116,43131,43147,43166,43181,43200,43215,43232,43248,43268,43280,43299,43315,43334,43350,43367,43384,43399,43415,43435,43448,43466,43480,43501,43515,43534,43549,43566,43583,43601,43615,43634,43649,43667,43683,43700,43716,43734,43751,43767,43782,43800,43816,43835,43848,43869,43888,43902,43917,43937,43950,43969,43982,43998,44016,44034,44048,44067,44082,44101,44115,44136,44150,44168,44184,44201,44216,44236,44252,44269,44282,44321,44336,44350,44369,44383,44400,44416,44436,44449,44471,44485,44503,44519,44536,44550,44569,44587,44604,44617,44637,44653,44666,44686,44701,44720,44733,44753,44767,44785,44800,44819,44833,44854,44867,44887,44902,44920,44935,44952,44967,44988,45001,45020,45037,45054,45068,45087,45102,45121,45134,45155,45168,45187,45202,45220,45238,45252,45270,45288,45301,45320,45335,45354,45368,45389,45402,45421,45439,45455,45470,45487,45502,45521,45536,45553,45570,45588,45601,45621,45637,45655,45668,45688,45703,45720,45736,45755,45772,45789,45803,45821,45837,45856,45870,45889,45903,45922,45938,45955,45971,45986,46003,46021,46036,46055,46069,46088,46103,46122,46137,46155,46169,46190,46203,46222,46237,46254,46343,46347,46370,46388,46405,46425,46438,46458,46472,46489,46505,46523,46541,46557,46575,46591,46605,46622,46639,46655,46673,46691,46707,46725,46739,46758,46773,46792,46805,46824,46839,46858,46872,46892,46908,46926,46941,46960,46974,46992,47006,47025,47040,47059,47073,47090,47109,47125,47141,47160,47174,47192,47207,47226,47241,47258,47274,47293,47307,47326,47342,47361,47373,47392,47407,47426,47440,47458,47475,47491,47507,47527,47542,47560,47574,47593,47608,47624,47642,47660,47678,47693,47709,47728,47743,47760,47774,47790,47809,47826,47842,47857,47876,47892,47907,47928,47944,47966,47976,47994,48008,48027,48041,48061,48075,48095,48108,48127,48141,48161,48175,48193,48209,48225,48242,48262,48275,48295,48308,48327,48342,48359,48375,48392,48410,48427,48441,48461,48475,48495,48509,48526,48541,48562,48576,48593,48612,48625,48642,48662,48675,48694,48709,48728,48743,48761,48777,48796,48809,48830,48843,48863,48877,48896,48912,48929,48945,48962,48978,48995,49010,49029,49043,49062,49076,49096,49110,49128,49145,49161,49179,49193,49210,49230,49244,49262,49277,49294,49310,49328,49346,49361,49377,49397,49411,49430,49444,49464,49478,49494,49512,49530,49546,49562,49577,49597,49612,49631,49644,49663,49678,49697,49712,49730,49748,49761,49779,49798,49812,49831,49845,49865,49879,49896,49916,49934,49947,49967,49997,50012,50033,50048,50068,50095,50114,50129,50147,50166,50179,50199,50213,50232,50246,50265,50280,50300,50313,50332,50348,50366,50379,50399,50413,50433,50447,50465,50481,50500,50514,50532,50547,50566,50580,50600,50616,50633,50648,50666,50680,50700,50715,50733,50747,50765,50781,50800,50814,50834,50850,50865,50881,50900,50920,50933,50949,50967,50982,51001,51015,51034,51050,51068,51082,51101,51115,51135,51149,51166,51182,51203,51215,51232,51249,51268,51282,51302,51316,51333,51349,51367,51382,51402,51415,51435,51449,51468,51482,51501,51516,51535,51550,51567,51583,51603,51617,51632,51653,51666,51686,51700,51718,51734,51753,51766,51785,51801,51820,51835,51852,51869,51887,51902,51920,51935,51953,51967,51987,52001,52019,52034,52054,52068,52085,52103,52120,52136,52154,52167,52187,52203,52221,52237,52253,52270,52288,52303,52319,52335,52354,52368,52386,52402,52422,52435,52453,52469,52487,52501,52522,52535,52554,52568,52588,52601,52620,52636,52654,52671,52687,52701,52721,52735,52755,52769,52787,52803,52821,52836,52856,52872,52888,52904,52922,52937,52955,52969,52989,53003,53020,53038,53053,53069,53089,53104,53122,53136,53156,53169,53189,53203,53223,53236,53256,53270,53289,53306,53321,53337,53356,53372,53390,53404,53424,53438,53456,53470,53489,53504,53524,53538,53555,53571,53591,53604,53623,53638,53658,53671,53690,53705,53723,53739,53757,53772,53791,53805,53823,53840,53858,53871,53891,53905,53925,53941,53957,53972,53992,54005,54025,54039,54058,54072,54090,54107,54124,54139,54159,54172,54191,54206,54225,54239,54259,54273,54292,54308,54325,54339,54359,54373,54392,54406,54425,54439,54459,54473,54492,54509,54525,54540,54560,54573,54593,54606,54626,54640,54659,54675,54694,54707,54728,54740,54760,54774,54794,54808,54825,54842,54860,54876,54893,54908,54926,54942,54961,54975,54993,55009,55027,55042,55059,55075,55093,55108,55127,55142,55159,55175,55194,55209,55228,55243,55261,55276,55294,55309,55328,55342,55362,55377,55394,55411,55429,55445,55460,55475,55495,55512,55528,55544,55563,55576,55595,55610,55629,55642,55662,55676,55695,55710,55729,55742,55762,55776,55793,55811,55828,55843,55861,55876,55896,55909,55927,55944,55963,55978,55996,56013,56029,56043,56063,56077,56097,56110,56129,56144,56163,56179,56197,56210,56229,56244,56263,56277,56296,56311,56330,56344,56363,56380,56396,56411,56430,56445,56464,56477,56497,56511,56531,56546,56563,56580,56596,56612,56631,56645,56664,56679,56698,56712,56729,56747,56765,56778,56797,56813,56837,56850,56878,56896,56913,56930,56948,56965,56979,56999,57012,57031,57046,57064,57081,57100,57115,57133,57151,57165,57181,57200,57213,57233,57247,57265,57280,57299,57315,57332,57347,57367,57382,57399,57414,57433,57447,57468,57481,57498,57516,57534,57547,57565,57580,57600,57613,57634,57648,57666,57683,57700,57716,57733,57748,57767,57781,57799,57815,57836,57848,57865,57883,57900,57914,57935,57951,57966,57986,58001,58016,58035,58049,58067,58084,58101,58116,58134,58148,58165,58184,58199,58215,58234,58248,58266,58282,58299,58315,58333,58352,58370,58385,58405,58419,58438,58452,58471,58487,58505,58520,58538,58554,58571,58586,58602,58621,58633,58651,58668,58689,58703,58722,58737,58755,58770,58789,58803,58821,58838,58856,58869,58889,58903,58923,58936,58957,58973,58989,59018,59035,59050,59067,59086,59101,59117,59134,59151,59169,59185,59202,59219,59234,59254,59268,59286,59302,59318,59335,59351,59368,59385,59402,59418,59435,59452,59470,59486,59504,59518,59537,59552,59569,59586,59602,59619,59636,59657,59671,59691,59705,59725,59738,59758,59772,59790,59807,59824,59838,59857,59871,59890,59905,59926,59938,59957,59973,59993,60006,60022,60036,60056,60070,60089,60104,60121,60136,60154,60171,60188,60203,60224,60239,60259,60272,60292,60306,60325,60341,60358,60374,60392,60407,60425,60440,60462,60474,60494,60508,60525,60543,60559,60575,60592,60606,60626,60639,60659,60673,60692,60707,60725,60741,60760,60778,60793,60807,60825,60841,60859,60874,60893,60909,60927,60944,60959,60974,60994,61008,61024,61040,61059,61074,61090,61107,61125,61142,61156,61172,61191,61206,61222,61239,61256,61273,61290,61307,61324,61342,61356,61375,61390,61406,61425,61443,61458,61474,61491,61507,61526,61541,61557,61574,61591,61608,61624,61643,61658,61674,61693,61707,61725,61741,61758,61775,61792,61808,61828,61842,61859,61874,61896,61910,61930,61945,61964,61978,61996,62011,62028,62048,62064,62078,62095,62109,62127,62142,62162,62176,62194,62209,62226,62244,62259,62277,62295,62309,62329,62342,62364,62375,62392,62410,62426,62442,62462,62475,62494,62510,62529,62543,62562,62577,62594,62612,62626,62644,62662,62676,62695,62711,62728,62744,62761,62778,62795,62814,62827,62844,62863,62877,62896,62911,62928,62945,62965,62983,62998,63015,63030,63046,63065,63077,63096,63111,63127,63144,63161,63179,63195,63213,63232,63250,63267,63280,63299,63314,63335,63350,63366,63382,63400,63414,63435,63447,63466,63481,63502,63516,63534,63550,63570,63581,63600,63614,63635,63648,63668,63682,63699,63714,63732,63748,63765,63782,63798,63813,63833,63846,63865,63880,63899,63914,63930,63950,63962,63980,63999,64013,64030,64048,64066,64081,64099,64114,64132,64149,64165,64180,64199,64213,64230,64247,64266,64280,64299,64313,64331,64348,64364,64382,64398,64417,64430,64448,64467,64481,64500,64513,64531,64549,64568,64585,64605,64621,64638,64654,64669,64684,64704,64719,64736,64752,64769,64785,64804,64821,64837,64853,64868,64884,64902,64917,64934,64950,64968,64983,65000,65018,65034,65048,65069,65084,65103,65117,65135,65149,65168,65183,65201,65218,65232,65249,65268,65282,65300,65315,65332,65349,65368,65384,65400,65416,65435,65449,65468,65483,65499,65516,65533,65550,65569,65583,65600,65618,65633,65650,65667,65683,65700,65717,65734,65751,65767,65785,65800,65817,65834,65850,65869,65890,65903,65959,65970,65984,66001,66018,66036,66050,66067,66086,66102,66121,66135,66154,66168,66186,66203,66219,66234,66253,66268,66287,66305,66323,66338,66357,66373,66389,66407,66423,66442,66456,66471,66489,66504,66523,66538,66557,66571,66590,66608,66624,66638,66659,66672,66690,66706,66726,66739,66759,66774,66791,66805,66825,66840,66859,66873,66892,66907,66926,66941,66960,66977,66993,67006,67026,67040,67059,67073,67092,67107,67128,67140,67157,67174,67190,67204,67223,67237,67256,67270,67287,67304,67321,67338,67354,67371,67391,67406,67423,67437,67454,67472,67491,67505,67524,67538,67557,67574,67590,67608,67623,67641,67655,67672,67690,67705,67724,67739,67756,67772,67790,67807,67822,67839,67859,67872,67891,67906,67924,67939,67957,67973,67990,68008,68024,68040,68059,68072,68090,68106,68126,68140,68159,68174,68192,68209,68225,68240,68258,68272,68290,68306,68323,68340,68356,68374,68390,68410,68423,68442,68456,68473,68492,68506,68527,68544,68562,68577,68595,68611,68629,68644,68661,68676,68696,68710,68728,68744,68762,68777,68796,68812,68829,68844,68863,68877,68897,68913,68929,68946,68964,68979,68995,69012,69026,69042,69061,69079,69091,69110,69127,69145,69161,69177,69195,69212,69227,69242,69262,69277,69293,69309,69325,69343,69360,69377,69392,69409,69429,69444,69461,69476,69493,69509,69527,69543,69559,69578,69593,69609,69628,69642,69660,69676,69696,69713,69731,69747,69765,69780,69794,69811,69829,69843,69860,69877,69894,69911,69928,69945,69962,69977,69997,70010,70028,70044,70061,70077,70094,70111,70129,70148,70164,70178,70196,70211,70230,70244,70261,70278,70295,70312,70328,70347,70361,70378,70397,70411,70429,70445,70462,70478,70495,70512,70529,70546,70563,70580,70597,70616,70629,70645,70665,70679,70697,70712,70729,70747,70764,70782,70797,70813,70832,70846,70864,70879,70898,70913,70930,70947,70965,70982,70998,71013,71032,71046,71064,71080,71096,71116,71130,71147,71166,71180,71199,71213,71232,71247,71265,71281,71298,71313,71332,71346,71365,71380,71397,71413,71430,71448,71465,71483,71497,71514,71536,71549,71569,71583,71602,71614,71633,71649,71667,71684,71698,71715,71736,71751,71769,71785,71803,71818,71850,71865,71885,71902,71915,71935,71950,71968,71983,72002,72017,72035,72053,72068,72083,72102,72117,72135,72150,72169,72184,72202,72215,72233,72250,72269,72286,72302,72316,72333,72349,72368,72383,72399,72416,72433,72450,72467,72485,72500,72519,72533,72550,72567,72584,72599,72617,72633,72651,72669,72683,72700,72719,72733,72750,72768,72786,72801,72819,72834,72851,72868,72885,72902,72918,72936,72951,72969,72986,73003,73022,73035,73055,73070,73086,73101,73118,73134,73151,73171,73186,73202,73221,73235,73254,73268,73287,73302,73319,73336,73353,73370,73385,73402,73421,73437,73455,73469,73486,73503,73519,73537,73552,73569,73588,73602,73622,73636,73653,73669,73686,73702,73720,73736,73754,73774,73791,73804,73824,73837,73857,73873,73893,73907,73923,73939,73956,73971,73992,74004,74023,74037,74055,74071,74091,74105,74121,74140,74155,74170,74191,74206,74225,74239,74257,74272,74291,74306,74322,74340,74354,74376,74389,74404,74422,74437,74455,74471,74488,74504,74526,74540,74559,74574,74592,74608,74626,74641,74659,74673,74691,74704,74724,74738,74755,74773,74789,74806,74823,74840,74856,74872,74892,74905,74923,74939,74956,74972,74991,75007,75023,75041,75057,75073,75092,75106,75127,75143,75161,75177,75196,75210,75230,75243,75260,75273,75293,75307,75326,75340,75356,75373,75395,75409,75429,75446,75461,75476,75495,75510,75528,75546,75561,75575,75594,75607,75628,75641,75661,75677,75693,75709,75727,75745,75759,75776,75795,75808,75827,75841,75860,75877,75895,75912,75928,75944,75961,75975,75997,76009,76027,76043,76061,76077,76095,76110,76128,76143,76162,76177,76196,76211,76231,76246,76263,76279,76296,76312,76327,76343,76360,76375,76392,76409,76426,76443,76460,76477,76494,76509,76528,76542,76559,76576,76593,76610,76626,76643,76660,76678,76693,76715,76731,76746,76767,76778,76797,76813,76830,76845,76863,76879,76896,76911,76931,76944,76963,76977,77001,77012,77031,77047,77064,77079,77096,77112,77131,77145,77163,77178,77195,77212,77229,77245,77263,77281,77297,77311,77329,77344,77362,77378,77395,77412,77429,77446,77462,77478,77497,77511,77528,77545,77563,77579,77595,77613,77629,77648,77662,77678,77697,77712,77729,77745,77762,77779,77797,77813,77830,77849,77862,77879,77897,77915,77934,77950,77967,77983,78006,78020,78034,78051,78067,78083,78098,78113,78132,78146,78163,78181,78198,78216,78231,78247,78266,78281,78297,78313,78333,78347,78364,78382,78398,78416,78430,78447,78469,78483,78503,78517,78535,78554,78573,78586,78605,78616,78637,78650,78670,78684,78704,78720,78739,78753,78770,78788,78804,78816,78836,78851,78872,78886,78905,78920,78939,78954,78970,78987,79010,79020,79034,79053,79068,79083,79100,79117,79135,79153,79169,79183,79201,79216,79237,79250,79268,79283,79302,79316,79336,79351,79366,79386,79400,79416,79435,79450,79467,79483,79500,79522,79538,79555,79572,79590,79603,79624,79638,79657,79672,79689,79707,79724,79739,79755,79769,79789,79802,79822,79836,79856,79870,79890,79905,79921,79939,79957,79970,79990,80006,80023,80038,80058,80071,80091,80108,80123,80140,80157,80169,80189,80203,80222,80239,80256,80271,80288,80303,80321,80335,80355,80369,80387,80403,80421,80439,80452,80469,80487,80503,80520,80536,80552,80570,80590,80606,80624,80641,80656,80672,80692,80705,80723,80739,80758,80775,80792,80809,80825,80840,80859,80872,80891,80906,80926,80941,80959,80973,80991,81007,81027,81039,81059,81071,81094,81106,81128,81140,81159,81176,81193,81211,81227,81241,81259,81275,81291,81304,81322,81338,81357,81372,81388,81404,81425,81439,81458,81471,81489,81506,81525,81542,81558,81575,81591,81605,81625,81639,81657,81673,81692,81707,81725,81742,81759,81773,81791,81806,81826,81840,81858,81873,81891,81907,81923,81943,81959,81973,81993,82008,82026,82040,82058,82075,82092,82110,82125,82143,82159,82174,82192,82207,82225,82242,82259,82275,82292,82308,82326,82343,82358,82373,82390,82407,82424,82440,82456,82473,82491,82509,82524,82540,82559,82574,82591,82607,82627,82644,82661,82677,82695,82713,82730,82743,82761,82776,82795,82811,82830,82843,82862,82879,82895,82911,82929,82944,82962,82977,82997,83011,83030,83043,83060,83078,83093,83108,83126,83142,83160,83175,83192,83209,83227,83243,83262,83278,83294,83309,83328,83342,83361,83375,83392,83410,83426,83443,83460,83476,83496,83509,83528,83542,83561,83576,83593,83611,83627,83645,83660,83676,83696,83710,83727,83743,83761,83777,83794,83811,83828,83846,83860,83877,83895,83910,83928,83945,83960,83977,83995,84012,84028,84044,84066,84080,84099,84116,84132,84146,84165,84180,84197,84215,84230,84246,84266,84279,84298,84311,84332,84344,84362,84379,84396,84414,84428,84448,84462,84478,84495,84512,84530,84545,84563,84578,84595,84612,84630,84647,84664,84679,84698,84713,84731,84746,84763,84779,84796,84813,84830,84847,84864,84879,84899,84913,84930,84946,84963,84980,84998,85015,85031,85049,85063,85080,85101,85116,85135,85150,85168,85183,85201,85219,85234,85251,85272,85287,85299,85318,85334,85349,85367,85383,85401,85416,85430,85447,85467,85481,85499,85514,85533,85550,85566,85583,85599,85618,85631,85651,85665,85682,85701,85716,85733,85748,85764,85782,85798,85815,85832,85851,85865,85884,85898,85916,85938,85951,85969,85985,86006,86017,86036,86053,86069,86084,86103,86117,86136,86149,86169,86183,86201,86217,86234,86253,86271,86284,86303,86316,86333,86350,86367,86382,86401,86417,86436,86452,86467,86485,86500,86519,86533,86549,86567,86584,86601,86617,86636,86650,86670,86683,86703,86722,86736,86754,86771,86789,86805,86823,86844,86857,86869,86883,86900,86920,86936,86954,86969,86988,87003,87020,87036,87054,87072,87087,87103,87123,87136,87155,87171,87189,87203,87221,87238,87255,87271,87289,87303,87324,87335,87354,87368,87389,87404,87421,87438,87453,87469,87488,87502,87521,87536,87553,87569,87588,87604,87620,87638,87654,87670,87688,87702,87721,87736,87753,87770,87788,87806,87821,87839,87853,87872,87891,87905,87927,87941,87961,87976,87993,88009,88025,88038,88057,88073,88091,88106,88126,88140,88159,88175,88192,88209,88225,88240,88260,88275,88292,88305,88324,88339,88357,88372,88389,88407,88420,88437,88456,88471,88487,88505,88521,88539,88556,88573,88589,88605,88624,88638,88655,88671,88690,88705,88723,88740,88758,88778,88797,88822,88838,88858,88872,88891,88906,88925,88940,88957,88975,88990,89007,89026,89040,89059,89073,89093,89108,89126,89143,89159,89174,89193,89206,89227,89241,89259,89276,89293,89309,89326,89343,89360,89373,89399,89424,89448,89472,89490,89508,89527,89541,89558,89574,89590,89606,89624,89643,89662,89680,89697,89710,89726,89744,89762,89775,89795,89812,89830,89846,89863,89878,89896,89910,89930,89944,89964,89976,89992,90008,90026,90043,90059,90076,90094,90109,90126,90142,90159,90176,90192,90210,90227,90244,90259,90279,90294,90309,90328,90343,90362,90377,90394,90409,90427,90444,90460,90478,90494,90512,90532,90545,90566,90580,90600,90613,90633,90648,90665,90683,90699,90712,90731,90746,90766,90783,90801,90817,90831,90846,90863,90878,90897,90911,90931,90945,90964,90979,90998,91014,91032,91049,91064,91078,91099,91112,91132,91147,91166,91180,91198,91215,91232,91250,91265,91279,91299,91311,91332,91345,91364,91380,91398,91415,91431,91445,91463,91480,91497,91512,91532,91547,91564,91579,91598,91614,91631,91647,91666,91680,91698,91713,91732,91748,91766,91782,91799,91816,91833,91849,91869,91884,91899,91915,91934,91949,91965,91981,91998,92013,92033,92047,92066,92080,92099,92114,92132,92147,92166,92183,92199,92215,92233,92247,92267,92281,92301,92314,92334,92349,92366,92384,92401,92414,92432,92448,92468,92482,92499,92515,92533,92549,92566,92580,92600,92616,92633,92648,92668,92681,92700,92715,92735,92749,92767,92782,92800,92816,92833,92848,92867,92882,92901,92915,92934,92951,92969,92983,93001,93019,93036,93066,93082,93102,93118,93135,93152,93167,93184,93201,93215,93236,93250,93269,93283,93302,93317,93336,93350,93368,93386,93400,93418,93433,93452,93467,93485,93500,93520,93533,93552,93568,93585,93600,93619,93634,93653,93667,93686,93701,93718,93735,93755,93770,93785,93803,93824,93835,93854,93867,93886,93902,93919,93936,93953,93967,93988,94001,94020,94035,94053,94069,94087,94102,94120,94138,94152,94169,94187,94203,94221,94235,94254,94269,94287,94304,94321,94338,94355,94368,94390,94404,94423,94437,94455,94470,94488,94504,94522,94536,94556,94569,94589,94604,94623,94638,94656,94671,94688,94704,94722,94737,94757,94771,94789,94805,94822,94839,94856,94871,94889,94904,94924,94937,94957,94971,94990,95006,95024,95038,95057,95072,95091,95104,95123,95138,95157,95171,95188,95205,95223,95239,95255,95274,95290,95305,95324,95338,95355,95374,95391,95405,95424,95440,95457,95472,95492,95505,95526,95540,95558,95572,95591,95606,95624,95640,95657,95673,95691,95706,95726,95739,95757,95774,95792,95807,95823,95842,95857,95872,95890,95907,95925,95939,95957,95974,95991,96008,96024,96040,96058,96073,96092,96107,96126,96141,96159,96174,96193,96209,96223,96240,96260,96275,96292,96308,96327,96343,96360,96375,96392,96410,96424,96441,96460,96475,96494,96509,96527,96542,96560,96576,96594,96608,96627,96641,96661,96675,96693,96709,96727,96742,96759,96776,96793,96808,96828,96842,96862,96877,96894,96911,96928,96942,96960,96978,96993,97008,97029,97042,97061,97075,97094,97110,97126,97143,97161,97175,97195,97209,97228,97242,97261,97275,97296,97310,97328,97345,97361,97377,97396,97410,97428,97444,97462,97478,97496,97511,97528,97543,97563,97577,97596,97611,97629,97645,97663,97679,97695,97712,97730,97744,97763,97777,97797,97812,97831,97845,97862,97878,97896,97914,97929,97945,97964,97978,97997,98012,98030,98046,98064,98079,98096,98112,98131,98145,98165,98178,98197,98212,98231,98247,98265,98281,98300,98313,98331,98345,98364,98379,98398,98412,98431,98447,98463,98481,98495,98512,98530,98545,98563,98579,98596,98612,98630,98647,98664,98682,98696,98713,98731,98746,98765,98779,98796,98814,98832,98848,98864,98879,98899,98913,98932,98946,98964,98980,98997,99014,99031,99048,99064,99080,99101,99116,99135,99151,99171,99184,99204,99218,99237,99253,99268,99284,99302,99333,99349,99368,99383,99401,99415,99433,99448,99468,99483,99502,99516,99534,99550,99565,99581,99599,99617,99632,99648,99669,99683,99701,99715,99733,99750,99766,99783,99800,99817],"hit":[null],"x":[-1.751700680272109,-1.751700680272109,-1.751700680272109,-1.751700680272109,-1.751700680272109,-1.751700680272109,-1.751700680272109,-1.751700680272109,-1.751700680272109,-1.751700680272109,-1.751700680272109,-1.751700680272109,-1.751700680272109,-1.751700680272109,-1.751700680272109,-1.751700680272109,-1.751700680272109,-1.751700680272109,-1.751700680272109,-1.751700680272109,-1.751700680272109,-1.751700680272109,-1.751700680272109,-1.751700680272109,-1.751700680272109,-1.751700680272109,-1.751700680272109,-1.751700680272109,-1.751700680272109,-1.751700680272109,-1.751700680272109,-1.751700680272109,-1.751700680272109,-1.751700680272109,-1.751700680272109,-1.751700680272109,-1.751700680272109,-1.751700680272109,-1.751700680272109,-1.751700680272109,-1.751700680272109,-1.751700680272109,-1.751700680272109,-1.751700680272109,-1.751700680272109,-1.751700680272109,-1.751700680272109,-1.751700680272109,-1.751700680272109,-1.751700680272109,-1.751700680272109,-1.751700680272109,-1.751700680272109,-1.751700680272109,-1.751700680272109,-1.751700680272109,-1.751700680272109,-1.751700680272109,-1.751700680272109,-1.751700680272109,-1.751700680272109,-1.751700680272109,-1.751700680272109,-1.751700680272109,-1.751700680272109,-1.751700680272109,-1.751700680272109,-1.751700680272109,-1.751700680272109,-1.751700680272109,-1.751700680272109,-1.751700680272109,-0.030612244897959183,-0.030612244897959183,-0.034013605442176874,-0.034013605442176874,-0.034013605442176874,-0.034013605442176874,-0.034013605442176874,-0.034013605442176874,-0.034013605442176874,-0.034013605442176874,-0.034013605442176874,-0.034013605442176874,-0.034013605442176874,-0.034013605442176874,-0.034013605442176874,-0.023809523809523808,-0.02040816326530612,-0.013605442176870748,-0.006802721088435374,-0.003401360544217687,0.003401360544217687,0.003401360544217687,0.003401360544217687,0.01020408163265306,0.01020408163265306,0.013605442176870748,0.013605442176870748,0.013605442176870748,0.013605442176870748,0.013605442176870748,0.017006802721088437,0.017006802721088437,0.017006802721088437,0.017006802721088437,0.017006802721088437,0.017006802721088437,0.017006802721088437,0.017006802721088437,0.017006802721088437,0.017006802721088437,0.017006802721088437,0.017006802721088437,0.017006802721088437,0.017006802721088437,0.017006802721088437,0.017006802721088437,0.017006802721088437,0.017006802721088437,0.017006802721088437,0.017006802721088437,0.017006802721088437,0.003401360544217687,-0.030612244897959183,-0.0782312925170068,-0.14625850340136054,-0.1836734693877551,-0.22448979591836735,-0.2653061224489796,-0.30952380952380953,-0.3435374149659864,-0.3741496598639456,-0.38095238095238093,-0.3979591836734694,-0.445578231292517,-0.48299319727891155,-0.5510204081632653,-0.5714285714285714,-0.6190476190476191,-0.6632653061224489,-0.7448979591836735,-0.782312925170068,-0.7857142857142857,-0.7925170068027211,-0.7925170068027211,-0.7959183673469388,-0.8231292517006803,-0.8299319727891157,-0.8367346938775511,-0.8503401360544217,-0.8605442176870748,-0.8605442176870748,-0.8605442176870748,-0.8605442176870748,-0.8605442176870748,-0.8605442176870748,-0.8605442176870748,-0.8605442176870748,-0.8605442176870748,-0.8605442176870748,-0.8605442176870748,-0.8605442176870748,-0.8605442176870748,-0.8639455782312925,-0.8537414965986394,-0.8163265306122449,-0.7925170068027211,-0.7517006802721088,-0.717687074829932,-0.6904761904761905,-0.6632653061224489,-0.6258503401360545,-0.5884353741496599,-0.5510204081632653,-0.5272108843537415,-0.5102040816326531,-0.4897959183673469,-0.47619047619047616,-0.40476190476190477,-0.36054421768707484,-0.3197278911564626,-0.282312925170068,-0.2653061224489796,-0.25510204081632654,-0.24149659863945577,-0.22108843537414966,-0.19387755102040816,-0.1564625850340136,-0.1360544217687075,-0.12585034013605442,-0.11224489795918367,-0.09523809523809523,-0.06802721088435375,-0.027210884353741496,0,0.027210884353741496,0.05782312925170068,0.08163265306122448,0.1054421768707483,0.11224489795918367,0.11904761904761904,0.1292517006802721,0.1360544217687075,0.1564625850340136,0.16666666666666666,0.17687074829931973,0.1870748299319728,0.19727891156462585,0.20408163265306123,0.20408163265306123,0.2108843537414966,0.2108843537414966,0.22448979591836735,0.23129251700680273,0.23809523809523808,0.23809523809523808,0.23809523809523808,0.23809523809523808,0.23809523809523808,0.24149659863945577,0.24149659863945577,0.24489795918367346,0.24489795918367346,0.24829931972789115,0.2585034013605442,0.2619047619047619,0.2619047619047619,0.2619047619047619,0.2619047619047619,0.2619047619047619,0.2619047619047619,0.2619047619047619,0.2619047619047619,0.2619047619047619,0.2619047619047619,0.2619047619047619,0.2619047619047619,0.2619047619047619,0.2619047619047619,0.2619047619047619,0.2619047619047619,0.2619047619047619,0.2619047619047619,0.2619047619047619,0.2619047619047619,0.2619047619047619,0.2619047619047619,0.2619047619047619,0.2789115646258503,0.282312925170068,0.2857142857142857,0.2891156462585034,0.2891156462585034,0.29591836734693877,0.29591836734693877,0.29591836734693877,0.30272108843537415,0.30612244897959184,0.30952380952380953,0.30952380952380953,0.3163265306122449,0.3163265306122449,0.3163265306122449,0.3197278911564626,0.3231292517006803,0.3231292517006803,0.32653061224489793,0.32653061224489793,0.32653061224489793,0.3299319727891156,0.3333333333333333,0.3333333333333333,0.3333333333333333,0.3333333333333333,0.3333333333333333,0.3333333333333333,0.336734693877551,0.336734693877551,0.336734693877551,0.336734693877551,0.336734693877551,0.336734693877551,0.336734693877551,0.336734693877551,0.336734693877551,0.336734693877551,0.336734693877551,0.336734693877551,0.336734693877551,0.336734693877551,0.336734693877551,0.336734693877551,0.336734693877551,0.336734693877551,0.336734693877551,0.336734693877551,0.336734693877551,0.336734693877551,0.336734693877551,0.336734693877551,0.336734693877551,0.336734693877551,0.336734693877551,0.336734693877551,0.336734693877551,0.336734693877551,0.336734693877551,0.336734693877551,0.336734693877551,0.336734693877551,0.336734693877551,0.336734693877551,0.336734693877551,0.336734693877551,0.336734693877551,0.336734693877551,0.336734693877551,0.336734693877551,0.336734693877551,0.336734693877551,0.336734693877551,0.336734693877551,0.336734693877551,0.336734693877551,0.336734693877551,0.336734693877551,0.336734693877551,0.336734693877551,0.336734693877551,0.336734693877551,0.336734693877551,0.336734693877551,0.336734693877551,0.336734693877551,0.336734693877551,0.336734693877551,0.336734693877551,0.336734693877551,0.336734693877551,0.336734693877551,0.336734693877551,0.336734693877551,0.336734693877551,0.336734693877551,0.336734693877551,0.336734693877551,0.336734693877551,0.336734693877551,0.336734693877551,0.336734693877551,0.336734693877551,0.336734693877551,0.336734693877551,0.336734693877551,0.336734693877551,0.336734693877551,0.336734693877551,0.336734693877551,0.336734693877551,0.336734693877551,0.336734693877551,0.336734693877551,0.336734693877551,0.336734693877551,0.336734693877551,0.336734693877551,0.336734693877551,0.336734693877551,0.336734693877551,0.336734693877551,0.336734693877551,0.336734693877551,0.336734693877551,0.336734693877551,0.336734693877551,0.336734693877551,0.336734693877551,0.336734693877551,0.336734693877551,0.336734693877551,0.336734693877551,0.336734693877551,0.336734693877551,0.336734693877551,0.336734693877551,0.336734693877551,0.336734693877551,0.336734693877551,0.336734693877551,0.336734693877551,0.336734693877551,0.336734693877551,0.336734693877551,0.336734693877551,0.336734693877551,0.336734693877551,0.336734693877551,0.336734693877551,0.336734693877551,0.336734693877551,0.336734693877551,0.336734693877551,0.336734693877551,0.336734693877551,0.336734693877551,0.336734693877551,0.336734693877551,0.336734693877551,0.336734693877551,0.336734693877551,0.336734693877551,0.336734693877551,0.336734693877551,0.336734693877551,0.336734693877551,0.336734693877551,0.336734693877551,0.336734693877551,0.336734693877551,0.336734693877551,0.336734693877551,0.336734693877551,0.336734693877551,0.336734693877551,0.336734693877551,0.336734693877551,0.336734693877551,0.336734693877551,0.336734693877551,0.336734693877551,0.336734693877551,0.336734693877551,0.336734693877551,0.336734693877551,0.336734693877551,0.336734693877551,0.336734693877551,0.336734693877551,0.336734693877551,0.336734693877551,0.336734693877551,0.336734693877551,0.336734693877551,0.336734693877551,0.336734693877551,0.336734693877551,0.336734693877551,0.336734693877551,0.336734693877551,0.336734693877551,0.336734693877551,0.336734693877551,0.336734693877551,0.336734693877551,0.336734693877551,0.336734693877551,0.336734693877551,0.336734693877551,0.336734693877551,0.336734693877551,0.336734693877551,0.336734693877551,0.336734693877551,0.336734693877551,0.336734693877551,0.336734693877551,0.336734693877551,0.336734693877551,0.336734693877551,0.336734693877551,0.336734693877551,0.336734693877551,0.336734693877551,0.336734693877551,0.336734693877551,0.336734693877551,0.336734693877551,0.336734693877551,0.336734693877551,0.336734693877551,0.336734693877551,0.336734693877551,0.336734693877551,0.336734693877551,0.336734693877551,0.336734693877551,0.336734693877551,0.336734693877551,0.336734693877551,0.336734693877551,0.336734693877551,0.336734693877551,0.336734693877551,0.336734693877551,0.336734693877551,0.336734693877551,0.336734693877551,0.336734693877551,0.336734693877551,0.336734693877551,0.336734693877551,0.336734693877551,0.336734693877551,0.336734693877551,0.336734693877551,0.336734693877551,0.336734693877551,0.336734693877551,0.336734693877551,0.336734693877551,0.336734693877551,0.336734693877551,0.336734693877551,0.336734693877551,0.336734693877551,0.336734693877551,0.336734693877551,0.336734693877551,0.336734693877551,0.336734693877551,0.336734693877551,0.336734693877551,0.336734693877551,0.336734693877551,0.336734693877551,0.336734693877551,0.336734693877551,0.336734693877551,0.336734693877551,0.336734693877551,0.336734693877551,0.336734693877551,0.336734693877551,0.336734693877551,0.336734693877551,0.336734693877551,0.336734693877551,0.336734693877551,0.336734693877551,0.336734693877551,0.336734693877551,0.336734693877551,0.336734693877551,0.336734693877551,0.336734693877551,0.336734693877551,0.336734693877551,0.336734693877551,0.336734693877551,0.336734693877551,0.336734693877551,0.336734693877551,0.336734693877551,0.336734693877551,0.336734693877551,0.336734693877551,0.336734693877551,0.336734693877551,0.336734693877551,0.336734693877551,0.336734693877551,0.336734693877551,0.336734693877551,0.336734693877551,0.336734693877551,0.336734693877551,0.336734693877551,0.336734693877551,0.336734693877551,0.336734693877551,0.336734693877551,0.336734693877551,0.336734693877551,0.336734693877551,0.336734693877551,0.336734693877551,0.336734693877551,0.336734693877551,0.336734693877551,0.336734693877551,0.336734693877551,0.336734693877551,0.336734693877551,0.336734693877551,0.336734693877551,0.336734693877551,0.336734693877551,0.336734693877551,0.336734693877551,0.336734693877551,0.336734693877551,0.336734693877551,0.336734693877551,0.336734693877551,0.336734693877551,0.336734693877551,0.336734693877551,0.336734693877551,0.336734693877551,0.336734693877551,0.336734693877551,0.336734693877551,0.336734693877551,0.336734693877551,0.336734693877551,0.336734693877551,0.336734693877551,0.336734693877551,0.336734693877551,0.336734693877551,0.336734693877551,0.336734693877551,0.336734693877551,0.336734693877551,0.336734693877551,0.336734693877551,0.336734693877551,0.336734693877551,0.336734693877551,0.336734693877551,0.336734693877551,0.336734693877551,0.336734693877551,0.336734693877551,0.336734693877551,0.336734693877551,0.336734693877551,0.336734693877551,0.336734693877551,0.336734693877551,0.336734693877551,0.336734693877551,0.336734693877551,0.336734693877551,0.336734693877551,0.336734693877551,0.336734693877551,0.336734693877551,0.336734693877551,0.3435374149659864,0.35034013605442177,0.35034013605442177,0.35374149659863946,0.35374149659863946,0.35714285714285715,0.35714285714285715,0.35714285714285715,0.35714285714285715,0.36054421768707484,0.36054421768707484,0.36054421768707484,0.36394557823129253,0.36394557823129253,0.35714285714285715,0.35374149659863946,0.35374149659863946,0.35374149659863946,0.35374149659863946,0.35374149659863946,0.35374149659863946,0.35374149659863946,0.35374149659863946,0.35374149659863946,0.35374149659863946,0.35374149659863946,0.35374149659863946,0.35374149659863946,0.35374149659863946,0.35374149659863946,0.35374149659863946,0.35374149659863946,0.35374149659863946,0.35374149659863946,0.35374149659863946,0.35374149659863946,0.35374149659863946,0.3435374149659864,0.3333333333333333,0.3231292517006803,0.3163265306122449,0.29591836734693877,0.2789115646258503,0.272108843537415,0.2687074829931973,0.2687074829931973,0.2687074829931973,0.2687074829931973,0.2687074829931973,0.2687074829931973,0.2687074829931973,0.2687074829931973,0.2687074829931973,0.2687074829931973,0.2687074829931973,0.2687074829931973,0.2687074829931973,0.2687074829931973,0.2687074829931973,0.2687074829931973,0.2687074829931973,0.2687074829931973,0.2687074829931973,0.2687074829931973,0.2687074829931973,0.2687074829931973,0.2687074829931973,0.2687074829931973,0.2687074829931973,0.2687074829931973,0.2687074829931973,0.2687074829931973,0.2687074829931973,0.2687074829931973,0.2687074829931973,0.2687074829931973,0.2687074829931973,0.2687074829931973,0.2687074829931973,0.2687074829931973,0.2687074829931973,0.2687074829931973,0.2687074829931973,0.2687074829931973,0.2687074829931973,0.2687074829931973,0.2687074829931973,0.2687074829931973,0.2687074829931973,0.2687074829931973,0.2687074829931973,0.2687074829931973,0.2687074829931973,0.2687074829931973,0.2687074829931973,0.2687074829931973,0.2687074829931973,0.2687074829931973,0.2687074829931973,0.2687074829931973,0.2687074829931973,0.2687074829931973,0.2687074829931973,0.2687074829931973,0.2687074829931973,0.2687074829931973,0.2687074829931973,0.2687074829931973,0.2687074829931973,0.2687074829931973,0.2687074829931973,0.2687074829931973,0.2687074829931973,0.2687074829931973,0.2687074829931973,0.2687074829931973,0.2687074829931973,0.2687074829931973,0.2687074829931973,0.2687074829931973,0.2687074829931973,0.2687074829931973,0.2687074829931973,0.2687074829931973,0.2687074829931973,0.2687074829931973,0.2687074829931973,0.2687074829931973,0.2687074829931973,0.2687074829931973,0.2687074829931973,0.2687074829931973,0.2687074829931973,0.2687074829931973,0.2687074829931973,0.2687074829931973,0.2687074829931973,0.2687074829931973,0.2687074829931973,0.2687074829931973,0.2687074829931973,0.2687074829931973,0.2687074829931973,0.2687074829931973,0.2687074829931973,0.2687074829931973,0.2687074829931973,0.2687074829931973,0.2687074829931973,0.2687074829931973,0.2687074829931973,0.2687074829931973,0.2687074829931973,0.2687074829931973,0.2687074829931973,0.2687074829931973,0.2687074829931973,0.2687074829931973,0.2687074829931973,0.2687074829931973,0.2687074829931973,0.2687074829931973,0.2687074829931973,0.2687074829931973,0.2687074829931973,0.2687074829931973,0.2687074829931973,0.2687074829931973,0.2687074829931973,0.2687074829931973,0.2687074829931973,0.2687074829931973,0.2687074829931973,0.2687074829931973,0.2687074829931973,0.2687074829931973,0.2687074829931973,0.2687074829931973,0.2687074829931973,0.2687074829931973,0.2687074829931973,0.2687074829931973,0.2687074829931973,0.2687074829931973,0.2687074829931973,0.2687074829931973,0.2687074829931973,0.2687074829931973,0.2687074829931973,0.2687074829931973,0.2687074829931973,0.2687074829931973,0.2687074829931973,0.2687074829931973,0.2687074829931973,0.2653061224489796,0.2653061224489796,0.2653061224489796,0.2653061224489796,0.2653061224489796,0.2653061224489796,0.2653061224489796,0.2653061224489796,0.2653061224489796,0.2653061224489796,0.2653061224489796,0.2653061224489796,0.2687074829931973,0.2687074829931973,0.272108843537415,0.272108843537415,0.272108843537415,0.272108843537415,0.272108843537415,0.272108843537415,0.272108843537415,0.272108843537415,0.272108843537415,0.272108843537415,0.272108843537415,0.272108843537415,0.272108843537415,0.272108843537415,0.272108843537415,0.272108843537415,0.272108843537415,0.272108843537415,0.272108843537415,0.272108843537415,0.272108843537415,0.272108843537415,0.272108843537415,0.272108843537415,0.272108843537415,0.272108843537415,0.272108843537415,0.272108843537415,0.272108843537415,0.272108843537415,0.272108843537415,0.272108843537415,0.272108843537415,0.272108843537415,0.272108843537415,0.272108843537415,0.272108843537415,0.272108843537415,0.272108843537415,0.272108843537415,0.272108843537415,0.272108843537415,0.272108843537415,0.272108843537415,0.272108843537415,0.272108843537415,0.272108843537415,0.272108843537415,0.272108843537415,0.272108843537415,0.272108843537415,0.272108843537415,0.272108843537415,0.272108843537415,0.272108843537415,0.272108843537415,0.272108843537415,0.272108843537415,0.272108843537415,0.272108843537415,0.272108843537415,0.272108843537415,0.272108843537415,0.272108843537415,0.272108843537415,0.272108843537415,0.272108843537415,0.272108843537415,0.272108843537415,0.272108843537415,0.272108843537415,0.272108843537415,0.2755102040816326,0.2789115646258503,0.2789115646258503,0.2789115646258503,0.2789115646258503,0.2789115646258503,0.2789115646258503,0.2789115646258503,0.2789115646258503,0.2789115646258503,0.2789115646258503,0.2789115646258503,0.2789115646258503,0.2789115646258503,0.2789115646258503,0.2789115646258503,0.2789115646258503,0.2789115646258503,0.2789115646258503,0.2789115646258503,0.2789115646258503,0.2789115646258503,0.2789115646258503,0.2789115646258503,0.2789115646258503,0.2789115646258503,0.2789115646258503,0.2789115646258503,0.2789115646258503,0.2789115646258503,0.2789115646258503,0.2789115646258503,0.2789115646258503,0.2789115646258503,0.2789115646258503,0.2789115646258503,0.2789115646258503,0.2789115646258503,0.2789115646258503,0.2789115646258503,0.2789115646258503,0.2789115646258503,0.2789115646258503,0.2789115646258503,0.2789115646258503,0.2789115646258503,0.2789115646258503,0.2789115646258503,0.2789115646258503,0.2789115646258503,0.2789115646258503,0.2789115646258503,0.2789115646258503,0.2789115646258503,0.2789115646258503,0.2789115646258503,0.2789115646258503,0.2789115646258503,0.2789115646258503,0.2789115646258503,0.2789115646258503,0.2789115646258503,0.2789115646258503,0.2789115646258503,0.2789115646258503,0.2789115646258503,0.2789115646258503,0.2789115646258503,0.2789115646258503,0.2789115646258503,0.2789115646258503,0.2789115646258503,0.2789115646258503,0.2789115646258503,0.2789115646258503,0.2789115646258503,0.2789115646258503,0.2789115646258503,0.2789115646258503,0.2789115646258503,0.2789115646258503,0.2789115646258503,0.2789115646258503,0.2789115646258503,0.2789115646258503,0.2789115646258503,0.2789115646258503,0.2789115646258503,0.2789115646258503,0.2789115646258503,0.2789115646258503,0.2789115646258503,0.2789115646258503,0.2789115646258503,0.2789115646258503,0.2789115646258503,0.2789115646258503,0.2789115646258503,0.2789115646258503,0.2789115646258503,0.2789115646258503,0.2789115646258503,0.2789115646258503,0.2789115646258503,0.2789115646258503,0.2789115646258503,0.2789115646258503,0.2789115646258503,0.2789115646258503,0.2789115646258503,0.2789115646258503,0.2789115646258503,0.2789115646258503,0.2789115646258503,0.2789115646258503,0.2789115646258503,0.2789115646258503,0.2789115646258503,0.2789115646258503,0.282312925170068,0.282312925170068,0.282312925170068,0.2857142857142857,0.2857142857142857,0.2891156462585034,0.29591836734693877,0.30272108843537415,0.30952380952380953,0.3163265306122449,0.3231292517006803,0.3231292517006803,0.32653061224489793,0.32653061224489793,0.3333333333333333,0.3333333333333333,0.3435374149659864,0.3435374149659864,0.35374149659863946,0.35374149659863946,0.35374149659863946,0.35374149659863946,0.35034013605442177,0.35034013605442177,0.35034013605442177,0.35034013605442177,0.35034013605442177,0.35034013605442177,0.3469387755102041,0.3333333333333333,0.30612244897959184,0.2891156462585034,0.2789115646258503,0.272108843537415,0.272108843537415,0.2619047619047619,0.2619047619047619,0.25510204081632654,0.25170068027210885,0.24489795918367346,0.23469387755102042,0.23469387755102042,0.23469387755102042,0.23469387755102042,0.23469387755102042,0.23469387755102042,0.23469387755102042,0.23469387755102042,0.23469387755102042,0.23469387755102042,0.23469387755102042,0.23469387755102042,0.23469387755102042,0.23469387755102042,0.23469387755102042,0.23469387755102042,0.23809523809523808,0.2857142857142857,0.32653061224489793,0.3741496598639456,0.4013605442176871,0.41836734693877553,0.4217687074829932,0.4217687074829932,0.4217687074829932,0.4217687074829932,0.4217687074829932,0.4217687074829932,0.4217687074829932,0.4217687074829932,0.4217687074829932,0.4217687074829932,0.4217687074829932,0.4217687074829932,0.4217687074829932,0.4217687074829932,0.4217687074829932,0.4217687074829932,0.4523809523809524,0.47278911564625853,0.4931972789115646,0.5068027210884354,0.5102040816326531,0.5102040816326531,0.5170068027210885,0.5374149659863946,0.5884353741496599,0.6156462585034014,0.6666666666666666,0.6836734693877551,0.6870748299319728,0.6870748299319728,0.6870748299319728,0.6870748299319728,0.6870748299319728,0.6870748299319728,0.6870748299319728,0.6870748299319728,0.6870748299319728,0.6870748299319728,0.6870748299319728,0.6870748299319728,0.6870748299319728,0.6870748299319728,0.6870748299319728,0.6870748299319728,0.6938775510204082,0.7142857142857143,0.7619047619047619,0.7891156462585034,0.8061224489795918,0.8129251700680272,0.8129251700680272,0.8129251700680272,0.8129251700680272,0.8129251700680272,0.8129251700680272,0.8129251700680272,0.8129251700680272,0.8129251700680272,0.8129251700680272,0.8129251700680272,0.8333333333333334,0.8571428571428571,0.8843537414965986,0.8979591836734694,0.9115646258503401,0.9149659863945578,0.9149659863945578,0.9183673469387755,0.9183673469387755,0.9183673469387755,0.9217687074829932,0.9217687074829932,0.9217687074829932,0.9217687074829932,0.9217687074829932,0.9217687074829932,0.9217687074829932,0.9217687074829932,0.9217687074829932,0.9217687074829932,0.9217687074829932,0.9217687074829932,0.9217687074829932,0.9217687074829932,0.9217687074829932,0.9217687074829932,0.9217687074829932,0.9217687074829932,0.9217687074829932,0.9217687074829932,0.9217687074829932,0.9217687074829932,0.9217687074829932,0.9217687074829932,0.9217687074829932,0.9217687074829932,0.9217687074829932,0.9217687074829932,0.9217687074829932,0.9217687074829932,0.9217687074829932,0.9217687074829932,0.9217687074829932,0.9217687074829932,0.9217687074829932,0.9217687074829932,0.9217687074829932,0.9217687074829932,0.9217687074829932,0.9217687074829932,0.9217687074829932,0.9217687074829932,0.9217687074829932,0.9217687074829932,0.9217687074829932,0.9217687074829932,0.9217687074829932,0.9217687074829932,0.9217687074829932,0.9217687074829932,0.9217687074829932,0.9217687074829932,0.9217687074829932,0.9217687074829932,0.9217687074829932,0.9217687074829932,0.9217687074829932,0.9217687074829932,0.9217687074829932,0.9217687074829932,0.9217687074829932,0.9217687074829932,0.9217687074829932,0.9217687074829932,0.9217687074829932,0.9217687074829932,0.9217687074829932,0.9217687074829932,0.9217687074829932,0.9217687074829932,0.9217687074829932,0.9217687074829932,0.9217687074829932,0.9217687074829932,0.9217687074829932,0.9217687074829932,0.9217687074829932,0.9217687074829932,0.9217687074829932,0.9217687074829932,0.9217687074829932,0.9217687074829932,0.9217687074829932,0.9217687074829932,0.9217687074829932,0.9217687074829932,0.9217687074829932,0.9217687074829932,0.9217687074829932,0.9217687074829932,0.9217687074829932,0.9217687074829932,0.9217687074829932,0.9217687074829932,0.9217687074829932,0.9217687074829932,0.9217687074829932,0.9217687074829932,0.9217687074829932,0.9217687074829932,0.9217687074829932,0.9217687074829932,0.9217687074829932,0.9217687074829932,0.9217687074829932,0.9217687074829932,0.9217687074829932,0.9217687074829932,0.9217687074829932,0.9217687074829932,0.9217687074829932,0.9217687074829932,0.9217687074829932,0.9217687074829932,0.9217687074829932,0.9217687074829932,0.9217687074829932,0.9217687074829932,0.9217687074829932,0.9217687074829932,0.9217687074829932,0.9217687074829932,0.9217687074829932,0.9217687074829932,0.9217687074829932,0.9217687074829932,0.9217687074829932,0.9217687074829932,0.9217687074829932,0.9217687074829932,0.9217687074829932,0.9217687074829932,0.9217687074829932,0.9217687074829932,0.9217687074829932,0.9217687074829932,0.9217687074829932,0.9217687074829932,0.9217687074829932,0.9217687074829932,0.9217687074829932,0.9217687074829932,0.9217687074829932,0.9217687074829932,0.9217687074829932,0.9217687074829932,0.9217687074829932,0.9217687074829932,0.9217687074829932,0.9217687074829932,0.9217687074829932,0.9217687074829932,0.9217687074829932,0.9217687074829932,0.9217687074829932,0.9217687074829932,0.9217687074829932,0.9217687074829932,0.9217687074829932,0.9217687074829932,0.9217687074829932,0.9217687074829932,0.9217687074829932,0.9217687074829932,0.9217687074829932,0.9217687074829932,0.9217687074829932,0.9217687074829932,0.9217687074829932,0.9217687074829932,0.9217687074829932,0.9217687074829932,0.9217687074829932,0.9217687074829932,0.9217687074829932,0.9217687074829932,0.9217687074829932,0.9217687074829932,0.9217687074829932,0.9217687074829932,0.9217687074829932,0.9217687074829932,0.9217687074829932,0.9217687074829932,0.9217687074829932,0.9217687074829932,0.9217687074829932,0.9217687074829932,0.9217687074829932,0.9217687074829932,0.9217687074829932,0.9217687074829932,0.9217687074829932,0.9217687074829932,0.9217687074829932,0.9217687074829932,0.9217687074829932,0.9217687074829932,0.9217687074829932,0.9217687074829932,0.9217687074829932,0.9217687074829932,0.9217687074829932,0.9217687074829932,0.9217687074829932,0.9217687074829932,0.9217687074829932,0.9217687074829932,0.9217687074829932,0.9217687074829932,0.9217687074829932,0.9217687074829932,0.9217687074829932,0.9217687074829932,0.9217687074829932,0.9217687074829932,0.9217687074829932,0.9217687074829932,0.9217687074829932,0.9217687074829932,0.9217687074829932,0.9217687074829932,0.9217687074829932,0.9217687074829932,0.9217687074829932,0.9217687074829932,0.9217687074829932,0.9217687074829932,0.9217687074829932,0.9217687074829932,0.9217687074829932,0.9217687074829932,0.9217687074829932,0.9217687074829932,0.9217687074829932,0.9217687074829932,0.9217687074829932,0.9217687074829932,0.9217687074829932,0.9217687074829932,0.9217687074829932,0.9217687074829932,0.9217687074829932,0.9217687074829932,0.9217687074829932,0.9217687074829932,0.9217687074829932,0.9217687074829932,0.9217687074829932,0.9217687074829932,0.9217687074829932,0.9217687074829932,0.9217687074829932,0.9217687074829932,0.9217687074829932,0.9217687074829932,0.9217687074829932,0.9217687074829932,0.9217687074829932,0.9217687074829932,0.9217687074829932,0.9217687074829932,0.9217687074829932,0.9217687074829932,0.9217687074829932,0.9217687074829932,0.9217687074829932,0.9217687074829932,0.9217687074829932,0.9217687074829932,0.9217687074829932,0.9217687074829932,0.9217687074829932,0.9217687074829932,0.9217687074829932,0.9217687074829932,0.9217687074829932,0.9217687074829932,0.9217687074829932,0.9217687074829932,0.9217687074829932,0.9217687074829932,0.9217687074829932,0.9217687074829932,0.9217687074829932,0.9217687074829932,0.9217687074829932,0.9217687074829932,0.9217687074829932,0.9217687074829932,0.9217687074829932,0.9217687074829932,0.9217687074829932,0.9217687074829932,0.9217687074829932,0.9217687074829932,0.9217687074829932,0.9217687074829932,0.9217687074829932,0.9217687074829932,0.9217687074829932,0.9217687074829932,0.9217687074829932,0.9217687074829932,0.9217687074829932,0.9217687074829932,0.9217687074829932,0.9217687074829932,0.9217687074829932,0.9217687074829932,0.9217687074829932,0.9217687074829932,0.9217687074829932,0.9217687074829932,0.9217687074829932,0.9217687074829932,0.9217687074829932,0.9217687074829932,0.9217687074829932,0.9217687074829932,0.9217687074829932,0.9217687074829932,0.9217687074829932,0.9217687074829932,0.9217687074829932,0.9217687074829932,0.9217687074829932,0.9217687074829932,0.9217687074829932,0.9217687074829932,0.9217687074829932,0.9217687074829932,0.9217687074829932,0.9217687074829932,0.9217687074829932,0.9217687074829932,0.9217687074829932,0.9217687074829932,0.9217687074829932,0.9217687074829932,0.9217687074829932,0.9217687074829932,0.9217687074829932,0.9217687074829932,0.9217687074829932,0.9217687074829932,0.9217687074829932,0.9183673469387755,0.8571428571428571,0.8401360544217688,0.8061224489795918,0.7619047619047619,0.7006802721088435,0.6496598639455783,0.6224489795918368,0.6224489795918368,0.6156462585034014,0.6156462585034014,0.6156462585034014,0.6156462585034014,0.6156462585034014,0.6156462585034014,0.6156462585034014,0.608843537414966,0.5884353741496599,0.5850340136054422,0.5510204081632653,0.47959183673469385,0.41156462585034015,0.3707482993197279,0.35714285714285715,0.35374149659863946,0.35374149659863946,0.35374149659863946,0.35374149659863946,0.35374149659863946,0.35374149659863946,0.35374149659863946,0.35034013605442177,0.3469387755102041,0.3231292517006803,0.30952380952380953,0.30612244897959184,0.30612244897959184,0.30612244897959184,0.30612244897959184,0.30612244897959184,0.30612244897959184,0.30612244897959184,0.30272108843537415,0.29931972789115646,0.2925170068027211,0.2891156462585034,0.2857142857142857,0.272108843537415,0.2653061224489796,0.2585034013605442,0.2585034013605442,0.2585034013605442,0.2585034013605442,0.2585034013605442,0.2585034013605442,0.2585034013605442,0.2585034013605442,0.2585034013605442,0.2585034013605442,0.2585034013605442,0.2585034013605442,0.2585034013605442,0.2585034013605442,0.2585034013605442,0.2585034013605442,0.2585034013605442,0.2585034013605442,0.2789115646258503,0.30952380952380953,0.336734693877551,0.35374149659863946,0.3843537414965986,0.40476190476190477,0.42517006802721086,0.445578231292517,0.4557823129251701,0.45918367346938777,0.45918367346938777,0.45918367346938777,0.45918367346938777,0.45918367346938777,0.45918367346938777,0.45918367346938777,0.45918367346938777,0.45918367346938777,0.45918367346938777,0.45918367346938777,0.45918367346938777,0.45918367346938777,0.45918367346938777,0.45918367346938777,0.45918367346938777,0.45918367346938777,0.45918367346938777,0.45918367346938777,0.45918367346938777,0.45918367346938777,0.45918367346938777,0.45918367346938777,0.47619047619047616,0.5034013605442177,0.5272108843537415,0.5476190476190477,0.5544217687074829,0.5680272108843537,0.5816326530612245,0.5918367346938775,0.6054421768707483,0.6122448979591837,0.6122448979591837,0.6122448979591837,0.6122448979591837,0.6122448979591837,0.6122448979591837,0.6122448979591837,0.6122448979591837,0.6122448979591837,0.6122448979591837,0.6122448979591837,0.6122448979591837,0.6122448979591837,0.6122448979591837,0.6122448979591837,0.6122448979591837,0.6122448979591837,0.6122448979591837,0.6122448979591837,0.6122448979591837,0.6122448979591837,0.6122448979591837,0.6122448979591837,0.6122448979591837,0.6122448979591837,0.6122448979591837,0.6122448979591837,0.6122448979591837,0.6122448979591837,0.6122448979591837,0.6122448979591837,0.6122448979591837,0.6122448979591837,0.6122448979591837,0.6122448979591837,0.6122448979591837,0.6122448979591837,0.6122448979591837,0.6122448979591837,0.6122448979591837,0.6122448979591837,0.6122448979591837,0.6122448979591837,0.6122448979591837,0.6122448979591837,0.6122448979591837,0.6122448979591837,0.6122448979591837,0.6122448979591837,0.6122448979591837,0.6122448979591837,0.6122448979591837,0.6122448979591837,0.6122448979591837,0.6122448979591837,0.6122448979591837,0.6122448979591837,0.6122448979591837,0.6122448979591837,0.6122448979591837,0.6122448979591837,0.6122448979591837,0.6122448979591837,0.6122448979591837,0.6122448979591837,0.6122448979591837,0.6122448979591837,0.6122448979591837,0.6122448979591837,0.6122448979591837,0.6122448979591837,0.6122448979591837,0.6122448979591837,0.6122448979591837,0.6122448979591837,0.6122448979591837,0.6122448979591837,0.6122448979591837,0.6122448979591837,0.6122448979591837,0.6122448979591837,0.6122448979591837,0.6122448979591837,0.6122448979591837,0.6122448979591837,0.6122448979591837,0.6122448979591837,0.6122448979591837,0.6122448979591837,0.6122448979591837,0.6122448979591837,0.6122448979591837,0.6122448979591837,0.6122448979591837,0.6122448979591837,0.6122448979591837,0.6122448979591837,0.6122448979591837,0.6122448979591837,0.6122448979591837,0.6122448979591837,0.6122448979591837,0.6122448979591837,0.6122448979591837,0.6020408163265306,0.5884353741496599,0.5782312925170068,0.5748299319727891,0.5714285714285714,0.5714285714285714,0.5714285714285714,0.5612244897959183,0.5510204081632653,0.5340136054421769,0.5306122448979592,0.5306122448979592,0.5272108843537415,0.5272108843537415,0.5272108843537415,0.5272108843537415,0.5272108843537415,0.5340136054421769,0.54421768707483,0.5544217687074829,0.5612244897959183,0.564625850340136,0.5680272108843537,0.5714285714285714,0.5782312925170068,0.5850340136054422,0.6054421768707483,0.608843537414966,0.6122448979591837,0.6156462585034014,0.6190476190476191,0.6190476190476191,0.6258503401360545,0.6326530612244898,0.6462585034013606,0.6598639455782312,0.673469387755102,0.6836734693877551,0.6836734693877551,0.6836734693877551,0.6836734693877551,0.6836734693877551,0.6768707482993197,0.673469387755102,0.6666666666666666,0.6598639455782312,0.6598639455782312,0.6462585034013606,0.6326530612244898,0.6258503401360545,0.6156462585034014,0.6054421768707483,0.6054421768707483,0.5884353741496599,0.5680272108843537,0.5340136054421769,0.5136054421768708,0.48639455782312924,0.46598639455782315,0.4387755102040816,0.4013605442176871,0.4013605442176871,0.4013605442176871,0.4013605442176871,0.4013605442176871,0.4013605442176871,0.4013605442176871,0.4013605442176871,0.4013605442176871,0.4013605442176871,0.4013605442176871,0.4013605442176871,0.4013605442176871,0.4013605442176871,0.4013605442176871,0.4013605442176871,0.4217687074829932,0.47959183673469385,0.4897959183673469,0.5204081632653061,0.54421768707483,0.5510204081632653,0.5510204081632653,0.5510204081632653,0.5510204081632653,0.5510204081632653,0.5510204081632653,0.5510204081632653,0.5510204081632653,0.5510204081632653,0.5510204081632653,0.564625850340136,0.5884353741496599,0.5918367346938775,0.6156462585034014,0.6632653061224489,0.6768707482993197,0.6836734693877551,0.6938775510204082,0.7006802721088435,0.7074829931972789,0.7210884353741497,0.7380952380952381,0.7721088435374149,0.8061224489795918,0.8571428571428571,0.8775510204081632,0.8877551020408163,0.9013605442176871,0.9081632653061225,0.9183673469387755,0.9183673469387755,0.935374149659864,0.9523809523809523,0.9659863945578231,0.9795918367346939,0.9897959183673469,1.0034013605442176,1.0170068027210883,1.0238095238095237,1.034013605442177,1.0408163265306123,1.0408163265306123,1.0442176870748299,1.0510204081632653,1.0748299319727892,1.0952380952380953,1.1088435374149659,1.1088435374149659,1.1088435374149659,1.1088435374149659,1.1088435374149659,1.1088435374149659,1.1020408163265305,1.0850340136054422,1.0782312925170068,1.0782312925170068,1.0680272108843538,1.0578231292517006,1.0510204081632653,1.0510204081632653,1.010204081632653,0.9829931972789115,0.95578231292517,0.9319727891156463,0.9081632653061225,0.8775510204081632,0.7993197278911565,0.7278911564625851,0.6700680272108843,0.608843537414966,0.5408163265306123,0.5272108843537415,0.5238095238095238,0.5136054421768708,0.4965986394557823,0.47278911564625853,0.4421768707482993,0.41496598639455784,0.37755102040816324,0.35374149659863946,0.3401360544217687,0.336734693877551,0.336734693877551,0.3333333333333333,0.3333333333333333,0.3299319727891156,0.3299319727891156,0.3299319727891156,0.3231292517006803,0.3163265306122449,0.30272108843537415,0.29931972789115646,0.2925170068027211,0.2891156462585034,0.2891156462585034,0.2857142857142857,0.2789115646258503,0.2755102040816326,0.272108843537415,0.2653061224489796,0.24489795918367346,0.24489795918367346,0.24149659863945577,0.23469387755102042,0.23469387755102042,0.22789115646258504,0.22789115646258504,0.22789115646258504,0.22789115646258504,0.22789115646258504,0.22789115646258504,0.22789115646258504,0.22789115646258504,0.22789115646258504,0.22789115646258504,0.22789115646258504,0.22789115646258504,0.22448979591836735,0.22448979591836735,0.22448979591836735,0.2108843537414966,0.20408163265306123,0.20068027210884354,0.20068027210884354,0.20068027210884354,0.19727891156462585,0.1870748299319728,0.1836734693877551,0.1836734693877551,0.1836734693877551,0.17687074829931973,0.17687074829931973,0.17687074829931973,0.17687074829931973,0.17687074829931973,0.17687074829931973,0.17687074829931973,0.17687074829931973,0.17346938775510204,0.17006802721088435,0.17006802721088435,0.17006802721088435,0.17006802721088435,0.17006802721088435,0.17006802721088435,0.17006802721088435,0.17006802721088435,0.17006802721088435,0.17006802721088435,0.17006802721088435,0.17006802721088435,0.17006802721088435,0.17006802721088435,0.17006802721088435,0.17006802721088435,0.17006802721088435,0.17006802721088435,0.17006802721088435,0.17006802721088435,0.17006802721088435,0.17006802721088435,0.17006802721088435,0.17006802721088435,0.17006802721088435,0.17006802721088435,0.17006802721088435,0.17006802721088435,0.17006802721088435,0