"success","trial_type","trial_index","time_elapsed","internal_node_id","protocol_sum","subject_identifier","subject_sum","subject_pair","STUDY_ID","PROLIFIC_PID","SESSION_ID","practice_instructions","leaderboard_instructions","bonus","reveal_word","self_rating","confidence","view_history","rt","responses","question_order","correct","test_part","word","final_keyboard_state","num_clicks","points","cheat","response","position_RT","position","player","i_game","true_position","distance","last_word","stimulus","confidence_slider_self_response"
"true","fullscreen",0,15698,"0.0-0.0",NA,213,"72,45,150,115,207,238,93,227,145,249,127,222,77,28,132,249,248,214,242,207,7,132,252,255,185,88,180,3,45,231,35,108",106,"669eec2e4270c76bc184a38e","66857af993dcf9649eefd9f5","669fa5b89bfec54f1d116275",1,0,0,"true",2,85,"",NA,"","","","","","",NA,NA,"","",NA,NA,NA,NA,NA,NA,"","",NA
"","instructions",1,22205,"0.0-1.0",NA,213,"72,45,150,115,207,238,93,227,145,249,127,222,77,28,132,249,248,214,242,207,7,132,252,255,185,88,180,3,45,231,35,108",106,"669eec2e4270c76bc184a38e","66857af993dcf9649eefd9f5","669fa5b89bfec54f1d116275",1,0,0,"true",2,85,"[{""page_index"":0,""viewing_time"":6503.39999999851}]",6504.29999999702,"","","","","","",NA,NA,"","",NA,NA,NA,NA,NA,NA,"","",NA
"","instructions",2,47353,"0.0-2.0-0.0",NA,213,"72,45,150,115,207,238,93,227,145,249,127,222,77,28,132,249,248,214,242,207,7,132,252,255,185,88,180,3,45,231,35,108",106,"669eec2e4270c76bc184a38e","66857af993dcf9649eefd9f5","669fa5b89bfec54f1d116275",1,0,0,"true",2,85,"[{""page_index"":0,""viewing_time"":25145.5}]",25146,"","","","","","",NA,NA,"","",NA,NA,NA,NA,NA,NA,"","",NA
"","survey-multi-choice",3,67497,"0.0-2.0-1.0",NA,213,"72,45,150,115,207,238,93,227,145,249,127,222,77,28,132,249,248,214,242,207,7,132,252,255,185,88,180,3,45,231,35,108",106,"669eec2e4270c76bc184a38e","66857af993dcf9649eefd9f5","669fa5b89bfec54f1d116275",1,0,0,"true",2,85,"",20139.799999997,"{""Q0"":""... reveal the word with as <b>few letter guesses</b> as possible""}","[0]","true","multichoice_nonpretend","","",NA,NA,"","",NA,NA,NA,NA,NA,NA,"","",NA
"","instructions",4,71583,"0.0-3.0",NA,213,"72,45,150,115,207,238,93,227,145,249,127,222,77,28,132,249,248,214,242,207,7,132,252,255,185,88,180,3,45,231,35,108",106,"669eec2e4270c76bc184a38e","66857af993dcf9649eefd9f5","669fa5b89bfec54f1d116275",1,0,0,"true",2,85,"[{""page_index"":0,""viewing_time"":4082.7999999970198}]",4083.20000000298,"","","","","","",NA,NA,"","",NA,NA,NA,NA,NA,NA,"","",NA
"","Hangman",5,209466,"0.0-4.0",NA,213,"72,45,150,115,207,238,93,227,145,249,127,222,77,28,132,249,248,214,242,207,7,132,252,255,185,88,180,3,45,231,35,108",106,"669eec2e4270c76bc184a38e","66857af993dcf9649eefd9f5","669fa5b89bfec54f1d116275",1,0,0,"true",2,85,"",NA,"","","","","ZEBRA","C,A,O,N,I,M,L,D,B,G,K,U,W,T,P,E,Z,R",18,2,"false","",NA,NA,NA,NA,NA,NA,"","",NA
"","instructions",6,254559,"0.0-5.0",NA,213,"72,45,150,115,207,238,93,227,145,249,127,222,77,28,132,249,248,214,242,207,7,132,252,255,185,88,180,3,45,231,35,108",106,"669eec2e4270c76bc184a38e","66857af993dcf9649eefd9f5","669fa5b89bfec54f1d116275",1,0,0,"true",2,85,"[{""page_index"":0,""viewing_time"":9658.69999999553},{""page_index"":1,""viewing_time"":35430.30000000447}]",45090.1999999955,"","","","","","",NA,NA,"","",NA,NA,NA,NA,NA,NA,"","",NA
"","survey-multi-choice",7,271363,"0.0-6.0",NA,213,"72,45,150,115,207,238,93,227,145,249,127,222,77,28,132,249,248,214,242,207,7,132,252,255,185,88,180,3,45,231,35,108",106,"669eec2e4270c76bc184a38e","66857af993dcf9649eefd9f5","669fa5b89bfec54f1d116275",1,0,0,"true",2,85,"",16801.6000000015,"{""Q0"":""...from <b>a previous session</b> that is not part of the upcoming tournament.""}","[0]","true","multichoice_leaderboard","","",NA,NA,"","",NA,NA,NA,NA,NA,NA,"","",NA
"","instructions",8,283630,"0.0-8.0",NA,213,"72,45,150,115,207,238,93,227,145,249,127,222,77,28,132,249,248,214,242,207,7,132,252,255,185,88,180,3,45,231,35,108",106,"669eec2e4270c76bc184a38e","66857af993dcf9649eefd9f5","669fa5b89bfec54f1d116275",1,0,0,"true",2,85,"[{""page_index"":0,""viewing_time"":12266}]",12266.299999997,"","","","","","",NA,NA,"","",NA,NA,NA,NA,NA,NA,"","",NA
"","survey-multi-choice",9,299424,"0.0-9.0",NA,213,"72,45,150,115,207,238,93,227,145,249,127,222,77,28,132,249,248,214,242,207,7,132,252,255,185,88,180,3,45,231,35,108",106,"669eec2e4270c76bc184a38e","66857af993dcf9649eefd9f5","669fa5b89bfec54f1d116275",1,0,0,"true",2,85,"",15792.3999999985,"{""Q0"":""...players' leaderboard position (in terms of <b>points</b>) in an <b>upcoming tournament.</b>""}","[0]","true","multichoice_tournament","","",NA,NA,"","",NA,NA,NA,NA,NA,NA,"","",NA
"","instructions",10,306315,"0.0-11.0",NA,213,"72,45,150,115,207,238,93,227,145,249,127,222,77,28,132,249,248,214,242,207,7,132,252,255,185,88,180,3,45,231,35,108",106,"669eec2e4270c76bc184a38e","66857af993dcf9649eefd9f5","669fa5b89bfec54f1d116275",1,0,0,"true",2,85,"[{""page_index"":0,""viewing_time"":6889.29999999702}]",6889.79999999702,"","","","","","",NA,NA,"","",NA,NA,NA,NA,NA,NA,"","",NA
"","instructions",11,331535,"0.0-12.0-0.0",NA,213,"72,45,150,115,207,238,93,227,145,249,127,222,77,28,132,249,248,214,242,207,7,132,252,255,185,88,180,3,45,231,35,108",106,"669eec2e4270c76bc184a38e","66857af993dcf9649eefd9f5","669fa5b89bfec54f1d116275",1,0,0,"true",2,85,"[{""page_index"":0,""viewing_time"":25218.90000000596}]",25219.400000006,"","","","","","",NA,NA,"","",NA,NA,NA,NA,NA,NA,"","",NA
"","type-this",12,351692,"0.0-12.0-1.0",NA,213,"72,45,150,115,207,238,93,227,145,249,127,222,77,28,132,249,248,214,242,207,7,132,252,255,185,88,180,3,45,231,35,108",106,"669eec2e4270c76bc184a38e","66857af993dcf9649eefd9f5","669fa5b89bfec54f1d116275",1,0,0,"true",2,85,"",19649.5,"THIRTY FOUR","","","","","",NA,NA,"","THIRTY FOUR",NA,NA,NA,NA,NA,NA,"","",NA
"","Hangman_replay",13,372039,"0.0-12.0-2.0",NA,213,"72,45,150,115,207,238,93,227,145,249,127,222,77,28,132,249,248,214,242,207,7,132,252,255,185,88,180,3,45,231,35,108",106,"669eec2e4270c76bc184a38e","66857af993dcf9649eefd9f5","669fa5b89bfec54f1d116275",1,0,0,"true",2,85,"",NA,"","","","","THIRTY FOUR","R,F,O,U,T,Y,H,I",8,15,"false","",NA,NA,NA,NA,NA,NA,"","",NA
"","instructions",14,375275,"0.0-12.0-3.0",NA,213,"72,45,150,115,207,238,93,227,145,249,127,222,77,28,132,249,248,214,242,207,7,132,252,255,185,88,180,3,45,231,35,108",106,"669eec2e4270c76bc184a38e","66857af993dcf9649eefd9f5","669fa5b89bfec54f1d116275",1,0,0,"true",2,85,"[{""page_index"":0,""viewing_time"":3234.89999999851}]",3235.29999999702,"","","","","","",NA,NA,"","",NA,NA,NA,NA,NA,NA,"","",NA
"","Guess_leaderboard",15,390885,"0.0-12.0-4.0",NA,213,"72,45,150,115,207,238,93,227,145,249,127,222,77,28,132,249,248,214,242,207,7,132,252,255,185,88,180,3,45,231,35,108",106,"669eec2e4270c76bc184a38e","66857af993dcf9649eefd9f5","669fa5b89bfec54f1d116275",1,0,0,"true",2,85,"",NA,"","","","","THIRTY FOUR","",NA,NA,"","",14841.900000006,12,92,0,28,16,"","",NA
"","instructions",16,397176,"0.0-12.0-0.1",NA,213,"72,45,150,115,207,238,93,227,145,249,127,222,77,28,132,249,248,214,242,207,7,132,252,255,185,88,180,3,45,231,35,108",106,"669eec2e4270c76bc184a38e","66857af993dcf9649eefd9f5","669fa5b89bfec54f1d116275",1,0,0,"true",2,85,"[{""page_index"":0,""viewing_time"":6286.60000000149}]",6287,"","","","","","",NA,NA,"","",NA,NA,NA,NA,NA,NA,"","",NA
"","type-this",17,406743,"0.0-12.0-1.1",NA,213,"72,45,150,115,207,238,93,227,145,249,127,222,77,28,132,249,248,214,242,207,7,132,252,255,185,88,180,3,45,231,35,108",106,"669eec2e4270c76bc184a38e","66857af993dcf9649eefd9f5","669fa5b89bfec54f1d116275",1,0,0,"true",2,85,"",9062.29999999702,"SHAKIRA","","","","","",NA,NA,"","SHAKIRA",NA,NA,NA,NA,NA,NA,"","",NA
"","Hangman_replay",18,433919,"0.0-12.0-2.1",NA,213,"72,45,150,115,207,238,93,227,145,249,127,222,77,28,132,249,248,214,242,207,7,132,252,255,185,88,180,3,45,231,35,108",106,"669eec2e4270c76bc184a38e","66857af993dcf9649eefd9f5","669fa5b89bfec54f1d116275",1,0,0,"true",2,85,"",NA,"","","","","SHAKIRA","U,E,A,B,M,D,G,H,S,K,I,R",12,9,"false","",NA,NA,NA,NA,NA,NA,"","",NA
"","instructions",19,480467,"0.0-12.0-3.1",NA,213,"72,45,150,115,207,238,93,227,145,249,127,222,77,28,132,249,248,214,242,207,7,132,252,255,185,88,180,3,45,231,35,108",106,"669eec2e4270c76bc184a38e","66857af993dcf9649eefd9f5","669fa5b89bfec54f1d116275",1,0,0,"true",2,85,"[{""page_index"":0,""viewing_time"":46545.89999999851}]",46546.799999997,"","","","","","",NA,NA,"","",NA,NA,NA,NA,NA,NA,"","",NA
"","Guess_leaderboard",20,498043,"0.0-12.0-4.1",NA,213,"72,45,150,115,207,238,93,227,145,249,127,222,77,28,132,249,248,214,242,207,7,132,252,255,185,88,180,3,45,231,35,108",106,"669eec2e4270c76bc184a38e","66857af993dcf9649eefd9f5","669fa5b89bfec54f1d116275",1,0,0,"true",2,85,"",NA,"","","","","SHAKIRA","",NA,NA,"","",16814.6000000015,25,89,1,69,44,"","",NA
"","instructions",21,502712,"0.0-12.0-0.2",NA,213,"72,45,150,115,207,238,93,227,145,249,127,222,77,28,132,249,248,214,242,207,7,132,252,255,185,88,180,3,45,231,35,108",106,"669eec2e4270c76bc184a38e","66857af993dcf9649eefd9f5","669fa5b89bfec54f1d116275",1,0,0,"true",2,85,"[{""page_index"":0,""viewing_time"":4664.60000000149}]",4665,"","","","","","",NA,NA,"","",NA,NA,NA,NA,NA,NA,"","",NA
"","type-this",22,520386,"0.0-12.0-1.2",NA,213,"72,45,150,115,207,238,93,227,145,249,127,222,77,28,132,249,248,214,242,207,7,132,252,255,185,88,180,3,45,231,35,108",106,"669eec2e4270c76bc184a38e","66857af993dcf9649eefd9f5","669fa5b89bfec54f1d116275",1,0,0,"true",2,85,"",17167.799999997,"KENTUCKY","","","","","",NA,NA,"","KENTUCKY",NA,NA,NA,NA,NA,NA,"","",NA
"","Hangman_replay",23,554677,"0.0-12.0-2.2",NA,213,"72,45,150,115,207,238,93,227,145,249,127,222,77,28,132,249,248,214,242,207,7,132,252,255,185,88,180,3,45,231,35,108",106,"669eec2e4270c76bc184a38e","66857af993dcf9649eefd9f5","669fa5b89bfec54f1d116275",1,0,0,"true",2,85,"",NA,"","","","","KENTUCKY","M,A,S,R,L,N,E,O,P,B,C,T,K,Y,U",15,7,"false","",NA,NA,NA,NA,NA,NA,"","",NA
"","instructions",24,560555,"0.0-12.0-3.2",NA,213,"72,45,150,115,207,238,93,227,145,249,127,222,77,28,132,249,248,214,242,207,7,132,252,255,185,88,180,3,45,231,35,108",106,"669eec2e4270c76bc184a38e","66857af993dcf9649eefd9f5","669fa5b89bfec54f1d116275",1,0,0,"true",2,85,"[{""page_index"":0,""viewing_time"":5875.60000000149}]",5876.60000000149,"","","","","","",NA,NA,"","",NA,NA,NA,NA,NA,NA,"","",NA
"","Guess_leaderboard",25,613186,"0.0-12.0-4.2",NA,213,"72,45,150,115,207,238,93,227,145,249,127,222,77,28,132,249,248,214,242,207,7,132,252,255,185,88,180,3,45,231,35,108",106,"669eec2e4270c76bc184a38e","66857af993dcf9649eefd9f5","669fa5b89bfec54f1d116275",1,0,0,"true",2,85,"",NA,"","","","","KENTUCKY","",NA,NA,"","",51867.3999999985,28,40,2,36,8,"","",NA
"","instructions",26,616315,"0.0-12.0-0.3",NA,213,"72,45,150,115,207,238,93,227,145,249,127,222,77,28,132,249,248,214,242,207,7,132,252,255,185,88,180,3,45,231,35,108",106,"669eec2e4270c76bc184a38e","66857af993dcf9649eefd9f5","669fa5b89bfec54f1d116275",1,0,0,"true",2,85,"[{""page_index"":0,""viewing_time"":3124.2999999970198}]",3124.79999999702,"","","","","","",NA,NA,"","",NA,NA,NA,NA,NA,NA,"","",NA
"","type-this",27,656883,"0.0-12.0-1.3",NA,213,"72,45,150,115,207,238,93,227,145,249,127,222,77,28,132,249,248,214,242,207,7,132,252,255,185,88,180,3,45,231,35,108",106,"669eec2e4270c76bc184a38e","66857af993dcf9649eefd9f5","669fa5b89bfec54f1d116275",1,0,0,"true",2,85,"",40063.299999997,"WRIST","","","","","",NA,NA,"","WRIST",NA,NA,NA,NA,NA,NA,"","",NA
"","Hangman_replay",28,731533,"0.0-12.0-2.3",NA,213,"72,45,150,115,207,238,93,227,145,249,127,222,77,28,132,249,248,214,242,207,7,132,252,255,185,88,180,3,45,231,35,108",106,"669eec2e4270c76bc184a38e","66857af993dcf9649eefd9f5","669fa5b89bfec54f1d116275",1,0,0,"true",2,85,"",NA,"","","","","WRIST","T,E,O,A,I,N,C,R,W,S",10,10,"false","",NA,NA,NA,NA,NA,NA,"","",NA
"","instructions",29,738025,"0.0-12.0-3.3",NA,213,"72,45,150,115,207,238,93,227,145,249,127,222,77,28,132,249,248,214,242,207,7,132,252,255,185,88,180,3,45,231,35,108",106,"669eec2e4270c76bc184a38e","66857af993dcf9649eefd9f5","669fa5b89bfec54f1d116275",1,0,0,"true",2,85,"[{""page_index"":0,""viewing_time"":6486.60000000149}]",6487.70000000298,"","","","","","",NA,NA,"","",NA,NA,NA,NA,NA,NA,"","",NA
"","Guess_leaderboard",30,747739,"0.0-12.0-4.3",NA,213,"72,45,150,115,207,238,93,227,145,249,127,222,77,28,132,249,248,214,242,207,7,132,252,255,185,88,180,3,45,231,35,108",106,"669eec2e4270c76bc184a38e","66857af993dcf9649eefd9f5","669fa5b89bfec54f1d116275",1,0,0,"true",2,85,"",NA,"","","","","WRIST","",NA,NA,"","",8937,7,50,3,54,47,"","",NA
"","instructions",31,750547,"0.0-12.0-0.4",NA,213,"72,45,150,115,207,238,93,227,145,249,127,222,77,28,132,249,248,214,242,207,7,132,252,255,185,88,180,3,45,231,35,108",106,"669eec2e4270c76bc184a38e","66857af993dcf9649eefd9f5","669fa5b89bfec54f1d116275",1,0,0,"true",2,85,"[{""page_index"":0,""viewing_time"":2805.7999999970198}]",2806.19999999553,"","","","","","",NA,NA,"","",NA,NA,NA,NA,NA,NA,"","",NA
"","type-this",32,760687,"0.0-12.0-1.4",NA,213,"72,45,150,115,207,238,93,227,145,249,127,222,77,28,132,249,248,214,242,207,7,132,252,255,185,88,180,3,45,231,35,108",106,"669eec2e4270c76bc184a38e","66857af993dcf9649eefd9f5","669fa5b89bfec54f1d116275",1,0,0,"true",2,85,"",9634.20000000298,"NECTARINE","","","","","",NA,NA,"","NECTARINE",NA,NA,NA,NA,NA,NA,"","",NA
"","Hangman_replay",33,787258,"0.0-12.0-2.4",NA,213,"72,45,150,115,207,238,93,227,145,249,127,222,77,28,132,249,248,214,242,207,7,132,252,255,185,88,180,3,45,231,35,108",106,"669eec2e4270c76bc184a38e","66857af993dcf9649eefd9f5","669fa5b89bfec54f1d116275",1,0,0,"true",2,85,"",NA,"","","","","NECTARINE","A,E,I,U,O,R,P,C,N,T",10,12,"false","",NA,NA,NA,NA,NA,NA,"","",NA
"","instructions",34,791140,"0.0-12.0-3.4",NA,213,"72,45,150,115,207,238,93,227,145,249,127,222,77,28,132,249,248,214,242,207,7,132,252,255,185,88,180,3,45,231,35,108",106,"669eec2e4270c76bc184a38e","66857af993dcf9649eefd9f5","669fa5b89bfec54f1d116275",1,0,0,"true",2,85,"[{""page_index"":0,""viewing_time"":3879.60000000149}]",3880.5,"","","","","","",NA,NA,"","",NA,NA,NA,NA,NA,NA,"","",NA
"","Guess_leaderboard",35,796786,"0.0-12.0-4.4",NA,213,"72,45,150,115,207,238,93,227,145,249,127,222,77,28,132,249,248,214,242,207,7,132,252,255,185,88,180,3,45,231,35,108",106,"669eec2e4270c76bc184a38e","66857af993dcf9649eefd9f5","669fa5b89bfec54f1d116275",1,0,0,"true",2,85,"",NA,"","","","","NECTARINE","",NA,NA,"","",4887.5,27,78,4,74,47,"","",NA
"","survey-text",36,810985,"0.0-13.0",NA,213,"72,45,150,115,207,238,93,227,145,249,127,222,77,28,132,249,248,214,242,207,7,132,252,255,185,88,180,3,45,231,35,108",106,"669eec2e4270c76bc184a38e","66857af993dcf9649eefd9f5","669fa5b89bfec54f1d116275",1,0,0,"true",2,85,"",14192.1000000015,"{""Q0"":""NECTARINE""}","","","","","",NA,NA,"","",NA,NA,NA,NA,NA,NA,"nectarine","",NA
"","survey-multi-choice",37,823593,"0.0-14.0",NA,213,"72,45,150,115,207,238,93,227,145,249,127,222,77,28,132,249,248,214,242,207,7,132,252,255,185,88,180,3,45,231,35,108",106,"669eec2e4270c76bc184a38e","66857af993dcf9649eefd9f5","669fa5b89bfec54f1d116275",1,0,0,"true",2,85,"",12604.799999997,"{""Q0"":""2. I would be <b>second</b> out of the six of us.""}","[0]","","self-rating","","",NA,NA,"","",NA,2,NA,NA,NA,NA,"","",NA
"","html-slider-response",38,831265,"0.0-15.0",NA,213,"72,45,150,115,207,238,93,227,145,249,127,222,77,28,132,249,248,214,242,207,7,132,252,255,185,88,180,3,45,231,35,108",106,"669eec2e4270c76bc184a38e","66857af993dcf9649eefd9f5","669fa5b89bfec54f1d116275",1,0,0,"true",2,85,"",7668.59999999404,"","","","","","",NA,NA,"","85",NA,NA,NA,NA,NA,NA,"","<p>Overall, how confident were you in your answer to this last question?</p>",85
"","survey-text",39,901982,"0.0-16.0",NA,213,"72,45,150,115,207,238,93,227,145,249,127,222,77,28,132,249,248,214,242,207,7,132,252,255,185,88,180,3,45,231,35,108",106,"669eec2e4270c76bc184a38e","66857af993dcf9649eefd9f5","669fa5b89bfec54f1d116275",1,0,0,"true",2,85,"",70712.799999997,"{""Q0"":""HIDDEN WORDS""}","","","","","",NA,NA,"","",NA,NA,NA,NA,NA,NA,"","",NA
"","survey-text",40,911388,"0.0-17.0",NA,213,"72,45,150,115,207,238,93,227,145,249,127,222,77,28,132,249,248,214,242,207,7,132,252,255,185,88,180,3,45,231,35,108",106,"669eec2e4270c76bc184a38e","66857af993dcf9649eefd9f5","669fa5b89bfec54f1d116275",1,0,0,"true",2,85,"",9403.09999999404,"{""Q0"":""NO""}","","","","","",NA,NA,"","",NA,NA,NA,NA,NA,NA,"","",NA
"","instructions",41,924122,"0.0-18.0",NA,213,"72,45,150,115,207,238,93,227,145,249,127,222,77,28,132,249,248,214,242,207,7,132,252,255,185,88,180,3,45,231,35,108",106,"669eec2e4270c76bc184a38e","66857af993dcf9649eefd9f5","669fa5b89bfec54f1d116275",1,0,0,"true",2,85,"[{""page_index"":0,""viewing_time"":12732.30000000447}]",12732.700000003,"","","","","","",NA,NA,"","",NA,NA,NA,NA,NA,NA,"","",NA
