[{"success":true,"trial_type":"fullscreen","trial_index":0,"time_elapsed":2687,"internal_node_id":"0.0-0.0","protocol_sum":"","subject_identifier":206,"subject_sum":[69,79,99,172,48,200,50,41,151,239,2,94,223,246,171,210,62,13,190,123,138,61,81,38,168,148,228,161,104,193,181,155],"subject_pair":103,"STUDY_ID":"669eec2e4270c76bc184a38e","PROLIFIC_PID":"610cd5f2b38b2d1bffe55477","SESSION_ID":"669f773bdcff4f596eb09cd6","practice_instructions":1,"leaderboard_instructions":0,"bonus":0,"reveal_word":false,"self_rating":"3","confidence":"86"},{"view_history":"[{\"page_index\":0,\"viewing_time\":5735.80000000447}]","rt":5736.39999999851,"trial_type":"instructions","trial_index":1,"time_elapsed":8424,"internal_node_id":"0.0-1.0","protocol_sum":"","subject_identifier":206,"subject_sum":[69,79,99,172,48,200,50,41,151,239,2,94,223,246,171,210,62,13,190,123,138,61,81,38,168,148,228,161,104,193,181,155],"subject_pair":103,"STUDY_ID":"669eec2e4270c76bc184a38e","PROLIFIC_PID":"610cd5f2b38b2d1bffe55477","SESSION_ID":"669f773bdcff4f596eb09cd6","practice_instructions":1,"leaderboard_instructions":0,"bonus":0,"reveal_word":false,"self_rating":"3","confidence":"86"},{"view_history":"[{\"page_index\":0,\"viewing_time\":163783.29999999702}]","rt":163783.69999999553,"trial_type":"instructions","trial_index":2,"time_elapsed":172208,"internal_node_id":"0.0-2.0-0.0","protocol_sum":"","subject_identifier":206,"subject_sum":[69,79,99,172,48,200,50,41,151,239,2,94,223,246,171,210,62,13,190,123,138,61,81,38,168,148,228,161,104,193,181,155],"subject_pair":103,"STUDY_ID":"669eec2e4270c76bc184a38e","PROLIFIC_PID":"610cd5f2b38b2d1bffe55477","SESSION_ID":"669f773bdcff4f596eb09cd6","practice_instructions":1,"leaderboard_instructions":0,"bonus":0,"reveal_word":false,"self_rating":"3","confidence":"86"},{"rt":8633.39999999851,"responses":"{\"Q0\":\"... reveal the word with as <b>few letter guesses</b> as possible\"}","question_order":"[0]","trial_type":"survey-multi-choice","trial_index":3,"time_elapsed":180843,"internal_node_id":"0.0-2.0-1.0","protocol_sum":"","subject_identifier":206,"subject_sum":[69,79,99,172,48,200,50,41,151,239,2,94,223,246,171,210,62,13,190,123,138,61,81,38,168,148,228,161,104,193,181,155],"subject_pair":103,"correct":true,"test_part":"multichoice_nonpretend","STUDY_ID":"669eec2e4270c76bc184a38e","PROLIFIC_PID":"610cd5f2b38b2d1bffe55477","SESSION_ID":"669f773bdcff4f596eb09cd6","practice_instructions":1,"leaderboard_instructions":0,"bonus":0,"reveal_word":false,"self_rating":"3","confidence":"86"},{"view_history":"[{\"page_index\":0,\"viewing_time\":1394.5999999940395}]","rt":1394.7999999970198,"trial_type":"instructions","trial_index":4,"time_elapsed":182239,"internal_node_id":"0.0-3.0","protocol_sum":"","subject_identifier":206,"subject_sum":[69,79,99,172,48,200,50,41,151,239,2,94,223,246,171,210,62,13,190,123,138,61,81,38,168,148,228,161,104,193,181,155],"subject_pair":103,"STUDY_ID":"669eec2e4270c76bc184a38e","PROLIFIC_PID":"610cd5f2b38b2d1bffe55477","SESSION_ID":"669f773bdcff4f596eb09cd6","practice_instructions":1,"leaderboard_instructions":0,"bonus":0,"reveal_word":false,"self_rating":"3","confidence":"86"},{"word":"ZEBRA","click_log":{"letter":["","D","T","G","L","W","Z","E","B","R","A"],"t":[0,18454.09999999404,94395.5,98445.89999999851,101574.29999999702,104094.79999999702,106248.69999999553,108440.39999999851,109692.89999999851,110906.19999999553,111849.09999999404],"hit":[null,0,0,0,0,0,1,1,1,1,1],"asked":["","D","DT","DTG","DTGL","DTGLW","DTGLWZ","DTGLWZE","DTGLWZEB","DTGLWZEBR","DTGLWZEBRA"],"word_state":["_____","_____","_____","_____","_____","_____","Z____","ZE___","ZEB__","ZEBR_","ZEBRA"]},"hover_log":{"letter":["?","?","?","?","?","?","?","?","?","?","?","?","?","?","?","?","?","?","?","?","?","?","?","?","?","?","?","?","?","?","?","?","?","?","?","?","?","?","?","?","?","?","?","?","?","?","?","?","?","?","?","?","?","?","?","?","?","?","?","?","?","?","?","?","?","?","?","?","?","?","?","?","?","?","?","?","?","?","?","?","?","?","?","?","?","?","?","?","?","?","?","?","?","?","?","?","?","?","?","?","?","?","?","?","?","?","?","?","?","?","?","?","?","?","?","?","?","?","?","?","?","?","?","?","?","?","?","?","?","?","?","?","?","?","?","?","?","?","?","?","?","?","?","?","?","?","?","?","?","?","?","?","?","?","?","?","?","?","?","?","?","?","?","?","?","?","?","?","?","?","?","?","?","?","?","?","?","?","?","?","?","?","?","?","?","?","J","J","J","J","J","J","J","J","J","J","J","J","J","J","J","J","J","J","J","J","J","J","J","J","J","J","J","J","J","J","J","J","J","J","J","J","J","J","J","J","J","J","J","J","J","J","J","J","J","J","J","J","J","J","J","J","J","J","J","J","J","J","J","J","J","J","J","J","J","J","J","J","J","J","J","J","J","J","J","J","J","J","J","J","J","J","J","J","J","J","J","J","J","J","J","J","J","J","J","J","J","J","J","J","J","J","J","J","J","J","J","J","J","J","J","J","J","J","J","J","J","J","J","J","J","J","J","J","J","J","J","J","J","J","J","J","J","J","J","J","J","J","J","J","J","J","J","J","J","J","J","J","J","J","J","J","J","J","J","J","J","J","J","J","J","J","J","J","J","J","J","J","J","J","J","J","J","J","J","J","J","J","J","J","J","J","J","J","J","J","J","J","J","J","J","J","J","J","J","J","J","J","J","J","K","?","?","?","E","F","G","H","?","?","?","?","?","?","?","?","?","?","?","?","?","?","?","?","?","?","?","?","?","?","?","?","?","?","?","?","?","?","?","?","?","?","?","?","?","?","?","?","?","?","?","?","?","?","?","?","?","?","?","?","?","?","?","?","?","?","?","?","?","?","?","?","?","?","?","?","?","?","?","?","?","?","?","?","?","?","?","?","?","?","?","?","?","?","?","?","?","?","?","?","?","?","?","?","?","?","?","?","?","?","?","?","?","?","?","?","?","?","?","?","?","?","?","?","?","?","?","?","?","?","?","?","?","?","?","?","?","?","?","?","?","?","?","?","?","?","?","?","?","?","?","?","?","?","?","?","?","?","?","?","?","?","?","?","?","?","?","?","?","?","?","?","?","?","?","?","?","?","?","?","?","?","?","?","?","?","?","?","?","?","?","?","?","?","?","?","?","?","?","?","?","?","?","?","?","?","?","?","?","?","?","?","?","?","?","?","?","?","?","?","?","?","?","?","?","?","?","?","?","?","?","?","?","?","?","?","?","?","?","?","?","?","?","?","?","?","?","?","?","?","?","?","?","?","?","?","?","?","?","?","?","?","?","?","?","?","?","?","?","?","?","?","?","?","?","?","?","?","?","?","?","?","?","?","?","?","?","?","?","?","?","?","?","?","?","?","?","?","?","?","?","?","?","?","?","?","?","?","?","?","?","?","?","?","?","?","?","?","?","?","?","?","?","?","?","?","?","?","?","?","?","?","?","?","?","?","?","?","?","?","?","?","?","?","?","?","?","?","?","?","?","?","?","?","?","?","?","?","?","?","?","?","?","?","?","?","?","?","?","?","?","?","?","?","?","?","?","?","?","?","?","?","?","?","?","?","?","?","?","?","?","?","?","?","?","?","?","?","?","?","?","?","?","?","?","?","?","?","?","?","?","?","?","?","?","?","?","?","?","?","?","?","?","?","?","?","?","?","?","?","?","?","?","?","?","?","?","?","?","?","?","?","?","?","?","?","?","?","?","?","?","?","?","?","?","?","?","?","?","?","?","?","?","?","?","?","?","?","?","?","?","?","?","?","?","?","?","?","?","?","?","?","?","?","?","?","?","?","?","?","?","?","?","?","?","?","?","?","?","?","?","?","?","?","?","?","?","?","?","?","?","?","?","?","?","?","?","?","?","?","?","?","?","?","?","?","?","?","?","?","?","?","?","?","?","?","?","?","?","?","?","?","?","?","?","?","?","?","?","?","?","?","?","?","?","?","?","?","?","?","?","?","?","?","?","?","?","?","?","?","?","?","?","?","?","?","?","?","?","?","?","?","?","?","?","?","?","?","?","?","?","?","?","?","?","?","?","?","?","?","?","?","?","?","?","?","?","?","?","?","?","?","?","?","?","?","?","?","?","?","?","?","?","?","?","?","?","?","?","?","?","?","?","?","?","?","?","?","?","?","?","?","?","?","?","?","?","?","?","?","?","?","?","?","?","?","?","?","?","?","?","?","?","?","?","?","?","?","?","?","?","?","?","?","?","Y","X","X","W","?","?","?","M","M","M","?","?","?","?","D","D","D","D","D","D","D","D","D","D","D","D","D","D","D","D","D","D","D","D","D","D","D","D","D","D","D","D","D","D","D","D","D","D","D","D","D","D","D","D","D","D","D","D","D","D","D","D","D","D","D","D","D","D","D","D","D","D","D","D","D","D","D","D","D","D","D","D","D","D","D","D","D","D","D","D","D","D","D","D","D","D","?","?","?","?","?","N","N","?","O","O","O","O","?","?","?","Y","?","Z","Z","Z","Z","?","?","?","?","?","?","?","?","?","?","?","?","?","?","?","?","?","?","?","?","?","?","?","?","?","?","?","?","?","?","?","?","?","?","?","?","?","?","?","?","?","?","?","?","?","?","?","?","?","?","?","?","?","?","?","?","?","?","?","?","?","?","?","?","?","?","?","?","?","?","?","?","?","?","?","?","?","?","?","?","?","?","?","?","?","?","?","?","?","?","?","?","?","?","?","?","?","?","?","?","?","?","?","?","?","?","?","?","?","?","?","?","?","?","?","?","?","?","?","?","?","?","?","?","?","?","?","?","?","?","?","?","?","?","?","?","?","?","?","?","?","?","?","?","?","?","?","?","?","?","?","?","?","?","?","?","?","?","?","?","?","?","?","?","?","?","?","?","?","?","?","?","?","?","?","?","?","?","?","?","?","?","?","?","?","?","?","?","?","?","?","?","?","?","?","?","?","?","?","?","?","?","?","?","?","?","?","?","?","?","?","?","?","?","?","?","?","?","?","?","?","?","?","?","?","?","?","?","?","?","?","?","?","?","?","?","?","?","?","?","?","?","?","?","?","?","?","?","?","?","?","?","?","?","?","?","?","?","?","?","?","?","?","?","?","?","?","?","?","?","?","?","?","?","?","?","?","?","?","?","?","?","?","?","?","?","?","?","?","?","?","?","?","?","?","?","?","?","?","?","?","?","?","?","?","?","?","?","?","?","?","?","?","?","?","?","?","?","?","?","?","?","?","?","?","?","?","?","?","?","?","?","?","?","?","?","?","?","?","?","?","?","?","?","?","?","?","?","?","?","?","?","?","?","?","?","?","?","?","?","?","?","?","?","?","?","?","?","?","?","?","?","?","?","?","?","?","?","?","?","?","?","?","?","?","?","?","?","?","?","?","?","?","?","?","?","?","?","?","?","?","?","?","?","?","?","?","?","?","?","?","?","?","?","?","?","?","?","?","?","?","?","?","?","?","?","?","?","?","?","?","?","?","?","?","?","?","?","?","?","?","?","?","?","?","?","?","?","?","?","?","?","?","?","?","?","?","?","?","?","?","?","?","?","?","?","?","?","?","?","?","?","?","?","?","?","?","?","?","?","?","?","?","?","?","?","?","?","?","?","?","?","?","?","?","?","?","?","?","?","?","?","?","?","?","?","?","?","?","?","?","?","?","?","?","?","?","?","?","?","?","?","?","?","?","?","?","?","?","?","?","?","?","?","?","?","?","?","?","?","?","?","?","?","?","?","?","?","?","?","?","?","?","?","?","?","?","?","?","?","?","?","?","?","?","?","?","?","?","?","?","?","?","?","?","?","?","?","?","?","?","?","?","?","?","?","?","?","?","?","?","?","?","?","?","?","?","?","?","?","?","?","?","?","?","?","?","?","?","?","?","?","?","?","?","?","?","?","?","?","?","?","?","?","?","?","?","?","?","?","?","?","?","?","?","?","?","?","?","?","?","?","?","?","?","?","?","?","?","?","?","?","?","?","?","?","?","?","?","?","?","?","?","?","?","?","?","?","?","?","?","?","?","?","?","?","?","?","?","?","?","?","?","?","?","?","?","?","?","?","?","?","?","?","?","?","?","?","?","?","?","?","?","?","?","?","?","?","?","?","?","?","?","?","?","?","?","?","?","?","?","?","?","?","?","?","?","?","?","?","?","?","?","?","?","?","?","?","?","?","?","?","?","?","?","?","?","?","?","?","?","?","?","?","?","?","?","?","?","?","?","?","?","?","?","?","?","?","?","?","?","?","?","?","?","?","?","?","?","?","?","?","?","?","?","?","?","?","?","?","?","?","?","?","?","?","?","?","?","?","?","?","?","?","?","?","?","?","?","?","?","?","?","?","?","?","?","?","?","?","?","?","?","?","?","?","?","?","?","?","?","?","?","?","?","?","?","?","?","?","?","?","?","?","?","?","?","?","?","?","?","?","?","?","?","?","?","?","?","?","?","?","?","?","?","?","?","?","?","?","?","?","?","?","?","?","?","?","?","?","?","?","?","?","?","?","?","?","?","?","?","?","?","?","?","?","?","?","?","?","?","?","?","?","?","?","?","?","?","?","?","?","?","?","?","?","?","?","?","?","?","?","?","?","?","?","?","?","?","?","?","?","?","?","?","?","?","?","?","?","?","?","?","?","?","?","?","?","?","?","?","?","?","?","?","?","?","?","?","?","?","?","?","?","?","?","?","?","?","?","?","?","?","?","?","?","?","?","?","?","?","?","?","?","?","?","?","?","?","?","?","?","?","?","?","?","?","?","?","?","?","?","?","?","?","?","?","?","?","?","?","?","?","?","?","?","?","?","?","?","?","?","?","?","?","?","?","?","?","?","?","?","?","?","?","?","?","?","?","?","?","?","?","?","?","?","?","?","?","?","?","?","?","?","?","?","?","?","?","?","?","?","?","?","?","?","?","?","?","?","?","?","?","?","?","?","?","?","?","?","?","?","?","?","?","?","?","?","?","?","?","?","?","?","?","?","?","?","?","?","?","?","?","?","?","?","?","?","?","?","?","?","?","?","?","?","?","?","?","?","?","?","?","?","?","?","?","?","?","?","?","?","?","?","?","?","?","?","?","?","?","?","?","?","?","?","?","?","?","?","?","?","?","?","?","?","?","?","?","?","?","?","?","?","?","?","?","?","?","?","?","?","?","?","?","?","?","?","?","?","?","?","?","?","?","?","?","?","?","?","?","?","?","?","?","?","?","?","?","?","?","?","?","?","?","?","?","?","?","?","?","?","?","?","?","?","?","?","?","?","?","?","?","?","?","?","?","?","?","?","?","?","?","?","?","?","?","?","?","?","?","?","?","?","?","?","?","?","?","?","?","?","?","?","?","?","?","?","?","?","?","?","?","?","?","?","?","?","?","?","?","?","?","?","?","?","?","?","?","?","?","?","?","?","?","?","?","?","?","?","?","?","?","?","?","?","?","?","?","?","?","?","?","?","?","?","?","?","?","?","?","?","?","?","?","?","?","?","?","?","?","?","?","?","?","?","?","?","?","?","?","?","?","?","?","?","?","?","?","?","?","?","?","?","?","?","?","?","?","?","?","?","?","?","?","?","?","?","?","?","?","?","?","?","?","?","?","?","?","?","?","?","?","?","?","?","?","?","?","?","?","?","?","?","?","?","?","?","?","?","?","?","?","?","?","?","?","?","?","?","?","?","?","?","?","?","?","?","?","?","?","?","?","?","?","?","?","?","?","?","?","?","?","?","?","?","?","?","?","?","?","?","?","?","?","?","?","?","?","?","?","?","?","?","?","?","?","?","?","?","?","?","?","?","?","?","?","?","?","?","?","?","?","?","?","?","?","?","?","?","?","?","?","?","?","?","?","?","?","?","?","?","?","?","?","?","?","?","?","?","?","?","?","?","?","?","?","?","?","?","?","?","?","?","?","?","?","?","?","?","?","?","?","?","?","?","?","?","?","?","?","?","?","?","?","?","?","?","?","?","?","?","?","?","?","?","?","?","?","?","?","?","?","?","?","?","?","?","?","?","?","?","?","?","?","?","?","?","?","?","?","?","?","?","?","?","?","?","?","?","?","?","?","?","?","?","?","?","?","?","?","?","?","?","?","?","?","?","?","?","?","?","?","?","?","?","?","?","?","?","?","?","?","?","?","?","?","?","?","?","?","?","?","?","?","?","?","?","?","?","?","?","?","?","?","?","?","?","?","?","?","?","?","?","?","?","?","?","?","?","?","?","?","?","?","?","?","?","?","?","?","?","?","?","?","?","?","?","?","?","?","?","?","?","?","?","?","?","?","?","?","?","?","?","?","?","?","?","?","?","?","?","?","?","?","?","?","?","?","?","?","?","?","?","?","?","?","?","?","?","?","?","?","?","?","?","?","?","?","?","?","?","?","?","?","?","?","?","?","?","?","?","?","?","?","?","?","?","?","?","?","?","?","?","?","?","?","?","?","?","?","?","?","?","?","?","?","?","?","?","?","?","?","?","?","?","?","?","?","?","?","?","?","?","?","?","?","?","?","?","?","?","?","?","?","?","?","?","?","?","?","?","?","?","?","?","?","?","?","?","?","?","?","?","?","?","?","?","?","?","?","?","?","?","?","?","?","?","?","?","?","?","?","?","?","?","?","?","?","?","?","?","?","?","?","?","?","?","?","?","?","?","?","?","?","?","?","?","?","?","?","?","?","?","?","?","?","?","?","?","?","?","?","?","?","?","?","?","?","?","?","?","?","?","?","?","?","?","?","?","?","?","?","?","?","?","?","?","?","?","?","?","?","?","?","?","?","?","?","?","?","?","?","?","?","?","?","?","?","?","?","?","?","?","?","?","?","?","?","?","?","?","?","?","?","?","?","?","?","?","?","?","?","?","?","?","?","?","?","?","?","?","?","?","?","?","?","?","?","?","?","?","?","?","?","?","?","?","?","?","?","?","?","?","?","?","?","?","?","?","?","?","?","?","?","?","?","?","?","?","?","?","?","?","?","?","?","?","?","?","?","?","?","?","?","?","?","?","?","?","?","?","?","?","?","?","?","?","?","?","?","?","?","?","?","?","?","?","?","?","?","?","?","?","?","?","?","?","?","?","?","?","?","?","?","?","?","?","?","?","?","?","?","?","?","?","?","?","?","?","?","?","?","?","?","?","?","?","?","?","?","?","?","?","?","?","?","?","?","?","?","?","?","?","?","?","?","?","?","?","?","?","?","?","?","?","?","?","?","?","?","?","?","?","?","?","?","?","?","?","?","?","?","?","?","?","?","?","?","?","?","?","?","?","?","?","?","?","?","?","?","?","?","?","?","?","?","?","?","?","?","?","?","?","?","?","?","?","?","?","?","?","?","?","?","?","?","?","?","?","?","?","?","?","?","?","?","?","?","?","?","?","?","?","?","?","?","?","?","?","?","?","?","?","?","?","?","?","?","?","?","?","?","?","?","?","?","?","?","?","?","?","?","?","?","?","?","?","?","?","?","?","?","?","?","?","?","?","?","?","?","?","?","?","?","?","?","?","?","?","?","?","?","?","?","?","?","?","?","?","?","?","?","?","?","?","?","?","?","?","?","?","?","?","?","?","?","?","?","?","?","?","?","?","?","?","?","?","?","?","?","?","?","?","?","?","?","?","?","?","?","?","?","?","?","?","?","?","?","?","?","?","?","?","?","?","?","?","?","?","?","?","?","?","?","?","?","?","?","?","?","?","?","?","?","?","?","?","?","?","?","?","?","?","?","?","?","?","?","?","?","?","?","?","?","?","?","?","?","?","?","?","?","?","?","?","?","?","?","?","?","?","?","?","?","?","?","?","?","?","?","?","?","?","?","?","?","?","?","?","?","?","?","?","?","?","?","?","?","?","?","?","?","?","?","?","?","?","?","?","?","?","?","?","?","?","?","?","?","?","?","?","?","?","?","?","?","?","?","?","?","?","?","?","?","?","?","?","?","?","?","?","?","?","?","?","?","?","?","?","?","?","?","?","?","?","?","?","?","?","?","?","?","?","?","?","?","?","?","?","?","?","?","?","?","?","?","?","?","?","?","?","?","?","?","?","?","?","?","?","?","?","?","?","?","?","?","?","?","?","?","?","?","?","?","?","?","?","?","?","?","?","?","?","?","?","?","?","?","?","?","?","?","?","?","?","?","?","?","?","?","?","?","?","?","?","?","?","?","?","?","?","?","?","?","?","?","?","?","?","?","?","?","?","?","?","?","?","?","?","?","?","?","?","?","?","?","?","?","?","?","?","?","?","?","?","?","?","?","?","?","?","?","?","?","?","?","?","?","?","?","?","?","?","?","?","?","?","?","?","?","?","?","?","?","?","?","?","?","?","?","?","?","?","?","?","?","?","?","?","?","?","?","?","?","?","?","?","?","?","?","?","?","?","?","?","?","?","?","?","?","?","?","?","?","?","?","?","?","?","?","?","?","?","?","?","?","?","?","?","?","?","?","?","?","?","?","?","?","?","?","?","?","?","?","?","?","?","?","?","?","?","?","?","?","?","?","?","?","?","?","?","?","?","?","?","?","?","?","?","?","?","?","?","?","?","?","?","?","?","?","?","?","?","?","?","?","?","?","?","?","?","?","?","?","?","?","?","?","?","?","?","?","?","?","?","?","?","?","?","?","?","?","?","?","?","?","?","?","?","?","?","?","?","?","?","?","?","?","?","?","?","?","?","?","?","?","?","?","?","?","?","?","?","?","?","?","?","?","?","?","?","?","?","?","?","?","?","?","?","?","?","?","?","?","?","?","?","?","?","?","?","?","?","?","?","?","?","?","?","?","?","?","?","?","?","?","?","?","?","?","?","?","?","?","?","?","?","?","?","?","?","?","?","?","?","?","?","?","?","?","?","?","?","?","?","?","?","?","?","?","?","?","?","?","?","?","?","?","?","?","?","?","?","?","?","?","?","?","?","?","?","?","?","?","?","?","?","?","?","?","?","?","?","?","?","?","?","?","?","?","?","?","?","?","?","?","?","?","?","?","?","?","?","?","?","?","?","?","?","?","?","?","?","?","?","?","?","?","?","?","?","?","?","?","?","?","?","?","?","?","?","?","?","?","?","?","?","?","?","?","?","?","?","?","?","?","?","?","?","?","?","?","?","?","?","?","?","?","?","?","?","?","?","?","?","?","?","?","?","?","?","?","?","?","?","?","?","?","?","?","?","?","?","?","?","?","?","?","?","?","?","?","?","?","?","?","?","?","?","?","?","?","?","?","?","?","?","?","?","?","?","?","?","?","?","?","?","?","?","?","?","?","?","?","?","?","?","?","?","?","?","?","?","?","?","?","?","?","?","?","?","?","?","?","?","?","?","?","?","?","?","?","?","?","?","?","?","?","?","?","?","?","?","?","?","?","?","?","?","?","?","?","?","?","?","?","?","?","?","?","?","?","?","?","?","?","?","?","?","?","?","?","?","?","?","?","?","?","?","?","?","?","?","?","?","?","?","?","?","?","?","?","?","?","?","?","?","?","?","?","?","?","?","?","?","?","?","?","?","?","?","?","?","?","?","?","?","?","?","?","?","?","?","?","?","?","?","?","?","?","?","?","?","?","?","?","?","?","?","?","?","?","?","?","?","?","?","?","?","?","?","?","?","?","?","?","?","?","?","?","?","?","?","?","?","?","?","?","?","?","?","?","?","?","?","?","?","?","?","?","?","?","?","?","?","?","?","?","?","?","?","?","?","?","?","?","?","?","?","?","?","?","?","?","?","?","?","?","?","?","?","?","?","?","?","?","?","?","?","?","?","?","?","?","?","?","?","?","?","?","?","?","?","?","?","?","?","?","?","?","?","?","?","?","?","?","?","?","?","?","?","?","?","?","?","?","?","?","?","?","?","?","?","?","?","?","?","?","?","?","?","?","?","?","?","?","?","?","?","?","?","?","?","?","?","?","?","?","?","?","?","?","?","?","?","?","?","?","?","?","?","?","?","?","?","?","?","?","?","?","?","?","?","?","?","?","?","?","?","?","?","?","?","?","?","?","?","?","?","?","?","?","?","?","?","?","?","?","?","?","?","?","?","?","?","?","?","?","?","?","?","?","?","?","?","?","?","?","?","?","?","?","?","?","?","?","?","?","?","?","?","?","?","?","?","?","?","?","?","?","?","?","?","?","?","?","?","?","?","?","?","?","?","?","?","?","?","?","?","?","?","?","?","?","?","?","?","?","?","?","?","?","?","?","?","?","?","?","?","?","?","?","?","?","?","?","?","?","?","?","?","?","?","?","?","?","?","?","?","?","?","?","?","?","?","?","?","?","?","?","?","?","?","?","?","?","?","?","?","?","?","?","?","?","?","?","?","?","?","?","?","?","?","?","?","?","?","?","?","?","?","?","?","?","?","?","?","?","?","?","?","?","?","?","?","?","?","?","?","?","?","?","?","?","?","?","?","?","?","?","?","?","?","?","?","?","?","?","?","?","?","?","?","?","?","?","?","?","?","?","?","?","?","?","?","?","?","?","?","?","?","?","?","?","?","?","?","?","?","?","?","?","?","?","?","?","?","?","?","?","?","?","?","?","?","?","?","?","?","?","?","?","?","?","?","?","?","?","?","?","?","?","?","?","?","?","?","?","?","?","?","?","?","?","?","?","?","?","?","?","?","?","?","?","?","?","?","?","?","?","?","?","?","?","?","?","?","?","?","?","?","?","?","?","?","?","?","?","?","?","?","?","?","?","?","?","?","?","?","?","?","?","?","?","?","?","?","?","?","?","?","?","?","?","?","?","?","?","?","?","?","?","?","?","?","?","?","?","?","?","?","?","?","?","?","?","?","?","?","?","?","?","?","?","?","?","?","?","?","?","?","?","?","?","?","?","?","?","?","?","?","?","?","?","?","?","?","?","?","?","?","?","?","?","?","?","?","?","?","?","?","?","?","?","?","?","?","?","?","?","?","?","?","?","?","?","?","?","?","?","?","?","?","?","?","?","?","?","?","?","?","?","?","?","?","?","?","?","?","?","?","?","?","?","?","?","?","?","?","?","?","?","?","?","?","?","?","?","?","?","?","?","?","?","?","?","?","?","?","?","?","?","?","?","?","?","?","?","?","?","?","?","?","?","?","?","?","?","?","?","?","?","?","?","?","?","?","?","?","?","?","?","?","?","?","?","?","?","?","?","?","?","?","?","?","?","?","?","?","?","?","?","?","?","?","?","?","?","?","?","?","?","?","?","?","?","?","?","?","?","?","?","?","?","?","?","?","?","?","?","?","?","?","?","?","?","?","?","?","?","?","?","?","?","?","?","?","?","?","?","?","?","?","?","?","?","?","?","?","?","?","?","?","?","?","?","?","?","?","?","?","?","?","?","?","?","?","?","?","?","?","?","?","?","?","?","?","?","?","?","?","?","?","?","?","?","?","?","?","?","?","?","?","?","?","?","?","?","?","?","?","?","?","?","?","?","?","?","?","?","?","?","?","?","?","?","?","?","?","?","?","?","?","?","?","?","?","?","?","?","?","?","?","?","?","?","?","?","?","?","?","?","?","?","?","?","?","?","?","?","?","?","?","?","?","?","?","?","?","?","?","?","?","?","?","?","?","?","?","?","?","?","?","?","?","?","?","?","?","?","?","?","?","?","?","?","?","?","?","?","?","?","?","?","?","?","?","?","?","?","?","?","?","?","?","?","?","?","?","?","?","?","?","?","?","?","?","?","?","?","?","?","?","?","?","?","?","?","?","?","?","?","?","?","?","?","?","?","?","?","?","?","?","?","?","?","?","?","?","?","?","?","?","?","?","?","?","?","?","?","?","?","?","?","?","?","?","?","?","?","?","?","?","?","?","?","?","?","?","?","?","?","?","?","?","?","?","?","?","?","?","?","?","?","?","?","?","?","?","?","?","?","?","?","?","?","?","?","?","?","?","?","?","?","?","?","?","?","?","?","?","?","?","?","?","?","?","?","?","?","?","?","?","?","?","?","?","?","?","?","?","?","?","?","?","?","?","?","?","?","?","?","?","?","?","?","?","?","?","?","?","?","?","?","?","?","?","?","?","?","?","?","?","?","?","?","?","?","?","?","?","?","?","?","?","?","?","?","?","?","?","?","?","?","?","?","?","?","?","?","?","?","?","?","?","?","?","?","?","?","?","?","?","?","?","?","?","?","?","?","?","?","?","?","?","?","?","?","?","?","?","?","?","?","?","?","?","?","?","?","?","?","?","?","?","?","?","?","?","?","?","?","?","?","?","?","?","?","?","?","?","?","?","?","?","?","?","?","?","?","?","?","?","?","?","?","?","?","?","?","?","?","?","?","?","?","?","?","?","?","?","?","?","?","?","?","?","?","?","?","?","?","?","?","?","?","?","?","?","?","?","?","?","?","?","?","?","?","?","?","?","?","?","?","?","?","?","?","?","?","?","?","?","?","?","?","?","?","?","?","?","?","?","?","?","?","?","?","?","?","?","?","?","?","?","?","?","?","?","?","?","?","?","?","?","?","?","?","?","?","?","?","?","?","?","?","?","?","?","?","?","?","?","?","?","?","?","?","?","?","?","?","?","?","?","?","?","?","U","U","U","U","U","U","U","U","U","U","U","U","U","U","U","U","U","U","U","?","?","?","?","?","?","?","?","T","T","T","T","T","T","T","T","T","T","T","T","T","T","T","T","T","T","T","T","T","T","T","T","T","T","T","T","T","T","T","T","T","T","T","T","T","T","T","T","T","T","T","T","T","T","T","T","T","T","T","T","T","T","T","T","T","T","T","T","T","T","T","T","T","T","T","T","T","T","T","T","T","T","T","T","T","T","T","T","T","T","T","T","T","T","T","T","T","T","T","T","T","T","T","T","T","T","T","T","T","T","T","T","T","T","T","T","T","T","T","T","T","T","T","T","T","T","T","T","T","T","T","T","T","T","T","T","T","T","T","T","T","T","T","T","T","T","T","T","T","T","T","T","T","T","T","T","T","T","T","T","T","T","T","T","T","T","T","T","T","T","T","T","T","T","T","T","T","T","T","T","T","T","T","T","T","T","T","T","T","T","T","T","T","T","T","T","T","T","T","T","T","T","T","T","T","T","T","?","?","?","U","U","U","U","U","?","?","?","?","?","?","?","?","?","M","M","M","M","M","?","?","N","N","N","?","?","?","?","?","?","?","?","?","?","?","?","?","?","?","?","?","?","?","?","?","?","?","?","?","?","?","G","G","G","G","G","G","G","G","G","G","G","G","G","G","G","G","G","G","G","G","G","G","G","G","G","G","G","G","G","G","G","G","G","G","G","G","G","G","G","G","G","G","G","G","G","G","G","G","G","G","G","G","G","G","G","G","G","G","G","G","G","G","G","G","G","G","G","G","G","G","G","G","G","G","G","G","G","G","G","G","G","G","G","G","G","G","G","G","G","G","G","G","G","G","G","G","G","G","G","G","G","G","G","G","G","G","G","G","G","G","G","G","G","G","G","G","G","G","G","G","G","G","G","?","?","?","?","?","?","?","?","?","?","?","?","?","?","?","?","?","?","P","P","P","P","?","?","?","?","?","?","?","?","?","?","?","?","?","?","?","P","P","?","O","O","?","?","?","N","N","?","?","?","?","?","?","?","M","M","M","?","?","?","?","L","L","L","L","L","L","L","L","L","L","L","L","L","L","L","L","L","L","L","L","L","L","L","L","L","L","L","L","L","L","L","L","L","L","L","L","L","L","L","L","L","L","L","L","L","L","L","L","L","L","L","L","L","L","L","L","L","L","L","L","L","L","L","L","L","L","L","L","L","L","L","L","L","L","L","L","L","L","L","L","L","L","L","L","L","L","L","L","L","L","L","L","L","L","L","L","L","L","L","L","L","L","L","L","L","L","L","L","L","L","L","L","L","L","L","L","L","L","L","L","L","L","L","L","L","L","L","L","L","L","L","L","?","?","?","?","?","?","?","?","?","?","?","?","?","?","?","?","?","?","?","W","W","W","W","W","W","W","W","W","W","W","W","W","W","W","W","W","W","W","W","W","W","W","W","W","W","W","W","W","W","W","W","W","W","W","W","W","W","W","W","W","W","W","W","W","W","W","W","W","W","W","W","W","W","W","W","W","W","W","W","W","W","W","W","W","W","W","W","W","W","W","W","W","W","W","W","W","W","W","W","W","W","W","W","W","W","W","W","W","W","W","W","W","W","W","W","W","W","W","W","W","W","W","W","W","W","W","W","W","W","W","W","W","?","?","?","?","?","?","?","?","W","W","W","X","X","?","Y","Y","Y","?","Z","Z","Z","Z","Z","Z","Z","Z","Z","Z","Z","Z","Z","Z","Z","Z","Z","Z","Z","Z","Z","Z","Z","Z","Z","Z","Z","Z","Z","Z","Z","Z","Z","Z","Z","Z","Z","Z","Z","Z","Z","Z","Z","Z","Z","Z","Z","Z","Z","Z","Z","Z","Z","Z","Z","Z","Z","Z","Z","?","Y","Y","?","?","?","?","?","N","N","?","M","M","?","?","?","?","?","?","?","?","?","?","?","?","?","?","D","D","D","D","D","?","?","?","?","?","?","?","?","?","?","?","E","E","E","E","E","E","E","E","E","E","E","E","E","E","E","E","E","E","E","E","E","E","E","E","E","E","E","E","E","E","E","E","E","E","E","E","E","E","E","E","E","E","E","E","E","E","E","E","E","E","E","E","E","E","E","E","E","E","E","E","E","E","E","E","E","E","E","E","E","E","E","E","E","E","?","?","?","?","?","?","?","?","?","?","?","?","?","?","?","?","?","?","?","C","C","C","?","?","B","B","B","B","B","B","B","B","B","B","B","B","B","B","B","B","B","B","B","B","B","B","B","B","B","B","B","B","B","B","B","B","B","B","?","?","?","?","L","L","L","?","?","?","?","?","?","?","?","?","?","?","?","?","?","?","?","?","P","P","?","Q","Q","Q","Q","Q","Q","Q","Q","Q","Q","Q","Q","Q","Q","?","?","R","R","R","R","R","R","R","R","R","R","R","R","R","R","R","R","R","R","R","R","R","Q","Q","P","P","O","N","M","?","?","?","?","A","A","?","?","?","?","?","?","?","?","?","?","?","?","?","?","?","?","?","?","?","?","?","?","A","A","A","A","A","A","A","A","A","A","A","A","A","A","A","A","A","A","A","A","A","A","A","A","A","A","A","A","A","A","A","A","A","A","A","A","A","A","A","A","A","A","A","A","A","A","A","A","A","A","A","A","A","A","A","A","A","A","A","A","A","A","A","A","A","A","A","A","A","A","A","A","A","A","A","A","A","A","A","A","A","?","?","?","?","?","?","?","B","B","B","B","B","B","B","B","B","B","B","B","B","B","B","B","B","B","B","B","B","B","B","B","B","B","B","B","B","B","B","B","B","B","B","B","B","B","B","B","B","B","B","B","B","?","?","?","?","?","?"],"t":[38,47,64,80,97,113,130,147,164,180,197,213,230,246,264,281,297,314,330,347,363,380,397,414,431,447,464,481,497,513,530,547,564,580,597,614,631,647,664,680,697,714,730,747,763,780,797,813,830,846,863,880,897,913,930,947,963,980,997,1013,1030,1047,1063,1080,1097,1114,1130,1147,1164,1180,1197,1218,1230,1247,1264,1280,1296,1314,1330,1347,1363,1380,1396,1413,1430,1447,1463,1480,1497,1513,1530,1547,1563,1580,1596,1613,1630,1647,1664,1680,1697,1713,1730,1747,1763,1780,1797,1813,1830,1847,1863,1880,1896,1913,1930,1947,1963,1980,1997,2013,2030,2047,2063,2080,2097,2113,2130,2147,2164,2180,2197,2213,2230,2246,2264,2280,2297,2313,2330,2346,2363,2380,2396,2413,2430,2446,2463,2480,2497,2513,2530,2547,2563,2580,2597,2613,2630,2647,2664,2680,2697,2714,2730,2747,2763,2780,2797,2814,2830,2846,2864,2880,2897,2913,2930,2947,2964,2980,2997,3014,3030,3047,3063,3080,3097,3114,3131,3147,3164,3180,3197,3214,3230,3247,3264,3281,3297,3313,3330,3347,3363,3380,3397,3414,3430,3447,3463,3480,3497,3513,3530,3547,3564,3580,3597,3613,3630,3647,3663,3680,3697,3713,3730,3747,3764,3780,3797,3813,3830,3847,3863,3880,3897,3914,3930,3947,3964,3980,3997,4014,4030,4047,4063,4080,4097,4113,4130,4147,4163,4180,4197,4213,4230,4247,4263,4280,4297,4314,4330,4347,4364,4380,4397,4413,4430,4447,4463,4480,4497,4514,4530,4547,4563,4580,4597,4614,4630,4647,4664,4680,4697,4714,4731,4747,4764,4780,4797,4814,4830,4847,4864,4880,4897,4914,4930,4947,4964,4981,4997,5014,5031,5047,5064,5080,5097,5114,5130,5147,5164,5180,5197,5214,5230,5247,5263,5280,5297,5313,5330,5347,5363,5380,5397,5413,5430,5447,5463,5480,5497,5513,5530,5547,5564,5580,5597,5613,5630,5647,5663,5680,5697,5713,5730,5747,5764,5780,5797,5813,5830,5847,5863,5880,5897,5913,5930,5947,5964,5980,5997,6014,6030,6047,6063,6080,6097,6113,6130,6147,6164,6180,6197,6213,6230,6247,6263,6281,6297,6313,6330,6347,6363,6380,6397,6413,6430,6447,6463,6480,6497,6514,6530,6547,6564,6581,6598,6615,6631,6648,6664,6681,6698,6714,6731,6748,6764,6780,6797,6814,6831,6847,6864,6880,6897,6914,6930,6947,6964,6980,6997,7014,7030,7047,7064,7080,7097,7113,7130,7148,7164,7180,7197,7214,7230,7247,7263,7280,7297,7314,7330,7347,7364,7380,7397,7414,7430,7447,7464,7480,7497,7513,7530,7547,7564,7580,7597,7614,7630,7647,7664,7680,7697,7713,7730,7747,7764,7780,7797,7814,7830,7847,7864,7880,7897,7913,7930,7947,7963,7980,7997,8013,8030,8047,8063,8080,8097,8114,8130,8147,8164,8180,8197,8213,8230,8247,8264,8280,8297,8314,8330,8347,8364,8380,8397,8413,8430,8447,8463,8480,8497,8513,8530,8547,8564,8580,8597,8613,8631,8647,8664,8680,8697,8713,8730,8747,8763,8780,8797,8814,8830,8847,8863,8881,8897,8914,8930,8947,8964,8980,8997,9014,9030,9047,9064,9080,9097,9113,9130,9147,9163,9180,9197,9214,9230,9247,9264,9280,9297,9313,9330,9347,9363,9381,9397,9414,9430,9447,9464,9480,9497,9514,9530,9547,9564,9580,9597,9614,9630,9647,9664,9680,9697,9713,9730,9747,9764,9780,9797,9814,9830,9847,9863,9880,9897,9914,9930,9947,9963,9980,9997,10014,10030,10047,10064,10082,10098,10114,10131,10148,10165,10188,10203,10215,10231,10247,10264,10282,10298,10314,10331,10348,10364,10381,10398,10414,10431,10447,10464,10481,10497,10514,10531,10547,10564,10581,10597,10614,10631,10647,10664,10681,10697,10714,10731,10747,10765,10781,10797,10814,10831,10847,10864,10880,10897,10914,10930,10947,10964,10981,10997,11014,11030,11047,11064,11081,11098,11114,11131,11147,11164,11181,11197,11214,11235,11248,11264,11281,11297,11314,11331,11348,11364,11381,11397,11414,11433,11447,11467,11481,11497,11514,11530,11547,11565,11581,11597,11614,11631,11647,11664,11681,11697,11714,11731,11748,11764,11781,11797,11814,11831,11848,11864,11881,11897,11914,11931,11947,11964,11981,11997,12014,12030,12047,12066,12081,12097,12114,12130,12147,12164,12180,12197,12214,12230,12247,12264,12281,12297,12313,12330,12347,12364,12380,12397,12414,12430,12447,12464,12480,12497,12514,12530,12547,12564,12580,12598,12614,12630,12648,12664,12680,12697,12714,12730,12747,12764,12780,12797,12814,12830,12847,12864,12881,12897,12914,12930,12947,12964,12980,12997,13014,13030,13047,13064,13080,13097,13114,13131,13147,13164,13180,13197,13214,13230,13247,13264,13280,13297,13314,13331,13347,13364,13380,13397,13414,13431,13447,13464,13481,13498,13514,13531,13547,13564,13581,13597,13614,13630,13647,13664,13680,13697,13714,13730,13747,13764,13780,13797,13814,13831,13848,13864,13881,13897,13914,13930,13948,13964,13981,13997,14014,14031,14047,14064,14082,14097,14114,14131,14147,14164,14182,14197,14214,14231,14247,14264,14281,14299,14314,14331,14347,14364,14381,14397,14414,14431,14448,14464,14481,14499,14514,14531,14548,14564,14581,14598,14615,14631,14648,14664,14681,14697,14714,14730,14748,14764,14781,14797,14814,14831,14848,14864,14881,14897,14915,14931,14947,14964,14981,14997,15014,15031,15047,15064,15081,15097,15114,15131,15148,15164,15181,15198,15214,15231,15249,15264,15281,15298,15314,15332,15348,15364,15381,15397,15414,15431,15448,15464,15480,15497,15514,15531,15548,15564,15581,15598,15614,15631,15647,15665,15681,15698,15714,15731,15748,15764,15781,15797,15814,15831,15848,15864,15881,15901,15914,15930,15947,15964,15980,15997,16014,16030,16047,16065,16081,16097,16114,16131,16147,16164,16181,16198,16214,16231,16248,16265,16281,16298,16315,16331,16347,16364,16381,16397,16414,16431,16447,16464,16481,16498,16514,16531,16548,16564,16581,16598,16615,16631,16647,16664,16681,16697,16714,16731,16747,16764,16781,16798,16814,16831,16847,16864,16881,16898,16914,16931,16947,16965,16981,16997,17014,17031,17047,17064,17081,17097,17114,17131,17148,17164,17181,17198,17214,17231,17248,17264,17281,17297,17315,17331,17348,17364,17381,17397,17414,17431,17448,17464,17481,17498,17514,17532,17548,17565,17582,17599,17615,17633,17649,17665,17682,17698,17715,17732,17748,17765,17784,17799,17815,17832,17848,17866,17882,17899,17915,17931,17948,17965,17982,17998,18015,18031,18048,18065,18081,18098,18114,18131,18148,18164,18181,18197,18214,18231,18248,18265,18281,18298,18314,18331,18348,18364,18381,18399,18415,18431,18448,18465,18481,18498,18514,18531,18548,18565,18582,18598,18615,18631,18648,18664,18681,18697,18714,18731,18748,18765,18781,18798,18815,18831,18848,18864,18881,18898,18914,18931,18948,18964,18981,18998,19014,19031,19048,19065,19081,19097,19114,19131,19148,19164,19181,19198,19214,19231,19248,19265,19281,19298,19314,19331,19348,19365,19381,19398,19415,19432,19448,19465,19482,19498,19515,19532,19548,19565,19582,19598,19615,19632,19648,19665,19682,19698,19714,19732,19748,19765,19782,19798,19815,19832,19848,19865,19882,19898,19915,19932,19948,19965,19981,19998,20015,20031,20048,20065,20081,20099,20115,20132,20148,20166,20181,20198,20215,20231,20248,20265,20281,20298,20314,20331,20348,20364,20381,20398,20414,20432,20448,20465,20481,20498,20515,20532,20549,20566,20582,20598,20615,20632,20648,20665,20681,20698,20714,20731,20748,20764,20781,20798,20815,20832,20848,20865,20881,20898,20915,20931,20948,20964,20982,20999,21015,21031,21048,21065,21081,21098,21115,21131,21148,21165,21181,21198,21215,21231,21248,21264,21281,21298,21314,21331,21348,21364,21381,21398,21414,21431,21448,21465,21481,21498,21514,21531,21548,21564,21581,21598,21614,21634,21648,21666,21682,21698,21715,21731,21748,21764,21781,21798,21815,21831,21848,21865,21881,21897,21914,21931,21948,21964,21981,21998,22014,22031,22048,22064,22081,22098,22115,22131,22148,22164,22181,22197,22214,22231,22248,22264,22281,22298,22315,22331,22348,22365,22381,22399,22415,22432,22448,22465,22482,22498,22515,22532,22548,22565,22581,22598,22614,22631,22648,22665,22681,22698,22714,22732,22748,22765,22781,22798,22815,22831,22848,22865,22881,22898,22915,22931,22949,22965,22981,22998,23015,23031,23048,23064,23081,23098,23115,23131,23148,23165,23181,23198,23215,23231,23248,23264,23281,23298,23315,23331,23348,23366,23382,23398,23414,23431,23448,23465,23481,23498,23515,23531,23549,23564,23581,23598,23615,23631,23648,23665,23681,23699,23715,23732,23748,23765,23782,23798,23815,23831,23848,23864,23883,23898,23914,23931,23947,23965,23981,23998,24015,24031,24048,24065,24081,24098,24114,24131,24148,24164,24181,24197,24215,24231,24248,24265,24281,24298,24314,24331,24348,24364,24381,24398,24415,24431,24448,24464,24481,24498,24515,24531,24548,24565,24581,24598,24615,24631,24648,24664,24681,24698,24715,24731,24748,24764,24781,24798,24815,24831,24848,24865,24881,24898,24915,24931,24948,24964,24981,24998,25014,25031,25048,25064,25081,25098,25115,25131,25148,25165,25182,25198,25214,25231,25248,25264,25281,25298,25314,25331,25347,25364,25381,25398,25414,25431,25448,25464,25481,25498,25514,25531,25548,25564,25581,25598,25614,25631,25648,25664,25681,25698,25715,25731,25747,25764,25781,25797,25814,25831,25847,25864,25881,25898,25914,25931,25948,25965,25981,25998,26015,26031,26048,26064,26081,26098,26114,26131,26148,26165,26181,26198,26214,26231,26248,26264,26281,26298,26314,26331,26348,26364,26381,26398,26415,26431,26448,26464,26481,26498,26514,26531,26548,26564,26581,26597,26614,26631,26647,26664,26681,26698,26714,26731,26748,26764,26781,26798,26815,26831,26848,26864,26881,26898,26914,26931,26948,26964,26981,26998,27014,27031,27048,27064,27081,27098,27115,27131,27148,27164,27181,27198,27215,27231,27248,27265,27281,27298,27315,27331,27348,27364,27381,27398,27414,27431,27448,27465,27481,27498,27515,27531,27548,27565,27581,27598,27614,27631,27648,27664,27681,27698,27714,27731,27748,27765,27781,27798,27815,27831,27848,27864,27882,27898,27915,27931,27948,27965,27981,27998,28015,28031,28048,28064,28081,28098,28114,28131,28148,28165,28181,28198,28215,28231,28248,28266,28281,28298,28314,28331,28347,28364,28381,28398,28415,28431,28448,28465,28481,28498,28514,28531,28548,28564,28581,28598,28615,28631,28648,28664,28681,28698,28714,28731,28748,28764,28781,28798,28814,28831,28848,28864,28881,28898,28914,28931,28948,28964,28981,28998,29014,29031,29048,29065,29081,29098,29115,29131,29148,29164,29181,29198,29215,29231,29248,29265,29281,29298,29315,29331,29348,29365,29381,29398,29414,29431,29448,29465,29481,29498,29514,29531,29548,29565,29581,29598,29614,29631,29648,29664,29681,29698,29714,29731,29748,29765,29781,29798,29814,29831,29848,29864,29881,29898,29914,29931,29948,29964,29981,29998,30014,30031,30048,30064,30081,30098,30115,30131,30148,30164,30181,30198,30215,30231,30248,30264,30281,30298,30314,30331,30348,30364,30381,30398,30414,30431,30448,30465,30481,30498,30514,30531,30548,30565,30581,30598,30615,30631,30648,30665,30682,30698,30714,30731,30748,30765,30781,30798,30815,30832,30856,30865,30881,30898,30915,30932,30948,30965,30982,30998,31015,31031,31048,31065,31081,31098,31115,31131,31148,31165,31181,31198,31215,31231,31248,31264,31282,31298,31315,31331,31348,31365,31381,31398,31415,31431,31448,31465,31482,31498,31515,31532,31548,31565,31582,31598,31615,31632,31649,31665,31682,31698,31715,31732,31748,31765,31781,31798,31815,31831,31848,31865,31882,31898,31915,31931,31948,31965,31981,31998,32015,32031,32048,32065,32082,32098,32115,32132,32149,32165,32181,32198,32215,32232,32249,32266,32282,32298,32314,32332,32348,32364,32381,32398,32415,32431,32448,32464,32481,32498,32515,32532,32548,32565,32581,32598,32615,32631,32648,32665,32682,32698,32715,32731,32748,32764,32781,32798,32814,32831,32848,32865,32881,32898,32914,32931,32948,32964,32981,32998,33015,33031,33048,33065,33082,33098,33115,33132,33148,33165,33181,33198,33215,33232,33248,33266,33282,33298,33315,33331,33348,33365,33382,33398,33415,33432,33448,33465,33482,33498,33515,33531,33548,33565,33582,33598,33615,33631,33648,33665,33682,33698,33715,33731,33748,33765,33782,33798,33815,33831,33848,33865,33881,33898,33915,33932,33948,33965,33981,33998,34014,34031,34048,34065,34082,34098,34115,34131,34148,34165,34181,34198,34215,34231,34248,34265,34282,34298,34315,34332,34349,34365,34382,34398,34415,34431,34449,34465,34481,34498,34515,34531,34548,34565,34582,34598,34615,34631,34648,34665,34681,34698,34715,34731,34748,34765,34781,34798,34815,34831,34848,34865,34882,34898,34915,34931,34948,34965,34981,34998,35015,35031,35048,35065,35082,35098,35115,35132,35148,35165,35181,35199,35215,35232,35249,35265,35282,35298,35315,35331,35348,35365,35381,35398,35415,35432,35448,35465,35482,35499,35515,35532,35549,35565,35581,35598,35615,35632,35648,35665,35682,35698,35715,35732,35748,35765,35782,35798,35815,35832,35848,35865,35882,35898,35915,35931,35948,35965,35982,35998,36015,36032,36048,36065,36082,36098,36115,36131,36149,36165,36181,36198,36215,36231,36248,36265,36282,36298,36315,36331,36348,36365,36381,36398,36415,36431,36448,36465,36481,36498,36515,36531,36548,36565,36581,36599,36615,36631,36648,36665,36681,36698,36715,36732,36748,36765,36781,36798,36815,36832,36848,36865,36881,36898,36915,36932,36948,36965,36984,36998,37015,37032,37049,37065,37082,37099,37117,37132,37148,37165,37182,37198,37215,37232,37249,37265,37282,37298,37315,37331,37348,37365,37382,37398,37415,37431,37448,37465,37482,37499,37515,37531,37548,37565,37582,37598,37615,37631,37648,37665,37682,37698,37715,37732,37748,37765,37782,37798,37815,37832,37848,37865,37881,37898,37915,37931,37948,37965,37982,37999,38015,38032,38048,38065,38082,38099,38115,38132,38148,38165,38182,38198,38215,38232,38248,38265,38282,38298,38315,38332,38354,38382,38398,38415,38432,38449,38465,38482,38498,38515,38532,38548,38565,38581,38598,38615,38632,38648,38665,38682,38698,38715,38731,38748,38765,38781,38798,38815,38831,38848,38865,38881,38898,38915,38931,38948,38965,38981,38998,39015,39032,39048,39065,39082,39098,39115,39132,39148,39165,39182,39199,39215,39232,39248,39265,39282,39298,39315,39332,39348,39365,39382,39398,39415,39431,39448,39465,39482,39499,39515,39532,39548,39566,39582,39599,39616,39633,39649,39665,39682,39699,39715,39732,39748,39765,39782,39799,39815,39832,39849,39865,39882,39899,39916,39932,39949,39965,39981,39998,40015,40032,40049,40065,40082,40099,40115,40132,40149,40165,40181,40198,40215,40232,40248,40265,40282,40299,40315,40332,40348,40365,40382,40398,40415,40431,40448,40465,40482,40498,40515,40532,40548,40565,40581,40598,40615,40631,40648,40665,40682,40698,40715,40731,40748,40765,40781,40798,40815,40832,40848,40865,40882,40898,40915,40931,40948,40965,40982,40998,41015,41032,41048,41065,41082,41099,41115,41132,41149,41165,41182,41198,41215,41232,41248,41265,41282,41299,41315,41332,41349,41365,41382,41399,41415,41432,41448,41465,41482,41498,41515,41532,41548,41565,41582,41598,41615,41632,41648,41665,41682,41699,41715,41731,41748,41765,41782,41798,41815,41832,41848,41865,41882,41898,41915,41932,41949,41965,41982,41998,42015,42032,42048,42065,42082,42099,42115,42132,42148,42165,42182,42198,42215,42232,42248,42265,42282,42298,42315,42331,42348,42365,42382,42399,42415,42432,42449,42465,42482,42499,42515,42532,42549,42565,42582,42598,42615,42632,42649,42665,42682,42699,42715,42732,42749,42765,42782,42798,42815,42832,42848,42865,42882,42898,42915,42932,42948,42965,42982,42999,43015,43032,43048,43065,43082,43098,43115,43132,43148,43165,43182,43199,43215,43232,43248,43265,43282,43299,43315,43332,43348,43365,43382,43398,43415,43432,43448,43465,43482,43498,43515,43532,43548,43565,43582,43598,43615,43632,43648,43665,43682,43698,43715,43731,43749,43765,43782,43799,43815,43832,43848,43865,43882,43898,43915,43932,43948,43965,43982,43998,44015,44032,44048,44065,44082,44099,44115,44132,44148,44165,44182,44198,44215,44232,44248,44265,44282,44299,44315,44332,44348,44365,44382,44399,44415,44432,44448,44465,44482,44499,44515,44532,44549,44565,44582,44598,44615,44632,44649,44665,44682,44699,44715,44732,44749,44765,44782,44799,44815,44832,44848,44865,44882,44899,44915,44932,44948,44965,44982,44998,45015,45032,45048,45065,45082,45098,45115,45133,45148,45166,45182,45199,45215,45232,45249,45265,45282,45298,45315,45332,45348,45365,45382,45398,45415,45432,45448,45465,45482,45498,45515,45532,45549,45565,45582,45599,45615,45632,45648,45665,45682,45698,45715,45732,45749,45765,45782,45799,45815,45832,45849,45865,45882,45898,45915,45932,45949,45965,45982,45999,46015,46032,46049,46065,46082,46099,46116,46132,46149,46165,46182,46199,46215,46232,46249,46266,46282,46299,46315,46332,46349,46365,46382,46399,46416,46432,46449,46465,46482,46499,46515,46532,46549,46565,46582,46599,46615,46632,46648,46665,46682,46698,46715,46732,46749,46765,46782,46799,46815,46832,46848,46866,46882,46898,46915,46932,46949,46966,46982,46999,47015,47032,47049,47065,47082,47099,47115,47132,47149,47165,47182,47198,47215,47232,47249,47265,47282,47299,47315,47332,47349,47365,47382,47399,47416,47433,47449,47466,47482,47499,47516,47532,47549,47565,47582,47599,47615,47632,47649,47665,47682,47699,47715,47732,47749,47766,47782,47799,47815,47832,47849,47865,47882,47900,47915,47932,47949,47965,47982,47999,48015,48032,48049,48065,48082,48098,48115,48132,48149,48166,48182,48199,48215,48232,48249,48266,48282,48299,48316,48332,48349,48365,48382,48399,48416,48432,48448,48465,48482,48499,48515,48532,48549,48565,48582,48599,48615,48632,48648,48665,48682,48699,48715,48732,48749,48765,48782,48799,48815,48832,48849,48865,48882,48899,48916,48932,48949,48965,48982,48999,49015,49032,49049,49065,49082,49099,49115,49132,49149,49165,49182,49199,49215,49232,49249,49265,49282,49299,49315,49332,49349,49366,49382,49399,49416,49433,49449,49466,49483,49499,49516,49532,49549,49567,49582,49599,49616,49634,49649,49666,49682,49699,49716,49732,49749,49766,49783,49799,49816,49833,49849,49866,49883,49899,49916,49932,49949,49966,49982,49999,50017,50032,50049,50066,50082,50099,50116,50132,50149,50166,50182,50199,50216,50232,50249,50266,50282,50299,50316,50332,50349,50366,50382,50399,50416,50433,50449,50466,50482,50499,50516,50532,50549,50566,50582,50599,50616,50633,50649,50666,50683,50699,50716,50732,50749,50766,50782,50799,50816,50832,50849,50866,50883,50900,50916,50933,50949,50966,50983,50999,51016,51033,51050,51066,51083,51099,51117,51132,51149,51166,51182,51199,51215,51233,51249,51266,51282,51299,51316,51332,51349,51366,51382,51399,51416,51432,51449,51465,51482,51499,51516,51532,51549,51566,51583,51599,51616,51632,51649,51666,51683,51699,51716,51733,51749,51766,51782,51799,51816,51833,51849,51866,51883,51899,51916,51933,51949,51966,51983,51999,52016,52032,52050,52066,52083,52099,52116,52133,52149,52166,52182,52199,52216,52232,52249,52266,52282,52299,52316,52333,52349,52366,52383,52399,52416,52433,52449,52466,52482,52499,52516,52532,52549,52566,52582,52599,52616,52632,52649,52666,52683,52699,52716,52733,52749,52766,52783,52799,52816,52833,52849,52866,52882,52899,52916,52932,52949,52966,52983,52999,53016,53032,53049,53066,53083,53099,53116,53133,53150,53166,53182,53199,53216,53232,53249,53266,53282,53299,53316,53333,53349,53366,53382,53399,53416,53432,53449,53466,53483,53499,53516,53533,53549,53566,53582,53599,53616,53632,53649,53666,53683,53699,53716,53733,53749,53766,53783,53799,53816,53833,53850,53866,53882,53899,53916,53933,53949,53966,53983,53999,54016,54032,54049,54066,54082,54099,54116,54133,54149,54166,54183,54200,54216,54233,54250,54266,54283,54299,54317,54333,54349,54366,54383,54399,54416,54432,54449,54466,54483,54499,54516,54533,54549,54566,54583,54599,54616,54632,54649,54666,54683,54700,54716,54733,54750,54766,54783,54799,54816,54832,54849,54866,54883,54899,54916,54933,54949,54966,54982,54999,55015,55032,55049,55066,55082,55099,55115,55132,55149,55166,55182,55199,55215,55232,55249,55266,55283,55299,55316,55332,55349,55366,55382,55399,55416,55432,55449,55465,55483,55499,55515,55532,55549,55566,55582,55599,55615,55632,55649,55665,55682,55699,55715,55732,55749,55766,55782,55799,55816,55833,55849,55866,55883,55899,55915,55932,55949,55966,55982,55999,56016,56032,56049,56066,56082,56099,56116,56132,56149,56166,56182,56199,56215,56232,56249,56266,56282,56299,56315,56332,56349,56366,56382,56399,56416,56432,56449,56466,56482,56499,56515,56532,56549,56566,56582,56599,56615,56632,56649,56666,56682,56699,56716,56732,56749,56765,56782,56799,56816,56832,56849,56865,56882,56899,56915,56932,56949,56966,56982,56999,57016,57033,57049,57065,57082,57099,57116,57132,57149,57166,57182,57199,57215,57232,57249,57266,57282,57299,57315,57332,57349,57366,57382,57399,57416,57432,57449,57466,57483,57499,57516,57532,57549,57566,57583,57599,57616,57632,57649,57666,57682,57699,57716,57732,57749,57766,57782,57799,57815,57832,57849,57866,57882,57899,57916,57932,57949,57966,57982,57999,58016,58032,58049,58066,58082,58099,58115,58132,58149,58166,58182,58199,58216,58233,58249,58266,58282,58299,58316,58332,58349,58366,58382,58399,58416,58432,58449,58465,58483,58499,58516,58532,58549,58566,58582,58599,58616,58632,58649,58665,58682,58699,58716,58732,58749,58766,58783,58799,58816,58832,58849,58866,58883,58899,58916,58932,58949,58965,58982,58999,59016,59033,59049,59066,59082,59099,59116,59132,59149,59166,59183,59199,59216,59233,59249,59265,59282,59299,59316,59332,59349,59366,59382,59399,59416,59433,59449,59466,59483,59499,59516,59533,59549,59566,59582,59599,59616,59632,59649,59666,59682,59699,59716,59732,59749,59766,59783,59799,59816,59832,59849,59866,59882,59899,59916,59932,59949,59966,59982,59999,60016,60033,60049,60066,60083,60099,60116,60132,60149,60166,60182,60199,60216,60232,60249,60267,60283,60299,60316,60332,60349,60366,60382,60399,60416,60433,60449,60466,60483,60499,60516,60532,60549,60566,60583,60599,60616,60632,60649,60666,60682,60699,60716,60733,60749,60766,60782,60799,60816,60832,60849,60866,60882,60899,60916,60932,60949,60966,60983,60999,61016,61033,61050,61066,61082,61099,61116,61133,61149,61166,61182,61199,61216,61233,61249,61266,61282,61299,61316,61333,61350,61366,61383,61399,61416,61432,61449,61466,61483,61499,61516,61533,61549,61566,61583,61599,61616,61633,61649,61666,61682,61699,61716,61733,61749,61766,61783,61799,61816,61833,61849,61866,61883,61899,61916,61933,61949,61966,61982,61999,62016,62033,62049,62066,62083,62099,62116,62133,62149,62166,62183,62199,62216,62233,62249,62266,62283,62300,62316,62333,62350,62366,62383,62400,62416,62433,62450,62466,62483,62499,62516,62533,62549,62566,62583,62599,62616,62633,62649,62666,62683,62700,62716,62733,62750,62766,62783,62799,62816,62833,62850,62866,62883,62899,62916,62933,62950,62966,62983,62999,63016,63032,63049,63066,63082,63099,63116,63133,63149,63166,63183,63199,63216,63233,63249,63266,63282,63299,63316,63333,63349,63366,63383,63399,63416,63433,63449,63466,63483,63499,63516,63533,63549,63566,63583,63600,63616,63633,63649,63666,63683,63699,63716,63733,63750,63766,63783,63799,63816,63833,63849,63866,63883,63900,63916,63933,63950,63966,63983,63999,64016,64033,64050,64066,64083,64099,64116,64133,64149,64166,64183,64199,64216,64233,64250,64266,64283,64299,64316,64333,64349,64366,64382,64399,64416,64432,64449,64466,64483,64499,64516,64533,64550,64566,64583,64599,64616,64633,64649,64666,64683,64699,64716,64733,64749,64766,64783,64799,64816,64833,64850,64866,64882,64899,64916,64932,64949,64966,64982,64999,65016,65033,65049,65066,65083,65099,65116,65132,65149,65166,65183,65199,65216,65233,65249,65266,65282,65299,65316,65333,65349,65366,65383,65399,65416,65433,65449,65466,65483,65499,65516,65533,65550,65566,65583,65599,65616,65633,65649,65666,65683,65699,65716,65733,65749,65766,65783,65799,65816,65833,65850,65866,65882,65899,65916,65933,65950,65966,65983,65999,66016,66033,66049,66066,66083,66099,66116,66133,66150,66166,66183,66199,66216,66233,66249,66266,66283,66299,66316,66333,66350,66366,66383,66399,66416,66433,66449,66466,66483,66499,66516,66533,66549,66566,66583,66599,66616,66633,66649,66666,66683,66700,66716,66733,66750,66766,66783,66799,66816,66833,66849,66866,66883,66900,66916,66933,66949,66966,66982,66999,67016,67033,67050,67066,67083,67100,67116,67133,67149,67166,67183,67199,67216,67233,67249,67266,67283,67299,67316,67333,67349,67366,67383,67400,67416,67433,67450,67466,67483,67499,67516,67533,67549,67566,67583,67599,67616,67633,67649,67666,67683,67699,67716,67733,67750,67766,67783,67799,67816,67833,67849,67866,67883,67899,67916,67933,67949,67966,67983,68000,68016,68033,68049,68066,68083,68099,68116,68133,68150,68166,68183,68200,68216,68233,68249,68266,68283,68300,68316,68333,68349,68366,68383,68400,68416,68433,68449,68466,68483,68499,68516,68533,68549,68566,68583,68599,68616,68633,68649,68666,68683,68699,68716,68733,68749,68766,68783,68799,68816,68833,68850,68866,68883,68900,68916,68933,68949,68966,68983,68999,69016,69033,69050,69066,69083,69100,69116,69133,69150,69167,69183,69199,69216,69233,69250,69267,69283,69300,69316,69333,69350,69366,69383,69399,69416,69433,69449,69466,69483,69499,69516,69533,69550,69566,69583,69599,69616,69633,69649,69666,69683,69700,69716,69733,69750,69766,69783,69799,69816,69833,69849,69866,69883,69899,69916,69933,69949,69966,69983,69999,70016,70033,70050,70066,70083,70099,70116,70133,70150,70166,70183,70200,70216,70233,70250,70267,70283,70300,70316,70333,70349,70366,70383,70399,70416,70433,70449,70466,70483,70499,70516,70533,70549,70566,70583,70600,70616,70633,70649,70666,70683,70700,70716,70733,70749,70766,70783,70800,70816,70833,70849,70866,70883,70900,70916,70933,70949,70966,70983,70999,71016,71033,71051,71066,71083,71100,71116,71133,71150,71166,71183,71199,71216,71233,71249,71266,71283,71300,71316,71333,71350,71366,71383,71400,71416,71433,71450,71466,71483,71499,71516,71533,71550,71566,71583,71599,71616,71633,71650,71666,71683,71699,71716,71733,71750,71766,71783,71799,71816,71833,71849,71866,71883,71899,71916,71933,71949,71966,71983,71999,72016,72033,72049,72066,72083,72100,72116,72133,72150,72166,72183,72200,72216,72233,72250,72267,72283,72300,72316,72333,72350,72366,72383,72399,72416,72433,72450,72466,72483,72500,72516,72533,72550,72566,72583,72600,72616,72633,72650,72666,72683,72700,72716,72733,72750,72766,72783,72800,72816,72833,72850,72866,72883,72900,72916,72933,72950,72966,72983,72999,73017,73033,73050,73066,73083,73099,73116,73133,73150,73167,73183,73199,73216,73233,73250,73267,73283,73299,73316,73333,73350,73366,73383,73400,73416,73433,73450,73467,73483,73500,73516,73533,73550,73566,73583,73600,73617,73633,73650,73667,73683,73700,73717,73733,73750,73767,73783,73800,73817,73833,73850,73867,73883,73900,73917,73933,73950,73966,73983,74000,74016,74033,74050,74066,74083,74100,74117,74133,74150,74167,74183,74202,74217,74233,74250,74267,74283,74300,74316,74333,74351,74367,74384,74400,74416,74433,74450,74466,74483,74500,74517,74533,74551,74567,74583,74600,74617,74633,74650,74667,74683,74700,74716,74733,74750,74768,74783,74800,74817,74833,74850,74866,74883,74900,74916,74933,74949,74966,74983,75000,75016,75033,75050,75066,75083,75100,75116,75133,75150,75166,75183,75200,75216,75233,75250,75267,75283,75300,75316,75333,75350,75367,75383,75400,75416,75433,75450,75467,75483,75500,75517,75533,75550,75567,75583,75600,75616,75633,75650,75666,75683,75700,75716,75733,75750,75767,75783,75800,75817,75833,75850,75866,75883,75900,75916,75933,75950,75966,75983,76000,76017,76033,76050,76067,76083,76100,76116,76133,76150,76166,76183,76200,76216,76233,76250,76267,76283,76300,76317,76333,76350,76367,76383,76400,76416,76433,76450,76466,76483,76500,76517,76533,76550,76566,76583,76600,76617,76633,76650,76666,76683,76700,76716,76733,76750,76767,76783,76800,76816,76833,76850,76866,76883,76900,76916,76933,76950,76967,76983,77000,77016,77033,77050,77066,77083,77100,77117,77133,77150,77167,77183,77200,77217,77233,77250,77267,77283,77300,77316,77333,77350,77367,77383,77400,77417,77434,77450,77466,77483,77500,77517,77533,77550,77567,77583,77600,77617,77633,77650,77667,77683,77700,77717,77733,77750,77766,77783,77800,77816,77833,77850,77866,77883,77900,77916,77933,77950,77966,77983,78000,78016,78034,78050,78067,78083,78100,78116,78133,78150,78166,78183,78200,78216,78233,78250,78267,78283,78300,78316,78333,78350,78366,78383,78400,78417,78433,78450,78466,78483,78500,78517,78533,78550,78567,78583,78600,78617,78633,78650,78667,78683,78700,78717,78733,78750,78767,78783,78800,78816,78833,78850,78867,78883,78900,78917,78934,78950,78966,78983,79000,79017,79033,79050,79066,79083,79100,79117,79133,79150,79167,79183,79200,79216,79233,79250,79267,79283,79300,79317,79334,79350,79366,79383,79400,79417,79433,79450,79466,79483,79500,79517,79533,79550,79567,79584,79600,79617,79633,79650,79667,79683,79700,79716,79734,79750,79767,79783,79800,79817,79834,79850,79866,79883,79900,79916,79933,79950,79967,79983,80000,80017,80033,80050,80067,80083,80100,80117,80133,80150,80167,80183,80200,80216,80233,80250,80267,80284,80300,80317,80334,80350,80367,80383,80400,80417,80433,80450,80467,80483,80500,80516,80533,80550,80567,80583,80600,80617,80633,80650,80667,80683,80700,80717,80733,80750,80766,80783,80800,80817,80833,80850,80866,80883,80900,80917,80933,80950,80967,80983,81000,81016,81034,81050,81067,81083,81100,81116,81134,81150,81167,81183,81200,81217,81234,81250,81267,81283,81300,81317,81334,81350,81367,81384,81400,81417,81433,81450,81467,81483,81500,81517,81534,81550,81567,81584,81600,81616,81633,81650,81668,81684,81700,81717,81734,81750,81767,81783,81800,81817,81834,81850,81867,81883,81900,81917,81934,81950,81968,81983,82000,82017,82033,82050,82067,82084,82100,82117,82134,82150,82167,82184,82200,82217,82233,82251,82267,82284,82300,82317,82334,82350,82367,82383,82400,82417,82434,82450,82467,82484,82500,82517,82534,82550,82567,82584,82600,82617,82634,82650,82667,82683,82700,82717,82734,82750,82767,82784,82800,82817,82833,82850,82867,82883,82900,82917,82933,82950,82967,82984,83000,83016,83034,83050,83067,83084,83100,83117,83134,83151,83167,83184,83201,83217,83234,83250,83267,83284,83300,83317,83334,83350,83367,83384,83400,83417,83433,83450,83467,83483,83500,83517,83534,83550,83567,83584,83600,83617,83634,83650,83667,83684,83700,83717,83733,83750,83767,83784,83800,83817,83834,83850,83867,83884,83900,83917,83933,83950,83967,83984,84000,84017,84034,84050,84067,84084,84100,84117,84133,84150,84167,84183,84200,84217,84233,84250,84267,84284,84300,84317,84334,84350,84367,84384,84400,84417,84433,84450,84467,84483,84500,84517,84533,84550,84567,84584,84600,84617,84633,84650,84667,84684,84700,84717,84734,84750,84767,84784,84800,84817,84833,84850,84867,84883,84900,84917,84934,84950,84967,84983,85000,85017,85033,85050,85067,85083,85100,85117,85133,85150,85167,85183,85200,85217,85233,85250,85267,85283,85300,85317,85333,85350,85367,85383,85400,85417,85433,85450,85467,85484,85500,85517,85533,85550,85567,85583,85600,85617,85633,85650,85667,85683,85700,85717,85733,85750,85767,85784,85800,85817,85834,85850,85867,85883,85900,85917,85934,85951,85967,85983,86000,86017,86034,86050,86067,86084,86100,86117,86133,86150,86167,86184,86200,86217,86233,86250,86267,86284,86300,86317,86333,86350,86367,86384,86400,86417,86433,86450,86467,86484,86500,86517,86533,86550,86567,86584,86600,86618,86634,86650,86667,86684,86700,86717,86733,86750,86767,86784,86800,86817,86833,86850,86867,86884,86901,86917,86934,86950,86967,86983,87000,87017,87033,87050,87067,87084,87100,87117,87134,87150,87167,87184,87200,87217,87233,87250,87268,87284,87301,87317,87334,87350,87367,87384,87400,87417,87434,87450,87467,87484,87500,87517,87533,87551,87567,87584,87600,87617,87634,87650,87667,87684,87701,87717,87734,87750,87767,87784,87800,87817,87834,87851,87867,87884,87900,87917,87933,87950,87967,87984,88001,88017,88034,88051,88067,88084,88101,88117,88134,88151,88167,88184,88201,88217,88234,88251,88267,88284,88301,88318,88334,88351,88367,88384,88400,88417,88434,88450,88467,88484,88501,88517,88534,88551,88568,88584,88601,88617,88634,88651,88667,88684,88701,88717,88734,88751,88767,88784,88800,88817,88834,88851,88867,88884,88900,88917,88934,88951,88967,88984,89001,89017,89034,89050,89067,89084,89101,89117,89134,89150,89167,89184,89200,89217,89234,89250,89267,89284,89301,89317,89334,89350,89367,89384,89401,89417,89434,89450,89467,89484,89501,89517,89534,89551,89567,89584,89600,89617,89634,89650,89667,89684,89700,89717,89734,89751,89767,89784,89801,89817,89834,89851,89867,89884,89901,89917,89934,89950,89967,89984,90000,90017,90034,90050,90068,90084,90100,90117,90134,90150,90167,90184,90201,90217,90234,90251,90268,90284,90300,90317,90334,90350,90367,90384,90401,90417,90434,90450,90467,90484,90500,90517,90534,90550,90567,90584,90601,90617,90634,90651,90667,90684,90701,90717,90734,90750,90767,90784,90800,90817,90834,90851,90868,90884,90900,90917,90934,90951,90967,90984,91001,91017,91034,91051,91067,91084,91101,91117,91134,91150,91167,91184,91200,91217,91234,91250,91268,91284,91301,91317,91334,91351,91367,91384,91401,91417,91434,91450,91467,91484,91501,91517,91534,91550,91567,91584,91600,91617,91634,91650,91667,91684,91700,91717,91734,91750,91767,91784,91801,91817,91834,91850,91867,91884,91900,91917,91934,91950,91967,91984,92000,92017,92034,92051,92067,92084,92101,92117,92134,92151,92167,92184,92201,92217,92234,92250,92267,92284,92301,92317,92334,92350,92367,92384,92400,92417,92434,92451,92467,92484,92501,92517,92534,92551,92567,92584,92601,92618,92634,92651,92667,92684,92701,92717,92734,92751,92768,92784,92801,92817,92834,92850,92867,92884,92901,92917,92934,92951,92967,92984,93001,93018,93034,93051,93067,93085,93102,93118,93134,93151,93167,93184,93201,93218,93234,93251,93268,93284,93301,93318,93334,93351,93367,93384,93401,93418,93434,93451,93468,93484,93501,93518,93535,93551,93570,93584,93601,93617,93634,93651,93667,93684,93701,93717,93734,93750,93767,93784,93801,93817,93835,93850,93867,93884,93901,93917,93934,93951,93968,93985,94001,94018,94034,94051,94068,94084,94101,94117,94134,94151,94167,94184,94200,94217,94234,94251,94268,94284,94304,94321,94335,94351,94367,94388,94401,94417,94434,94450,94467,94484,94500,94517,94534,94550,94567,94584,94600,94617,94634,94651,94667,94684,94700,94717,94734,94750,94767,94784,94801,94817,94834,94851,94867,94884,94901,94917,94934,94951,94967,94984,95000,95017,95034,95051,95067,95084,95101,95117,95134,95151,95167,95184,95200,95218,95234,95251,95268,95284,95300,95317,95334,95351,95367,95384,95400,95417,95434,95451,95467,95484,95501,95517,95534,95550,95567,95584,95600,95617,95634,95651,95667,95684,95700,95717,95734,95751,95767,95784,95801,95818,95834,95851,95867,95884,95901,95917,95934,95951,95968,95984,96001,96017,96034,96051,96068,96084,96101,96117,96134,96151,96167,96184,96201,96217,96234,96251,96268,96284,96300,96317,96334,96350,96367,96384,96401,96417,96434,96451,96467,96484,96501,96517,96534,96551,96567,96584,96601,96617,96634,96651,96667,96684,96701,96717,96734,96751,96767,96784,96801,96817,96834,96851,96867,96884,96901,96917,96934,96951,96967,96984,97001,97018,97034,97051,97067,97084,97101,97117,97134,97151,97167,97184,97201,97217,97234,97251,97268,97284,97301,97318,97335,97351,97368,97384,97401,97418,97434,97451,97468,97484,97501,97518,97535,97551,97568,97584,97601,97617,97634,97651,97668,97684,97701,97718,97735,97751,97768,97784,97801,97818,97834,97851,97867,97884,97901,97918,97934,97951,97968,97984,98001,98017,98034,98051,98068,98084,98101,98117,98134,98151,98168,98184,98201,98218,98234,98251,98268,98284,98301,98317,98334,98351,98367,98384,98401,98417,98434,98451,98468,98484,98501,98517,98534,98551,98568,98584,98601,98617,98634,98651,98668,98684,98701,98717,98734,98751,98767,98784,98801,98817,98834,98851,98867,98884,98901,98917,98934,98951,98967,98984,99001,99017,99034,99051,99068,99085,99101,99117,99134,99151,99168,99184,99201,99217,99234,99251,99268,99284,99301,99317,99334,99351,99368,99384,99401,99417,99434,99451,99467,99484,99501,99517,99534,99551,99568,99584,99601,99617,99634,99651,99667,99684,99701,99718,99734,99751,99767,99784,99801,99818,99834,99851,99867,99884,99901,99917,99934,99951,99967,99984,100001,100017,100034,100051,100067,100084,100101,100117,100134,100151,100168,100184,100201,100218,100235,100251,100268,100285,100301,100318,100334,100351,100367,100384,100401,100417,100434,100451,100467,100484,100501,100518,100534,100551,100567,100585,100601,100618,100634,100651,100668,100684,100701,100717,100734,100751,100767,100784,100801,100818,100834,100851,100868,100885,100901,100918,100935,100951,100968,100985,101001,101018,101035,101051,101068,101084,101102,101118,101134,101151,101168,101184,101201,101218,101234,101252,101268,101284,101301,101318,101335,101351,101367,101384,101401,101418,101434,101451,101467,101484,101501,101518,101534,101551,101567,101584,101601,101618,101634,101651,101668,101684,101701,101717,101734,101751,101767,101784,101801,101818,101834,101851,101867,101884,101901,101918,101934,101951,101968,101984,102001,102018,102034,102051,102068,102085,102101,102118,102134,102151,102168,102184,102201,102217,102234,102251,102267,102284,102301,102318,102334,102351,102368,102384,102401,102417,102434,102451,102468,102484,102501,102518,102534,102551,102567,102584,102601,102618,102634,102651,102667,102684,102701,102718,102734,102751,102768,102784,102801,102818,102835,102851,102867,102884,102901,102918,102934,102951,102968,102984,103001,103018,103034,103051,103068,103085,103101,103118,103134,103151,103168,103184,103201,103217,103235,103251,103268,103284,103301,103318,103334,103351,103367,103384,103401,103418,103434,103451,103468,103485,103501,103518,103535,103551,103568,103584,103601,103618,103635,103651,103668,103684,103701,103718,103734,103751,103768,103784,103801,103818,103835,103851,103868,103884,103901,103917,103934,103951,103967,103984,104001,104018,104034,104051,104068,104084,104101,104118,104134,104151,104168,104184,104201,104217,104235,104251,104268,104284,104301,104318,104334,104351,104368,104384,104401,104418,104434,104451,104468,104484,104501,104518,104534,104551,104568,104585,104601,104618,104635,104651,104668,104684,104701,104718,104735,104751,104768,104784,104801,104818,104834,104851,104868,104884,104901,104918,104935,104951,104968,104984,105001,105018,105034,105051,105068,105085,105101,105118,105134,105151,105167,105184,105201,105218,105234,105251,105268,105284,105301,105318,105334,105351,105368,105384,105401,105418,105435,105451,105468,105485,105501,105518,105534,105551,105568,105584,105601,105618,105634,105651,105668,105685,105702,105718,105734,105751,105768,105784,105801,105818,105835,105851,105869,105885,105902,105918,105935,105952,105968,105985,106001,106018,106035,106051,106068,106084,106101,106118,106134,106151,106168,106184,106201,106218,106234,106253,106268,106285,106301,106318,106335,106351,106368,106384,106401,106418,106434,106451,106468,106484,106501,106518,106534,106551,106568,106585,106601,106618,106634,106651,106668,106685,106701,106718,106735,106751,106768,106784,106801,106818,106835,106851,106868,106884,106901,106918,106935,106951,106968,106985,107002,107018,107035,107052,107069,107085,107102,107118,107135,107152,107168,107185,107201,107218,107235,107251,107268,107284,107301,107318,107334,107351,107368,107384,107401,107418,107435,107451,107468,107485,107501,107518,107535,107551,107568,107585,107601,107618,107634,107651,107668,107684,107701,107718,107735,107752,107768,107784,107801,107818,107835,107851,107868,107885,107901,107918,107935,107951,107968,107985,108002,108018,108034,108051,108068,108085,108101,108118,108134,108151,108168,108184,108201,108218,108235,108251,108268,108285,108301,108318,108335,108351,108368,108385,108401,108418,108434,108451,108468,108484,108501,108518,108534,108551,108568,108585,108601,108618,108634,108652,108668,108684,108701,108718,108734,108751,108768,108784,108801,108818,108834,108851,108868,108884,108902,108918,108935,108954,108969,108985,109002,109018,109035,109052,109068,109085,109102,109118,109135,109152,109168,109185,109202,109218,109235,109252,109269,109285,109301,109318,109335,109352,109368,109385,109402,109419,109435,109452,109468,109485,109501,109518,109535,109551,109568,109584,109601,109618,109634,109651,109668,109684,109701,109718,109734,109751,109768,109785,109801,109818,109834,109851,109868,109885,109902,109918,109935,109952,109969,109985,110002,110019,110035,110052,110068,110085,110102,110118,110135,110152,110169,110185,110202,110218,110235,110252,110269,110286,110302,110318,110335,110352,110368,110385,110402,110418,110435,110451,110468,110485,110502,110518,110535,110551,110568,110585,110602,110618,110635,110651,110668,110685,110702,110718,110735,110752,110768,110785,110801,110818,110835,110851,110868,110885,110901,110918,110935,110952,110968,110985,111002,111018,111035,111052,111069,111085,111102,111118,111135,111152,111168,111186,111202,111219,111235,111251,111269,111285,111302,111319,111335,111352,111368,111385,111401,111418,111434,111451,111468,111485,111502,111518,111535,111552,111568,111585,111602,111618,111635,111652,111668,111685,111701,111718,111735,111751,111768,111784,111801,111818,111835,111853,111869,111885,111902,111918,111935,111951,111969,111985,112001,112018,112035,112051,112068,112085,112101,112118,112135,112152,112169,112185,112202,112218,112235,112252,112268,112285,112302,112318,112336,112352,112369,112385,112402,112418,112435,112452,112469,112485,112502,112518,112535,112552,112568,112585,112602,112618,112635,112651,112668,112685,112702,112719,112735,112752,112769,112785,112802,112819,112835,112852,112868,112885,112902,112919,112935,112952,112968,112985,113001,113018,113035,113052,113068,113085,113102,113118,113135,113152,113168,113185,113202,113218,113235,113252,113269,113285,113301,113318,113335,113351,113369,113385,113402,113418,113435,113452,113468,113485,113502,113518,113535,113552,113568,113585,113602,113618,113635,113652,113669,113689,113702,113718,113736,113752,113769,113785,113802,113820,113836,113854],"hit":[null],"x":[-2.9115646258503403,-2.9115646258503403,-2.9115646258503403,-2.9115646258503403,-2.9115646258503403,-2.9115646258503403,-2.9115646258503403,-2.9115646258503403,-2.9115646258503403,-2.9115646258503403,-2.9115646258503403,-2.9115646258503403,-2.9115646258503403,-2.9115646258503403,-2.9115646258503403,-0.08163265306122448,-0.09183673469387756,-0.10204081632653061,-0.1054421768707483,-0.1054421768707483,-0.1054421768707483,-0.1054421768707483,-0.11904761904761904,-0.12585034013605442,-0.1326530612244898,-0.1360544217687075,-0.14285714285714285,-0.14625850340136054,-0.1598639455782313,-0.16326530612244897,-0.17346938775510204,-0.1836734693877551,-0.1870748299319728,-0.19387755102040816,-0.20068027210884354,-0.20068027210884354,-0.20748299319727892,-0.21428571428571427,-0.22108843537414966,-0.22448979591836735,-0.22789115646258504,-0.23129251700680273,-0.23129251700680273,-0.23129251700680273,-0.23129251700680273,-0.23129251700680273,-0.23129251700680273,-0.23129251700680273,-0.23129251700680273,-0.23129251700680273,-0.23129251700680273,-0.23129251700680273,-0.23129251700680273,-0.23129251700680273,-0.23129251700680273,-0.23129251700680273,-0.23129251700680273,-0.23129251700680273,-0.23129251700680273,-0.23129251700680273,-0.23129251700680273,-0.23129251700680273,-0.23129251700680273,-0.23129251700680273,-0.23129251700680273,-0.23129251700680273,-0.23129251700680273,-0.23129251700680273,-0.23129251700680273,-0.23129251700680273,-0.23129251700680273,-0.23129251700680273,-0.23129251700680273,-0.23129251700680273,-0.23129251700680273,-0.23129251700680273,-0.23129251700680273,-0.23129251700680273,-0.23129251700680273,-0.23129251700680273,-0.23129251700680273,-0.23129251700680273,-0.23129251700680273,-0.23129251700680273,-0.23129251700680273,-0.23129251700680273,-0.23129251700680273,-0.23129251700680273,-0.23129251700680273,-0.23129251700680273,-0.23129251700680273,-0.23129251700680273,-0.23129251700680273,-0.23129251700680273,-0.23129251700680273,-0.23129251700680273,-0.23129251700680273,-0.23129251700680273,-0.23129251700680273,-0.23129251700680273,-0.23129251700680273,-0.23129251700680273,-0.23129251700680273,-0.23129251700680273,-0.23129251700680273,-0.23129251700680273,-0.23129251700680273,-0.23129251700680273,-0.23129251700680273,-0.23129251700680273,-0.23129251700680273,-0.23129251700680273,-0.23129251700680273,-0.23129251700680273,-0.23129251700680273,-0.23129251700680273,-0.23129251700680273,-0.23129251700680273,-0.23129251700680273,-0.23129251700680273,-0.23129251700680273,-0.23129251700680273,-0.23129251700680273,-0.23129251700680273,-0.23129251700680273,-0.23129251700680273,-0.23129251700680273,-0.23129251700680273,-0.23129251700680273,-0.23129251700680273,-0.23129251700680273,-0.23129251700680273,-0.23129251700680273,-0.23129251700680273,-0.23129251700680273,-0.23129251700680273,-0.23129251700680273,-0.23129251700680273,-0.23129251700680273,-0.23129251700680273,-0.23129251700680273,-0.23129251700680273,-0.23129251700680273,-0.23129251700680273,-0.23129251700680273,-0.23129251700680273,-0.23129251700680273,-0.23129251700680273,-0.23129251700680273,-0.23129251700680273,-0.23129251700680273,-0.23129251700680273,-0.23129251700680273,-0.23129251700680273,-0.23129251700680273,-0.23129251700680273,-0.23129251700680273,-0.21428571428571427,-0.18027210884353742,-0.14285714285714285,-0.11904761904761904,-0.1054421768707483,-0.09863945578231292,-0.09183673469387756,-0.09183673469387756,-0.08843537414965986,-0.08503401360544217,-0.08503401360544217,-0.08503401360544217,-0.08163265306122448,-0.08163265306122448,-0.08163265306122448,-0.08163265306122448,-0.08163265306122448,-0.08163265306122448,-0.08163265306122448,-0.0782312925170068,-0.07482993197278912,-0.06462585034013606,-0.05782312925170068,-0.04421768707482993,-0.03741496598639456,-0.030612244897959183,-0.023809523809523808,-0.02040816326530612,-0.013605442176870748,-0.01020408163265306,0,0.003401360544217687,0.01020408163265306,0.01020408163265306,0.01020408163265306,0.01020408163265306,0.01020408163265306,0.01020408163265306,0.01020408163265306,0.01020408163265306,0.01020408163265306,0.01020408163265306,0.01020408163265306,0.01020408163265306,0.01020408163265306,0.01020408163265306,0.01020408163265306,0.01020408163265306,0.01020408163265306,0.01020408163265306,0.01020408163265306,0.01020408163265306,0.01020408163265306,0.01020408163265306,0.01020408163265306,0.01020408163265306,0.01020408163265306,0.01020408163265306,0.01020408163265306,0.01020408163265306,0.01020408163265306,0.01020408163265306,0.01020408163265306,0.01020408163265306,0.01020408163265306,0.01020408163265306,0.01020408163265306,0.01020408163265306,0.01020408163265306,0.01020408163265306,0.01020408163265306,0.01020408163265306,0.01020408163265306,0.01020408163265306,0.01020408163265306,0.01020408163265306,0.01020408163265306,0.01020408163265306,0.01020408163265306,0.01020408163265306,0.01020408163265306,0.01020408163265306,0.01020408163265306,0.01020408163265306,0.01020408163265306,0.01020408163265306,0.01020408163265306,0.01020408163265306,0.01020408163265306,0.01020408163265306,0.01020408163265306,0.01020408163265306,0.01020408163265306,0.01020408163265306,0.01020408163265306,0.01020408163265306,0.01020408163265306,0.01020408163265306,0.01020408163265306,0.01020408163265306,0.01020408163265306,0.01020408163265306,0.01020408163265306,0.01020408163265306,0.01020408163265306,0.01020408163265306,0.01020408163265306,0.01020408163265306,0.01020408163265306,0.01020408163265306,0.01020408163265306,0.01020408163265306,0.01020408163265306,0.01020408163265306,0.01020408163265306,0.01020408163265306,0.01020408163265306,0.01020408163265306,0.01020408163265306,0.01020408163265306,0.01020408163265306,0.01020408163265306,0.01020408163265306,0.01020408163265306,0.01020408163265306,0.01020408163265306,0.01020408163265306,0.01020408163265306,0.01020408163265306,0.01020408163265306,0.01020408163265306,0.01020408163265306,0.01020408163265306,0.01020408163265306,0.01020408163265306,0.01020408163265306,0.01020408163265306,0.01020408163265306,0.01020408163265306,0.01020408163265306,0.01020408163265306,0.01020408163265306,0.01020408163265306,0.01020408163265306,0.01020408163265306,0.01020408163265306,0.01020408163265306,0.01020408163265306,0.01020408163265306,0.01020408163265306,0.01020408163265306,0.01020408163265306,0.01020408163265306,0.01020408163265306,0.01020408163265306,0.01020408163265306,0.01020408163265306,0.01020408163265306,0.01020408163265306,0.01020408163265306,0.01020408163265306,0.01020408163265306,0.01020408163265306,0.01020408163265306,0.01020408163265306,0.01020408163265306,0.01020408163265306,0.01020408163265306,0.01020408163265306,0.01020408163265306,0.01020408163265306,0.01020408163265306,0.01020408163265306,0.01020408163265306,0.01020408163265306,0.01020408163265306,0.01020408163265306,0.01020408163265306,0.01020408163265306,0.01020408163265306,0.01020408163265306,0.01020408163265306,0.01020408163265306,0.01020408163265306,0.01020408163265306,0.01020408163265306,0.01020408163265306,0.01020408163265306,0.01020408163265306,0.01020408163265306,0.01020408163265306,0.01020408163265306,0.01020408163265306,0.01020408163265306,0.01020408163265306,0.01020408163265306,0.01020408163265306,0.01020408163265306,0.01020408163265306,0.01020408163265306,0.01020408163265306,0.01020408163265306,0.01020408163265306,0.01020408163265306,0.01020408163265306,0.01020408163265306,0.01020408163265306,0.01020408163265306,0.01020408163265306,0.01020408163265306,0.01020408163265306,0.01020408163265306,0.01020408163265306,0.01020408163265306,0.01020408163265306,0.01020408163265306,0.01020408163265306,0.01020408163265306,0.01020408163265306,0.01020408163265306,0.01020408163265306,0.01020408163265306,0.01020408163265306,0.01020408163265306,0.01020408163265306,0.01020408163265306,0.01020408163265306,0.01020408163265306,0.01020408163265306,0.01020408163265306,0.01020408163265306,0.013605442176870748,0.047619047619047616,0.11564625850340136,0.19727891156462585,0.30612244897959184,0.42517006802721086,0.54421768707483,0.6870748299319728,0.8741496598639455,1.0510204081632653,1.2687074829931972,1.4727891156462585,1.748299319727891,1.989795918367347,2.193877551020408,2.489795918367347,2.751700680272109,3.0340136054421767,3.3095238095238093,3.6598639455782314,3.945578231292517,3.945578231292517,3.945578231292517,3.945578231292517,3.945578231292517,3.945578231292517,3.945578231292517,3.945578231292517,3.945578231292517,3.945578231292517,3.945578231292517,3.945578231292517,3.945578231292517,3.945578231292517,3.945578231292517,3.945578231292517,3.945578231292517,3.945578231292517,3.945578231292517,3.945578231292517,3.945578231292517,3.945578231292517,3.945578231292517,3.945578231292517,3.945578231292517,3.945578231292517,3.945578231292517,3.945578231292517,3.945578231292517,3.945578231292517,3.945578231292517,3.945578231292517,3.945578231292517,3.945578231292517,3.945578231292517,3.945578231292517,3.945578231292517,3.945578231292517,3.945578231292517,3.945578231292517,3.945578231292517,3.945578231292517,3.945578231292517,3.945578231292517,3.945578231292517,3.945578231292517,3.945578231292517,3.945578231292517,3.945578231292517,3.945578231292517,3.945578231292517,3.945578231292517,3.945578231292517,3.945578231292517,3.945578231292517,3.945578231292517,3.945578231292517,3.945578231292517,3.945578231292517,3.945578231292517,3.945578231292517,3.945578231292517,3.945578231292517,3.945578231292517,3.945578231292517,3.945578231292517,3.945578231292517,3.945578231292517,3.945578231292517,3.945578231292517,3.945578231292517,3.945578231292517,3.945578231292517,3.945578231292517,3.945578231292517,3.945578231292517,3.945578231292517,3.945578231292517,3.945578231292517,3.945578231292517,3.945578231292517,3.945578231292517,3.945578231292517,3.945578231292517,3.945578231292517,3.945578231292517,3.945578231292517,3.945578231292517,3.945578231292517,3.945578231292517,3.945578231292517,3.945578231292517,3.945578231292517,3.945578231292517,3.945578231292517,3.945578231292517,3.945578231292517,3.945578231292517,3.945578231292517,3.945578231292517,3.945578231292517,3.945578231292517,3.945578231292517,3.945578231292517,3.945578231292517,3.945578231292517,3.945578231292517,3.945578231292517,3.945578231292517,3.945578231292517,3.945578231292517,3.945578231292517,3.945578231292517,3.945578231292517,3.945578231292517,3.945578231292517,3.945578231292517,3.945578231292517,3.945578231292517,3.945578231292517,3.945578231292517,3.945578231292517,3.945578231292517,3.945578231292517,3.945578231292517,3.945578231292517,3.945578231292517,3.945578231292517,3.945578231292517,3.945578231292517,3.945578231292517,3.945578231292517,3.945578231292517,3.945578231292517,3.945578231292517,3.945578231292517,3.945578231292517,3.945578231292517,3.945578231292517,3.945578231292517,3.945578231292517,3.945578231292517,3.945578231292517,3.945578231292517,3.945578231292517,3.945578231292517,3.945578231292517,3.945578231292517,3.945578231292517,3.945578231292517,3.945578231292517,3.945578231292517,3.945578231292517,3.945578231292517,3.945578231292517,3.945578231292517,3.945578231292517,3.945578231292517,3.945578231292517,3.945578231292517,3.945578231292517,3.945578231292517,3.945578231292517,3.945578231292517,3.945578231292517,3.945578231292517,3.945578231292517,3.945578231292517,3.945578231292517,3.945578231292517,3.945578231292517,3.945578231292517,3.945578231292517,3.945578231292517,3.945578231292517,3.945578231292517,3.945578231292517,3.945578231292517,3.945578231292517,3.945578231292517,3.945578231292517,3.945578231292517,3.945578231292517,3.945578231292517,3.945578231292517,3.945578231292517,3.945578231292517,3.945578231292517,3.945578231292517,3.945578231292517,3.945578231292517,3.945578231292517,3.945578231292517,3.945578231292517,3.945578231292517,3.945578231292517,3.945578231292517,3.945578231292517,3.945578231292517,3.945578231292517,3.945578231292517,3.945578231292517,3.945578231292517,3.945578231292517,3.945578231292517,3.945578231292517,3.945578231292517,3.945578231292517,3.945578231292517,3.945578231292517,3.945578231292517,3.945578231292517,3.945578231292517,3.945578231292517,3.945578231292517,3.945578231292517,3.945578231292517,3.945578231292517,3.945578231292517,3.945578231292517,3.945578231292517,3.945578231292517,3.945578231292517,3.945578231292517,3.945578231292517,3.945578231292517,3.945578231292517,3.945578231292517,3.945578231292517,3.945578231292517,3.945578231292517,3.945578231292517,3.945578231292517,3.945578231292517,3.945578231292517,3.945578231292517,3.945578231292517,3.945578231292517,3.945578231292517,3.945578231292517,3.945578231292517,3.945578231292517,3.945578231292517,3.945578231292517,3.945578231292517,3.945578231292517,3.945578231292517,3.945578231292517,3.945578231292517,3.945578231292517,3.945578231292517,3.945578231292517,3.945578231292517,3.945578231292517,3.945578231292517,3.945578231292517,3.945578231292517,3.945578231292517,3.945578231292517,3.945578231292517,3.945578231292517,3.945578231292517,3.945578231292517,3.945578231292517,3.945578231292517,3.945578231292517,3.945578231292517,3.945578231292517,3.945578231292517,3.945578231292517,3.945578231292517,3.945578231292517,3.945578231292517,3.945578231292517,3.945578231292517,3.945578231292517,3.945578231292517,3.945578231292517,3.945578231292517,3.945578231292517,3.945578231292517,3.945578231292517,3.945578231292517,3.945578231292517,3.945578231292517,3.945578231292517,3.945578231292517,3.945578231292517,3.945578231292517,3.945578231292517,3.945578231292517,3.945578231292517,3.945578231292517,3.945578231292517,3.945578231292517,3.945578231292517,3.945578231292517,3.945578231292517,3.945578231292517,3.945578231292517,3.945578231292517,3.945578231292517,3.945578231292517,3.945578231292517,3.945578231292517,3.945578231292517,3.945578231292517,3.945578231292517,3.945578231292517,3.945578231292517,3.945578231292517,3.945578231292517,3.945578231292517,3.945578231292517,3.945578231292517,3.945578231292517,3.945578231292517,3.945578231292517,3.945578231292517,3.945578231292517,3.945578231292517,3.945578231292517,3.945578231292517,3.945578231292517,3.945578231292517,3.945578231292517,3.945578231292517,3.945578231292517,3.945578231292517,3.945578231292517,3.945578231292517,3.945578231292517,3.945578231292517,3.945578231292517,3.945578231292517,3.945578231292517,3.945578231292517,3.945578231292517,3.945578231292517,3.945578231292517,3.945578231292517,3.945578231292517,3.945578231292517,3.945578231292517,3.945578231292517,3.945578231292517,3.945578231292517,3.945578231292517,3.945578231292517,3.945578231292517,3.945578231292517,3.945578231292517,3.945578231292517,3.945578231292517,3.945578231292517,3.945578231292517,3.945578231292517,3.945578231292517,3.945578231292517,3.945578231292517,3.945578231292517,3.945578231292517,3.945578231292517,3.945578231292517,3.945578231292517,3.945578231292517,3.945578231292517,3.945578231292517,3.945578231292517,3.945578231292517,3.945578231292517,3.945578231292517,3.945578231292517,3.945578231292517,3.945578231292517,3.945578231292517,3.945578231292517,3.945578231292517,3.945578231292517,3.945578231292517,3.945578231292517,3.945578231292517,3.945578231292517,3.945578231292517,3.945578231292517,3.945578231292517,3.945578231292517,3.945578231292517,3.945578231292517,3.945578231292517,3.945578231292517,3.945578231292517,3.945578231292517,3.945578231292517,3.945578231292517,3.945578231292517,3.945578231292517,3.945578231292517,3.945578231292517,3.945578231292517,3.945578231292517,3.945578231292517,3.945578231292517,3.945578231292517,3.945578231292517,3.945578231292517,3.945578231292517,3.945578231292517,3.945578231292517,3.945578231292517,3.945578231292517,3.945578231292517,3.945578231292517,3.945578231292517,3.945578231292517,3.945578231292517,3.945578231292517,3.945578231292517,3.945578231292517,3.945578231292517,3.945578231292517,3.945578231292517,3.945578231292517,3.945578231292517,3.945578231292517,3.945578231292517,3.945578231292517,3.945578231292517,3.945578231292517,3.945578231292517,3.945578231292517,3.945578231292517,3.945578231292517,3.945578231292517,3.945578231292517,3.945578231292517,3.945578231292517,3.945578231292517,3.945578231292517,3.945578231292517,3.945578231292517,3.945578231292517,3.945578231292517,3.945578231292517,3.945578231292517,3.945578231292517,3.945578231292517,3.945578231292517,3.945578231292517,3.945578231292517,3.945578231292517,3.945578231292517,3.945578231292517,3.945578231292517,3.945578231292517,3.945578231292517,3.945578231292517,3.945578231292517,3.945578231292517,3.945578231292517,3.945578231292517,3.945578231292517,3.945578231292517,3.945578231292517,3.945578231292517,3.945578231292517,3.945578231292517,3.945578231292517,3.945578231292517,3.945578231292517,3.945578231292517,3.945578231292517,3.945578231292517,3.945578231292517,3.945578231292517,3.945578231292517,3.945578231292517,3.945578231292517,3.945578231292517,3.945578231292517,3.945578231292517,3.945578231292517,3.945578231292517,3.945578231292517,3.945578231292517,3.945578231292517,3.945578231292517,3.945578231292517,3.945578231292517,3.945578231292517,3.945578231292517,3.945578231292517,3.945578231292517,3.945578231292517,3.945578231292517,3.945578231292517,3.945578231292517,3.945578231292517,3.945578231292517,3.945578231292517,3.945578231292517,3.945578231292517,3.945578231292517,3.945578231292517,3.945578231292517,3.945578231292517,3.945578231292517,3.945578231292517,3.945578231292517,3.945578231292517,3.945578231292517,3.945578231292517,3.945578231292517,3.945578231292517,3.945578231292517,3.945578231292517,3.945578231292517,3.945578231292517,3.945578231292517,3.945578231292517,3.945578231292517,3.945578231292517,3.945578231292517,3.945578231292517,3.945578231292517,3.945578231292517,3.945578231292517,3.945578231292517,3.945578231292517,3.945578231292517,3.945578231292517,3.945578231292517,3.945578231292517,3.945578231292517,3.945578231292517,3.945578231292517,3.945578231292517,3.945578231292517,3.945578231292517,3.945578231292517,3.945578231292517,3.945578231292517,3.945578231292517,3.945578231292517,3.945578231292517,3.945578231292517,3.945578231292517,3.945578231292517,3.945578231292517,3.945578231292517,3.945578231292517,3.945578231292517,3.945578231292517,3.945578231292517,3.945578231292517,3.945578231292517,3.945578231292517,3.945578231292517,3.945578231292517,3.945578231292517,3.945578231292517,3.945578231292517,3.945578231292517,3.945578231292517,3.945578231292517,3.945578231292517,3.945578231292517,3.945578231292517,3.945578231292517,3.945578231292517,3.945578231292517,3.945578231292517,3.945578231292517,3.945578231292517,3.945578231292517,3.945578231292517,3.945578231292517,3.945578231292517,3.945578231292517,3.945578231292517,3.945578231292517,3.945578231292517,3.945578231292517,3.945578231292517,3.945578231292517,3.945578231292517,3.945578231292517,3.945578231292517,3.945578231292517,3.945578231292517,3.945578231292517,3.945578231292517,3.945578231292517,3.945578231292517,3.945578231292517,3.945578231292517,3.945578231292517,3.945578231292517,3.945578231292517,3.945578231292517,3.945578231292517,3.945578231292517,3.945578231292517,3.945578231292517,3.945578231292517,3.945578231292517,3.945578231292517,3.945578231292517,3.945578231292517,3.945578231292517,3.945578231292517,3.945578231292517,3.945578231292517,3.945578231292517,3.945578231292517,3.945578231292517,3.945578231292517,3.945578231292517,3.945578231292517,3.945578231292517,3.945578231292517,3.945578231292517,3.945578231292517,3.945578231292517,3.945578231292517,3.945578231292517,3.945578231292517,3.945578231292517,3.945578231292517,3.945578231292517,3.945578231292517,3.945578231292517,3.945578231292517,3.945578231292517,3.945578231292517,3.945578231292517,3.945578231292517,3.945578231292517,3.945578231292517,3.945578231292517,3.945578231292517,3.945578231292517,3.6496598639455784,3.3299319727891157,2.996598639455782,2.6156462585034013,2.292517006802721,2.020408163265306,1.7993197278911566,1.653061224489796,1.5,1.3605442176870748,1.2346938775510203,1.119047619047619,1.0374149659863945,0.9727891156462585,0.9081632653061225,0.8333333333333334,0.7482993197278912,0.6598639455782312,0.6020408163265306,0.5612244897959183,0.5306122448979592,0.5068027210884354,0.48299319727891155,0.46598639455782315,0.46258503401360546,0.45918367346938777,0.4523809523809524,0.43537414965986393,0.41496598639455784,0.4013605442176871,0.3979591836734694,0.391156462585034,0.3843537414965986,0.3843537414965986,0.3843537414965986,0.38095238095238093,0.38095238095238093,0.38095238095238093,0.38095238095238093,0.38095238095238093,0.38095238095238093,0.38095238095238093,0.38095238095238093,0.38095238095238093,0.38095238095238093,0.38095238095238093,0.38095238095238093,0.38095238095238093,0.38095238095238093,0.38095238095238093,0.38095238095238093,0.38095238095238093,0.38095238095238093,0.38095238095238093,0.38095238095238093,0.38095238095238093,0.38095238095238093,0.38095238095238093,0.38095238095238093,0.38095238095238093,0.38095238095238093,0.38095238095238093,0.38095238095238093,0.38095238095238093,0.38095238095238093,0.38095238095238093,0.38095238095238093,0.38095238095238093,0.38095238095238093,0.38095238095238093,0.38095238095238093,0.38095238095238093,0.38095238095238093,0.38095238095238093,0.38095238095238093,0.38095238095238093,0.38095238095238093,0.38095238095238093,0.38095238095238093,0.38095238095238093,0.38095238095238093,0.38095238095238093,0.38095238095238093,0.38095238095238093,0.38095238095238093,0.38095238095238093,0.38095238095238093,0.38095238095238093,0.38095238095238093,0.38095238095238093,0.38095238095238093,0.38095238095238093,0.38095238095238093,0.38095238095238093,0.38095238095238093,0.38095238095238093,0.38095238095238093,0.38095238095238093,0.38095238095238093,0.38095238095238093,0.38095238095238093,0.38095238095238093,0.38095238095238093,0.38095238095238093,0.38095238095238093,0.38095238095238093,0.38095238095238093,0.38095238095238093,0.3979591836734694,0.42857142857142855,0.4523809523809524,0.47959183673469385,0.4931972789115646,0.5102040816326531,0.5272108843537415,0.5544217687074829,0.5884353741496599,0.6156462585034014,0.6428571428571429,0.6632653061224489,0.6836734693877551,0.7006802721088435,0.7244897959183674,0.7653061224489796,0.8129251700680272,0.8605442176870748,0.9047619047619048,0.9387755102040817,0.9625850340136054,0.9829931972789115,1.010204081632653,1.0374149659863945,1.0714285714285714,1.129251700680272,1.2142857142857142,1.316326530612245,1.4149659863945578,1.5204081632653061,1.6700680272108843,1.880952380952381,2.139455782312925,2.4727891156462585,2.921768707482993,3.377551020408163,3.880952380952381,3.935374149659864,3.935374149659864,3.935374149659864,3.935374149659864,3.935374149659864,3.935374149659864,3.935374149659864,3.935374149659864,3.935374149659864,3.935374149659864,3.935374149659864,3.935374149659864,3.935374149659864,3.935374149659864,3.935374149659864,3.935374149659864,3.935374149659864,3.935374149659864,3.935374149659864,3.935374149659864,3.935374149659864,3.935374149659864,3.935374149659864,3.935374149659864,3.935374149659864,3.935374149659864,3.935374149659864,3.935374149659864,3.935374149659864,3.935374149659864,3.935374149659864,3.935374149659864,3.935374149659864,3.935374149659864,3.935374149659864,3.935374149659864,3.935374149659864,3.935374149659864,3.935374149659864,3.935374149659864,3.935374149659864,3.935374149659864,3.935374149659864,3.935374149659864,3.935374149659864,3.935374149659864,3.935374149659864,3.935374149659864,3.935374149659864,3.935374149659864,3.935374149659864,3.935374149659864,3.935374149659864,3.935374149659864,3.935374149659864,3.935374149659864,3.935374149659864,3.935374149659864,3.935374149659864,3.935374149659864,3.935374149659864,3.935374149659864,3.935374149659864,3.935374149659864,3.935374149659864,3.935374149659864,3.935374149659864,3.935374149659864,3.935374149659864,3.935374149659864,3.935374149659864,3.935374149659864,3.935374149659864,3.935374149659864,3.935374149659864,3.935374149659864,3.935374149659864,3.935374149659864,3.935374149659864,3.935374149659864,3.935374149659864,3.935374149659864,3.935374149659864,3.935374149659864,3.935374149659864,3.935374149659864,3.935374149659864,3.935374149659864,3.935374149659864,3.935374149659864,3.935374149659864,3.935374149659864,3.935374149659864,3.935374149659864,3.935374149659864,3.935374149659864,3.935374149659864,3.935374149659864,3.935374149659864,3.935374149659864,3.935374149659864,3.935374149659864,3.935374149659864,3.935374149659864,3.935374149659864,3.935374149659864,3.935374149659864,3.935374149659864,3.935374149659864,3.935374149659864,3.935374149659864,3.935374149659864,3.935374149659864,3.935374149659864,3.935374149659864,3.935374149659864,3.935374149659864,3.935374149659864,3.935374149659864,3.935374149659864,3.935374149659864,3.935374149659864,3.935374149659864,3.935374149659864,3.935374149659864,3.935374149659864,3.935374149659864,3.935374149659864,3.935374149659864,3.935374149659864,3.935374149659864,3.935374149659864,3.935374149659864,3.935374149659864,3.935374149659864,3.935374149659864,3.935374149659864,3.935374149659864,3.935374149659864,3.935374149659864,3.935374149659864,3.935374149659864,3.935374149659864,3.935374149659864,3.935374149659864,3.935374149659864,3.935374149659864,3.935374149659864,3.935374149659864,3.935374149659864,3.935374149659864,3.935374149659864,3.935374149659864,3.935374149659864,3.935374149659864,3.935374149659864,3.935374149659864,3.935374149659864,3.935374149659864,3.935374149659864,3.935374149659864,3.935374149659864,3.935374149659864,3.935374149659864,3.935374149659864,3.935374149659864,3.935374149659864,3.935374149659864,3.935374149659864,3.935374149659864,3.935374149659864,3.935374149659864,3.935374149659864,3.935374149659864,3.935374149659864,3.935374149659864,3.935374149659864,3.935374149659864,3.935374149659864,3.935374149659864,3.935374149659864,3.935374149659864,3.935374149659864,3.935374149659864,3.935374149659864,3.935374149659864,3.935374149659864,3.935374149659864,3.935374149659864,3.935374149659864,3.935374149659864,3.935374149659864,3.935374149659864,3.935374149659864,3.935374149659864,3.935374149659864,3.935374149659864,3.935374149659864,3.935374149659864,3.935374149659864,3.935374149659864,3.935374149659864,3.935374149659864,3.935374149659864,3.935374149659864,3.935374149659864,3.935374149659864,3.935374149659864,3.935374149659864,3.935374149659864,3.935374149659864,3.935374149659864,3.935374149659864,3.935374149659864,3.935374149659864,3.935374149659864,3.935374149659864,3.935374149659864,3.935374149659864,3.935374149659864,3.935374149659864,3.935374149659864,3.935374149659864,3.935374149659864,3.935374149659864,3.935374149659864,3.935374149659864,3.935374149659864,3.935374149659864,3.935374149659864,3.935374149659864,3.935374149659864,3.935374149659864,3.935374149659864,3.935374149659864,3.935374149659864,3.935374149659864,3.935374149659864,3.935374149659864,3.935374149659864,3.935374149659864,3.935374149659864,3.935374149659864,3.935374149659864,3.935374149659864,3.935374149659864,3.935374149659864,3.935374149659864,3.935374149659864,3.935374149659864,3.935374149659864,3.935374149659864,3.935374149659864,3.935374149659864,3.935374149659864,3.935374149659864,3.935374149659864,3.935374149659864,3.935374149659864,3.935374149659864,3.935374149659864,3.935374149659864,3.935374149659864,3.935374149659864,3.935374149659864,3.935374149659864,3.935374149659864,3.935374149659864,3.935374149659864,3.935374149659864,3.935374149659864,3.935374149659864,3.935374149659864,3.935374149659864,3.935374149659864,3.935374149659864,3.935374149659864,3.935374149659864,3.935374149659864,3.935374149659864,3.935374149659864,3.935374149659864,3.935374149659864,3.935374149659864,3.935374149659864,3.935374149659864,3.935374149659864,3.935374149659864,