[{"success":true,"trial_type":"fullscreen","trial_index":0,"time_elapsed":5691,"internal_node_id":"0.0-0.0","protocol_sum":"","subject_identifier":328,"subject_sum":[63,152,7,203,154,233,251,108,48,148,42,246,19,153,9,210,119,83,165,224,63,229,165,198,233,59,1,79,91,23,54,111],"subject_pair":164,"STUDY_ID":"66a0b3911f23dfc7665bb169","PROLIFIC_PID":"5ef11899b242da1e73a5b1e4","SESSION_ID":"66a15a86c844619d91f6d952","practice_instructions":1,"leaderboard_instructions":0,"bonus":2,"reveal_word":false,"self_rating":"6","confidence":"100"},{"view_history":"[{\"page_index\":0,\"viewing_time\":5036.5}]","rt":5036.5,"trial_type":"instructions","trial_index":1,"time_elapsed":10728,"internal_node_id":"0.0-1.0","protocol_sum":"","subject_identifier":328,"subject_sum":[63,152,7,203,154,233,251,108,48,148,42,246,19,153,9,210,119,83,165,224,63,229,165,198,233,59,1,79,91,23,54,111],"subject_pair":164,"STUDY_ID":"66a0b3911f23dfc7665bb169","PROLIFIC_PID":"5ef11899b242da1e73a5b1e4","SESSION_ID":"66a15a86c844619d91f6d952","practice_instructions":1,"leaderboard_instructions":0,"bonus":2,"reveal_word":false,"self_rating":"6","confidence":"100"},{"view_history":"[{\"page_index\":0,\"viewing_time\":14082.199999988079}]","rt":14082.299999982119,"trial_type":"instructions","trial_index":2,"time_elapsed":24810,"internal_node_id":"0.0-2.0-0.0","protocol_sum":"","subject_identifier":328,"subject_sum":[63,152,7,203,154,233,251,108,48,148,42,246,19,153,9,210,119,83,165,224,63,229,165,198,233,59,1,79,91,23,54,111],"subject_pair":164,"STUDY_ID":"66a0b3911f23dfc7665bb169","PROLIFIC_PID":"5ef11899b242da1e73a5b1e4","SESSION_ID":"66a15a86c844619d91f6d952","practice_instructions":1,"leaderboard_instructions":0,"bonus":2,"reveal_word":false,"self_rating":"6","confidence":"100"},{"rt":7703.700000017881,"responses":"{\"Q0\":\"... reveal the word with as <b>few letter guesses</b> as possible\"}","question_order":"[0]","trial_type":"survey-multi-choice","trial_index":3,"time_elapsed":32515,"internal_node_id":"0.0-2.0-1.0","protocol_sum":"","subject_identifier":328,"subject_sum":[63,152,7,203,154,233,251,108,48,148,42,246,19,153,9,210,119,83,165,224,63,229,165,198,233,59,1,79,91,23,54,111],"subject_pair":164,"correct":true,"test_part":"multichoice_nonpretend","STUDY_ID":"66a0b3911f23dfc7665bb169","PROLIFIC_PID":"5ef11899b242da1e73a5b1e4","SESSION_ID":"66a15a86c844619d91f6d952","practice_instructions":1,"leaderboard_instructions":0,"bonus":2,"reveal_word":false,"self_rating":"6","confidence":"100"},{"view_history":"[{\"page_index\":0,\"viewing_time\":1317.5}]","rt":1317.6000000238419,"trial_type":"instructions","trial_index":4,"time_elapsed":33833,"internal_node_id":"0.0-3.0","protocol_sum":"","subject_identifier":328,"subject_sum":[63,152,7,203,154,233,251,108,48,148,42,246,19,153,9,210,119,83,165,224,63,229,165,198,233,59,1,79,91,23,54,111],"subject_pair":164,"STUDY_ID":"66a0b3911f23dfc7665bb169","PROLIFIC_PID":"5ef11899b242da1e73a5b1e4","SESSION_ID":"66a15a86c844619d91f6d952","practice_instructions":1,"leaderboard_instructions":0,"bonus":2,"reveal_word":false,"self_rating":"6","confidence":"100"},{"word":"ZEBRA","click_log":{"letter":["","D","O","L","H","A","S","R","F","E","Z","B"],"t":[0,4076.0999999940395,20570.80000001192,23610,28440,30223.30000001192,37721.40000000596,40321.90000000596,49976,51337.80000001192,56481.09999999404,58784],"hit":[null,0,0,0,0,1,0,1,0,1,1,1],"asked":["","D","DO","DOL","DOLH","DOLHA","DOLHAS","DOLHASR","DOLHASRF","DOLHASRFE","DOLHASRFEZ","DOLHASRFEZB"],"word_state":["_____","_____","_____","_____","_____","____A","____A","___RA","___RA","_E_RA","ZE_RA","ZEBRA"]},"hover_log":{"letter":["?","?","?","?","?","?","?","?","?","?","?","?","?","?","?","?","?","?","?","?","?","?","?","?","?","?","?","?","?","?","?","?","?","?","?","?","?","?","?","?","?","?","?","?","?","?","?","?","?","?","?","?","?","?","?","?","?","?","?","?","?","?","?","?","?","?","?","?","?","?","?","?","?","?","?","?","?","?","?","?","?","?","?","?","?","?","?","?","?","?","?","U","?","?","?","?","?","?","?","?","?","?","?","?","?","L","L","L","?","?","?","D","D","D","D","?","?","?","E","E","E","E","E","E","E","E","E","E","E","E","E","E","E","E","E","E","E","E","E","E","?","?","?","?","?","P","P","P","P","P","?","?","?","?","?","?","?","P","?","?","?","N","N","?","M","M","M","M","M","M","M","M","M","?","?","?","N","N","N","N","N","?","O","O","O","O","O","O","O","O","O","O","O","O","O","?","?","?","?","N","N","?","?","?","D","D","D","D","D","D","D","D","D","D","D","D","D","D","D","D","D","D","D","D","D","D","?","?","?","?","?","?","N","?","?","W","W","W","?","?","?","?","?","?","?","?","?","?","?","?","?","?","?","?","?","?","?","?","?","?","?","?","?","?","?","?","?","?","?","?","?","?","?","?","?","?","X","X","X","X","X","X","X","X","X","X","X","X","X","X","?","?","N","?","E","?","?","?","?","?","?","?","?","?","?","?","?","?","?","?","?","?","?","?","?","?","?","?","?","?","?","?","?","?","?","?","?","?","?","?","?","?","?","?","?","?","?","?","?","?","?","?","?","?","?","?","?","?","?","?","?","?","?","?","?","?","?","?","?","?","?","?","?","?","?","?","?","?","?","?","?","?","?","?","?","?","?","?","?","?","?","?","?","?","?","?","?","?","?","?","?","?","?","?","?","?","?","?","?","?","?","?","?","?","?","?","?","?","?","?","?","?","?","?","?","?","?","?","?","?","?","?","?","?","?","?","?","?","?","?","?","?","?","?","?","?","?","?","?","?","?","?","?","?","?","?","?","?","?","?","?","?","?","?","?","?","?","?","?","?","?","?","?","?","?","?","?","?","?","?","?","?","?","?","?","?","?","?","?","?","?","?","?","?","?","?","?","?","?","?","?","?","?","?","?","?","?","?","?","?","?","?","?","?","?","?","?","?","?","?","?","?","?","?","?","?","?","?","?","?","?","?","?","?","?","?","?","?","?","?","?","?","?","?","?","?","?","?","?","?","?","?","?","?","?","?","?","?","?","?","?","?","?","?","?","?","?","?","?","?","?","?","?","?","?","?","?","?","?","?","?","?","?","?","?","?","?","?","?","?","?","?","?","?","?","?","?","?","?","?","?","?","?","?","?","?","?","?","?","?","?","?","?","?","?","?","?","?","?","?","?","?","?","?","?","?","?","?","?","?","?","?","?","?","?","?","?","?","?","?","?","?","?","?","?","?","?","?","?","?","?","?","?","?","?","?","?","?","?","?","?","?","?","?","?","?","?","?","?","?","?","?","?","?","?","?","?","?","?","?","?","?","?","?","?","?","?","?","?","?","?","?","?","?","?","?","?","?","?","?","?","?","?","?","?","?","?","?","?","?","?","?","?","?","?","?","?","?","?","?","?","?","?","?","?","?","?","?","?","?","?","?","?","?","?","?","?","?","?","?","?","?","?","?","?","?","?","?","?","?","?","?","?","?","?","?","?","?","?","?","?","?","?","?","?","?","?","?","?","?","?","?","?","?","?","?","?","?","?","?","?","?","?","?","?","?","?","?","?","?","?","?","?","?","?","?","?","?","?","?","?","?","?","?","?","?","?","?","?","?","?","?","?","?","?","?","?","?","?","?","?","?","?","?","?","?","?","?","?","?","?","?","?","?","?","?","?","?","?","?","?","?","?","?","?","?","?","?","?","?","?","?","?","?","?","?","?","?","?","?","?","?","?","?","?","?","?","?","?","?","?","?","?","?","?","?","?","?","?","?","?","?","?","?","?","?","?","?","?","?","?","?","?","?","?","?","?","?","?","?","?","?","E","E","E","E","E","E","E","E","E","E","E","E","?","D","D","?","?","M","M","?","L","L","L","L","L","L","L","L","L","L","L","L","L","L","L","?","?","?","?","?","?","?","?","?","?","?","?","?","?","?","?","?","?","?","?","?","M","M","M","M","M","M","?","?","E","E","?","?","?","?","?","?","?","?","?","?","?","?","?","?","?","?","?","?","?","?","?","?","?","?","?","?","?","?","?","?","?","?","?","?","?","?","?","?","?","H","H","H","H","H","H","H","?","?","?","?","?","?","?","Q","Q","Q","Q","Q","Q","Q","Q","Q","Q","Q","Q","Q","Q","Q","Q","Q","Q","Q","Q","Q","Q","Q","Q","Q","Q","Q","Q","Q","Q","Q","Q","?","P","P","P","P","P","?","?","?","O","O","O","O","O","O","O","O","O","O","O","?","?","?","?","?","?","?","?","?","?","?","?","?","?","?","?","?","?","?","?","?","O","O","O","O","O","O","O","O","O","O","O","O","O","O","O","O","O","O","O","O","O","O","O","O","O","O","O","O","O","O","O","O","O","O","O","O","O","O","O","O","O","O","O","O","O","O","O","O","O","O","O","O","O","O","O","O","O","O","O","O","O","O","O","O","O","O","O","O","O","O","O","O","O","?","?","?","?","W","W","W","W","?","V","V","V","V","V","V","V","V","V","V","V","V","V","V","V","V","V","V","V","V","V","V","V","V","V","V","?","U","U","U","U","U","U","U","U","U","U","U","U","U","U","U","?","?","T","T","T","T","T","T","T","T","T","T","T","T","T","T","T","T","T","T","T","T","T","T","T","T","T","T","T","T","T","T","T","T","T","T","T","T","T","?","?","?","?","?","?","?","?","?","?","?","L","L","L","L","L","L","L","L","L","L","L","L","L","L","L","L","L","L","L","L","L","L","L","L","L","L","L","L","L","L","L","L","L","L","L","L","L","L","L","L","L","L","L","L","L","L","L","L","L","L","L","L","L","L","L","L","L","?","?","?","T","T","T","?","?","?","?","?","?","?","?","?","?","?","?","?","?","?","?","?","?","?","?","?","?","?","?","?","?","?","?","?","?","?","?","?","?","?","?","?","?","?","?","?","?","?","?","?","?","?","?","?","?","?","?","?","?","?","?","?","?","?","S","S","S","S","S","S","S","S","S","S","S","S","S","S","S","S","S","S","S","S","S","S","S","S","S","S","S","S","S","?","?","?","?","?","?","?","?","J","J","J","J","J","J","J","J","J","J","J","J","J","J","J","J","J","J","J","J","J","J","J","J","J","J","J","J","J","J","J","J","J","J","J","J","J","J","J","J","J","J","J","J","J","J","J","J","J","J","J","J","J","J","J","J","J","J","J","J","J","J","K","K","?","?","?","?","F","G","G","H","H","?","?","?","?","?","?","?","?","?","?","?","?","?","?","?","H","H","H","H","H","H","H","H","H","H","H","H","H","H","H","H","H","H","H","H","H","H","H","H","H","H","H","H","H","H","H","H","H","H","H","H","H","H","H","H","H","H","H","H","H","H","H","H","H","H","H","H","H","H","H","H","H","H","H","H","H","H","H","H","H","H","H","H","H","H","H","H","H","H","H","H","H","H","?","?","P","P","?","?","X","X","?","?","?","?","?","?","?","?","?","?","?","?","?","?","?","?","?","?","?","?","?","?","?","?","?","?","?","?","?","?","?","?","?","W","W","W","W","W","W","W","W","W","W","W","W","W","?","?","M","?","?","?","?","?","B","B","B","B","B","B","B","B","B","B","B","B","B","B","B","?","A","A","A","A","A","A","A","A","A","A","A","A","A","A","?","?","K","?","?","U","U","U","U","U","U","U","U","U","U","U","U","U","U","U","U","U","U","U","U","U","U","U","U","U","U","U","U","U","U","U","U","U","U","U","U","U","U","?","M","?","E","?","?","?","?","?","?","?","?","?","?","?","?","?","?","?","?","?","?","?","?","?","?","?","?","?","?","?","?","?","?","?","?","?","?","?","?","?","?","?","?","?","?","?","?","?","?","?","?","?","?","?","?","?","?","?","?","?","?","?","?","?","?","?","?","?","?","?","?","?","?","?","?","?","?","?","?","?","?","?","?","?","?","?","?","?","?","?","?","?","?","?","?","?","?","?","?","?","?","?","?","?","?","?","?","?","?","?","?","I","?","?","R","R","R","R","R","?","?","?","?","?","?","?","?","?","?","?","?","?","?","?","?","?","?","?","?","?","?","?","?","?","?","?","?","?","?","?","?","?","?","?","?","?","?","?","?","?","?","?","Z","Z","Z","Z","Z","Z","Z","Z","Z","Z","Z","Z","?","Y","Y","Y","Y","?","?","X","X","X","X","X","X","X","X","X","X","X","X","X","X","X","X","X","X","X","X","X","X","X","X","X","X","X","X","X","X","X","X","X","X","X","X","X","X","X","X","X","X","?","W","W","W","W","W","W","W","W","W","W","W","W","W","W","W","W","?","?","V","V","V","V","V","V","V","V","V","V","V","V","V","V","V","V","V","V","V","V","V","V","V","V","V","V","V","?","?","?","U","U","U","U","U","U","U","U","U","U","U","U","U","U","U","U","U","U","U","U","U","U","U","U","U","U","U","U","U","U","U","U","U","U","U","U","U","U","U","U","U","U","U","U","U","U","U","U","U","U","U","U","U","?","?","?","?","?","?","?","?","?","?","?","?","?","T","T","T","T","T","T","T","T","T","T","T","?","?","?","?","?","?","?","S","S","S","S","S","S","S","S","S","S","S","S","S","S","S","S","S","S","S","S","S","S","S","S","S","S","S","S","S","S","S","S","S","S","S","S","?","?","T","T","T","T","T","T","T","T","T","?","?","?","?","?","U","U","U","U","U","U","U","U","U","U","U","U","U","U","U","U","U","U","U","U","U","U","U","U","U","U","U","U","U","U","U","U","U","U","U","U","U","U","U","U","U","U","U","U","U","U","?","V","?","?","?","?","?","P","?","Q","Q","Q","Q","Q","Q","Q","Q","Q","Q","Q","?","?","R","R","R","R","R","R","R","R","R","R","R","R","R","R","R","R","R","R","R","R","R","R","R","R","R","R","R","R","R","R","R","R","R","R","R","R","R","R","R","R","R","R","R","R","R","R","R","R","R","R","R","R","R","?","Q","Q","?","P","?","?","?","?","?","?","?","?","?","?","?","?","?","?","?","?","F","?","?","?","?","?","?","?","?","?","?","?","?","?","?","?","?","?","?","?","?","?","?","?","?","?","?","?","?","?","?","?","?","?","?","?","?","?","?","?","?","?","?","?","?","?","?","?","?","?","?","?","?","?","?","?","?","?","?","?","?","?","?","?","?","?","?","?","?","?","?","?","?","?","?","?","?","?","?","?","?","?","?","?","?","?","?","?","?","?","?","?","?","?","?","?","?","?","?","?","?","?","?","?","?","?","?","?","?","?","?","?","?","?","?","?","?","?","?","?","?","?","?","?","?","?","?","?","?","?","?","?","?","?","?","?","?","?","?","?","?","?","?","?","?","?","?","?","?","?","?","?","?","?","?","?","?","?","?","?","?","?","?","?","?","?","?","?","?","?","?","?","?","?","?","?","?","?","?","?","?","?","?","?","?","?","?","?","?","?","?","?","?","?","?","?","?","?","?","?","?","?","?","?","?","?","?","?","?","?","?","?","?","?","?","?","?","?","?","?","?","?","?","?","?","?","?","?","?","?","?","?","?","?","?","?","?","?","?","?","?","?","?","?","?","?","?","?","?","?","?","?","?","?","?","?","?","?","?","?","?","?","?","?","?","?","?","?","?","?","?","?","?","?","?","?","?","?","?","?","?","?","?","?","?","?","?","?","?","?","?","?","?","?","?","?","?","?","?","?","?","?","?","?","?","?","?","?","?","?","?","?","?","?","?","?","?","?","?","?","?","?","?","?","?","?","?","?","?","?","?","?","?","?","?","?","?","?","?","?","?","?","?","?","?","?","?","?","?","?","?","?","?","?","?","?","?","?","?","?","?","?","?","?","?","?","?","?","?","?","?","?","?","?","?","?","?","?","?","?","?","?","?","?","?","?","?","?","?","?","?","?","?","?","?","?","?","?","?","?","?","?","?","?","?","?","?","?","?","?","?","?","?","?","?","?","?","?","?","?","?","?","?","?","?","?","?","?","?","?","?","?","?","?","?","?","?","?","?","?","?","?","?","?","?","?","?","?","?","?","?","?","G","G","?","?","?","?","?","F","F","F","F","F","F","F","F","F","F","F","F","F","F","F","F","F","F","F","F","F","F","F","F","F","F","F","F","F","F","F","F","F","?","?","?","?","?","?","?","?","?","?","?","?","?","?","?","?","?","?","?","?","?","?","?","?","?","?","?","?","N","N","N","N","N","N","N","N","N","N","N","N","N","N","N","?","?","?","E","E","E","E","E","E","E","E","E","E","E","E","E","E","E","E","E","E","E","E","E","E","E","?","?","N","N","N","?","?","?","?","?","?","?","?","?","?","?","?","?","?","?","?","?","?","?","?","?","?","?","?","?","?","N","N","?","E","?","?","?","?","?","?","?","?","?","?","?","?","?","?","?","?","?","?","?","?","?","?","?","?","?","?","?","?","?","?","?","?","?","?","?","?","?","?","?","?","?","?","?","?","?","?","?","?","?","?","?","?","?","?","?","?","?","?","?","?","?","?","?","?","?","?","?","?","?","?","?","?","?","?","?","?","?","?","?","?","?","?","?","?","?","?","?","?","?","?","?","?","?","?","?","?","?","?","?","?","?","?","?","?","?","?","?","?","?","?","?","?","?","?","?","?","?","?","?","?","?","?","?","?","?","?","?","?","?","?","?","?","?","?","?","?","?","?","?","?","?","?","?","?","?","?","?","?","?","?","?","?","?","?","?","?","?","?","?","?","?","?","?","?","?","?","?","?","?","?","?","?","?","?","?","?","?","?","?","?","?","?","?","?","?","?","L","L","L","?","?","?","?","T","T","T","T","T","T","T","T","T","T","T","T","?","?","?","?","X","Y","Y","?","Z","Z","Z","Z","Z","Z","Z","Z","Z","Z","Z","Z","Z","Z","Z","Z","Z","Z","Z","Z","Z","Z","Z","Y","?","?","?","N","M","?","?","?","?","C","C","C","C","?","?","?","?","?","?","?","?","?","?","?","?","?","?","?","?","?","?","?","C","C","C","?","L","L","L","?","U","U","U","U","U","U","U","U","U","U","U","U","?","?","?","?","?","?","?","V","V","V","V","V","V","V","V","V","V","V","V","?","?","?","?","?","?","?","?","M","M","M","?","?","C","C","C","C","C","C","C","C","C","C","C","C","C","C","C","?","?","?","B","B","B","B","B","B","B","B","B","B","B","B","B","B","B","B","B","B","B","B","B","B","B","B","B","?","?","?","?","?","?","?","?","?","?","?","C","C","C","C","D","D","?","N","?","?","X","X","X","X","X","X","X","X","X","X","X","X","X","X","?","?","?","?","X","X","?","?","?","?","?","?","?","?","?","?","?","?","?","?","?","?","?","?","?","?","?","?","?","?","?","?","?","?","?","?","?","?","?","?","?","?","?","?","?","?","?","?","?","?","?","?","?","?","?","?","?","?","?","?","?","?","?","?","?","?","?"],"t":[31,40,60,75,96,116,135,154,172,190,211,231,250,270,288,307,319,339,358,376,395,414,431,450,469,488,506,526,546,565,585,604,624,642,660,679,698,718,736,755,774,793,811,829,847,866,885,904,923,941,959,978,997,1016,1036,1055,1073,1092,1113,1133,1153,1172,1192,1213,1234,1253,1274,1294,1306,1329,1342,1362,1380,1399,1417,1436,1455,1474,1493,1511,1532,1552,1571,1590,1608,1627,1646,1664,1683,1702,1720,1741,1759,1778,1797,1815,1835,1855,1875,1895,1915,1934,1953,1972,1984,1996,2017,2036,2055,2074,2093,2113,2134,2157,2179,2200,2221,2233,2246,2261,2274,2288,2300,2313,2333,2352,2371,2389,2407,2425,2443,2462,2480,2499,2518,2536,2555,2573,2594,2608,2621,2642,2661,2681,2701,2720,2739,2757,2776,2796,2814,2834,2852,2870,2888,2907,2929,2948,2966,2985,3003,3022,3041,3060,3079,3098,3119,3140,3161,3181,3200,3220,3232,3245,3258,3271,3284,3298,3311,3324,3336,3356,3375,3394,3412,3432,3450,3468,3486,3505,3524,3542,3560,3578,3597,3617,3635,3654,3673,3692,3711,3729,3749,3767,3785,3803,3822,3841,3860,3879,3897,3916,3934,3953,3971,3989,4008,4026,4045,4064,4083,4104,4124,4144,4164,4184,4205,4225,4238,4250,4264,4277,4291,4305,4319,4340,4359,4378,4396,4415,4435,4454,4473,4492,4511,4530,4549,4568,4587,4607,4626,4644,4662,4680,4698,4717,4736,4753,4772,4790,4810,4830,4849,4868,4886,4904,4924,4943,4963,4981,5000,5019,5038,5056,5075,5094,5114,5135,5147,5161,5175,5189,5203,5216,5230,5244,5258,5272,5287,5300,5314,5327,5340,5353,5365,5377,5389,5410,5429,5449,5467,5485,5505,5522,5542,5559,5578,5597,5616,5636,5655,5674,5693,5712,5733,5752,5771,5789,5808,5828,5847,5865,5885,5903,5922,5941,5961,5979,5999,6018,6036,6056,6073,6093,6114,6134,6154,6174,6193,6213,6233,6253,6273,6286,6307,6327,6346,6364,6382,6401,6421,6440,6460,6479,6498,6516,6534,6552,6571,6589,6609,6627,6645,6665,6684,6704,6721,6740,6759,6778,6797,6816,6835,6853,6873,6894,6915,6935,6954,6972,6991,7010,7029,7048,7067,7085,7105,7125,7144,7164,7184,7204,7225,7247,7268,7289,7308,7326,7347,7366,7385,7403,7422,7441,7459,7479,7497,7516,7534,7552,7570,7589,7609,7627,7645,7665,7684,7702,7722,7741,7760,7780,7799,7818,7836,7856,7875,7893,7912,7931,7950,7968,7986,8005,8022,8042,8060,8080,8099,8120,8140,8161,8181,8193,8206,8220,8233,8246,8259,8273,8286,8299,8312,8325,8338,8351,8363,8375,8397,8416,8434,8453,8471,8490,8508,8526,8544,8562,8581,8599,8618,8636,8654,8673,8693,8713,8732,8750,8768,8787,8804,8822,8840,8859,8877,8898,8917,8935,8954,8974,8993,9011,9029,9048,9066,9084,9103,9123,9142,9162,9174,9187,9201,9214,9227,9240,9254,9267,9280,9294,9307,9320,9334,9346,9358,9380,9399,9419,9437,9455,9473,9492,9512,9531,9549,9568,9586,9605,9623,9641,9659,9677,9696,9716,9736,9754,9772,9790,9808,9826,9845,9864,9882,9901,9920,9940,9959,9978,9997,10017,10035,10055,10074,10094,10108,10121,10135,10150,10163,10177,10191,10205,10219,10232,10246,10259,10283,10302,10314,10327,10339,10353,10374,10392,10410,10430,10448,10467,10486,10504,10523,10542,10562,10581,10599,10619,10638,10657,10676,10695,10715,10735,10753,10772,10792,10810,10829,10849,10868,10887,10905,10923,10941,10960,10978,10996,11014,11034,11054,11072,11090,11110,11131,11143,11157,11170,11185,11199,11212,11226,11239,11252,11265,11279,11292,11305,11319,11331,11344,11356,11369,11390,11408,11427,11446,11466,11477,11489,11502,11514,11527,11539,11551,11571,11590,11609,11628,11646,11664,11682,11704,11722,11741,11761,11778,11798,11816,11834,11853,11871,11889,11908,11926,11945,11963,11981,11999,12018,12038,12056,12075,12095,12116,12137,12149,12162,12174,12186,12201,12214,12227,12240,12253,12266,12279,12292,12305,12318,12330,12345,12357,12377,12396,12414,12433,12452,12470,12490,12508,12526,12544,12563,12580,12599,12618,12636,12655,12675,12694,12712,12731,12751,12769,12788,12807,12827,12845,12863,12882,12901,12921,12939,12959,12978,12997,13015,13034,13053,13072,13084,13107,13129,13151,13170,13191,13203,13218,13230,13243,13257,13270,13283,13297,13310,13323,13343,13362,13380,13398,13417,13436,13454,13472,13491,13510,13529,13548,13566,13584,13603,13621,13639,13659,13678,13696,13715,13733,13752,13770,13789,13807,13826,13845,13863,13882,13900,13918,13937,13956,13974,13993,14011,14029,14047,14066,14087,14107,14127,14147,14168,14187,14208,14228,14247,14268,14288,14307,14325,14343,14355,14366,14378,14390,14410,14428,14447,14468,14487,14505,14524,14542,14562,14580,14597,14616,14635,14654,14672,14690,14708,14728,14748,14769,14788,14808,14827,14846,14866,14885,14904,14923,14941,14959,14978,14996,15016,15035,15053,15071,15088,15100,15121,15142,15162,15181,15201,15221,15241,15260,15281,15301,15319,15336,15355,15372,15390,15409,15427,15446,15466,15484,15503,15521,15540,15559,15577,15596,15616,15633,15652,15670,15688,15707,15725,15744,15762,15781,15799,15819,15838,15856,15875,15893,15912,15931,15950,15971,15989,16007,16027,16045,16065,16085,16105,16125,16145,16166,16186,16206,16227,16248,16269,16289,16307,16326,16345,16364,16382,16400,16420,16438,16456,16475,16493,16512,16529,16549,16568,16586,16606,16625,16645,16662,16680,16699,16711,16726,16741,16754,16770,16782,16795,16807,16819,16831,16851,16869,16888,16905,16924,16942,16960,16979,16998,17017,17036,17054,17073,17091,17104,17116,17130,17145,17158,17172,17184,17198,17211,17234,17254,17274,17295,17315,17336,17356,17375,17389,17409,17429,17448,17467,17486,17504,17522,17542,17560,17579,17597,17615,17634,17653,17673,17692,17710,17730,17748,17767,17787,17807,17825,17843,17861,17880,17899,17918,17938,17957,17977,17996,18016,18034,18053,18072,18092,18112,18133,18152,18165,18177,18191,18203,18218,18231,18243,18257,18270,18293,18314,18333,18352,18370,18390,18408,18426,18445,18463,18481,18499,18519,18537,18557,18576,18594,18612,18631,18651,18669,18688,18706,18725,18745,18763,18781,18800,18819,18839,18858,18878,18897,18916,18934,18953,18971,18989,19008,19026,19045,19064,19082,19101,19121,19141,19162,19188,19201,19219,19239,19255,19268,19282,19295,19308,19321,19335,19348,19360,19373,19386,19405,19424,19442,19460,19479,19498,19516,19535,19553,19571,19589,19608,19627,19645,19665,19683,19701,19719,19738,19756,19776,19794,19812,19831,19851,19870,19889,19908,19927,19944,19962,19982,19999,20018,20037,20055,20074,20093,20114,20135,20154,20176,20195,20216,20237,20249,20261,20275,20287,20307,20325,20344,20364,20382,20400,20418,20437,20455,20473,20492,20509,20527,20545,20564,20582,20601,20620,20639,20658,20677,20696,20716,20734,20752,20770,20788,20807,20826,20845,20864,20883,20902,20921,20940,20959,20978,20997,21016,21035,21054,21073,21091,21113,21133,21146,21167,21188,21200,21213,21224,21238,21251,21274,21294,21314,21334,21351,21369,21387,21408,21426,21443,21463,21483,21502,21522,21542,21562,21581,21599,21620,21640,21659,21677,21695,21714,21733,21751,21769,21788,21806,21818,21840,21859,21880,21900,21919,21938,21956,21975,21993,22012,22030,22048,22067,22086,22106,22126,22146,22165,22186,22205,22218,22240,22260,22280,22301,22320,22339,22357,22376,22394,22411,22430,22448,22468,22487,22505,22523,22541,22559,22577,22596,22614,22632,22650,22668,22687,22706,22727,22746,22766,22785,22803,22822,22841,22859,22879,22897,22916,22934,22952,22970,22988,23006,23024,23042,23060,23079,23099,23119,23140,23160,23181,23201,23222,23241,23253,23266,23279,23292,23305,23317,23337,23356,23374,23392,23411,23429,23448,23462,23483,23503,23523,23542,23561,23580,23598,23616,23635,23654,23672,23691,23710,23730,23749,23768,23788,23807,23825,23843,23862,23881,23900,23918,23938,23956,23975,23995,24015,24034,24054,24073,24092,24112,24134,24155,24175,24195,24214,24234,24255,24274,24294,24313,24331,24349,24368,24387,24405,24422,24441,24460,24480,24498,24516,24535,24554,24573,24591,24611,24630,24648,24667,24685,24704,24722,24741,24759,24778,24797,24815,24835,24853,24871,24889,24909,24927,24945,24964,24983,25001,25022,25041,25059,25077,25089,25101,25114,25128,25141,25154,25167,25180,25193,25206,25220,25232,25246,25260,25273,25286,25300,25312,25326,25340,25353,25366,25379,25399,25417,25435,25453,25472,25490,25509,25527,25546,25564,25584,25604,25624,25643,25662,25680,25699,25718,25737,25755,25775,25795,25813,25832,25850,25869,25889,25907,25926,25944,25963,25981,26000,26019,26040,26063,26084,26104,26124,26137,26149,26163,26175,26188,26201,26214,26227,26240,26253,26266,26279,26292,26305,26319,26330,26345,26357,26378,26397,26417,26435,26453,26471,26489,26508,26525,26544,26564,26583,26601,26620,26640,26658,26677,26696,26714,26732,26752,26772,26791,26809,26828,26847,26866,26886,26905,26924,26944,26962,26980,26999,27018,27035,27055,27073,27092,27112,27132,27153,27174,27194,27215,27235,27256,27277,27297,27316,27335,27354,27373,27392,27410,27428,27446,27464,27483,27502,27521,27540,27559,27578,27597,27616,27634,27652,27671,27690,27709,27729,27748,27768,27787,27807,27826,27845,27863,27883,27902,27920,27940,27959,27977,27996,28016,28030,28050,28070,28089,28111,28132,28154,28174,28195,28215,28227,28251,28264,28279,28293,28306,28318,28330,28342,28355,28367,28382,28393,28414,28433,28452,28470,28489,28506,28524,28543,28562,28581,28600,28619,28638,28656,28675,28693,28713,28732,28751,28770,28789,28809,28828,28846,28866,28885,28903,28921,28940,28960,28978,28997,29016,29034,29053,29072,29091,29113,29132,29152,29172,29192,29213,29233,29252,29273,29293,29313,29331,29350,29370,29388,29408,29428,29447,29464,29483,29502,29515,29535,29553,29572,29591,29610,29630,29649,29667,29686,29705,29724,29743,29761,29779,29797,29815,29834,29853,29872,29890,29910,29928,29947,29966,29984,30002,30021,30040,30059,30078,30099,30120,30140,30160,30172,30194,30214,30236,30256,30277,30296,30314,30333,30352,30371,30390,30409,30428,30445,30465,30485,30504,30523,30541,30559,30578,30597,30615,30634,30651,30670,30689,30708,30728,30746,30765,30783,30802,30820,30838,30857,30875,30894,30912,30932,30950,30969,30990,31010,31029,31048,31068,31086,31106,31126,31147,31166,31187,31207,31220,31233,31246,31258,31272,31285,31299,31312,31324,31336,31348,31369,31388,31406,31424,31443,31461,31480,31499,31517,31535,31553,31572,31590,31608,31626,31645,31664,31683,31703,31722,31740,31758,31776,31795,31813,31831,31850,31868,31886,31905,31923,31943,31961,31978,31996,32016,32034,32054,32073,32092,32112,32134,32154,32174,32194,32214,32226,32238,32252,32265,32278,32291,32304,32316,32337,32355,32376,32394,32413,32432,32451,32471,32489,32507,32527,32546,32564,32582,32600,32619,32638,32656,32675,32693,32712,32730,32748,32769,32789,32808,32827,32845,32865,32884,32903,32922,32941,32960,32978,32996,33015,33034,33052,33071,33090,33110,33122,33144,33165,33177,33191,33204,33218,33239,33259,33279,33299,33318,33337,33356,33375,33394,33412,33431,33451,33472,33491,33511,33529,33546,33564,33582,33602,33621,33640,33659,33679,33698,33716,33735,33753,33774,33792,33811,33831,33849,33867,33885,33903,33921,33940,33958,33977,33995,34013,34032,34052,34072,34091,34111,34132,34152,34172,34193,34214,34235,34255,34275,34296,34315,34333,34351,34371,34389,34407,34425,34444,34463,34481,34499,34517,34536,34554,34573,34593,34611,34629,34648,34667,34687,34706,34725,34744,34762,34782,34800,34820,34838,34857,34876,34894,34913,34933,34951,34970,34988,35006,35025,35044,35062,35082,35101,35121,35133,35146,35158,35173,35186,35200,35221,35242,35254,35267,35281,35295,35309,35323,35335,35347,35368,35387,35407,35425,35443,35461,35480,35499,35517,35536,35555,35574,35593,35611,35630,35649,35667,35685,35703,35721,35739,35757,35776,35793,35811,35830,35848,35867,35887,35906,35926,35945,35963,35983,36002,36021,36040,36059,36078,36099,36119,36139,36151,36164,36177,36191,36204,36218,36231,36243,36258,36271,36285,36298,36310,36325,36338,36350,36362,36374,36395,36413,36431,36451,36470,36489,36507,36525,36544,36562,36580,36599,36617,36636,36654,36672,36691,36711,36729,36748,36767,36785,36806,36824,36843,36860,36879,36899,36918,36938,36956,36975,36994,37013,37032,37051,37071,37090,37103,37116,37130,37144,37157,37170,37183,37196,37210,37223,37236,37248,37263,37277,37291,37306,37320,37335,37350,37362,37374,37387,37400,37413,37426,37438,37450,37462,37484,37504,37522,37542,37561,37580,37598,37617,37636,37654,37674,37693,37714,37732,37753,37772,37791,37810,37827,37847,37865,37883,37902,37920,37939,37957,37975,37995,38014,38033,38051,38071,38090,38102,38116,38131,38145,38158,38181,38202,38222,38242,38264,38284,38305,38323,38341,38360,38380,38399,38417,38436,38455,38474,38493,38511,38531,38549,38568,38586,38604,38623,38642,38660,38679,38699,38718,38737,38755,38773,38792,38811,38829,38847,38866,38885,38904,38922,38941,38960,38979,38998,39015,39034,39052,39070,39090,39109,39131,39150,39171,39191,39211,39222,39235,39249,39271,39283,39296,39309,39321,39333,39354,39373,39392,39410,39428,39448,39466,39484,39503,39520,39539,39557,39576,39597,39616,39636,39655,39676,39697,39717,39736,39754,39772,39790,39808,39826,39845,39863,39883,39901,39919,39938,39957,39975,39993,40011,40031,40049,40068,40087,40108,40129,40149,40168,40190,40211,40231,40252,40272,40293,40312,40330,40349,40368,40386,40404,40422,40440,40460,40479,40498,40517,40536,40554,40574,40592,40610,40629,40649,40668,40687,40706,40725,40744,40763,40782,40801,40820,40839,40857,40875,40893,40912,40931,40949,40968,40986,41004,41023,41042,41062,41080,41101,41122,41144,41164,41186,41206,41227,41247,41269,41281,41295,41316,41334,41354,41372,41390,41408,41427,41446,41464,41482,41501,41518,41537,41556,41574,41592,41612,41631,41649,41667,41686,41707,41727,41747,41765,41784,41805,41823,41841,41860,41879,41897,41916,41935,41953,41972,41992,42011,42030,42049,42069,42088,42108,42130,42151,42172,42192,42212,42234,42253,42273,42293,42311,42331,42349,42367,42386,42404,42425,42444,42464,42482,42502,42520,42539,42558,42577,42595,42615,42633,42653,42672,42691,42710,42729,42747,42766,42785,42797,42809,42822,42843,42862,42882,42900,42918,42936,42955,42974,42994,43014,43033,43051,43071,43090,43111,43131,43152,43172,43184,43197,43210,43223,43236,43250,43261,43276,43289,43301,43315,43329,43341,43361,43381,43400,43418,43436,43454,43473,43492,43512,43530,43548,43566,43586,43603,43623,43641,43661,43680,43699,43717,43737,43756,43774,43792,43810,43828,43847,43866,43885,43904,43923,43942,43960,43979,43997,44018,44037,44056,44075,44095,44116,44136,44155,44176,44196,44216,44236,44256,44275,44294,44313,44330,44348,44367,44385,44403,44422,44441,44460,44480,44498,44517,44536,44556,44573,44592,44612,44632,44651,44669,44688,44708,44726,44746,44764,44782,44801,44820,44839,44857,44876,44895,44913,44932,44952,44970,44989,45008,45027,45045,45063,45081,45102,45123,45143,45162,45183,45204,45224,45245,45267,45288,45307,45326,45346,45366,45385,45405,45423,45442,45460,45478,45497,45516,45534,45553,45573,45592,45612,45630,45649,45668,45687,45707,45725,45743,45762,45782,45801,45820,45838,45857,45875,45893,45911,45929,45947,45966,45984,46002,46021,46039,46058,46076,46096,46116,46137,46158,46178,46198,46217,46237,46256,46268,46281,46294,46307,46319,46331,46352,46370,46389,46407,46425,46443,46461,46479,46498,46516,46534,46552,46570,46588,46606,46626,46645,46663,46681,46699,46717,46735,46753,46771,46790,46810,46828,46848,46866,46886,46904,46923,46941,46959,46977,46995,47013,47032,47052,47070,47090,47110,47130,47150,47170,47190,47209,47230,47251,47271,47291,47310,47328,47346,47365,47383,47402,47421,47439,47458,47476,47494,47514,47532,47550,47568,47587,47606,47625,47644,47662,47681,47699,47717,47735,47754,47773,47792,47813,47833,47853,47872,47893,47913,47932,47950,47968,47988,48006,48025,48044,48062,48082,48103,48115,48129,48142,48156,48170,48184,48198,48211,48224,48238,48253,48268,48282,48297,48309,48324,48337,48350,48363,48376,48388,48400,48412,48424,48437,48460,48480,48498,48517,48536,48554,48573,48593,48611,48631,48649,48668,48686,48706,48725,48744,48764,48783,48801,48819,48838,48856,48875,48893,48912,48931,48950,48969,48988,49008,49026,49046,49064,49082,49103,49124,49144,49164,49184,49204,49225,49247,49268,49288,49307,49325,49344,49363,49383,49401,49418,49436,49454,49473,49491,49503,49523,49542,49561,49580,49599,49619,49637,49655,49673,49691,49710,49728,49746,49764,49782,49800,49819,49831,49852,49870,49889,49908,49927,49945,49964,49983,50001,50020,50039,50058,50078,50098,50118,50139,50159,50180,50200,50220,50241,50261,50282,50303,50320,50340,50359,50378,50398,50418,50436,50454,50473,50492,50510,50529,50548,50567,50586,50605,50624,50644,50663,50682,50701,50720,50739,50758,50779,50797,50816,50835,50854,50873,50892,50911,50928,50948,50968,50987,51006,51025,51043,51061,51080,51100,51120,51140,51160,51180,51200,51220,51241,51260,51272,51292,51314,51332,51350,51370,51390,51409,51429,51448,51466,51485,51504,51522,51541,51559,51579,51598,51616,51635,51655,51675,51693,51713,51731,51750,51768,51787,51805,51824,51843,51863,51882,51901,51921,51940,51958,51976,51995,52014,52033,52052,52070,52089,52109,52130,52151,52163,52186,52206,52227,52248,52269,52290,52309,52328,52346,52365,52385,52403,52423,52441,52460,52479,52499,52518,52536,52556,52574,52593,52613,52630,52648,52667,52685,52705,52724,52743,52761,52779,52797,52816,52836,52855,52874,52893,52912,52931,52950,52968,52987,53006,53024,53042,53061,53079,53099,53120,53140,53159,53180,53200,53220,53241,53261,53282,53301,53320,53339,53358,53376,53394,53411,53429,53447,53466,53484,53502,53522,53540,53560,53578,53597,53616,53634,53652,53672,53692,53710,53729,53748,53766,53785,53803,53823,53841,53860,53880,53899,53918,53936,53955,53973,53991,54011,54030,54048,54066,54085,54106,54127,54147,54167,54186,54207,54226,54249,54270,54291,54311,54331,54351,54370,54388,54407,54427,54447,54465,54484,54504,54524,54544,54564,54582,54600,54620,54639,54657,54676,54696,54715,54734,54753,54772,54791,54810,54830,54849,54867,54885,54903,54921,54941,54960,54978,54996,55016,55035,55053,55071,55091,55112,55132,55156,55176,55196,55216,55228,55241,55264,55284,55304,55322,55341,55360,55379,55397,55416,55434,55453,55471,55490,55510,55527,55546,55564,55584,55603,55622,55640,55659,55678,55697,55720,55737,55750,55769,55781,55802,55821,55840,55859,55877,55896,55914,55932,55951,55971,55990,56009,56027,56047,56066,56085,56106,56126,56146,56167,56188,56209,56222,56235,56247,56270,56282,56304,56324,56343,56361,56380,56398,56418,56437,56455,56475,56493,56512,56530,56549,56567,56585,56604,56622,56642,56661,56680,56698,56717,56735,56755,56774,56792,56811,56829,56848,56866,56885,56903,56921,56941,56960,56978,56996,57014,57033,57045,57057,57070,57082,57094,57107,57130,57142,57154,57167,57182,57205,57225,57246,57258,57279,57299,57319,57338,57357,57375,57396,57414,57432,57451,57470,57488,57499,57511,57523,57536,57548,57560,57580,57600,57619,57638,57656,57675,57695,57714,57732,57751,57771,57788,57807,57825,57845,57863,57883,57901,57919,57937,57955,57974,57993,58012,58031,58050,58068,58087,58107,58127,58147,58168,58188,58209,58228,58248,58268,58288,58307,58326,58347,58367,58385,58405,58424,58442,58461,58480,58498,58517,58535,58555,58573,58591,58611,58629,58648,58666,58684,58704,58722,58742,58760,58778,58798,58816,58835,58855,58874,58892,58910,58930,58948,58966,58986,59004,59022,59041,59060,59079,59098,59118,59139,59159,59171,59183,59197,59210,59233,59254,59274,59295,59316,59334,59353,59372,59391,59410,59429,59448,59467,59485,59504,59523,59542,59561,59580,59599,59617,59635,59654,59673,59692,59713,59732,59750,59769,59787,59807,59826,59846,59865,59884,59903,59921,59939,59957,59976,59994,60012,60031,60050,60069,60087,60107,60128,60148,60168,60189,60201,60214,60226,60240,60253,60275,60296,60316,60335,60355,60374,60392,60411,60430,60448,60467,60486,60505,60523,60542,60561,60579,60598,60617,60637,60655,60674,60695,60715,60733,60751,60769,60789],"hit":[null],"x":[-3.7823129251700682,-3.7823129251700682,-3.7823129251700682,-3.7823129251700682,-3.7823129251700682,-3.7823129251700682,-3.7823129251700682,-3.7823129251700682,-3.7823129251700682,-3.7823129251700682,0.05782312925170068,0.07142857142857142,0.07482993197278912,0.07482993197278912,0.07482993197278912,0.07482993197278912,0.07482993197278912,0.07482993197278912,0.07482993197278912,0.07482993197278912,0.07482993197278912,0.07482993197278912,0.07482993197278912,0.07482993197278912,0.07482993197278912,0.07482993197278912,0.07482993197278912,0.07482993197278912,0.07142857142857142,0.07142857142857142,0.07142857142857142,0.07142857142857142,0.07142857142857142,0.07142857142857142,0.07142857142857142,0.07482993197278912,0.08163265306122448,0.08843537414965986,0.09183673469387756,0.09523809523809523,0.09863945578231292,0.10204081632653061,0.1054421768707483,0.10884353741496598,0.10884353741496598,0.11224489795918367,0.11564625850340136,0.11904761904761904,0.11904761904761904,0.11904761904761904,0.12244897959183673,0.12585034013605442,0.1292517006802721,0.1326530612244898,0.1326530612244898,0.1326530612244898,0.1326530612244898,0.1326530612244898,0.1326530612244898,0.1326530612244898,0.1326530612244898,0.1326530612244898,0.1326530612244898,0.1326530612244898,0.1326530612244898,0.1326530612244898,0.1326530612244898,0.1326530612244898,0.1326530612244898,0.1292517006802721,0.11904761904761904,0.09863945578231292,0.07142857142857142,0.04421768707482993,0.02040816326530612,0,-0.017006802721088437,-0.017006802721088437,-0.017006802721088437,-0.017006802721088437,-0.017006802721088437,-0.017006802721088437,-0.017006802721088437,-0.017006802721088437,-0.017006802721088437,-0.017006802721088437,-0.003401360544217687,0.03741496598639456,0.09183673469387756,0.14965986394557823,0.20408163265306123,0.25510204081632654,0.29591836734693877,0.29931972789115646,0.29931972789115646,0.29931972789115646,0.29931972789115646,0.29931972789115646,0.29931972789115646,0.29931972789115646,0.29931972789115646,0.29931972789115646,0.29931972789115646,0.29931972789115646,0.2925170068027211,0.2857142857142857,0.282312925170068,0.29931972789115646,0.32653061224489793,0.35034013605442177,0.3707482993197279,0.391156462585034,0.41156462585034015,0.43537414965986393,0.46258503401360546,0.4965986394557823,0.5170068027210885,0.5238095238095238,0.5306122448979592,0.5408163265306123,0.5476190476190477,0.5476190476190477,0.5476190476190477,0.5476190476190477,0.5476190476190477,0.5476190476190477,0.5476190476190477,0.5476190476190477,0.5476190476190477,0.5476190476190477,0.5476190476190477,0.5476190476190477,0.5476190476190477,0.5476190476190477,0.5476190476190477,0.5476190476190477,0.5578231292517006,0.5816326530612245,0.608843537414966,0.6258503401360545,0.6428571428571429,0.6768707482993197,0.7040816326530612,0.7380952380952381,0.7789115646258503,0.8163265306122449,0.8469387755102041,0.8673469387755102,0.8843537414965986,0.9013605442176871,0.9149659863945578,0.9251700680272109,0.9285714285714286,0.9285714285714286,0.9285714285714286,0.9319727891156463,0.9081632653061225,0.8707482993197279,0.8197278911564626,0.7482993197278912,0.6802721088435374,0.6054421768707483,0.5408163265306123,0.5,0.47959183673469385,0.47278911564625853,0.47278911564625853,0.47278911564625853,0.47278911564625853,0.47278911564625853,0.47278911564625853,0.47619047619047616,0.48299319727891155,0.4897959183673469,0.5,0.5102040816326531,0.5238095238095238,0.5408163265306123,0.5578231292517006,0.5850340136054422,0.6122448979591837,0.6496598639455783,0.6768707482993197,0.6972789115646258,0.7108843537414966,0.7108843537414966,0.7108843537414966,0.7142857142857143,0.7142857142857143,0.7142857142857143,0.7142857142857143,0.7142857142857143,0.7074829931972789,0.7006802721088435,0.6904761904761905,0.6768707482993197,0.6666666666666666,0.6530612244897959,0.6292517006802721,0.6020408163265306,0.5714285714285714,0.5374149659863946,0.5,0.47278911564625853,0.46258503401360546,0.45918367346938777,0.45918367346938777,0.45918367346938777,0.45918367346938777,0.45918367346938777,0.45918367346938777,0.45918367346938777,0.46258503401360546,0.46258503401360546,0.46258503401360546,0.46258503401360546,0.46258503401360546,0.46258503401360546,0.46258503401360546,0.46258503401360546,0.46258503401360546,0.46258503401360546,0.46258503401360546,0.46258503401360546,0.46258503401360546,0.46598639455782315,0.47619047619047616,0.48639455782312924,0.4897959183673469,0.4965986394557823,0.5034013605442177,0.5068027210884354,0.5170068027210885,0.5272108843537415,0.5408163265306123,0.5612244897959183,0.5782312925170068,0.5918367346938775,0.6054421768707483,0.6122448979591837,0.6156462585034014,0.6190476190476191,0.6190476190476191,0.6190476190476191,0.6190476190476191,0.6190476190476191,0.6190476190476191,0.6190476190476191,0.6190476190476191,0.6190476190476191,0.6190476190476191,0.6190476190476191,0.6190476190476191,0.6190476190476191,0.6190476190476191,0.6190476190476191,0.6224489795918368,0.6224489795918368,0.6224489795918368,0.6224489795918368,0.6224489795918368,0.6258503401360545,0.6258503401360545,0.6258503401360545,0.6258503401360545,0.6258503401360545,0.6258503401360545,0.6258503401360545,0.6258503401360545,0.6258503401360545,0.6258503401360545,0.6258503401360545,0.6258503401360545,0.6326530612244898,0.6394557823129252,0.6496598639455783,0.6598639455782312,0.6700680272108843,0.6700680272108843,0.6700680272108843,0.6700680272108843,0.6700680272108843,0.6700680272108843,0.6700680272108843,0.6700680272108843,0.6700680272108843,0.673469387755102,0.6802721088435374,0.6836734693877551,0.673469387755102,0.6530612244897959,0.6326530612244898,0.6190476190476191,0.6054421768707483,0.5918367346938775,0.5850340136054422,0.5816326530612245,0.6122448979591837,0.6394557823129252,0.6394557823129252,0.6394557823129252,0.6394557823129252,0.6394557823129252,0.6394557823129252,0.6394557823129252,0.6394557823129252,0.6020408163265306,0.5544217687074829,0.5374149659863946,0.5238095238095238,0.4931972789115646,0.4489795918367347,0.3945578231292517,0.35374149659863946,0.3163265306122449,0.30612244897959184,0.29931972789115646,0.29591836734693877,0.2891156462585034,0.2619047619047619,0.23809523809523808,0.22789115646258504,0.22448979591836735,0.22448979591836735,0.22448979591836735,0.22448979591836735,0.22789115646258504,0.23129251700680273,0.23809523809523808,0.24489795918367346,0.24829931972789115,0.2585034013605442,0.2653061224489796,0.2687074829931973,0.2857142857142857,0.2857142857142857,0.2857142857142857,0.2857142857142857,0.2857142857142857,0.2857142857142857,0.2857142857142857,0.2857142857142857,0.2857142857142857,0.2789115646258503,0.2687074829931973,0.272108843537415,0.2755102040816326,0.2755102040816326,0.2755102040816326,0.2755102040816326,0.2755102040816326,0.2755102040816326,0.2755102040816326,0.2755102040816326,0.2755102040816326,0.2755102040816326,0.2755102040816326,0.2755102040816326,0.2755102040816326,0.2755102040816326,0.2755102040816326,0.2755102040816326,0.2755102040816326,0.2755102040816326,0.2755102040816326,0.2755102040816326,0.2755102040816326,0.2755102040816326,0.2755102040816326,0.2755102040816326,0.2755102040816326,0.2755102040816326,0.2755102040816326,0.2755102040816326,0.2755102040816326,0.2755102040816326,0.2789115646258503,0.282312925170068,0.2857142857142857,0.2891156462585034,0.2925170068027211,0.29931972789115646,0.30272108843537415,0.30612244897959184,0.30952380952380953,0.30952380952380953,0.3129251700680272,0.3129251700680272,0.3129251700680272,0.3129251700680272,0.3129251700680272,0.3129251700680272,0.3129251700680272,0.3197278911564626,0.3231292517006803,0.3299319727891156,0.3333333333333333,0.3401360544217687,0.3469387755102041,0.35374149659863946,0.35714285714285715,0.35714285714285715,0.36054421768707484,0.36394557823129253,0.3673469387755102,0.3707482993197279,0.3707482993197279,0.3707482993197279,0.3707482993197279,0.3707482993197279,0.3707482993197279,0.3707482993197279,0.3707482993197279,0.3707482993197279,0.3707482993197279,0.3707482993197279,0.3707482993197279,0.3707482993197279,0.3707482993197279,0.3707482993197279,0.3707482993197279,0.3707482993197279,0.3707482993197279,0.3707482993197279,0.3707482993197279,0.3707482993197279,0.3707482993197279,0.3707482993197279,0.3707482993197279,0.3707482993197279,0.3707482993197279,0.3707482993197279,0.3707482993197279,0.3707482993197279,0.3707482993197279,0.3707482993197279,0.3707482993197279,0.3707482993197279,0.3707482993197279,0.3707482993197279,0.3707482993197279,0.3707482993197279,0.3707482993197279,0.3707482993197279,0.3707482993197279,0.3707482993197279,0.3707482993197279,0.3707482993197279,0.3707482993197279,0.3707482993197279,0.3707482993197279,0.3707482993197279,0.3707482993197279,0.3707482993197279,0.3741496598639456,0.3741496598639456,0.3741496598639456,0.3741496598639456,0.3741496598639456,0.3741496598639456,0.3741496598639456,0.3741496598639456,0.37755102040816324,0.37755102040816324,0.37755102040816324,0.37755102040816324,0.37755102040816324,0.37755102040816324,0.37755102040816324,0.37755102040816324,0.37755102040816324,0.37755102040816324,0.37755102040816324,0.37755102040816324,0.37755102040816324,0.37755102040816324,0.37755102040816324,0.37755102040816324,0.37755102040816324,0.38095238095238093,0.38095238095238093,0.38095238095238093,0.38095238095238093,0.38095238095238093,0.38095238095238093,0.3843537414965986,0.3843537414965986,0.3877551020408163,0.391156462585034,0.3945578231292517,0.4013605442176871,0.4013605442176871,0.40476190476190477,0.40476190476190477,0.40476190476190477,0.40476190476190477,0.40476190476190477,0.40476190476190477,0.40816326530612246,0.41156462585034015,0.41156462585034015,0.41496598639455784,0.41496598639455784,0.41836734693877553,0.41836734693877553,0.41836734693877553,0.4217687074829932,0.4217687074829932,0.4217687074829932,0.4217687074829932,0.4217687074829932,0.4217687074829932,0.4217687074829932,0.42517006802721086,0.42857142857142855,0.43197278911564624,0.43537414965986393,0.43537414965986393,0.43537414965986393,0.43537414965986393,0.43537414965986393,0.43537414965986393,0.43537414965986393,0.43537414965986393,0.43537414965986393,0.43537414965986393,0.43537414965986393,0.43537414965986393,0.43537414965986393,0.43537414965986393,0.43537414965986393,0.43537414965986393,0.43537414965986393,0.4387755102040816,0.4387755102040816,0.4387755102040816,0.4387755102040816,0.4387755102040816,0.43197278911564624,0.40476190476190477,0.3707482993197279,0.3401360544217687,0.30952380952380953,0.272108843537415,0.23809523809523808,0.22448979591836735,0.22108843537414966,0.22108843537414966,0.22108843537414966,0.22108843537414966,0.22108843537414966,0.23129251700680273,0.24489795918367346,0.2687074829931973,0.2891156462585034,0.30612244897959184,0.3333333333333333,0.35034013605442177,0.36394557823129253,0.3741496598639456,0.3877551020408163,0.3979591836734694,0.40476190476190477,0.40816326530612246,0.41156462585034015,0.41156462585034015,0.41156462585034015,0.41156462585034015,0.41836734693877553,0.42857142857142855,0.445578231292517,0.46598639455782315,0.4897959183673469,0.5034013605442177,0.5102040816326531,0.5102040816326531,0.5136054421768708,0.5136054421768708,0.5204081632653061,0.5238095238095238,0.5272108843537415,0.5272108843537415,0.5272108843537415,0.5272108843537415,0.5272108843537415,0.5272108843537415,0.5340136054421769,0.5510204081632653,0.5680272108843537,0.5884353741496599,0.6122448979591837,0.6360544217687075,0.6564625850340136,0.6666666666666666,0.673469387755102,0.6836734693877551,0.6904761904761905,0.7006802721088435,0.7142857142857143,0.717687074829932,0.717687074829932,0.717687074829932,0.717687074829932,0.717687074829932,0.717687074829932,0.717687074829932,0.717687074829932,0.717687074829932,0.717687074829932,0.717687074829932,0.717687074829932,0.717687074829932,0.717687074829932,0.7210884353741497,0.7244897959183674,0.7278911564625851,0.7346938775510204,0.7414965986394558,0.7448979591836735,0.7551020408163265,0.7653061224489796,0.7755102040816326,0.7857142857142857,0.7993197278911565,0.8129251700680272,0.826530612244898,0.8367346938775511,0.8435374149659864,0.8503401360544217,0.8571428571428571,0.8639455782312925,0.8741496598639455,0.8843537414965986,0.8877551020408163,0.8877551020408163,0.8877551020408163,0.8877551020408163,0.8877551020408163,0.8877551020408163,0.8877551020408163,0.8877551020408163,0.891156462585034,0.891156462585034,0.8673469387755102,0.8163265306122449,0.7380952380952381,0.6190476190476191,0.5034013605442177,0.4013605442176871,0.30952380952380953,0.24829931972789115,0.22789115646258504,0.22789115646258504,0.22789115646258504,0.22789115646258504,0.23129251700680273,0.23469387755102042,0.24489795918367346,0.2585034013605442,0.2755102040816326,0.2925170068027211,0.30952380952380953,0.336734693877551,0.35714285714285715,0.37755102040816324,0.391156462585034,0.3979591836734694,0.40476190476190477,0.41156462585034015,0.41496598639455784,0.41836734693877553,0.41836734693877553,0.41836734693877553,0.41836734693877553,0.41836734693877553,0.41836734693877553,0.41836734693877553,0.41836734693877553,0.41836734693877553,0.41836734693877553,0.41836734693877553,0.41836734693877553,0.41836734693877553,0.41836734693877553,0.41836734693877553,0.41836734693877553,0.41836734693877553,0.41836734693877553,0.41836734693877553,0.41836734693877553,0.41836734693877553,0.4217687074829932,0.42857142857142855,0.43537414965986393,0.4489795918367347,0.46258503401360546,0.47959183673469385,0.4965986394557823,0.5170068027210885,0.5272108843537415,0.5340136054421769,0.5476190476190477,0.5578231292517006,0.564625850340136,0.5714285714285714,0.5714285714285714,0.5714285714285714,0.5714285714285714,0.5680272108843537,0.5680272108843537,0.5680272108843537,0.5680272108843537,0.5680272108843537,0.5748299319727891,0.5816326530612245,0.5952380952380952,0.6054421768707483,0.6190476190476191,0.6258503401360545,0.6394557823129252,0.6496598639455783,0.6564625850340136,0.6632653061224489,0.673469387755102,0.6836734693877551,0.6904761904761905,0.6972789115646258,0.7040816326530612,0.7040816326530612,0.7040816326530612,0.7040816326530612,0.7040816326530612,0.7040816326530612,0.7040816326530612,0.7040816326530612,0.7040816326530612,0.7040816326530612,0.7040816326530612,0.7040816326530612,0.7040816326530612,0.7108843537414966,0.7142857142857143,0.7210884353741497,0.7278911564625851,0.7346938775510204,0.7517006802721088,0.7687074829931972,0.7925170068027211,0.8197278911564626,0.8469387755102041,0.8673469387755102,0.8809523809523809,0.8877551020408163,0.891156462585034,0.8945578231292517,0.9013605442176871,0.9081632653061225,0.9115646258503401,0.9149659863945578,0.9183673469387755,0.9183673469387755,0.9183673469387755,0.9183673469387755,0.9183673469387755,0.9183673469387755,0.9183673469387755,0.9149659863945578,0.891156462585034,0.8435374149659864,0.782312925170068,0.7210884353741497,0.6632653061224489,0.6224489795918368,0.5952380952380952,0.5714285714285714,0.5476190476190477,0.5306122448979592,0.5136054421768708,0.4965986394557823,0.47619047619047616,0.45918367346938777,0.445578231292517,0.4387755102040816,0.42857142857142855,0.41836734693877553,0.4013605442176871,0.3741496598639456,0.35714285714285715,0.35034013605442177,0.3401360544217687,0.3333333333333333,0.3299319727891156,0.3299319727891156,0.3299319727891156,0.3299319727891156,0.3299319727891156,0.3299319727891156,0.3299319727891156,0.32653061224489793,0.3231292517006803,0.3231292517006803,0.3197278911564626,0.3197278911564626,0.3129251700680272,0.30612244897959184,0.2925170068027211,0.282312925170068,0.2755102040816326,0.2755102040816326,0.2755102040816326,0.2755102040816326,0.2755102040816326,0.2755102040816326,0.2755102040816326,0.2755102040816326,0.2755102040816326,0.2755102040816326,0.2755102040816326,0.2755102040816326,0.2755102040816326,0.2755102040816326,0.2687074829931973,0.25170068027210885,0.23469387755102042,0.21768707482993196,0.2108843537414966,0.20748299319727892,0.20748299319727892,0.20748299319727892,0.20748299319727892,0.20748299319727892,0.20748299319727892,0.20748299319727892,0.20748299319727892,0.2108843537414966,0.21428571428571427,0.21768707482993196,0.22108843537414966,0.22448979591836735,0.22448979591836735,0.22448979591836735,0.22448979591836735,0.22448979591836735,0.22789115646258504,0.22789115646258504,0.23129251700680273,0.23469387755102042,0.23809523809523808,0.23809523809523808,0.23809523809523808,0.23809523809523808,0.24149659863945577,0.24149659863945577,0.24149659863945577,0.24149659863945577,0.24489795918367346,0.24489795918367346,0.24489795918367346,0.24829931972789115,0.25170068027210885,0.2585034013605442,0.2653061224489796,0.2755102040816326,0.2891156462585034,0.30612244897959184,0.3231292517006803,0.3401360544217687,0.36054421768707484,0.38095238095238093,0.41156462585034015,0.4387755102040816,0.45918367346938777,0.47959183673469385,0.5034013605442177,0.5272108843537415,0.5476190476190477,0.5714285714285714,0.5918367346938775,0.608843537414966,0.6190476190476191,0.6292517006802721,0.6360544217687075,0.6394557823129252,0.6360544217687075,0.6190476190476191,0.5986394557823129,0.5748299319727891,0.5510204081632653,0.5306122448979592,0.5136054421768708,0.5102040816326531,0.5170068027210885,0.5340136054421769,0.5340136054421769,0.5340136054421769,0.5340136054421769,0.5340136054421769,0.5340136054421769,0.5340136054421769,0.5340136054421769,0.5340136054421769,0.5340136054421769,0.5340136054421769,0.5306122448979592,0.5102040816326531,0.48299319727891155,0.46598639455782315,0.4489795918367347,0.43197278911564624,0.40816326530612246,0.37755102040816324,0.3469387755102041,0.3299319727891156,0.32653061224489793,0.32653061224489793,0.32653061224489793,0.32653061224489793,0.32653061224489793,0.32653061224489793,0.32653061224489793,0.32653061224489793,0.32653061224489793,0.32653061224489793,0.32653061224489793,0.32653061224489793,0.32653061224489793,0.32653061224489793,0.3299319727891156,0.3299319727891156,0.3299319727891156,0.3333333333333333,0.3401360544217687,0.3469387755102041,0.35714285714285715,0.3673469387755102,0.38095238095238093,0.38095238095238093,0.38095238095238093,0.38095238095238093,0.38095238095238093,0.38095238095238093,0.38095238095238093,0.38095238095238093,0.3843537414965986,0.3877551020408163,0.391156462585034,0.3945578231292517,0.4013605442176871,0.41156462585034015,0.41836734693877553,0.42857142857142855,0.4387755102040816,0.45918367346938777,0.47959183673469385,0.5034013605442177,0.5272108843537415,0.5714285714285714,0.6122448979591837,0.6768707482993197,0.7278911564625851,0.7755102040816326,0.8129251700680272,0.8401360544217688,0.8605442176870748,0.8673469387755102,0.8673469387755102,0.8673469387755102,0.8673469387755102,0.8673469387755102,0.8707482993197279,0.8707482993197279,0.8741496598639455,0.8809523809523809,0.8945578231292517,0.9047619047619048,0.9081632653061225,0.9115646258503401,0.9115646258503401,0.9115646258503401,0.9183673469387755,0.9285714285714286,0.9387755102040817,0.9523809523809523,0.9659863945578231,0.9829931972789115,1,1.0170068027210883,1.0238095238095237,1.034013605442177,1.0408163265306123,1.0442176870748299,1.0442176870748299,1.0442176870748299,1.0442176870748299,1.0374149659863945,1.0272108843537415,1.0170068027210883,1.010204081632653,1.0034013605442176,0.9965986394557823,0.9931972789115646,0.9863945578231292,0.9829931972789115,0.9829931972789115,0.9795918367346939,0.9761904761904762,0.9727891156462585,0.9693877551020408,0.9659863945578231,0.9625850340136054,0.9625850340136054,0.9591836734693877,0.9591836734693877,0.95578231292517,0.95578231292517,0.95578231292517,0.9523809523809523,0.9489795918367347,0.9455782312925171,0.9455782312925171,0.9455782312925171,0.9455782312925171,0.9421768707482994,0.9421768707482994,0.9421768707482994,0.9421768707482994,0.9421768707482994,0.9421768707482994,0.9421768707482994,0.9421768707482994,0.9421768707482994,0.9421768707482994,0.9421768707482994,0.9421768707482994,0.9421768707482994,0.9421768707482994,0.9421768707482994,0.9421768707482994,0.9421768707482994,0.9421768707482994,0.9421768707482994,0.9421768707482994,0.9421768707482994,0.9319727891156463,0.9149659863945578,0.891156462585034,0.8639455782312925,0.8333333333333334,0.8095238095238095,0.7925170068027211,0.7789115646258503,0.7721088435374149,0.7653061224489796,0.7619047619047619,0.7585034013605442,0.7585034013605442,0.7585034013605442,0.7585034013605442,0.7585034013605442,0.7585034013605442,0.7585034013605442,0.7551020408163265,0.7551020408163265,0.7551020408163265,0.7551020408163265,0.7517006802721088,0.7517006802721088,0.7517006802721088,0.7482993197278912,0.7482993197278912,0.7448979591836735,0.7414965986394558,0.7380952380952381,0.7346938775510204,0.7346938775510204,0.7346938775510204,0.7346938775510204,0.7312925170068028,0.7244897959183674,0.7210884353741497,0.7210884353741497,0.7210884353741497,0.717687074829932,0.717687074829932,0.7142857142857143,0.7142857142857143,0.7142857142857143,0.7142857142857143,0.7142857142857143,0.7142857142857143,0.717687074829932,0.717687074829932,0.717687074829932,0.717687074829932,0.717687074829932,0.717687074829932,0.717687074829932,0.717687074829932,0.717687074829932,0.717687074829932,0.717687074829932,0.717687074829932,0.717687074829932,0.717687074829932,0.717687074829932,0.717687074829932,0.717687074829932,0.717687074829932,0.717687074829932,0.717687074829932,0.717687074829932,0.717687074829932,0.717687074829932,0.717687074829932,0.717687074829932,0.717687074829932,0.717687074829932,0.717687074829932,0.717687074829932,0.717687074829932,0.717687074829932,0.717687074829932,0.717687074829932,0.717687074829932,0.717687074829932,0.717687074829932,0.717687074829932,0.717687074829932,0.717687074829932,0.717687074829932,0.717687074829932,0.717687074829932,0.717687074829932,0.717687074829932,0.717687074829932,0.717687074829932,0.717687074829932,0.717687074829932,0.717687074829932,0.717687074829932,0.717687074829932,0.717687074829932,0.717687074829932,0.717687074829932,0.717687074829932,0.717687074829932,0.717687074829932,0.717687074829932,0.717687074829932,0.717687074829932,0.717687074829932,0.717687074829932,0.717687074829932,0.717687074829932,0.717687074829932,0.7108843537414966,0.7006802721088435,0.6870748299319728,0.6700680272108843,0.6530612244897959,0.6292517006802721,0.6054421768707483,0.5748299319727891,0.5510204081632653,0.5238095238095238,0.5,0.47619047619047616,0.4489795918367347,0.42857142857142855,0.4217687074829932,0.42517006802721086,0.43197278911564624,0.43197278911564624,0.43197278911564624,0.43197278911564624,0.43197278911564624,0.43197278911564624,0.43197278911564624,0.43197278911564624,0.43197278911564624,0.43197278911564624,0.43197278911564624,0.43197278911564624,0.43197278911564624,0.43197278911564624,0.43197278911564624,0.43197278911564624,0.43197278911564624,0.43197278911564624,0.43197278911564624,0.42857142857142855,0.4013605442176871,0.3707482993197279,0.336734693877551,0.3129251700680272,0.30272108843537415,0.2925170068027211,0.2857142857142857,0.2789115646258503,0.2755102040816326,0.272108843537415,0.2619047619047619,0.25510204081632654,0.24829931972789115,0.24829931972789115,0.24829931972789115,0.24829931972789115,0.24149659863945577,0.22448979591836735,0.2108843537414966,0.19387755102040816,0.18027210884353742,0.17006802721088435,0.16666666666666666,0.16666666666666666,0.16666666666666666,0.16666666666666666,0.16666666666666666,0.16666666666666666,0.16666666666666666,0.16666666666666666,0.16666666666666666,0.16666666666666666,0.16666666666666666,0.16666666666666666,0.16666666666666666,0.16666666666666666,0.16666666666666666,0.16666666666666666,0.16666666666666666,0.16666666666666666,0.16666666666666666,0.16666666666666666,0.16666666666666666,0.16666666666666666,0.16666666666666666,0.16666666666666666,0.16666666666666666,0.16666666666666666,0.16666666666666666,0.16666666666666666,0.16666666666666666,0.16666666666666666,0.17346938775510204,0.17687074829931973,0.18027210884353742,0.1870748299319728,0.19047619047619047,0.20068027210884354,0.20748299319727892,0.21428571428571427,0.21768707482993196,0.22108843537414966,0.22448979591836735,0.22789115646258504,0.23129251700680273,0.23469387755102042,0.23809523809523808,0.24149659863945577,0.24149659863945577,0.24149659863945577,0.24489795918367346,0.24489795918367346,0.24829931972789115,0.24829931972789115,0.24829931972789115,0.25170068027210885,0.25170068027210885,0.25510204081632654,0.25510204081632654,0.25510204081632654,0.25510204081632654,0.25510204081632654,0.25510204081632654,0.25510204081632654,0.25510204081632654,0.25510204081632654,0.25510204081632654,0.25510204081632654,0.25510204081632654,0.25510204081632654,0.25510204081632654,0.25510204081632654,0.25510204081632654,0.25510204081632654,0.25510204081632654,0.25510204081632654,0.2585034013605442,0.2585034013605442,0.2585034013605442,0.2585034013605442,0.2585034013605442,0.2585034013605442,0.2585034013605442,0.2585034013605442,0.2585034013605442,0.2585034013605442,0.2585034013605442,0.2585034013605442,0.2585034013605442,0.2585034013605442,0.2585034013605442,0.2585034013605442,0.2585034013605442,0.2585034013605442,0.2585034013605442,0.2585034013605442,0.2585034013605442,0.2585034013605442,0.2585034013605442,0.2585034013605442,0.2585034013605442,0.25170068027210885,0.24829931972789115,0.24489795918367346,0.23469387755102042,0.22108843537414966,0.20408163265306123,0.1836734693877551,0.1598639455782313,0.1326530612244898,0.09863945578231292,0.07142857142857142,0.030612244897959183,-0.003401360544217687,-0.027210884353741496,-0.047619047619047616,-0.05782312925170068,-0.061224489795918366,-0.061224489795918366,-0.061224489795918366,-0.061224489795918366,-0.061224489795918366,-0.061224489795918366,-0.061224489795918366,-0.061224489795918366,-0.061224489795918366,-0.061224489795918366,-0.061224489795918366,-0.061224489795918366,-0.061224489795918366,-0.061224489795918366,-0.061224489795918366,-0.061224489795918366,-0.061224489795918366,-0.061224489795918366,-0.061224489795918366,-0.061224489795918366,-0.061224489795918366,-0.061224489795918366,-0.061224489795918366,-0.061224489795918366,-0.061224489795918366,-0.061224489795918366,-0.061224489795918366,-0.061224489795918366,-0.05782312925170068,-0.05782312925170068,-0.05442176870748299,-0.05102040816326531,-0.047619047619047616,-0.04421768707482993,-0.03741496598639456,-0.034013605442176874,-0.027210884353741496,-0.02040816326530612,-0.013605442176870748,-0.01020408163265306,-0.006802721088435374,-0.003401360544217687,0,0.003401360544217687,0.003401360544217687,0.006802721088435374,0.01020408163265306,0.01020408163265306,0.017006802721088437,0.017006802721088437,0.02040816326530612,0.02040816326530612,0.02040816326530612,0.023809523809523808,0.023809523809523808,0.023809523809523808,0.023809523809523808,0.023809523809523808,0.023809523809523808,0.023809523809523808,0.023809523809523808,0.023809523809523808,0.023809523809523808,0.023809523809523808,0.023809523809523808,0.023809523809523808,0.023809523809523808,0.023809523809523808,0.023809523809523808,0.023809523809523808,0.023809523809523808,0.023809523809523808,0.027210884353741496,0.027210884353741496,0.027210884353741496,0.027210884353741496,0.027210884353741496,0.027210884353741496,0.027210884353741496,0.027210884353741496,0.027210884353741496,0.027210884353741496,0.027210884353741496,0.027210884353741496,0.027210884353741496,0.027210884353741496,0.023809523809523808,0.023809523809523808,0.017006802721088437,0.013605442176870748,0.01020408163265306,0.01020408163265306,0.006802721088435374,0.003401360544217687,0.003401360544217687,0.003401360544217687,0.003401360544217687,0.003401360544217687,0.003401360544217687,0.003401360544217687,0.003401360544217687,0.003401360544217687,0.003401360544217687,0.003401360544217687,0.003401360544217687,0.003401360544217687,0.003401360544217687,0.003401360544217687,0.003401360544217687,0.003401360544217687,0.003401360544217687,0.003401360544217687,0.003401360544217687,0.003401360544217687,0.003401360544217687,0.003401360544217687,0.003401360544217687,0.003401360544217687,0.003401360544217687,0.003401360544217687,0.003401360544217687,0.003401360544217687,0.003401360544217687,0.003401360544217687,0.003401360544217687,0.003401360544217687,0.003401360544217687,0.003401360544217687,0.003401360544217687,0.003401360544217687,0.003401360544217687,0.003401360544217687,0.003401360544217687,0.003401360544217687,0.003401360544217687,0.003401360544217687,0.003401360544217687,0.003401360544217687,0.003401360544217687,0.003401360544217687,0.003401360544217687,0.003401360544217687,0.003401360544217687,0.003401360544217687,0.003401360544217687,0.003401360544217687,0.003401360544217687,0.003401360544217687,0.006802721088435374,0.02040816326530612,0.04421768707482993,0.08503401360544217,0.14625850340136054,0.24829931972789115,0.37755102040816324,0.4965986394557823,0.6224489795918368,0.7244897959183674,0.8163265306122449,0.8945578231292517,0.9727891156462585,1.0272108843537415,1.0612244897959184,1.0680272108843538,1.0680272108843538,1.0680272108843538,1.0680272108843538,1.0680272108843538,1.0680272108843538,1.0680272108843538,1.0680272108843538,1.0680272108843538,1.0680272108843538,1.0680272108843538,1.0680272108843538,1.0680272108843538,1.0578231292517006,1.0442176870748299,1.034013605442177,1.0272108843537415,1.0204081632653061,1.0204081632653061,1.0170068027210883,1.010204081632653,1.0068027210884354,1.0068027210884354,1.0034013605442176,1.0034013605442176,1.0034013605442176,1.0034013605442176,1.0034013605442176,1.0034013605442176,1.0034013605442176,1.0034013605442176,1.0034013605442176,1.0034013605442176,1.0034013605442176,1.0034013605442176,1.0034013605442176,1.0034013605442176,1.0034013605442176,1.0034013605442176,1.0034013605442176,1.0034013605442176,1.0034013605442176,1.0034013605442176,1.0034013605442176,1.0034013605442176,1.0034013605442176,1.0034013605442176,1.0034013605442176,1.0034013605442176,1.0034013605442176,1.0034013605442176,1.0034013605442176,1.0034013605442176,1.0034013605442176,1.0034013605442176,1.0034013605442176,1.0034013605442176,1.0034013605442176,1.0034013605442176,1.0034013605442176,1.0034013605442176,1.0034013605442176,1.0034013605442176,1.0034013605442176,1.0034013605442176,1.0034013605442176,1.0034013605442176,1.0034013605442176,1.0034013605442176,1.0034013605442176,1.0034013605442176,1.0034013605442176,1.0034013605442176,1.0034013605442176,1.0034013605442176,1.0034013605442176,1.0034013605442176,1.0034013605442176,1.0034013605442176,1.0034013605442176,1.0034013605442176,1.0034013605442176,1.0034013605442176,1.0034013605442176,1.0034013605442176,1.0034013605442176,1.0034013605442176,1.0034013605442176,1.0034013605442176,1.0034013605442176,0.9965986394557823,0.9829931972789115,0.9591836734693877,0.9319727891156463,0.9013605442176871,0.8673469387755102,0.826530612244898,0.7857142857142857,0.7482993197278912,0.7040816326530612,0.673469387755102,0.6462585034013606,0.6360544217687075,0.6360544217687075,0.6360544217687075,0.6360544217687075,0.6360544217687075,0.6360544217687075,0.6360544217687075,0.6360544217687075,0.6360544217687075,0.6360544217687075,0.6360544217687075,0.6360544217687075,0.6360544217687075,0.6360544217687075,0.6360544217687075,0.6360544217687075,0.6360544217687075,0.6360544217687075,0.6360544217687075,0.6360544217687075,0.6360544217687075,0.6360544217687075,0.6360544217687075,0.6360544217687075,0.6360544217687075,0.6360544217687075,0.6360544217687075,0.6326530612244898,0.6224489795918368,0.608843537414966,0.5986394557823129,0.5952380952380952,0.5952380952380952,0.5952380952380952,0.5952380952380952,0.5952380952380952,0.5952380952380952,0.5952380952380952,0.5952380952380952,0.5952380952380952,0.5952380952380952,0.5952380952380952,0.5952380952380952,0.5680272108843537,0.5306122448979592,0.47619047619047616,0.41496598639455784,0.3469387755102041,0.282312925170068,0.22448979591836735,0.1836734693877551,0.1598639455782313,0.14285714285714285,0.1360544217687075,0.1326530612244898,0.1326530612244898,0.1326530612244898,0.12244897959183673,0.11224489795918367,0.10884353741496598,0.1054421768707483,0.1054421768707483,0.1054421768707483,0.1054421768707483,0.1054421768707483,0.09523809523809523,0.08503401360544217,0.07482993197278912,0.05102040816326531,0.027210884353741496,0.017006802721088437,0.017006802721088437,0.017006802721088437,0.017006802721088437,0.017006802721088437,0.017006802721088437,0.017006802721088437,0.017006802721088437,0.017006802721088437,0.017006802721088437,0.02040816326530612,0.03741496598639456,0.061224489795918366,0.09523809523809523,0.12585034013605442,0.16326530612244897,0.20068027210884354,0.23469387755102042,0.25510204081632654,0.2687074829931973,0.2755102040816326,0.2755102040816326,0.2755102040816326,0.2755102040816326,0.2755102040816326,0.2755102040816326,0.2755102040816326,0.2755102040816326,0.2755102040816326,0.2755102040816326,0.2755102040816326,0.2755102040816326,0.2755102040816326,0.2755102040816326,0.2755102040816326,0.2755102040816326,0.2755102040816326,0.2755102040816326,0.2755102040816326,0.2755102040816326,0.2755102040816326,0.2755102040816326,0.2755102040816326,0.2755102040816326,0.2755102040816326,0.2755102040816326,0.2755102040816326,0.2789115646258503,0.2789115646258503,0.2789115646258503,0.282312925170068,0.2857142857142857,0.2925170068027211,0.30612244897959184,0.336734693877551,0.3741496598639456,0.4217687074829932,0.47959183673469385,0.5918367346938775,0.6666666666666666,0.7551020408163265,0.8469387755102041,0.9115646258503401,0.9693877551020408,0.9897959183673469,0.9931972789115646,0.9931972789115646,0.9965986394557823,1.0034013605442176,1.0272108843537415,1.0714285714285714,1.0748299319727892,1.0748299319727892,1.0748299319727892,1.0748299319727892,1.0748299319727892,1.0748299319727892,1.0748299319727892,1.0748299319727892,1.0748299319727892,1.0578231292517006,1.0204081632653061,0.9727891156462585,0.9421768707482994,0.9115646258503401,0.8673469387755102,0.8095238095238095,0.7517006802721088,0.6802721088435374,0.6258503401360545,0.5816326530612245,0.54421768707483,0.5204081632653061,0.5102040816326531,0.5102040816326531,0.5102040816326531,0.5102040816326531,0.5102040816326531,0.5102040816326531,0.5102040816326531,0.5102040816326531,0.5102040816326531,0.5102040816326531,0.5102040816326531,0.5102040816326531,0.5102040816326531,0.5102040816326531,0.5102040816326531,0.5102040816326531,0.5136054421768708,0.5136054421768708,0.5170068027210885,0.5170068027210885,0.5170068027210885,0.5170068027210885,0.5170068027210885,0.5170068027210885,0.5170068027210885,0.5170068027210885,0.5204081632653061,0.5204081632653061,0.5238095238095238,0.5238095238095238,0.5238095238095238,0.5238095238095238,0.5238095238095238,0.5238095238095238,0.5238095238095238,0.5272108843537415,0.5272108843537415,0.5272108843537415,0.5374149659863946,0.5476190476190477,0.5578231292517006,0.564625850340136,0.5748299319727891,0.5816326530612245,0.5884353741496599,0.5918367346938775,0.5952380952380952,0.5986394557823129,0.6020408163265306,0.6054421768707483,0.6122448979591837,0.6190476190476191,0.6258503401360545,0.6360544217687075,0.6530612244897959,0.673469387755102,0.6972789115646258,0.7244897959183674,0.7448979591836735,0.7653061224489796,0.782312925170068,0.7959183673469388,0.8129251700680272,0.8401360544217688,0.8707482993197279,0.8945578231292517,0.9115646258503401,0.9319727891156463,0.9489795918367347,0.9659863945578231,0.9897959183673469,1.0272108843537415,1.0714285714285714,1.08843537414966,1.1088435374149659,1.119047619047619,1.1224489795918366,1.1224489795918366,1.1224489795918366,1.1224489795918366,1.1224489795918366,1.119047619047619,1.1122448979591837,1.1088435374149659,1.1088435374149659,1.1088435374149659,1.1088435374149659,1.1088435374149659,1.1088435374149659,1.1088435374149659,1.1088435374149659,1.1088435374149659,1.1088435374149659,1.1088435374149659,1.1088435374149659,1.1088435374149659,1.1088435374149659,1.1088435374149659,1.1088435374149659,1.1088435374149659,1.1088435374149659,1.1088435374149659,1.1088435374149659,1.1054421768707483,1.0952380952380953,1.0850340136054422,1.0782312925170068,1.0680272108843538,1.0612244897959184,1.0510204081632653,1.0476190476190477,1.0408163265306123,1.0408163265306123,1.0374149659863945,1.0374149659863945,1.034013605442177,1.034013605442177,1.034013605442177,1.034013605442177,1.034013605442177,1.030612244897959,1.030612244897959,1.0272108843537415,1.0238095238095237,1.0170068027210883,1.010204081632653,1.0034013605442176,1,1,1,0.9965986394557823,0.9897959183673469,0.9829931972789115,0.9761904761904762,0.9693877551020408,0.9591836734693877,0.9455782312925171,0.9285714285714286,0.9115646258503401,0.8945578231292517,0.8639455782312925,0.826530612244898,0.7959183673469388,0.7687074829931972,0.7517006802721088,0.7448979591836735,0.7448979591836735,0.7448979591836735,0.7448979591836735,0.7448979591836735,0.7448979591836735,0.7448979591836735,0.7448979591836735,0.7448979591836735,0.7448979591836735,0.7448979591836735,0.7448979591836735,0.7448979591836735,0.7448979591836735,0.7448979591836735,0.7448979591836735,0.7448979591836735,0.7448979591836735,0.7448979591836735,0.7448979591836735,0.7448979591836735,0.7448979591836735,0.7448979591836735,0.7448979591836735,0.7448979591836735,0.7448979591836735,0.7448979591836735,0.7448979591836735,0.7448979591836735,0.7448979591836735,0.7448979591836735,0.7448979591836735,0.7448979591836735,0.7346938775510204,0.7244897959183674,0.717687074829932,0.7108843537414966,0.7006802721088435,0.6870748299319728,0.6700680272108843,0.6564625850340136,0.6394557823129252,0.6292517006802721,0.6224489795918368,0.6156462585034014,0.608843537414966,0.6054421768707483,0.6054421768707483,0.6054421768707483,0.6054421768707483,0.6054421768707483,0.6054421768707483,0.6054421768707483,0.6054421768707483,0.5952380952380952,0.5782312925170068,0.5578231292517006,0.5340136054421769,0.5102040816326531,0.4931972789115646,0.47278911564625853,0.46258503401360546,0.4489795918367347,0.4421768707482993,0.4387755102040816,0.43197278911564624,0.42517006802721086,0.4217687074829932,0.4217687074829932,0.41836734693877553,0.41836734693877553,0.41836734693877553,0.41836734693877553,0.41836734693877553,0.41836734693877553,0.41836734693877553,0.41836734693877553,0.41836734693877553,0.41836734693877553,0.41836734693877553,0.41836734693877553,0.41496598639455784,0.40476190476190477,0.3979591836734694,0.3843537414965986,0.37755102040816324,0.37755102040816324,0.3707482993197279,0.35714285714285715,0.3401360544217687,0.32653061224489793,0.3129251700680272,0.2925170068027211,0.282312925170068,0.2755102040816326,0.2687074829931973,0.2619047619047619,0.2585034013605442,0.25510204081632654,0.25170068027210885,0.25170068027210885,0.25170068027210885,0.25170068027210885,0.25170068027210885,0.25170068027210885,0.25170068027210885,0.25170068027210885,0.25170068027210885,0.25170068027210885,0.25170068027210885,0.25170068027210885,0.25170068027210885,0.24829931972789115,0.23809523809523808,0.23129251700680273,0.23129251700680273,0.23129251700680273,0.23129251700680273,0.23129251700680273,0.23129251700680273,0.23129251700680273,0.23129251700680273,0.23129251700680273,0.23129251700680273,0.23129251700680273,0.23129251700680273,0.23129251700680273,0.23129251700680273,0.23129251700680273,0.23129251700680273,0.23129251700680273,0.23129251700680273,0.23129251700680273,0.23129251700680273,0.23129251700680273,0.23129251700680273,0.23129251700680273,0.23129251700680273,0.23129251700680273,0.23129251700680273,0.23129251700680273,0.23129251700680273,0.22789115646258504,0.21768707482993196,0.2108843537414966,0.20748299319727892,0.20748299319727892,0.20748299319727892,0.20408163265306123,0.20408163265306123,0.20408163265306123,0.20408163265306123,0.20408163265306123,0.20408163265306123,0.20408163265306123,0.20408163265306123,0.20068027210884354,0.19727891156462585,0.19387755102040816,0.19387755102040816,0.19387755102040816,0.19047619047619047,0.17687074829931973,0.1564625850340136,0.1326530612244898,0.11224489795918367,0.09523809523809523,0.08163265306122448,0.07482993197278912,0.07142857142857142,0.06802721088435375,0.06802721088435375,0.06462585034013606,0.061224489795918366,0.05782312925170068,0.05782312925170068,0.05442176870748299,0.05102040816326531,0.04421768707482993,0.023809523809523808,-0.003401360544217687,-0.02040816326530612,-0.023809523809523808,-0.027210884353741496,-0.027210884353741496,-0.027210884353741496,-0.027210884353741496,-0.027210884353741496,-0.027210884353741496,-0.027210884353741496,-0.027210884353741496,-0.027210884353741496,-0.027210884353741496,-0.027210884353741496,-0.027210884353741496,-0.027210884353741496,-0.027210884353741496,-0.027210884353741496,-0.027210884353741496,-0.023809523809523808,-0.023809523809523808,-0.02040816326530612,-0.017006802721088437,-0.013605442176870748,-0.003401360544217687,0.006802721088435374,0.02040816326530612,0.034013605442176874,0.047619047619047616,0.05782312925170068,0.06462585034013606,0.07482993197278912,0.08503401360544217,0.09863945578231292,0.11564625850340136,0.14285714285714285,0.16326530612244897,0.17346938775510204,0.18027210884353742,0.19047619047619047,0.19727891156462585,0.20408163265306123,0.20748299319727892,0.2108843537414966,0.21768707482993196,0.22448979591836735,0.23469387755102042,0.24149659863945577,0.25170068027210885,0.2619047619047619,0.2687074829931973,0.2755102040816326,0.2789115646258503,0.2789115646258503,0.282312925170068,0.2891156462585034,0.2925170068027211,0.2925170068027211,0.29591836734693877,0.29591836734693877,0.29931972789115646,0.30272108843537415,0.30612244897959184,0.30612244897959184,0.30612244897959184,0.30612244897959184,0.30612244897959184,0.30612244897959184,0.30612244897959184,0.30612244897959184,0.30612244897959184,0.30612244897959184,0.30612244897959184,0.30612244897959184,0.30612244897959184,0.30612244897959184,0.30612244897959184,0.30612244897959184,0.30612244897959184,0.30612244897959184,0.30612244897959184,0.30612244897959184,0.30612244897959184,0.30612244897959184,0.30612244897959184,0.30612244897959184,0.30612244897959184,0.30612244897959184,0.30612244897959184,0.30612244897959184,0.3129251700680272,0.3299319727891156,0.36394557823129253,0.445578231292517,0.5,0.5680272108843537,0.6326530612244898,0.6904761904761905,0.7346938775510204,0.8401360544217688,0.9115646258503401,0.9523809523809523,0.9727891156462585,0.9829931972789115,0.9897959183673469,0.9931972789115646,0.9931972789115646,0.9931972789115646,0.9931972789115646,1.0068027210884354,1.0272108843537415,1.0442176870748299,1.0612244897959184,1.0782312925170068,1.098639455782313,1.1054421768707483,1.1054421768707483,1.1054421768707483,1.1054421768707483,1.1054421768707483,1.1054421768707483,1.1054421768707483,1.1054421768707483,1.1054421768707483,1.1054421768707483,1.1054421768707483,1.1054421768707483,1.1054421768707483,1.1054421768707483,1.1054421768707483,1.1054421768707483,1.1054421768707483,1.1054421768707483,1.1054421768707483,1.1054421768707483,1.1054421768707483,1.1054421768707483,1.1054421768707483,1.1054421768707483,1.1054421768707483,1.1054421768707483,1.1054421768707483,1.1054421768707483,1.1054421768707483,1.1054421768707483,1.1054421768707483,1.1054421768707483,1.1054421768707483,1.1054421768707483,1.1054421768707483,1.1054421768707483,1.1054421768707483,1.1054421768707483,1.1054421768707483,1.1054421768707483,1.1054421768707483,1.1054421768707483,1.1054421768707483,1.1054421768707483,1.1054421768707483,1.1054421768707483,1.1054421768707483,1.1054421768707483,1.1054421768707483,1.1054421768707483,1.1054421768707483,1.098639455782313,1.0782312925170068,1.0408163265306123,0.9829931972789115,0.9217687074829932,0.8503401360544217,0.7789115646258503,0.7482993197278912,0.7585034013605442,0.7687074829931972,0.7687074829931972,0.7687074829931972,0.7687074829931972,0.7687074829931972,0.7687074829931972,0.7687074829931972,0.7687074829931972,0.7755102040816326,0.7789115646258503,0.7789115646258503,0.7789115646258503,0.7721088435374149,0.7653061224489796,0.7619047619047619,0.7653061224489796,0.7755102040816326,0.7891156462585034,0.7993197278911565,0.7959183673469388,0.782312925170068,0.7687074829931972,0.7653061224489796,0.7619047619047619,0.7619047619047619,0.7517006802721088,0.7346938775510204,0.7006802721088435,0.6802721088435374,0.6768707482993197,0.6938775510204082,0.6938775510204082,0.6938775510204082,0.6938775510204082,0.6938775510204082,0.6938775510204082,0.6938775510204082,0.6938775510204082,0.6938775510204082,0.6938775510204082,0.6938775510204082,0.6870748299319728,0.6802721088435374,0.6904761904761905,0.7108843537414966,0.7278911564625851,0.7448979591836735,0.7619047619047619,0.7857142857142857,0.8061224489795918,0.8163265306122449,0.8197278911564626,0.8231292517006803,0.8231292517006803,0.8231292517006803,0.8231292517006803,0.8231292517006803,0.8231292517006803,0.8231292517006803,0.826530612244898,0.8299319727891157,0.8333333333333334,0.8367346938775511,0.8401360544217688,0.8401360544217688,0.8435374149659864,0.8469387755102041,0.8537414965986394,0.8605442176870748,0.8673469387755102,0.8809523809523809,0.8945578231292517,0.9081632653061225,0.9149659863945578,0.9149659863945578,0.9149659863945578,0.9149659863945578,0.9149659863945578,0.9149659863945578,0.9149659863945578,0.9149659863945578,0.9149659863945578,0.9149659863945578,0.9115646258503401,0.9081632653061225,0.9013605442176871,0.8945578231292517,0.8843537414965986,0.8673469387755102,0.8333333333333334,0.7959183673469388,0.7653061224489796,0.7482993197278912,0.7448979591836735,0.7448979591836735,0.7448979591836735,0.7448979591836735,0.7448979591836735,0.7448979591836735,0.7448979591836735,0.7448979591836735,0.7448979591836735,0.7448979591836735,0.7448979591836735,0.7414965986394558,0.7414965986394558,0.7346938775510204,0.7244897959183674,0.6972789115646258,0.6768707482993197,0.6598639455782312,0.6462585034013606,0.6394557823129252,0.6326530612244898,0.6224489795918368,0.6020408163265306,0.5714285714285714,0.5238095238095238,0.46258503401360546,0.3979591836734694,0.3333333333333333,0.2755102040816326,0.23469387755102042,0.20748299319727892,0.20408163265306123,0.20408163265306123,0.20408163265306123,0.20408163265306123,0.20408163265306123,0.20408163265306123,0.20408163265306123,0.20408163265306123,0.20408163265306123,0.20408163265306123,0.20408163265306123,0.20408163265306123,0.20408163265306123,0.20408163265306123,0.20408163265306123,0.20408163265306123,0.20408163265306123,0.20408163265306123,0.20408163265306123,0.20408163265306123,0.20408163265306123,0.20408163265306123,0.20408163265306123,0.20408163265306123,0.20408163265306123,0.20408163265306123,0.20408163265306123,0.20408163265306123,0.20748299319727892,0.21428571428571427,0.21768707482993196,0.22789115646258504,0.24489795918367346,0.2619047619047619,0.2789115646258503,0.2891156462585034,0.29591836734693877,0.30952380952380953,0.3197278911564626,0.3299319727891156,0.336734693877551,0.3401360544217687,0.3435374149659864,0.35034013605442177,0.35714285714285715,0.3673469387755102,0.38095238095238093,0.40476190476190477,0.4387755102040816,0.47278911564625853,0.5068027210884354,0.5374149659863946,0.564625850340136,0.5884353741496599,0.608843537414966,0.6190476190476191,0.6224489795918368,0.6224489795918368,0.6224489795918368,0.6224489795918368,0.6224489795918368,0.6224489795918368,0.6224489795918368,0.6224489795918368,0.6224489795918368,0.6258503401360545,0.6292517006802721,0.6360544217687075,0.6496598639455783,0.6700680272108843,0.6904761904761905,0.7074829931972789,0.7210884353741497,0.7278911564625851,0.7346938775510204,0.7346938775510204,0.7346938775510204,0.7380952380952381,0.7448979591836735,0.7517006802721088,0.7585034013605442,0.7619047619047619,0.7619047619047619,0.7619047619047619,0.7619047619047619,0.7619047619047619,0.7619047619047619,0.7619047619047619,0.7619047619047619,0.7619047619047619,0.7619047619047619,0.7619047619047619,0.7619047619047619,0.7619047619047619,0.7619047619047619,0.7687074829931972,0.7755102040816326,0.782312925170068,0.7857142857142857,0.7891156462585034,0.7925170068027211,0.7925170068027211,0.7925170068027211,0.7925170068027211,0.7925170068027211,0.7925170068027211,0.7925170068027211,0.7959183673469388,0.7959183673469388,0.7959183673469388,0.7959183673469388,0.7959183673469388,0.7993197278911565,0.8095238095238095,0.8299319727891157,0.8639455782312925,0.8945578231292517,0.9251700680272109,0.9489795918367347,0.9659863945578231,0.9761904761904762,0.9863945578231292,0.9931972789115646,0.9931972789115646,0.9931972789115646,0.9931972789115646,0.9931972789115646,0.9931972789115646,0.9931972789115646,0.9931972789115646,0.9931972789115646,0.9931972789115646,0.9931972789115646,0.9931972789115646,0.9659863945578231,0.9149659863945578,0.8435374149659864,0.7653061224489796,0.6598639455782312,0.5680272108843537,0.47959183673469385,0.40816326530612246,0.36394557823129253,0.35374149659863946,0.35374149659863946,0.35374149659863946,0.35374149659863946,0.35374149659863946,0.35374149659863946,0.35374149659863946,0.35374149659863946,0.35374149659863946,0.35374149659863946,0.35374149659863946,0.3469387755102041,0.3299319727891156,0.30952380952380953,0.2891156462585034,0.2687074829931973,0.25170068027210885,0.24489795918367346,0.24489795918367346,0.24489795918367346,0.24489795918367346,0.24489795918367346,0.24489795918367346,0.24489795918367346,0.24489795918367346,0.24489795918367346,0.24489795918367346,0.24489795918367346,0.24489795918367346,0.24489795918367346,0.24489795918367346,0.24489795918367346,0.24489795918367346,0.24489795918367346,0.24489795918367346,0.24489795918367346,0.24489795918367346,0.24489795918367346,0.24489795918367346,0.24489795918367346,0.24489795918367346,0.24489795918367346,0.24489795918367346,0.24489795918367346,0.24489795918367346,0.24489795918367346,0.24489795918367346,0.24489795918367346,0.24489795918367346,0.24489795918367346,0.24489795918367346,0.24489795918367346,0.24489795918367346,0.24489795918367346,0.24489795918367346,0.24489795918367346,0.24489795918367346,0.24489795918367346,0.24489795918367346,0.24489795918367346,0.24489795918367346,0.24489795918367346,0.24489795918367346,0.24489795918367346,0.24489795918367346,0.24489795918367346,0.24489795918367346,0.24489795918367346,0.24489795918367346,0.24489795918367346,0.24489795918367346,0.24489795918367346,0.24489795918367346,0.24489795918367346,0.24489795918367346,0.24489795918367346,0.24489795918367346,0.24489795918367346,0.24489795918367346,0.24489795918367346,0.24489795918367346,0.24489795918367346,0.24489795918367346,0.24489795918367346,0.24489795918367346,0.24489795918367346,0.24489795918367346,0.24489795918367346,0.24489795918367346,0.24489795918367346,0.24489795918367346,0.24489795918367346,0.24489795918367346,0.24489795918367346,0.24489795918367346,0.24489795918367346,0.24489795918367346,0.24829931972789115,0.25170068027210885,0.2585034013605442,0.2687074829931973,0.2755102040816326,0.2857142857142857,0.29591836734693877,0.30272108843537415,0.30952380952380953,0.3129251700680272,0.3163265306122449,0.3163265306122449,0.3197278911564626,0.32653061224489793,0.3333333333333333,0.3401360544217687,0.35034013605442177,0.35714285714285715,0.3673469387755102,0.37755102040816324,0.3843537414965986,0.3945578231292517,0.4013605442176871,0.40476190476190477,0.41156462585034015,0.41836734693877553,0.4217687074829932,0.42517006802721086,0.42857142857142855,0.42857142857142855,0.42857142857142855,0.43197278911564624,0.43197278911564624,0.43197278911564624,0.43197278911564624,0.43197278911564624,0.43197278911564624,0.43197278911564624,0.43197278911564624,0.43537414965986393,0.445578231292517,0.46258503401360546,0.47619047619047616,0.4931972789115646,0.5136054421768708,0.5306122448979592,0.5476190476190477,0.564625850340136,0.5782312925170068,0.5918367346938775,0.6054421768707483,0.6190476190476191,0.6326530612244898,0.6632653061224489,0.6972789115646258,0.7346938775510204,0.7789115646258503,0.8129251700680272,0.8367346938775511,0.8605442176870748,0.8809523809523809,0.9013605442176871,0.9251700680272109,0.9455782312925171,0.9693877551020408,0.9965986394557823,1.0272108843537415,1.054421768707483,1.0714285714285714,1.0782312925170068,1.0816326530612246,1.0816326530612246,1.0816326530612246,1.0782312925170068,1.0748299319727892,1.064625850340136,1.0476190476190477,1.0238095238095237,0.9897959183673469,0.9489795918367347,0.9081632653061225,0.8741496598639455,0.8435374149659864,0.826530612244898,0.8129251700680272,0.7993197278911565,0.7925170068027211,0.7925170068027211,0.7891156462585034,0.7891156462585034,0.7857142857142857,0.782312925170068,0.782312925170068,0.782312925170068,0.7857142857142857,0.7891156462585034,0.7925170068027211,0.7959183673469388,0.7993197278911565,0.7993197278911565,0.7993197278911565,0.7993197278911565,0.7993197278911565,0.7959183673469388,0.7959183673469388,0.7959183673469388,0.7925170068027211,0.782312925170068,0.7687074829931972,0.7482993197278912,0.7278911564625851,0.7108843537414966,0.6938775510204082,0.6802721088435374,0.6768707482993197,0.673469387755102,0.673469387755102,0.673469387755102,0.673469387755102,0.673469387755102,0.673469387755102,0.673469387755102,0.673469387755102,0.673469387755102,0.673469387755102,0.673469387755102,0.673469387755102,0.673469387755102,0.673469387755102,0.673469387755102,0.6768707482993197,0.6768707482993197,0.6768707482993197,0.6768707482993197,0.6768707482993197,0.6768707482993197,0.6768707482993197,0.6768707482993197,0.673469387755102,0.6666666666666666,0.6598639455782312,0.6530612244897959,0.6428571428571429,0.6326530612244898,0.6190476190476191,0.608843537414966,0.5884353741496599,0.5748299319727891,0.564625850340136,0.564625850340136,0.564625850340136,0.564625850340136,0.564625850340136,0.564625850340136,0.564625850340136,0.564625850340136,0.564625850340136,0.564625850340136,0.564625850340136,0.564625850340136,0.564625850340136,0.5578231292517006,0.54421768707483,0.5340136054421769,0.5238095238095238,0.5170068027210885,0.5170068027210885,0.5170068027210885,0.5170068027210885,0.5170068027210885,0.5170068027210885,0.5170068027210885,0.5170068027210885,0.5170068027210885,0.5170068027210885,0.5170068027210885,0.5170068027210885,0.5170068027210885,0.5170068027210885,0.5238095238095238,0.5306122448979592,0.5408163265306123,0.5510204081632653,0.5612244897959183,0.5680272108843537,0.5782312925170068,0.5850340136054422,0.5918367346938775,0.5952380952380952,0.5986394557823129,0.6020408163265306,0.6020408163265306,0.6054421768707483,0.608843537414966,0.608843537414966,0.608843537414966,0.608843537414966,0.608843537414966,0.608843537414966,0.608843537414966,0.608843537414966,0.608843537414966,0.608843537414966,0.608843537414966,0.608843537414966,0.608843537414966,0.608843537414966,0.608843537414966,0.608843537414966,0.6020408163265306,0.5986394557823129,0.5986394557823129,0.5986394557823129,0.6020408163265306,0.6020408163265306,0.6020408163265306,0.6020408163265306,0.6020408163265306,0.6020408163265306,0.6156462585034014,0.6224489795918368,0.6224489795918368,0.6224489795918368,0.6224489795918368,0.6224489795918368,0.6224489795918368,0.6224489795918368,0.6224489795918368,0.6224489795918368,0.6224489795918368,0.6224489795918368,0.6224489795918368,0.6224489795918368,0.6224489795918368,0.6224489795918368,0.6224489795918368,0.6190476190476191,0.6156462585034014,0.6122448979591837,0.6054421768707483,0.5952380952380952,0.5884353741496599,0.5816326530612245,0.564625850340136,0.54421768707483,0.5204081632653061,0.5,0.47619047619047616,0.46258503401360546,0.4557823129251701,0.4489795918367347,0.4421768707482993,0.43537414965986393,0.42517006802721086,0.3877551020408163,0.35374149659863946,0.336734693877551,0.3333333333333333,0.36054421768707484,0.3741496598639456,0.3741496598639456,0.3741496598639456,0.3741496598639456,0.3741496598639456,0.3741496598639456,0.3741496598639456,0.3741496598639456,0.3741496598639456,0.3673469387755102,0.35034013605442177,0.3299319727891156,0.3231292517006803,0.3163265306122449,0.30612244897959184,0.29591836734693877,0.2891156462585034,0.2857142857142857,0.2857142857142857,0.2857142857142857,0.2857142857142857,0.2857142857142857,0.2857142857142857,0.282312925170068,0.282312925170068,0.2755102040816326,0.272108843537415,0.2687074829931973,0.2619047619047619,0.25510204081632654,0.25170068027210885,0.25170068027210885,0.25170068027210885,0.25170068027210885,0.25170068027210885,0.25170068027210885,0.25170068027210885,0.25170068027210885,0.25170068027210885,0.25170068027210885,0.25170068027210885,0.25170068027210885,0.25170068027210885,0.25170068027210885,0.25170068027210885,0.25170068027210885,0.25170068027210885,0.25170068027210885,0.25170068027210885,0.25170068027210885,0.25170068027210885,0.25170068027210885,0.25170068027210885,0.25170068027210885,0.25170068027210885,0.25170068027210885,0.25170068027210885,0.25170068027210885,0.25170068027210885,0.25170068027210885,0.25170068027210885,0.25170068027210885,0.25170068027210885,0.25170068027210885,0.25170068027210885,0.25170068027210885,0.25170068027210885,0.25170068027210885,0.25170068027210885,0.25170068027210885,0.25170068027210885,0.25170068027210885,0.25170068027210885,0.25170068027210885,0.25170068027210885,0.25170068027210885,0.25170068027210885,0.25170068027210885,0.25170068027210885,0.25170068027210885,0.25170068027210885,0.25170068027210885,0.25170068027210885,0.25170068027210885,0.25170068027210885,0.25170068027210885,0.25170068027210885,0.25170068027210885,0.25170068027210885,0.25170068027210885,0.25170068027210885,0.25170068027210885,0.25170068027210885,0.25170068027210885,0.25170068027210885,0.25170068027210885,0.25170068027210885,0.25170068027210885,0.25170068027210885,0.25170068027210885,0.25170068027210885,0.25170068027210885,0.25170068027210885,0.25170068027210885,0.25170068027210885,0.25170068027210885,0.25170068027210885,0.25170068027210885,0.25170068027210885,0.25170068027210885,0.25170068027210885,0.25170068027210885,0.25170068027210885,0.25170068027210885,0.25170068027210885,0.25170068027210885,0.25170068027210885,0.25170068027210885,0.25170068027210885,0.25170068027210885,0.25170068027210885,0.25170068027210885,0.25170068027210885,0.25170068027210885,0.25170068027210885,0.25170068027210885,0.25170068027210885,0.25170068027210885,0.25170068027210885,0.25170068027210885,0.25170068027210885,0.25170068027210885,0.25170068027210885,0.25170068027210885,0.25170068027210885,0.25170068027210885,0.25170068027210885,0.25170068027210885,0.25170068027210885,0.25170068027210885,0.25170068027210885,0.25170068027210885,0.25170068027210885,0.25170068027210885,0.25170068027210885,0.25170068027210885,0.25170068027210885,0.25170068027210885,0.25170068027210885,0.25170068027210885,0.25170068027210885,0.25170068027210885,0.25170068027210885,0.25170068027210885,0.25170068027210885,0.25170068027210885,0.25170068027210885,0.25170068027210885,0.25170068027210885,0.2653061224489796,0.2857142857142857,0.29931972789115646,0.30612244897959184,0.3129251700680272,0.32653061224489793,0.3401360544217687,0.35714285714285715,0.37755102040816324,0.3707482993197279,0.3469387755102041,0.3231292517006803,0.30272108843537415,0.2789115646258503,0.25510204081632654,0.24149659863945577,0.24149659863945577,0.23809523809523808,0.22108843537414966,0.1836734693877551,0.16666666666666666,0.14625850340136054,0.1326530612244898,0.11564625850340136,0.1054421768707483,0.10204081632653061,0.10204081632653061,0.10204081632653061,0.10204081632653061,0.10204081632653061,0.1054421768707483,0.1360544217687075,0.2108843537414966,0.29931972789115646,0.4217687074829932,0.5884353741496599,0.7312925170068028,0.8299319727891157,0.8979591836734694,0.935374149659864,0.9489795918367347,0.9523809523809523,0.9591836734693877,0.9693877551020408,0.9761904761904762,0.9795918367346939,0.9829931972789115,0.9863945578231292,0.9965986394557823,1.0034013605442176,1.0034013605442176,1.0068027210884354,1.0068027210884354,1.0068027210884354,1.0068027210884354,1.0068027210884354,1.0068027210884354,1.0068027210884354,1.0068027210884354,1.0034013605442176,1,0.9863945578231292,0.9455782312925171,0.8741496598639455,0.7789115646258503,0.6870748299319728,0.6020408163265306,0.5272108843537415,0.46598639455782315,0.4217687074829932,0.391156462585034,0.36394557823129253,0.3469387755102041,0.336734693877551,0.32653061224489793,0.30952380952380953,0.2925170068027211,0.2789115646258503,0.2789115646258503,0.2857142857142857,0.2925170068027211,0.2925170068027211,0.2925170068027211,0.2925170068027211,0.2925170068027211,0.2925170068027211,0.2925170068027211,0.2925170068027211,0.2925170068027211,0.2925170068027211,0.2925170068027211,0.2925170068027211,0.2925170068027211,0.2925170068027211,0.2891156462585034,0.282312925170068,0.272108843537415,0.272108843537415,0.2755102040816326,0.2857142857142857,0.2925170068027211,0.30272108843537415,0.30272108843537415,0.29931972789115646,0.2891156462585034,0.2857142857142857,0.2857142857142857,0.2891156462585034,0.29591836734693877,0.30272108843537415,0.30952380952380953,0.3197278911564626,0.32653061224489793,0.3299319727891156,0.336734693877551,0.3401360544217687,0.3435374149659864,0.3469387755102041,0.35034013605442177,0.35374149659863946,0.35714285714285715,0.36394557823129253,0.3741496598639456,0.3877551020408163,0.40816326530612246,0.42857142857142855,0.445578231292517,0.45918367346938777,0.46258503401360546,0.46598639455782315,0.47278911564625853,0.47619047619047616,0.47619047619047616,0.47959183673469385,0.48639455782312924,0.4931972789115646,0.4965986394557823,0.4965986394557823,0.4965986394557823,0.4965986394557823,0.4965986394557823,0.4897959183673469,0.47619047619047616,0.4489795918367347,0.4217687074829932,0.391156462585034,0.36394557823129253,0.3333333333333333,0.30952380952380953,0.282312925170068,0.2687074829931973,0.2653061224489796,0.2653061224489796,0.2653061224489796,0.2653061224489796,0.2653061224489796,0.2653061224489796,0.2653061224489796,0.2653061224489796,0.2585034013605442,0.24829931972789115,0.24149659863945577,0.23129251700680273,0.21768707482993196,0.2108843537414966,0.20748299319727892,0.20068027210884354,0.19727891156462585,0.19727891156462585,0.19387755102040816,0.19047619047619047,0.1870748299319728,0.1870748299319728,0.1870748299319728,0.1836734693877551,0.1836734693877551,0.1836734693877551,0.1836734693877551,0.1836734693877551,0.1836734693877551,0.1836734693877551,0.1836734693877551,0.1836734693877551,0.1836734693877551,0.1836734693877551,0.1836734693877551,0.1836734693877551,0.1836734693877551,0.1836734693877551,0.1836734693877551,0.19047619047619047,0.20068027210884354,0.20408163265306123,0.20748299319727892,0.20748299319727892,0.20748299319727892,0.20748299319727892,0.20748299319727892,0.20748299319727892,0.2108843537414966,0.21428571428571427,0.22108843537414966,0.23129251700680273,0.2585034013605442,0.30272108843537415,0.3435374149659864,0.3945578231292517,0.4523809523809524,0.4965986394557823,0.5680272108843537,0.6292517006802721,0.6836734693877551,0.717687074829932,0.7312925170068028,0.7380952380952381,0.7380952380952381,0.7380952380952381,0.7414965986394558,0.7448979591836735,0.7448979591836735,0.7448979591836735,0.7448979591836735,0.7448979591836735,0.7448979591836735,0.7380952380952381,0.7210884353741497,0.7108843537414966,0.7108843537414966,0.7108843537414966,0.7108843537414966,0.7108843537414966,0.7040816326530612,0.6904761904761905,0.6666666666666666,0.6292517006802721,0.5986394557823129,0.5816326530612245,0.5850340136054422,0.5952380952380952,0.5952380952380952,0.5952380952380952,0.5952380952380952,0.5952380952380952,0.5952380952380952,0.5952380952380952,0.5952380952380952,0.6054421768707483,0.6122448979591837,0.6190476190476191,0.6224489795918368,0.6224489795918368,0.6224489795918368,0.6292517006802721,0.6564625850340136,0.6938775510204082,0.755102040816326