[{"success":true,"trial_type":"fullscreen","trial_index":0,"time_elapsed":10227,"internal_node_id":"0.0-0.0","protocol_sum":"","subject_identifier":305,"subject_sum":[4,48,102,218,242,16,149,35,167,73,13,75,250,212,118,109,165,113,153,80,162,181,249,109,25,47,192,83,126,132,243,42],"subject_pair":152,"STUDY_ID":"66a0b3911f23dfc7665bb169","PROLIFIC_PID":"662939c49821886e0246c494","SESSION_ID":"66a10e8905f44658a9602e76","practice_instructions":1,"leaderboard_instructions":1,"bonus":0,"reveal_word":true,"self_rating":"3","confidence":"40"},{"view_history":"[{\"page_index\":0,\"viewing_time\":2829}]","rt":2830,"trial_type":"instructions","trial_index":1,"time_elapsed":13058,"internal_node_id":"0.0-1.0","protocol_sum":"","subject_identifier":305,"subject_sum":[4,48,102,218,242,16,149,35,167,73,13,75,250,212,118,109,165,113,153,80,162,181,249,109,25,47,192,83,126,132,243,42],"subject_pair":152,"STUDY_ID":"66a0b3911f23dfc7665bb169","PROLIFIC_PID":"662939c49821886e0246c494","SESSION_ID":"66a10e8905f44658a9602e76","practice_instructions":1,"leaderboard_instructions":1,"bonus":0,"reveal_word":true,"self_rating":"3","confidence":"40"},{"view_history":"[{\"page_index\":0,\"viewing_time\":21281}]","rt":21282,"trial_type":"instructions","trial_index":2,"time_elapsed":34342,"internal_node_id":"0.0-2.0-0.0","protocol_sum":"","subject_identifier":305,"subject_sum":[4,48,102,218,242,16,149,35,167,73,13,75,250,212,118,109,165,113,153,80,162,181,249,109,25,47,192,83,126,132,243,42],"subject_pair":152,"STUDY_ID":"66a0b3911f23dfc7665bb169","PROLIFIC_PID":"662939c49821886e0246c494","SESSION_ID":"66a10e8905f44658a9602e76","practice_instructions":1,"leaderboard_instructions":1,"bonus":0,"reveal_word":true,"self_rating":"3","confidence":"40"},{"rt":8900,"responses":"{\"Q0\":\"... reveal the word with as <b>few letter guesses</b> as possible\"}","question_order":"[0]","trial_type":"survey-multi-choice","trial_index":3,"time_elapsed":43245,"internal_node_id":"0.0-2.0-1.0","protocol_sum":"","subject_identifier":305,"subject_sum":[4,48,102,218,242,16,149,35,167,73,13,75,250,212,118,109,165,113,153,80,162,181,249,109,25,47,192,83,126,132,243,42],"subject_pair":152,"correct":true,"test_part":"multichoice_nonpretend","STUDY_ID":"66a0b3911f23dfc7665bb169","PROLIFIC_PID":"662939c49821886e0246c494","SESSION_ID":"66a10e8905f44658a9602e76","practice_instructions":1,"leaderboard_instructions":1,"bonus":0,"reveal_word":true,"self_rating":"3","confidence":"40"},{"view_history":"[{\"page_index\":0,\"viewing_time\":1329}]","rt":1329,"trial_type":"instructions","trial_index":4,"time_elapsed":44575,"internal_node_id":"0.0-3.0","protocol_sum":"","subject_identifier":305,"subject_sum":[4,48,102,218,242,16,149,35,167,73,13,75,250,212,118,109,165,113,153,80,162,181,249,109,25,47,192,83,126,132,243,42],"subject_pair":152,"STUDY_ID":"66a0b3911f23dfc7665bb169","PROLIFIC_PID":"662939c49821886e0246c494","SESSION_ID":"66a10e8905f44658a9602e76","practice_instructions":1,"leaderboard_instructions":1,"bonus":0,"reveal_word":true,"self_rating":"3","confidence":"40"},{"word":"ZEBRA","click_log":{"letter":["","H","O","B","L","E","T","Z","R","A"],"t":[0,2679,6529,15696,18229,19613,22794,24113,26113,26945],"hit":[null,0,0,1,0,1,0,1,1,1],"asked":["","H","HO","HOB","HOBL","HOBLE","HOBLET","HOBLETZ","HOBLETZR","HOBLETZRA"],"word_state":["_____","_____","_____","__B__","__B__","_EB__","_EB__","ZEB__","ZEBR_","ZEBRA"]},"hover_log":{"letter":["?","?","?","?","?","?","?","?","?","?","?","?","?","?","?","?","?","?","?","?","?","?","?","?","?","?","?","?","?","?","?","?","?","?","?","?","?","?","?","?","?","?","?","?","?","?","?","?","?","?","?","?","?","?","?","?","?","?","?","?","?","?","?","?","?","?","?","?","?","?","?","?","?","?","?","?","?","?","?","?","?","?","?","?","?","?","?","?","?","?","?","?","?","?","?","?","?","?","?","?","?","?","?","?","?","?","?","?","?","?","W","W","W","W","W","W","W","W","W","W","W","W","W","W","W","W","?","?","O","?","?","?","H","H","H","H","H","H","H","H","H","H","H","H","H","H","H","H","H","H","H","H","H","H","H","H","H","H","H","H","H","H","H","H","H","H","H","H","H","H","H","H","H","H","H","H","H","H","H","H","H","H","H","H","H","H","H","H","H","H","H","H","H","H","H","H","H","H","H","H","H","H","H","H","H","H","H","H","H","H","H","H","H","H","H","H","H","H","?","?","G","G","G","G","G","G","?","?","?","?","?","?","?","?","O","O","O","O","O","O","O","O","O","O","O","O","O","O","O","O","O","O","O","O","O","O","O","O","O","O","O","O","O","O","O","O","O","O","O","O","O","O","O","O","O","O","O","O","O","O","O","O","O","O","O","O","O","O","O","O","O","O","O","O","O","O","O","O","O","O","O","O","O","O","O","O","O","O","O","O","O","O","O","O","O","O","O","O","O","O","O","O","O","O","O","O","O","O","O","O","O","O","O","O","O","O","O","O","O","O","O","O","O","O","O","O","O","O","O","O","O","O","O","O","O","O","O","O","O","O","O","O","O","O","O","O","O","O","O","O","O","O","O","O","O","O","O","O","O","O","O","O","O","O","O","O","O","O","O","O","O","O","O","O","O","O","O","O","O","O","O","O","O","O","O","O","O","O","O","O","O","O","O","O","O","O","O","O","O","O","O","O","O","O","O","O","O","O","O","O","O","O","O","O","O","O","O","O","O","O","O","O","O","O","O","O","O","O","O","O","O","O","O","O","O","O","O","O","O","O","O","O","O","O","O","O","O","O","O","O","O","O","O","O","O","O","O","O","O","O","O","O","O","O","O","O","O","O","O","O","O","O","O","O","O","O","O","O","O","O","?","?","?","?","?","N","N","N","N","N","N","N","N","N","N","N","N","N","N","N","N","N","N","N","N","N","N","N","N","N","N","N","N","N","N","N","N","N","N","N","N","N","N","N","?","?","?","?","?","?","?","?","M","M","M","M","M","M","M","M","M","M","M","M","?","?","?","?","?","?","?","?","?","?","?","?","?","?","?","?","?","?","?","L","L","L","L","L","L","L","L","L","L","L","L","L","L","L","L","L","L","L","L","L","L","L","L","L","L","L","L","L","L","L","L","L","L","L","L","L","L","L","L","L","L","L","L","L","L","L","L","L","L","L","L","L","L","L","L","L","L","L","L","L","L","L","L","L","L","L","L","L","L","L","L","L","L","L","L","L","L","L","L","L","L","L","L","L","L","L","L","L","L","L","L","L","L","L","L","L","L","L","L","L","L","L","L","L","L","L","L","L","L","L","L","L","L","L","L","L","L","L","L","?","?","?","?","?","?","?","?","?","?","?","?","?","?","?","?","?","?","?","?","?","?","?","?","?","?","?","?","?","?","?","?","?","?","?","?","?","?","?","?","?","?","?","?","?","?","?","?","?","?","?","?","?","?","?","?","?","?","?","?","?","?","?","?","?","?","?","?","?","?","?","?","?","?","?","?","?","?","?","?","?","?","?","?","?","?","?","?","?","?","?","?","?","?","?","?","?","?","?","?","?","?","?","?","?","?","?","?","?","?","?","?","?","K","K","K","K","K","?","?","?","?","?","B","B","B","B","B","B","B","B","B","B","B","B","B","B","B","B","B","B","B","B","B","B","B","B","B","B","B","B","B","B","B","B","B","B","B","B","B","B","B","B","B","B","B","B","B","B","B","B","B","B","B","B","B","B","B","B","B","B","B","B","B","B","B","B","B","B","B","B","B","B","B","B","B","B","B","B","B","B","B","B","B","B","B","B","B","B","B","B","B","B","B","B","B","B","B","B","B","B","B","B","B","B","B","B","B","B","B","B","B","B","B","B","B","B","B","B","B","B","B","B","B","B","B","B","B","B","B","B","B","B","B","B","B","B","B","B","B","B","B","B","B","B","B","B","B","B","B","B","B","B","B","B","B","B","B","B","B","B","B","B","B","B","B","B","B","B","B","B","B","B","B","B","B","B","B","B","B","B","B","B","B","B","B","B","B","B","B","B","B","B","B","B","B","B","B","B","B","B","B","?","?","?","K","K","K","K","K","K","K","K","K","K","?","?","L","L","L","L","L","L","L","L","L","L","L","L","L","L","L","L","L","L","L","L","L","L","L","L","L","L","L","L","L","L","L","L","L","L","L","L","L","L","L","L","L","L","L","L","L","L","L","L","L","L","L","L","L","L","L","L","L","L","L","L","L","L","L","L","L","L","L","L","L","L","L","L","L","L","L","L","L","L","L","L","L","L","L","L","L","L","L","L","L","L","K","K","K","K","K","K","K","K","K","K","K","K","K","K","K","K","?","?","D","D","?","?","?","?","?","?","E","E","E","E","E","E","E","E","E","E","E","E","E","E","E","E","E","E","E","E","E","E","E","E","E","E","E","E","E","E","E","E","E","E","E","E","E","E","E","E","E","E","E","E","E","E","E","E","E","E","E","E","E","E","E","E","E","E","E","E","E","E","E","E","E","E","E","E","E","E","E","E","E","E","E","E","E","E","E","E","E","E","E","E","E","E","E","E","E","E","E","E","E","E","E","E","E","E","E","E","E","E","E","E","E","E","E","E","E","?","D","D","C","?","B","B","B","B","B","B","B","B","B","?","?","?","?","?","?","J","J","J","?","?","?","?","?","?","T","T","T","T","T","T","T","T","T","T","T","T","T","T","T","T","T","T","T","T","T","T","T","T","T","T","T","T","T","T","T","T","T","T","T","T","T","T","T","T","T","T","T","T","T","T","T","T","T","T","T","T","T","T","T","T","T","T","T","T","T","T","T","T","T","T","T","T","T","T","T","T","T","T","T","T","T","T","T","T","T","T","T","T","T","T","T","T","T","T","T","T","T","T","T","T","T","?","?","S","S","S","S","S","S","S","S","S","S","S","S","S","S","?","T","U","U","V","X","Y","Z","?","?","?","?","?","?","?","Z","Z","Z","Z","Z","Z","Z","Z","Z","Z","Z","Z","Z","Z","Z","Z","Z","Z","Z","Z","Z","Z","Z","Z","Z","Z","Z","Z","Z","Z","Z","Z","Z","Z","Z","Z","Z","Z","Z","Z","Z","Z","Z","?","Y","Y","?","?","?","?","N","N","?","?","?","?","?","C","?","?","B","B","B","B","B","B","B","B","B","B","B","B","B","B","B","B","B","B","?","C","C","C","C","?","?","?","?","?","?","?","?","M","?","N","N","?","?","O","O","O","O","?","P","P","P","P","?","?","?","?","?","?","?","Q","Q","Q","Q","Q","Q","Q","Q","?","?","?","?","R","R","R","R","R","R","R","R","R","R","R","R","R","R","R","R","R","R","R","?","?","?","?","?","D","?","?","?","?","?","?","C","C","C","C","C","C","?","?","B","B","B","B","?","A","A","A","A","A","A","A","A","A","A","A","A","A","A","A","A","A","A","A","A","A","A","A","A","A","A","A","A","A","A","A","A","A","A","A","A","A","A","A","A","A","A","A","A","A","A","A","A","A","A","A","A","A","A","A","A","A","A","A","A","A","A","A","A","A","?","?","?","?","?","?","?","?","?","?","?","?","?","?","?","?","?","?","?","?","?","?","?","?","?","?","?","?","?","?","?","?","?","?","?","?","?","?","?","?","?","?","?","?","?","?","?","?","?","?","?","?","?","?","?","?","?","?","?","?","?","?","?","?","?","?","?","?","?","?","?","?","?","?","?","?","?","?","?","?","?"],"t":[29,43,58,76,92,110,126,143,159,177,193,210,226,243,260,275,292,310,326,343,359,377,393,409,427,443,459,477,493,510,526,544,560,577,593,610,626,642,659,676,693,709,726,743,759,777,793,810,826,844,860,876,893,910,927,943,959,976,993,1009,1026,1042,1059,1076,1092,1109,1126,1143,1159,1175,1192,1209,1226,1242,1259,1276,1292,1309,1326,1342,1359,1377,1392,1409,1426,1443,1458,1476,1492,1508,1526,1542,1558,1576,1592,1608,1625,1642,1658,1675,1692,1709,1726,1742,1759,1776,1792,1810,1826,1842,1861,1876,1893,1909,1926,1942,1960,1975,1992,2010,2026,2042,2059,2075,2093,2109,2126,2143,2159,2176,2192,2210,2226,2242,2259,2277,2293,2308,2325,2344,2359,2375,2392,2409,2425,2443,2459,2475,2492,2508,2526,2542,2559,2577,2593,2609,2626,2643,2661,2677,2693,2709,2726,2742,2760,2775,2794,2810,2826,2843,2860,2876,2893,2910,2926,2942,2960,2977,2993,3010,3027,3043,3060,3076,3093,3110,3126,3142,3159,3176,3193,3210,3226,3243,3259,3277,3293,3310,3327,3343,3360,3377,3392,3409,3426,3443,3460,3476,3492,3509,3526,3542,3559,3575,3593,3609,3626,3643,3659,3676,3693,3709,3725,3742,3759,3776,3793,3809,3825,3843,3860,3876,3892,3908,3925,3942,3959,3976,3992,4009,4025,4042,4059,4076,4092,4110,4126,4141,4159,4176,4192,4209,4226,4242,4259,4276,4292,4309,4326,4343,4359,4376,4394,4410,4426,4443,4459,4476,4493,4509,4526,4543,4559,4576,4593,4610,4627,4642,4659,4676,4693,4709,4726,4743,4760,4776,4793,4810,4826,4843,4860,4876,4893,4909,4925,4942,4958,4974,4992,5010,5025,5042,5059,5076,5092,5109,5126,5143,5160,5176,5192,5210,5226,5242,5259,5276,5292,5309,5324,5343,5359,5376,5392,5410,5426,5442,5460,5476,5492,5509,5526,5543,5560,5575,5592,5610,5626,5643,5660,5676,5693,5709,5725,5742,5759,5776,5793,5809,5825,5842,5859,5876,5892,5910,5926,5942,5960,5975,5992,6009,6026,6042,6059,6076,6093,6109,6126,6143,6160,6176,6192,6210,6226,6242,6260,6276,6292,6310,6326,6343,6359,6376,6393,6410,6426,6442,6459,6476,6493,6509,6527,6543,6558,6576,6593,6609,6625,6642,6658,6675,6691,6708,6726,6742,6759,6776,6792,6809,6827,6843,6859,6876,6893,6910,6926,6942,6960,6976,6993,7009,7026,7043,7060,7076,7093,7110,7127,7143,7159,7176,7193,7209,7227,7243,7259,7276,7292,7310,7326,7342,7359,7377,7392,7409,7426,7444,7460,7476,7492,7510,7526,7543,7559,7576,7593,7609,7626,7643,7659,7676,7693,7710,7727,7743,7759,7775,7793,7810,7827,7843,7860,7876,7893,7910,7926,7943,7959,7976,7993,8008,8025,8042,8060,8075,8092,8109,8126,8143,8159,8176,8194,8209,8226,8243,8258,8275,8291,8308,8326,8343,8359,8375,8392,8408,8426,8443,8459,8475,8493,8510,8526,8543,8559,8577,8592,8609,8626,8642,8658,8675,8692,8708,8726,8743,8759,8776,8793,8809,8825,8842,8859,8876,8892,8909,8926,8942,8960,8977,8993,9009,9025,9043,9059,9076,9093,9109,9125,9142,9158,9175,9192,9208,9225,9241,9258,9275,9292,9308,9325,9342,9358,9375,9393,9409,9425,9442,9459,9476,9493,9510,9526,9544,9558,9575,9592,9609,9626,9642,9659,9675,9692,9709,9726,9742,9759,9776,9792,9809,9825,9842,9859,9876,9893,9909,9926,9943,9960,9976,9993,10009,10026,10042,10058,10076,10093,10108,10125,10143,10159,10175,10192,10208,10225,10243,10260,10276,10292,10309,10326,10342,10358,10375,10393,10409,10426,10443,10460,10476,10493,10509,10526,10543,10559,10576,10593,10609,10626,10643,10660,10676,10693,10710,10726,10742,10759,10776,10793,10809,10826,10843,10859,10875,10893,10909,10927,10943,10959,10976,10992,11009,11026,11043,11060,11076,11093,11110,11125,11143,11160,11176,11193,11209,11226,11243,11259,11276,11293,11310,11325,11343,11359,11377,11393,11410,11426,11443,11460,11474,11492,11509,11525,11543,11559,11576,11592,11608,11625,11641,11658,11676,11692,11709,11726,11742,11760,11775,11793,11809,11825,11842,11859,11875,11892,11909,11926,11942,11959,11976,11993,12009,12026,12042,12059,12075,12093,12110,12126,12143,12159,12176,12193,12210,12226,12243,12259,12276,12293,12310,12326,12343,12359,12376,12392,12409,12426,12443,12459,12476,12493,12509,12526,12543,12559,12576,12593,12609,12626,12643,12659,12676,12692,12709,12726,12743,12759,12776,12793,12809,12827,12843,12859,12876,12893,12909,12925,12942,12959,12977,12994,13010,13026,13044,13059,13076,13092,13110,13126,13142,13159,13175,13192,13209,13225,13242,13259,13276,13293,13309,13326,13343,13360,13375,13392,13409,13425,13442,13460,13475,13493,13509,13526,13542,13560,13576,13593,13609,13625,13642,13659,13675,13692,13709,13725,13743,13758,13776,13792,13809,13826,13842,13859,13876,13892,13910,13926,13943,13959,13976,13992,14010,14026,14043,14059,14076,14091,14109,14125,14143,14159,14176,14192,14209,14226,14242,14259,14276,14293,14310,14326,14343,14359,14376,14392,14409,14426,14443,14459,14477,14493,14509,14527,14543,14560,14576,14592,14609,14626,14643,14660,14676,14693,14710,14727,14743,14759,14775,14793,14810,14826,14843,14860,14876,14892,14909,14925,14942,14958,14975,14992,15008,15026,15043,15059,15075,15092,15110,15126,15142,15159,15176,15193,15209,15226,15242,15260,15276,15293,15310,15327,15343,15359,15376,15393,15409,15426,15442,15459,15476,15493,15509,15526,15543,15559,15576,15592,15610,15626,15642,15660,15676,15693,15710,15726,15744,15760,15777,15793,15810,15826,15844,15860,15877,15893,15909,15926,15943,15959,15975,15992,16009,16025,16043,16059,16076,16093,16110,16126,16143,16160,16177,16193,16209,16226,16243,16260,16276,16292,16310,16326,16343,16360,16375,16392,16408,16426,16442,16459,16476,16493,16510,16526,16543,16559,16577,16593,16610,16625,16641,16658,16675,16692,16709,16725,16742,16760,16776,16792,16810,16826,16843,16859,16876,16893,16910,16926,16943,16960,16976,16993,17009,17026,17043,17059,17076,17093,17109,17126,17142,17160,17176,17193,17210,17227,17243,17259,17275,17293,17310,17326,17343,17359,17377,17393,17408,17425,17442,17459,17476,17493,17510,17526,17543,17559,17576,17593,17610,17626,17643,17660,17676,17693,17710,17725,17743,17759,17776,17793,17809,17826,17843,17860,17876,17893,17910,17927,17943,17959,17976,17993,18009,18026,18043,18060,18077,18093,18110,18127,18142,18159,18176,18194,18210,18226,18243,18259,18275,18291,18308,18325,18342,18359,18376,18393,18410,18427,18443,18459,18477,18493,18510,18527,18544,18559,18576,18594,18610,18626,18643,18660,18677,18693,18709,18727,18744,18759,18776,18793,18811,18827,18843,18859,18875,18893,18909,18926,18943,18960,18977,18992,19009,19026,19042,19059,19075,19092,19110,19126,19143,19160,19177,19193,19210,19226,19243,19260,19276,19293,19309,19326,19343,19360,19375,19392,19410,19426,19444,19460,19477,19493,19509,19525,19543,19559,19576,19593,19609,19626,19643,19659,19677,19693,19710,19726,19742,19758,19776,19792,19808,19825,19841,19858,19875,19892,19907,19924,19942,19962,19975,19993,20009,20026,20042,20060,20076,20093,20110,20127,20144,20159,20177,20194,20210,20226,20243,20260,20276,20293,20310,20327,20344,20360,20376,20393,20409,20425,20442,20460,20476,20494,20510,20527,20543,20560,20577,20593,20609,20627,20644,20659,20676,20693,20709,20727,20743,20761,20777,20793,20810,20826,20843,20860,20876,20891,20910,20927,20942,20959,20976,20993,21010,21026,21043,21059,21076,21093,21110,21126,21144,21159,21175,21192,21209,21226,21243,21259,21276,21292,21310,21326,21342,21359,21376,21393,21409,21426,21443,21459,21476,21492,21510,21526,21542,21560,21576,21592,21609,21625,21642,21659,21675,21693,21709,21726,21742,21759,21778,21793,21809,21825,21843,21860,21876,21892,21910,21926,21944,21958,21976,21993,22009,22027,22042,22058,22076,22093,22110,22126,22142,22159,22176,22192,22208,22226,22242,22259,22275,22293,22310,22326,22344,22360,22376,22394,22410,22426,22442,22458,22476,22493,22509,22526,22543,22560,22576,22593,22608,22626,22643,22659,22676,22694,22710,22726,22742,22759,22775,22792,22809,22826,22843,22859,22876,22893,22910,22927,22943,22960,22977,22994,23009,23026,23044,23060,23077,23093,23110,23126,23143,23160,23176,23192,23209,23226,23242,23259,23276,23293,23309,23326,23343,23360,23376,23392,23410,23427,23442,23458,23476,23493,23509,23526,23543,23560,23577,23593,23609,23627,23642,23658,23676,23693,23709,23726,23743,23760,23776,23792,23810,23827,23843,23858,23876,23892,23908,23925,23942,23958,23976,23992,24008,24025,24042,24059,24076,24093,24109,24126,24143,24159,24176,24194,24210,24226,24242,24259,24276,24293,24308,24326,24343,24359,24376,24393,24409,24426,24443,24459,24476,24493,24510,24526,24543,24560,24576,24592,24610,24625,24642,24660,24676,24692,24709,24726,24744,24759,24776,24793,24810,24827,24844,24860,24877,24893,24910,24925,24942,24959,24975,24992,25009,25026,25043,25059,25076,25093,25109,25127,25142,25159,25176,25193,25209,25226,25242,25260,25276,25294,25309,25326,25343,25360,25376,25392,25409,25425,25443,25459,25476,25492,25509,25526,25542,25559,25576,25593,25609,25626,25643,25660,25677,25692,25709,25726,25742,25759,25776,25793,25809,25825,25842,25860,25876,25893,25909,25926,25942,25959,25976,25993,26010,26026,26042,26059,26075,26093,26110,26126,26142,26160,26176,26191,26209,26225,26243,26259,26276,26292,26309,26326,26344,26358,26376,26393,26409,26426,26443,26459,26475,26492,26510,26526,26542,26560,26577,26593,26609,26626,26641,26659,26675,26692,26709,26725,26742,26760,26776,26793,26809,26826,26844,26861,26877,26892,26909,26926,26942,26959,26977,26993,27010,27027,27044,27060,27076,27093,27110,27127,27143,27160,27177,27194,27210,27227,27242,27261,27277,27293,27310,27327,27343,27360,27377,27393,27410,27426,27444,27460,27476,27493,27509,27527,27543,27559,27575,27591,27609,27625,27642,27659,27676,27693,27709,27725,27743,27759,27775,27793,27810,27827,27844,27860,27876,27893,27909,27927,27944,27960,27976,27993,28009,28026,28042,28060,28076,28092,28109,28126,28143,28159,28176,28192,28210,28226,28244,28259,28275,28291,28308,28326,28343,28360,28377,28392,28409,28425,28442,28460,28476,28492,28509,28526,28543,28559,28576,28593,28610,28627,28644,28659,28676,28693,28710,28727,28744,28760,28776,28793,28810,28826,28844,28860,28877,28893,28910,28926,28943,28961],"hit":[null],"x":[-3.238095238095238,-3.238095238095238,-3.238095238095238,-3.238095238095238,-3.238095238095238,-3.238095238095238,-3.238095238095238,-3.238095238095238,-1.3996598639455782,-1.3996598639455782,-1.3996598639455782,-1.3996598639455782,-1.3996598639455782,-1.3996598639455782,-1.3996598639455782,-1.3996598639455782,-1.3996598639455782,-1.3996598639455782,-1.3996598639455782,-1.3996598639455782,-1.3996598639455782,-1.3996598639455782,-1.3996598639455782,-1.3996598639455782,-1.3996598639455782,-1.3996598639455782,-1.3996598639455782,-1.3996598639455782,-1.3996598639455782,-1.3996598639455782,-1.3996598639455782,-1.3996598639455782,-1.3996598639455782,-1.3996598639455782,-1.3996598639455782,-1.3996598639455782,-1.3996598639455782,-1.3996598639455782,-1.3996598639455782,-1.3996598639455782,-1.3996598639455782,-1.3928571428571428,-1.3928571428571428,-1.3894557823129252,-1.3894557823129252,-1.3894557823129252,-1.3894557823129252,-1.3894557823129252,-1.3894557823129252,-1.3894557823129252,-1.3894557823129252,-1.3894557823129252,-1.3894557823129252,-1.3894557823129252,-1.3894557823129252,-1.3894557823129252,-1.3894557823129252,-1.3894557823129252,-1.3894557823129252,-1.3894557823129252,-1.3894557823129252,-1.3894557823129252,-1.3894557823129252,-1.3894557823129252,-1.3894557823129252,-1.3894557823129252,-1.3894557823129252,-1.3894557823129252,-1.3826530612244898,-1.3826530612244898,-1.3758503401360545,-1.3758503401360545,-1.3724489795918366,-1.3724489795918366,-1.369047619047619,-1.3656462585034013,-1.3520408163265305,-1.3452380952380953,-1.3112244897959184,-1.2942176870748299,-1.25,-1.219387755102041,-1.1717687074829932,-1.1411564625850341,-1.0833333333333333,-1.0459183673469388,-0.9812925170068028,-0.8384353741496599,-0.7431972789115646,-0.5561224489795918,-0.477891156462585,-0.2602040816326531,-0.18537414965986396,-0.03231292517006803,0.0391156462585034,0.13435374149659865,0.18197278911564627,0.2534013605442177,0.28061224489795916,0.34183673469387754,0.358843537414966,0.38945578231292516,0.38945578231292516,0.4370748299319728,0.45408163265306123,0.4812925170068027,0.4880952380952381,0.5085034013605442,0.5153061224489796,0.5221088435374149,0.5255102040816326,0.532312925170068,0.532312925170068,0.5357142857142857,0.5357142857142857,0.5357142857142857,0.5357142857142857,0.5357142857142857,0.5357142857142857,0.5357142857142857,0.5357142857142857,0.5357142857142857,0.5357142857142857,0.5357142857142857,0.5391156462585034,0.5595238095238095,0.6105442176870748,0.6479591836734694,0.7431972789115646,0.7874149659863946,0.8860544217687075,0.9302721088435374,0.9812925170068028,0.9914965986394558,0.9948979591836735,0.9948979591836735,0.9948979591836735,0.9948979591836735,0.9948979591836735,0.9948979591836735,0.9948979591836735,0.9948979591836735,0.9914965986394558,0.9846938775510204,0.9846938775510204,0.9846938775510204,0.9846938775510204,0.9846938775510204,0.9846938775510204,0.9846938775510204,0.9846938775510204,0.9846938775510204,0.9846938775510204,0.9846938775510204,0.9846938775510204,0.9846938775510204,0.9846938775510204,0.9846938775510204,0.9846938775510204,0.9846938775510204,0.9846938775510204,0.9846938775510204,0.9846938775510204,0.9846938775510204,0.9846938775510204,0.9846938775510204,0.9846938775510204,0.9846938775510204,0.9846938775510204,0.9846938775510204,0.9846938775510204,0.9846938775510204,0.9846938775510204,0.9846938775510204,0.9846938775510204,0.9846938775510204,0.9846938775510204,0.9846938775510204,0.9846938775510204,0.9846938775510204,0.9846938775510204,0.9846938775510204,0.9846938775510204,0.9846938775510204,0.9846938775510204,0.9846938775510204,0.9846938775510204,0.9846938775510204,0.9846938775510204,0.9846938775510204,0.9846938775510204,0.9846938775510204,0.9846938775510204,0.9846938775510204,0.9846938775510204,0.9846938775510204,0.9846938775510204,0.9846938775510204,0.9846938775510204,0.9846938775510204,0.9846938775510204,0.9846938775510204,0.9846938775510204,0.9846938775510204,0.9846938775510204,0.9846938775510204,0.9846938775510204,0.9812925170068028,0.9812925170068028,0.9812925170068028,0.9812925170068028,0.9812925170068028,0.9812925170068028,0.9812925170068028,0.9812925170068028,0.9744897959183674,0.9642857142857143,0.9472789115646258,0.9404761904761905,0.9166666666666666,0.9098639455782312,0.9030612244897959,0.8894557823129252,0.8860544217687075,0.8690476190476191,0.8622448979591837,0.8520408163265306,0.8452380952380952,0.8282312925170068,0.8214285714285714,0.8078231292517006,0.8010204081632653,0.7840136054421769,0.7772108843537415,0.7636054421768708,0.7568027210884354,0.7534013605442177,0.7534013605442177,0.7534013605442177,0.7534013605442177,0.7534013605442177,0.7534013605442177,0.75,0.7465986394557823,0.7363945578231292,0.7295918367346939,0.7159863945578231,0.7125850340136054,0.70578231292517,0.70578231292517,0.70578231292517,0.70578231292517,0.70578231292517,0.70578231292517,0.70578231292517,0.70578231292517,0.70578231292517,0.70578231292517,0.70578231292517,0.70578231292517,0.70578231292517,0.70578231292517,0.70578231292517,0.70578231292517,0.70578231292517,0.70578231292517,0.70578231292517,0.70578231292517,0.70578231292517,0.70578231292517,0.70578231292517,0.70578231292517,0.70578231292517,0.70578231292517,0.70578231292517,0.70578231292517,0.70578231292517,0.70578231292517,0.70578231292517,0.70578231292517,0.70578231292517,0.70578231292517,0.70578231292517,0.70578231292517,0.70578231292517,0.70578231292517,0.70578231292517,0.70578231292517,0.70578231292517,0.70578231292517,0.70578231292517,0.70578231292517,0.70578231292517,0.70578231292517,0.70578231292517,0.70578231292517,0.70578231292517,0.70578231292517,0.70578231292517,0.70578231292517,0.70578231292517,0.70578231292517,0.70578231292517,0.70578231292517,0.70578231292517,0.70578231292517,0.70578231292517,0.70578231292517,0.70578231292517,0.70578231292517,0.70578231292517,0.70578231292517,0.70578231292517,0.70578231292517,0.70578231292517,0.70578231292517,0.70578231292517,0.70578231292517,0.70578231292517,0.70578231292517,0.70578231292517,0.70578231292517,0.70578231292517,0.70578231292517,0.70578231292517,0.70578231292517,0.70578231292517,0.70578231292517,0.70578231292517,0.70578231292517,0.70578231292517,0.70578231292517,0.70578231292517,0.70578231292517,0.70578231292517,0.70578231292517,0.70578231292517,0.70578231292517,0.70578231292517,0.70578231292517,0.70578231292517,0.70578231292517,0.70578231292517,0.70578231292517,0.70578231292517,0.70578231292517,0.70578231292517,0.70578231292517,0.70578231292517,0.70578231292517,0.70578231292517,0.70578231292517,0.70578231292517,0.70578231292517,0.70578231292517,0.70578231292517,0.70578231292517,0.70578231292517,0.70578231292517,0.70578231292517,0.70578231292517,0.70578231292517,0.70578231292517,0.70578231292517,0.70578231292517,0.70578231292517,0.70578231292517,0.70578231292517,0.70578231292517,0.70578231292517,0.70578231292517,0.70578231292517,0.70578231292517,0.70578231292517,0.70578231292517,0.70578231292517,0.70578231292517,0.70578231292517,0.70578231292517,0.70578231292517,0.70578231292517,0.70578231292517,0.70578231292517,0.70578231292517,0.70578231292517,0.70578231292517,0.70578231292517,0.70578231292517,0.70578231292517,0.70578231292517,0.70578231292517,0.70578231292517,0.70578231292517,0.70578231292517,0.70578231292517,0.70578231292517,0.70578231292517,0.70578231292517,0.70578231292517,0.70578231292517,0.70578231292517,0.70578231292517,0.70578231292517,0.70578231292517,0.70578231292517,0.70578231292517,0.70578231292517,0.70578231292517,0.70578231292517,0.70578231292517,0.70578231292517,0.70578231292517,0.70578231292517,0.70578231292517,0.70578231292517,0.70578231292517,0.70578231292517,0.70578231292517,0.70578231292517,0.70578231292517,0.70578231292517,0.70578231292517,0.70578231292517,0.70578231292517,0.70578231292517,0.70578231292517,0.70578231292517,0.70578231292517,0.70578231292517,0.70578231292517,0.70578231292517,0.70578231292517,0.70578231292517,0.70578231292517,0.70578231292517,0.70578231292517,0.70578231292517,0.70578231292517,0.70578231292517,0.70578231292517,0.70578231292517,0.70578231292517,0.70578231292517,0.70578231292517,0.70578231292517,0.70578231292517,0.70578231292517,0.70578231292517,0.70578231292517,0.70578231292517,0.70578231292517,0.70578231292517,0.70578231292517,0.70578231292517,0.70578231292517,0.70578231292517,0.70578231292517,0.70578231292517,0.70578231292517,0.70578231292517,0.70578231292517,0.70578231292517,0.70578231292517,0.70578231292517,0.70578231292517,0.70578231292517,0.70578231292517,0.7023809523809523,0.6989795918367347,0.6921768707482994,0.6887755102040817,0.6887755102040817,0.6887755102040817,0.6887755102040817,0.6887755102040817,0.6887755102040817,0.6887755102040817,0.6887755102040817,0.685374149659864,0.6717687074829932,0.6683673469387755,0.6683673469387755,0.6649659863945578,0.6649659863945578,0.6649659863945578,0.6649659863945578,0.6649659863945578,0.6649659863945578,0.6649659863945578,0.6649659863945578,0.6649659863945578,0.6649659863945578,0.6649659863945578,0.6649659863945578,0.6649659863945578,0.6649659863945578,0.6649659863945578,0.6649659863945578,0.6615646258503401,0.6581632653061225,0.6479591836734694,0.6445578231292517,0.6377551020408163,0.6343537414965986,0.6309523809523809,0.6275510204081632,0.6275510204081632,0.6275510204081632,0.6207482993197279,0.6173469387755102,0.6105442176870748,0.6071428571428571,0.6003401360544217,0.5969387755102041,0.5935374149659864,0.5935374149659864,0.5935374149659864,0.5901360544217688,0.5901360544217688,0.5867346938775511,0.5833333333333334,0.5799319727891157,0.5731292517006803,0.5629251700680272,0.5595238095238095,0.5527210884353742,0.5493197278911565,0.5459183673469388,0.5459183673469388,0.5459183673469388,0.5425170068027211,0.5425170068027211,0.5425170068027211,0.5391156462585034,0.5391156462585034,0.532312925170068,0.532312925170068,0.5289115646258503,0.5255102040816326,0.5221088435374149,0.5221088435374149,0.5187074829931972,0.5187074829931972,0.5153061224489796,0.5119047619047619,0.5085034013605442,0.5051020408163265,0.49829931972789115,0.49489795918367346,0.4914965986394558,0.4846938775510204,0.4812925170068027,0.4710884353741497,0.4642857142857143,0.4608843537414966,0.4574829931972789,0.45408163265306123,0.45068027210884354,0.44387755102040816,0.44047619047619047,0.4336734693877551,0.4302721088435374,0.4200680272108844,0.413265306122449,0.39285714285714285,0.3826530612244898,0.3656462585034014,0.3622448979591837,0.3554421768707483,0.3520408163265306,0.3486394557823129,0.3486394557823129,0.34523809523809523,0.33843537414965985,0.33163265306122447,0.3282312925170068,0.32482993197278914,0.31802721088435376,0.31462585034013607,0.3112244897959184,0.3078231292517007,0.3078231292517007,0.304421768707483,0.3010204081632653,0.2976190476190476,0.2942176870748299,0.2942176870748299,0.29081632653061223,0.28741496598639454,0.28401360544217685,0.28401360544217685,0.28401360544217685,0.28401360544217685,0.28061224489795916,0.27721088435374147,0.27721088435374147,0.27380952380952384,0.27380952380952384,0.27380952380952384,0.27040816326530615,0.27040816326530615,0.27040816326530615,0.27040816326530615,0.27040816326530615,0.27040816326530615,0.27040816326530615,0.27040816326530615,0.27040816326530615,0.27040816326530615,0.27040816326530615,0.27040816326530615,0.27040816326530615,0.27040816326530615,0.27040816326530615,0.27040816326530615,0.27040816326530615,0.27040816326530615,0.27040816326530615,0.27040816326530615,0.27040816326530615,0.27040816326530615,0.27040816326530615,0.27040816326530615,0.27040816326530615,0.27040816326530615,0.27040816326530615,0.27040816326530615,0.27040816326530615,0.27040816326530615,0.27040816326530615,0.27040816326530615,0.27040816326530615,0.27040816326530615,0.27040816326530615,0.27040816326530615,0.27040816326530615,0.27040816326530615,0.27040816326530615,0.27040816326530615,0.27040816326530615,0.27040816326530615,0.27040816326530615,0.27040816326530615,0.27040816326530615,0.27040816326530615,0.27040816326530615,0.27040816326530615,0.27040816326530615,0.27040816326530615,0.27040816326530615,0.27040816326530615,0.27040816326530615,0.27040816326530615,0.27040816326530615,0.27040816326530615,0.27040816326530615,0.27040816326530615,0.27040816326530615,0.27040816326530615,0.27040816326530615,0.27040816326530615,0.27040816326530615,0.27040816326530615,0.27040816326530615,0.27040816326530615,0.27040816326530615,0.27040816326530615,0.27040816326530615,0.27040816326530615,0.27040816326530615,0.27040816326530615,0.27040816326530615,0.27040816326530615,0.27040816326530615,0.27040816326530615,0.27040816326530615,0.27040816326530615,0.27040816326530615,0.27040816326530615,0.27040816326530615,0.27040816326530615,0.27040816326530615,0.27040816326530615,0.27040816326530615,0.27040816326530615,0.27040816326530615,0.27040816326530615,0.27040816326530615,0.27040816326530615,0.27040816326530615,0.27040816326530615,0.27040816326530615,0.27040816326530615,0.27040816326530615,0.27040816326530615,0.27040816326530615,0.27040816326530615,0.27040816326530615,0.27040816326530615,0.26700680272108845,0.26700680272108845,0.26360544217687076,0.2602040816326531,0.2568027210884354,0.2568027210884354,0.2568027210884354,0.2568027210884354,0.2534013605442177,0.25,0.25,0.25,0.25,0.25,0.25,0.25,0.25,0.25,0.25,0.25,0.25,0.25,0.25,0.25,0.25,0.25,0.25,0.25,0.25,0.25,0.25,0.25,0.25,0.25,0.25,0.25,0.25,0.25,0.25,0.25,0.25,0.25,0.25,0.25,0.25,0.25,0.25,0.25,0.25,0.25,0.25,0.25,0.25,0.25,0.25,0.25,0.25,0.25,0.25,0.25,0.25,0.25,0.25,0.25,0.25,0.25,0.25,0.25,0.25,0.25,0.2465986394557823,0.24319727891156462,0.23979591836734693,0.23979591836734693,0.23979591836734693,0.23979591836734693,0.23979591836734693,0.23979591836734693,0.23979591836734693,0.23979591836734693,0.23979591836734693,0.23639455782312926,0.23639455782312926,0.23299319727891157,0.23299319727891157,0.23299319727891157,0.23299319727891157,0.23299319727891157,0.23299319727891157,0.23299319727891157,0.22959183673469388,0.22959183673469388,0.22959183673469388,0.22959183673469388,0.22959183673469388,0.22959183673469388,0.22959183673469388,0.2261904761904762,0.2261904761904762,0.2261904761904762,0.2261904761904762,0.2227891156462585,0.2227891156462585,0.2227891156462585,0.2193877551020408,0.2193877551020408,0.21598639455782312,0.21598639455782312,0.21598639455782312,0.21258503401360543,0.21258503401360543,0.21258503401360543,0.20918367346938777,0.20918367346938777,0.20578231292517007,0.20578231292517007,0.20238095238095238,0.195578231292517,0.195578231292517,0.18877551020408162,0.18537414965986396,0.17857142857142858,0.17517006802721088,0.1717687074829932,0.1683673469387755,0.1649659863945578,0.16156462585034015,0.16156462585034015,0.15816326530612246,0.15816326530612246,0.15816326530612246,0.15816326530612246,0.16156462585034015,0.16156462585034015,0.16156462585034015,0.16156462585034015,0.16156462585034015,0.16156462585034015,0.16156462585034015,0.16156462585034015,0.16156462585034015,0.16156462585034015,0.16156462585034015,0.16156462585034015,0.16156462585034015,0.16156462585034015,0.16156462585034015,0.16156462585034015,0.16156462585034015,0.16156462585034015,0.16156462585034015,0.16156462585034015,0.16156462585034015,0.16156462585034015,0.16156462585034015,0.16156462585034015,0.16156462585034015,0.16156462585034015,0.16156462585034015,0.16156462585034015,0.16156462585034015,0.16156462585034015,0.16156462585034015,0.16156462585034015,0.16156462585034015,0.16156462585034015,0.16156462585034015,0.16156462585034015,0.16156462585034015,0.16156462585034015,0.16156462585034015,0.16156462585034015,0.16156462585034015,0.16156462585034015,0.16156462585034015,0.16156462585034015,0.16156462585034015,0.16156462585034015,0.16156462585034015,0.16156462585034015,0.16156462585034015,0.16156462585034015,0.16156462585034015,0.16156462585034015,0.16156462585034015,0.16156462585034015,0.16156462585034015,0.16156462585034015,0.16156462585034015,0.16156462585034015,0.16156462585034015,0.16156462585034015,0.16156462585034015,0.16156462585034015,0.16156462585034015,0.16156462585034015,0.16156462585034015,0.16156462585034015,0.16156462585034015,0.16156462585034015,0.16156462585034015,0.16156462585034015,0.16156462585034015,0.16156462585034015,0.16156462585034015,0.16156462585034015,0.16156462585034015,0.16156462585034015,0.16156462585034015,0.16156462585034015,0.16156462585034015,0.16156462585034015,0.16156462585034015,0.16156462585034015,0.16156462585034015,0.16156462585034015,0.16156462585034015,0.16156462585034015,0.16156462585034015,0.16156462585034015,0.16156462585034015,0.16156462585034015,0.16156462585034015,0.16156462585034015,0.16156462585034015,0.16156462585034015,0.16156462585034015,0.16156462585034015,0.16156462585034015,0.16156462585034015,0.16156462585034015,0.16156462585034015,0.16156462585034015,0.16156462585034015,0.16156462585034015,0.16156462585034015,0.16156462585034015,0.16156462585034015,0.16156462585034015,0.16156462585034015,0.16156462585034015,0.16156462585034015,0.16156462585034015,0.16156462585034015,0.16156462585034015,0.16156462585034015,0.16156462585034015,0.16156462585034015,0.16156462585034015,0.16156462585034015,0.16156462585034015,0.16156462585034015,0.16156462585034015,0.16156462585034015,0.16156462585034015,0.16156462585034015,0.16156462585034015,0.16156462585034015,0.16156462585034015,0.16156462585034015,0.16156462585034015,0.16156462585034015,0.16156462585034015,0.16156462585034015,0.16156462585034015,0.16156462585034015,0.16156462585034015,0.16156462585034015,0.16156462585034015,0.16156462585034015,0.16156462585034015,0.16156462585034015,0.16156462585034015,0.16156462585034015,0.16156462585034015,0.16156462585034015,0.16156462585034015,0.16156462585034015,0.16156462585034015,0.16156462585034015,0.16156462585034015,0.16156462585034015,0.16156462585034015,0.16156462585034015,0.16156462585034015,0.16156462585034015,0.16156462585034015,0.16156462585034015,0.16156462585034015,0.16156462585034015,0.16156462585034015,0.16156462585034015,0.16156462585034015,0.16156462585034015,0.16156462585034015,0.16156462585034015,0.16156462585034015,0.16156462585034015,0.16156462585034015,0.16156462585034015,0.16156462585034015,0.16156462585034015,0.16156462585034015,0.16156462585034015,0.16156462585034015,0.16156462585034015,0.16156462585034015,0.16156462585034015,0.16156462585034015,0.16156462585034015,0.16156462585034015,0.16156462585034015,0.16156462585034015,0.16156462585034015,0.16156462585034015,0.16156462585034015,0.16156462585034015,0.16156462585034015,0.16156462585034015,0.16156462585034015,0.16156462585034015,0.16156462585034015,0.16156462585034015,0.1649659863945578,0.1649659863945578,0.1683673469387755,0.17517006802721088,0.17517006802721088,0.18197278911564627,0.18537414965986396,0.18877551020408162,0.1921768707482993,0.1989795918367347,0.1989795918367347,0.1989795918367347,0.1989795918367347,0.1989795918367347,0.1989795918367347,0.1989795918367347,0.20918367346938777,0.2193877551020408,0.24319727891156462,0.25,0.27040816326530615,0.27380952380952384,0.27721088435374147,0.27721088435374147,0.27721088435374147,0.27721088435374147,0.27721088435374147,0.27721088435374147,0.27721088435374147,0.27721088435374147,0.27721088435374147,0.27721088435374147,0.27721088435374147,0.27721088435374147,0.27721088435374147,0.27721088435374147,0.27721088435374147,0.27721088435374147,0.28061224489795916,0.28061224489795916,0.28061224489795916,0.28061224489795916,0.28061224489795916,0.28061224489795916,0.28061224489795916,0.28061224489795916,0.28061224489795916,0.28061224489795916,0.28061224489795916,0.28061224489795916,0.28061224489795916,0.28061224489795916,0.28061224489795916,0.28061224489795916,0.28061224489795916,0.28061224489795916,0.28061224489795916,0.28061224489795916,0.28061224489795916,0.28061224489795916,0.28061224489795916,0.28061224489795916,0.28061224489795916,0.28061224489795916,0.28061224489795916,0.28061224489795916,0.28061224489795916,0.28061224489795916,0.28061224489795916,0.28061224489795916,0.28061224489795916,0.28061224489795916,0.28061224489795916,0.28061224489795916,0.28061224489795916,0.28061224489795916,0.28061224489795916,0.28061224489795916,0.28061224489795916,0.28061224489795916,0.28061224489795916,0.28061224489795916,0.28061224489795916,0.28061224489795916,0.28061224489795916,0.28061224489795916,0.28061224489795916,0.28061224489795916,0.28061224489795916,0.28061224489795916,0.28061224489795916,0.28061224489795916,0.28061224489795916,0.28061224489795916,0.28061224489795916,0.28061224489795916,0.28061224489795916,0.28061224489795916,0.28061224489795916,0.28061224489795916,0.28061224489795916,0.28061224489795916,0.28061224489795916,0.28061224489795916,0.28061224489795916,0.27380952380952384,0.2534013605442177,0.22959183673469388,0.17517006802721088,0.1377551020408163,0.13095238095238096,0.12414965986394558,0.12414965986394558,0.12414965986394558,0.12414965986394558,0.12755102040816327,0.12755102040816327,0.12755102040816327,0.13095238095238096,0.13095238095238096,0.13435374149659865,0.13435374149659865,0.14795918367346939,0.16156462585034015,0.21598639455782312,0.27040816326530615,0.38945578231292516,0.44727891156462585,0.4914965986394558,0.49489795918367346,0.49489795918367346,0.49489795918367346,0.49489795918367346,0.5051020408163265,0.5255102040816326,0.532312925170068,0.5425170068027211,0.5459183673469388,0.5459183673469388,0.5459183673469388,0.5459183673469388,0.5459183673469388,0.5459183673469388,0.5459183673469388,0.5459183673469388,0.5459183673469388,0.5459183673469388,0.5459183673469388,0.5459183673469388,0.5459183673469388,0.5459183673469388,0.5459183673469388,0.5459183673469388,0.5459183673469388,0.5459183673469388,0.5459183673469388,0.5459183673469388,0.5459183673469388,0.5459183673469388,0.5459183673469388,0.5459183673469388,0.5459183673469388,0.5459183673469388,0.5459183673469388,0.5459183673469388,0.5459183673469388,0.5459183673469388,0.5459183673469388,0.5459183673469388,0.5459183673469388,0.5459183673469388,0.5459183673469388,0.5459183673469388,0.5459183673469388,0.5459183673469388,0.5459183673469388,0.5459183673469388,0.5459183673469388,0.5459183673469388,0.5459183673469388,0.5459183673469388,0.5459183673469388,0.5459183673469388,0.5459183673469388,0.5459183673469388,0.5459183673469388,0.5459183673469388,0.5459183673469388,0.5493197278911565,0.5493197278911565,0.5493197278911565,0.5493197278911565,0.5493197278911565,0.5493197278911565,0.5493197278911565,0.5493197278911565,0.5493197278911565,0.5493197278911565,0.5493197278911565,0.5493197278911565,0.5493197278911565,0.5493197278911565,0.5493197278911565,0.5493197278911565,0.5493197278911565,0.5493197278911565,0.5493197278911565,0.5493197278911565,0.5493197278911565,0.5493197278911565,0.5493197278911565,0.5493197278911565,0.5493197278911565,0.5493197278911565,0.5493197278911565,0.5493197278911565,0.5493197278911565,0.5493197278911565,0.5493197278911565,0.5493197278911565,0.5493197278911565,0.5493197278911565,0.5493197278911565,0.5493197278911565,0.5493197278911565,0.5493197278911565,0.5493197278911565,0.5493197278911565,0.5493197278911565,0.5493197278911565,0.5493197278911565,0.5493197278911565,0.5527210884353742,0.5527210884353742,0.5527210884353742,0.5527210884353742,0.5527210884353742,0.5493197278911565,0.5493197278911565,0.5493197278911565,0.5425170068027211,0.5357142857142857,0.5153061224489796,0.49829931972789115,0.44387755102040816,0.39285714285714285,0.27380952380952384,0.2227891156462585,0.1445578231292517,0.12074829931972789,0.10034013605442177,0.09693877551020408,0.09693877551020408,0.09693877551020408,0.09693877551020408,0.09693877551020408,0.09693877551020408,0.09013605442176871,0.08673469387755102,0.07312925170068027,0.0663265306122449,0.04931972789115646,0.0391156462585034,0.03231292517006803,0.03231292517006803,0.03571428571428571,0.0391156462585034,0.04591836734693878,0.04931972789115646,0.06292517006802721,0.06972789115646258,0.07993197278911565,0.09693877551020408,0.11394557823129252,0.12414965986394558,0.1445578231292517,0.15476190476190477,0.1717687074829932,0.17857142857142858,0.18197278911564627,0.18197278911564627,0.18197278911564627,0.18197278911564627,0.18197278911564627,0.17857142857142858,0.1717687074829932,0.1683673469387755,0.1649659863945578,0.1649659863945578,0.1649659863945578,0.1649659863945578,0.1649659863945578,0.16156462585034015,0.16156462585034015,0.15476190476190477,0.15136054421768708,0.14795918367346939,0.14795918367346939,0.1445578231292517,0.1445578231292517,0.1445578231292517,0.1445578231292517,0.1445578231292517,0.1445578231292517,0.1445578231292517,0.1445578231292517,0.1445578231292517,0.1445578231292517,0.1445578231292517,0.1445578231292517,0.1445578231292517,0.1445578231292517,0.1445578231292517,0.1445578231292517,0.1445578231292517,0.1445578231292517,0.1445578231292517,0.1445578231292517,0.1445578231292517,0.1445578231292517,0.1445578231292517,0.1445578231292517,0.1445578231292517,0.1445578231292517,0.1445578231292517,0.1445578231292517,0.1445578231292517,0.1445578231292517,0.1445578231292517,0.1445578231292517,0.1445578231292517,0.1445578231292517,0.1445578231292517,0.1445578231292517,0.1445578231292517,0.1445578231292517,0.1445578231292517,0.1445578231292517,0.1445578231292517,0.1445578231292517,0.1445578231292517,0.1445578231292517,0.1445578231292517,0.1445578231292517,0.1445578231292517,0.1445578231292517,0.1445578231292517,0.1445578231292517,0.1445578231292517,0.1445578231292517,0.1445578231292517,0.1445578231292517,0.1445578231292517,0.1445578231292517,0.1445578231292517,0.1445578231292517,0.1445578231292517,0.1445578231292517,0.1445578231292517,0.1445578231292517,0.1445578231292517,0.1445578231292517,0.1445578231292517,0.1445578231292517,0.1445578231292517,0.1445578231292517,0.141156462585034,0.12414965986394558,0.10714285714285714,0.06292517006802721,0.05272108843537415,0.0391156462585034,0.03571428571428571,0.025510204081632654,0.022108843537414966,0.015306122448979591,0.011904761904761904,0.008503401360544218,0.00510204081632653,0.00510204081632653,0.00510204081632653,0.00510204081632653,0.00510204081632653,0.015306122448979591,0.025510204081632654,0.0663265306122449,0.11394557823129252,0.22959183673469388,0.34183673469387754,0.4370748299319728,0.7295918367346939,0.8180272108843537,1.0085034013605443,1.066326530612245,1.086734693877551,1.086734693877551,1.086734693877551,1.086734693877551,1.0629251700680271,1.0595238095238095,1.0493197278911566,1.0425170068027212,1.032312925170068,1.032312925170068,1.032312925170068,1.032312925170068,1.032312925170068,1.032312925170068,1.0289115646258504,1.022108843537415,1.0187074829931972,1.0187074829931972,1.0153061224489797,1.0153061224489797,1.0153061224489797,1.0153061224489797,1.0153061224489797,1.0153061224489797,1.0153061224489797,1.0153061224489797,1.0153061224489797,1.0153061224489797,1.0153061224489797,1.0153061224489797,1.0187074829931972,1.0187074829931972,1.0187074829931972,1.0187074829931972,1.0187074829931972,1.0153061224489797,1.0119047619047619,1.0051020408163265,1.001700680272109,1.0051020408163265,1.0051020408163265,1.0051020408163265,1.0051020408163265,1.0051020408163265,1.0051020408163265,1.0051020408163265,1.0051020408163265,0.9982993197278912,0.9710884353741497,0.9438775510204082,0.8996598639455783,0.8724489795918368,0.8180272108843537,0.7908163265306123,0.6785714285714286,0.6343537414965986,0.5595238095238095,0.5289115646258503,0.5017006802721088,0.4914965986394558,0.4608843537414966,0.44047619047619047,0.3282312925170068,0.29081632653061223,0.23299319727891157,0.20918367346938777,0.18537414965986396,0.18197278911564627,0.17857142857142858,0.17857142857142858,0.17857142857142858,0.17857142857142858,0.17857142857142858,0.17857142857142858,0.17857142857142858,0.17857142857142858,0.17857142857142858,0.17857142857142858,0.17857142857142858,0.17857142857142858,0.17857142857142858,0.17857142857142858,0.17857142857142858,0.18877551020408162,0.20918367346938777,0.2534013605442177,0.27721088435374147,0.3078231292517007,0.32142857142857145,0.34183673469387754,0.3486394557823129,0.358843537414966,0.3622448979591837,0.37244897959183676,0.3758503401360544,0.38605442176870747,0.39965986394557823,0.44727891156462585,0.4846938775510204,0.5731292517006803,0.6071428571428571,0.6275510204081632,0.6513605442176871,0.6615646258503401,0.6989795918367347,0.7125850340136054,0.75,0.7840136054421769,0.8418367346938775,0.8656462585034014,0.8962585034013606,0.9064625850340136,0.9098639455782312,0.9098639455782312,0.9098639455782312,0.9098639455782312,0.9200680272108843,0.9302721088435374,0.9472789115646258,0.9506802721088435,0.9540816326530612,0.9540816326530612,0.9540816326530612,0.9608843537414966,0.9744897959183674,1.0153061224489797,1.0527210884353742,1.0595238095238095,1.066326530612245,1.0799319727891157,1.086734693877551,1.096938775510204,1.1003401360544218,1.1139455782312926,1.1173469387755102,1.1241496598639455,1.1275510204081634,1.1377551020408163,1.1377551020408163,1.1377551020408163,1.1377551020408163,1.1377551020408163,1.1377551020408163,1.1377551020408163,1.1377551020408163,1.1377551020408163,1.1377551020408163,1.1377551020408163,1.1377551020408163,1.1377551020408163,1.0493197278911566,0.923469387755102,0.7465986394557823,0.5935374149659864,0.5119047619047619,0.4166666666666667,0.39285714285714285,0.37244897959183676,0.3656462585034014,0.3622448979591837,0.3622448979591837,0.358843537414966,0.33843537414965985,0.3078231292517007,0.26360544217687076,0.25,0.23639455782312926,0.23299319727891157,0.2193877551020408,0.20918367346938777,0.17517006802721088,0.16156462585034015,0.12074829931972789,0.10034013605442177,0.06972789115646258,0.05612244897959184,0.0391156462585034,0.03231292517006803,0.01870748299319728,0.011904761904761904,-0.0017006802721088435,-0.008503401360544218,-0.015306122448979591,-0.01870748299319728,-0.01870748299319728,-0.01870748299319728,-0.01870748299319728,-0.01870748299319728,-0.01870748299319728,-0.01870748299319728,-0.01870748299319728,-0.01870748299319728,-0.01870748299319728,-0.01870748299319728,-0.01870748299319728,-0.01870748299319728,-0.01870748299319728,-0.01870748299319728,-0.01870748299319728,-0.01870748299319728,-0.01870748299319728,-0.01870748299319728,-0.01870748299319728,-0.01870748299319728,-0.01870748299319728,-0.01870748299319728,-0.01870748299319728,-0.01870748299319728,-0.01870748299319728,-0.01870748299319728,-0.01870748299319728,-0.01870748299319728,-0.01870748299319728,-0.01870748299319728,-0.01870748299319728,-0.01870748299319728,-0.01870748299319728,-0.01870748299319728,-0.01870748299319728,-0.01870748299319728,-0.01870748299319728,-0.01870748299319728,-0.01870748299319728,-0.01870748299319728,-0.01870748299319728,-0.01870748299319728,-0.01870748299319728,-0.01870748299319728,-0.01870748299319728,-0.01870748299319728,-0.01870748299319728,-0.01870748299319728,-0.01870748299319728,-0.01870748299319728,-0.01870748299319728,-0.01870748299319728,-0.01870748299319728,-0.01870748299319728,-0.01870748299319728,-0.03231292517006803,-0.06292517006802721,-0.07653061224489796,-0.10034013605442177,-0.1377551020408163,-0.15476190476190477,-0.195578231292517,-0.21598639455782312,-0.2227891156462585,-0.2193877551020408,-0.21598639455782312,-0.21598639455782312,-0.2261904761904762,-0.24319727891156462,-0.2942176870748299,-0.32142857142857145,-0.39285714285714285,-0.44047619047619047,-0.5425170068027211,-0.5935374149659864,-0.7363945578231292,-0.8044217687074829,-0.9812925170068028,-1.0731292517006803,-1.130952380952381,-1.2465986394557824,-1.3418367346938775,-1.3962585034013606,-1.4302721088435375,-1.501700680272109,-1.5357142857142858,-1.5697278911564625,-1.5833333333333333,-1.5935374149659864,-1.596938775510204,-1.6003401360544218,-1.596938775510204,-1.5833333333333333,-1.566326530612245,-1.4574829931972788,-1.3894557823129252,-1.1581632653061225,-0.9982993197278912,-0.7568027210884354,-0.6649659863945578,-0.576530612244898,-0.5595238095238095,-0.5391156462585034,-0.5221088435374149,-0.5119047619047619,-0.5051020408163265,-0.5017006802721088,-0.5017006802721088,-0.5017006802721088,-0.5017006802721088,-0.5017006802721088,-0.5017006802721088,-0.5017006802721088,-0.5017006802721088,-0.5017006802721088,-0.5017006802721088,-0.5017006802721088,-0.5017006802721088,-0.5017006802721088,-0.5017006802721088,-0.5017006802721088,-0.5017006802721088,-0.5017006802721088,-0.5017006802721088,-0.5017006802721088,-0.5017006802721088,-0.5017006802721088,-0.5017006802721088,-0.5017006802721088,-0.5017006802721088,-0.5017006802721088,-0.5017006802721088,-0.5017006802721088,-0.5017006802721088,-0.5017006802721088,-0.5017006802721088,-0.5017006802721088],"y":[-5,-5,-5,-5,-5,-5,-5,-5,0.05714285714285714,0.05714285714285714,0.05714285714285714,0.05714285714285714,0.05714285714285714,0.05714285714285714,0.05714285714285714,0.05714285714285714,0.05714285714285714,0.05714285714285714,0.05714285714285714,0.05714285714285714,0.05714285714285714,0.05714285714285714,0.05714285714285714,0.05714285714285714,0.05714285714285714,0.05714285714285714,0.05714285714285714,0.05714285714285714,0.05714285714285714,0.05714285714285714,0.05714285714285714,0.05714285714285714,0.05714285714285714,0.05714285714285714,0.05714285714285714,0.05714285714285714,0.05714285714285714,0.05714285714285714,0.05714285714285714,0.05714285714285714,0.06666666666666667,0.08571428571428572,0.09523809523809523,0.09523809523809523,0.09523809523809523,0.09523809523809523,0.09523809523809523,0.09523809523809523,0.09523809523809523,0.09523809523809523,0.09523809523809523,0.09523809523809523,0.09523809523809523,0.09523809523809523,0.10476190476190476,0.11428571428571428,0.12380952380952381,0.12380952380952381,0.12380952380952381,0.12380952380952381,0.12380952380952381,0.12380952380952381,0.12380952380952381,0.12380952380952381,0.13333333333333333,0.1523809523809524,0.18095238095238095,0.20952380952380953,0.2571428571428571,0.2761904761904762,0.3142857142857143,0.3238095238095238,0.34285714285714286,0.3523809523809524,0.38095238095238093,0.4,0.44761904761904764,0.4666666666666667,0.5428571428571428,0.5714285714285714,0.6666666666666666,0.7238095238095238,0.819047619047619,0.8761904761904762,0.9714285714285714,1.0285714285714285,1.1047619047619048,1.2380952380952381,1.2857142857142858,1.3428571428571427,1.3523809523809525,1.3904761904761904,1.4095238095238096,1.4476190476190476,1.4666666666666666,1.4952380952380953,1.5047619047619047,1.4952380952380953,1.4857142857142858,1.457142857142857,1.4476190476190476,1.4095238095238096,1.4095238095238096,1.3428571428571427,1.3047619047619048,1.2476190476190476,1.2285714285714286,1.1714285714285715,1.1428571428571428,1.1047619047619048,1.0857142857142856,1.0666666666666667,1.0571428571428572,1.0476190476190477,1.019047619047619,1.019047619047619,1.0095238095238095,1.0095238095238095,1.0095238095238095,1.0095238095238095,1.0095238095238095,1.0095238095238095,1.0095238095238095,1.0095238095238095,1,0.9523809523809523,0.8380952380952381,0.7619047619047619,0.6,0.5238095238095238,0.3238095238095238,0.21904761904761905,0.0761904761904762,0.01904761904761905,-0.01904761904761905,-0.02857142857142857,-0.02857142857142857,-0.02857142857142857,-0.02857142857142857,-0.02857142857142857,-0.02857142857142857,-0.02857142857142857,-0.0380952380952381,-0.06666666666666667,-0.06666666666666667,-0.0761904761904762,-0.0761904761904762,-0.0761904761904762,-0.0761904761904762,-0.0761904761904762,-0.0761904761904762,-0.0761904761904762,-0.0761904761904762,-0.0761904761904762,-0.0761904761904762,-0.0761904761904762,-0.0761904761904762,-0.0761904761904762,-0.0761904761904762,-0.0761904761904762,-0.0761904761904762,-0.0761904761904762,-0.0761904761904762,-0.0761904761904762,-0.0761904761904762,-0.0761904761904762,-0.0761904761904762,-0.0761904761904762,-0.0761904761904762,-0.0761904761904762,-0.0761904761904762,-0.0761904761904762,-0.0761904761904762,-0.0761904761904762,-0.0761904761904762,-0.0761904761904762,-0.0761904761904762,-0.0761904761904762,-0.0761904761904762,-0.0761904761904762,-0.0761904761904762,-0.0761904761904762,-0.0761904761904762,-0.0761904761904762,-0.0761904761904762,-0.0761904761904762,-0.0761904761904762,-0.0761904761904762,-0.0761904761904762,-0.0761904761904762,-0.0761904761904762,-0.0761904761904762,-0.0761904761904762,-0.0761904761904762,-0.0761904761904762,-0.0761904761904762,-0.0761904761904762,-0.0761904761904762,-0.0761904761904762,-0.0761904761904762,-0.0761904761904762,-0.0761904761904762,-0.0761904761904762,-0.0761904761904762,-0.0761904761904762,-0.0761904761904762,-0.0761904761904762,-0.06666666666666667,-0.06666666666666667,-0.06666666666666667,-0.06666666666666667,-0.06666666666666667,-0.06666666666666667,-0.06666666666666667,-0.06666666666666667,-0.05714285714285714,-0.0380952380952381,-0.009523809523809525,0.009523809523809525,0.047619047619047616,0.05714285714285714,0.06666666666666667,0.08571428571428572,0.10476190476190476,0.13333333333333333,0.14285714285714285,0.17142857142857143,0.19047619047619047,0.23809523809523808,0.26666666666666666,0.3047619047619048,0.3333333333333333,0.37142857142857144,0.3904761904761905,0.41904761904761906,0.42857142857142855,0.42857142857142855,0.42857142857142855,0.42857142857142855,0.42857142857142855,0.42857142857142855,0.42857142857142855,0.4380952380952381,0.4380952380952381,0.44761904761904764,0.45714285714285713,0.4666666666666667,0.47619047619047616,0.4857142857142857,0.4857142857142857,0.4857142857142857,0.4857142857142857,0.4857142857142857,0.4857142857142857,0.4857142857142857,0.4857142857142857,0.4857142857142857,0.4857142857142857,0.4857142857142857,0.4857142857142857,0.4857142857142857,0.4857142857142857,0.4857142857142857,0.4857142857142857,0.4857142857142857,0.4857142857142857,0.4857142857142857,0.4857142857142857,0.4857142857142857,0.4857142857142857,0.4857142857142857,0.4857142857142857,0.4857142857142857,0.4857142857142857,0.4857142857142857,0.4857142857142857,0.4857142857142857,0.4857142857142857,0.4857142857142857,0.4857142857142857,0.4857142857142857,0.4857142857142857,0.4857142857142857,0.4857142857142857,0.4857142857142857,0.4857142857142857,0.4857142857142857,0.4857142857142857,0.4857142857142857,0.4857142857142857,0.4857142857142857,0.4857142857142857,0.4857142857142857,0.4857142857142857,0.4857142857142857,0.4857142857142857,0.4857142857142857,0.4857142857142857,0.4857142857142857,0.4857142857142857,0.4857142857142857,0.4857142857142857,0.4857142857142857,0.4857142857142857,0.4857142857142857,0.4857142857142857,0.4857142857142857,0.4857142857142857,0.4857142857142857,0.4857142857142857,0.4857142857142857,0.4857142857142857,0.4857142857142857,0.4857142857142857,0.4857142857142857,0.4857142857142857,0.4857142857142857,0.4857142857142857,0.4857142857142857,0.4857142857142857,0.4857142857142857,0.4857142857142857,0.4857142857142857,0.4857142857142857,0.4857142857142857,0.4857142857142857,0.4857142857142857,0.4857142857142857,0.4857142857142857,0.4857142857142857,0.4857142857142857,0.4857142857142857,0.4857142857142857,0.4857142857142857,0.4857142857142857,0.4857142857142857,0.4857142857142857,0.4857142857142857,0.4857142857142857,0.4857142857142857,0.4857142857142857,0.4857142857142857,0.4857142857142857,0.4857142857142857,0.4857142857142857,0.4857142857142857,0.4857142857142857,0.4857142857142857,0.4857142857142857,0.4857142857142857,0.4857142857142857,0.4857142857142857,0.4857142857142857,0.4857142857142857,0.4857142857142857,0.4857142857142857,0.4857142857142857,0.4857142857142857,0.4857142857142857,0.4857142857142857,0.4857142857142857,0.4857142857142857,0.4857142857142857,0.4857142857142857,0.4857142857142857,0.4857142857142857,0.4857142857142857,0.4857142857142857,0.4857142857142857,0.4857142857142857,0.4857142857142857,0.4857142857142857,0.4857142857142857,0.4857142857142857,0.4857142857142857,0.4857142857142857,0.4857142857142857,0.4857142857142857,0.4857142857142857,0.4857142857142857,0.4857142857142857,0.4857142857142857,0.4857142857142857,0.4857142857142857,0.4857142857142857,0.4857142857142857,0.4857142857142857,0.4857142857142857,0.4857142857142857,0.4857142857142857,0.4857142857142857,0.4857142857142857,0.4857142857142857,0.4857142857142857,0.4857142857142857,0.4857142857142857,0.4857142857142857,0.4857142857142857,0.4857142857142857,0.4857142857142857,0.4857142857142857,0.4857142857142857,0.4857142857142857,0.4857142857142857,0.4857142857142857,0.4857142857142857,0.4857142857142857,0.4857142857142857,0.4857142857142857,0.4857142857142857,0.4857142857142857,0.4857142857142857,0.4857142857142857,0.4857142857142857,0.4857142857142857,0.4857142857142857,0.4857142857142857,0.4857142857142857,0.4857142857142857,0.4857142857142857,0.4857142857142857,0.4857142857142857,0.4857142857142857,0.4857142857142857,0.4857142857142857,0.4857142857142857,0.4857142857142857,0.4857142857142857,0.4857142857142857,0.4857142857142857,0.4857142857142857,0.4857142857142857,0.4857142857142857,0.4857142857142857,0.4857142857142857,0.4857142857142857,0.4857142857142857,0.4857142857142857,0.4857142857142857,0.4857142857142857,0.4857142857142857,0.4857142857142857,0.4857142857142857,0.4857142857142857,0.4857142857142857,0.4857142857142857,0.4857142857142857,0.4857142857142857,0.4857142857142857,0.4857142857142857,0.4857142857142857,0.4857142857142857,0.4857142857142857,0.4857142857142857,0.4857142857142857,0.4857142857142857,0.4857142857142857,0.4857142857142857,0.4857142857142857,0.4857142857142857,0.4857142857142857,0.4857142857142857,0.4857142857142857,0.4857142857142857,0.4857142857142857,0.4857142857142857,0.4857142857142857,0.4857142857142857,0.4857142857142857,0.49523809523809526,0.49523809523809526,0.49523809523809526,0.49523809523809526,0.49523809523809526,0.49523809523809526,0.49523809523809526,0.49523809523809526,0.49523809523809526,0.49523809523809526,0.5047619047619047,0.5047619047619047,0.5047619047619047,0.5047619047619047,0.5047619047619047,0.5047619047619047,0.5047619047619047,0.5047619047619047,0.5047619047619047,0.5047619047619047,0.5047619047619047,0.5047619047619047,0.5047619047619047,0.5047619047619047,0.5047619047619047,0.5047619047619047,0.5047619047619047,0.5047619047619047,0.5047619047619047,0.5047619047619047,0.5047619047619047,0.5047619047619047,0.5047619047619047,0.5047619047619047,0.5047619047619047,0.5047619047619047,0.5047619047619047,0.5047619047619047,0.5047619047619047,0.5047619047619047,0.5047619047619047,0.5047619047619047,0.5047619047619047,0.5047619047619047,0.5047619047619047,0.5047619047619047,0.5047619047619047,0.5047619047619047,0.5047619047619047,0.5142857142857142,0.5142857142857142,0.5142857142857142,0.5142857142857142,0.5142857142857142,0.5142857142857142,0.5142857142857142,0.5142857142857142,0.5142857142857142,0.5238095238095238,0.5238095238095238,0.5238095238095238,0.5238095238095238,0.5238095238095238,0.5238095238095238,0.5238095238095238,0.5333333333333333,0.5333333333333333,0.5333333333333333,0.5428571428571428,0.5428571428571428,0.5428571428571428,0.5428571428571428,0.5523809523809524,0.5523809523809524,0.5523809523809524,0.5523809523809524,0.5523809523809524,0.5619047619047619,0.5714285714285714,0.5714285714285714,0.5714285714285714,0.580952380952381,0.5904761904761905,0.6,0.6095238095238096,0.6190476190476191,0.6190476190476191,0.6285714285714286,0.6285714285714286,0.638095238095238,0.638095238095238,0.6476190476190476,0.6476190476190476,0.6571428571428571,0.6571428571428571,0.6761904761904762,0.6761904761904762,0.6952380952380952,0.6952380952380952,0.6952380952380952,0.6952380952380952,0.6952380952380952,0.6952380952380952,0.6952380952380952,0.6952380952380952,0.6952380952380952,0.6857142857142857,0.6857142857142857,0.6857142857142857,0.6857142857142857,0.6761904761904762,0.6761904761904762,0.6761904761904762,0.6666666666666666,0.6571428571428571,0.6571428571428571,0.638095238095238,0.638095238095238,0.6285714285714286,0.6190476190476191,0.6190476190476191,0.6190476190476191,0.6095238095238096,0.6095238095238096,0.6095238095238096,0.6,0.6,0.6,0.5904761904761905,0.5904761904761905,0.580952380952381,0.580952380952381,0.580952380952381,0.580952380952381,0.580952380952381,0.580952380952381,0.580952380952381,0.5714285714285714,0.5714285714285714,0.5619047619047619,0.5619047619047619,0.5619047619047619,0.5523809523809524,0.5523809523809524,0.5523809523809524,0.5523809523809524,0.5523809523809524,0.5523809523809524,0.5523809523809524,0.5523809523809524,0.5523809523809524,0.5523809523809524,0.5523809523809524,0.5523809523809524,0.5523809523809524,0.5523809523809524,0.5523809523809524,0.5523809523809524,0.5523809523809524,0.5523809523809524,0.5523809523809524,0.5523809523809524,0.5523809523809524,0.5523809523809524,0.5523809523809524,0.5523809523809524,0.5523809523809524,0.5523809523809524,0.5523809523809524,0.5523809523809524,0.5523809523809524,0.5523809523809524,0.5523809523809524,0.5523809523809524,0.5523809523809524,0.5523809523809524,0.5523809523809524,0.5523809523809524,0.5523809523809524,0.5523809523809524,0.5523809523809524,0.5523809523809524,0.5523809523809524,0.5523809523809524,0.5523809523809524,0.5523809523809524,0.5523809523809524,0.5523809523809524,0.5523809523809524,0.5523809523809524,0.5523809523809524,0.5523809523809524,0.5523809523809524,0.5523809523809524,0.5523809523809524,0.5523809523809524,0.5523809523809524,0.5523809523809524,0.5523809523809524,0.5523809523809524,0.5523809523809524,0.5523809523809524,0.5523809523809524,0.5523809523809524,0.5523809523809524,0.5523809523809524,0.5523809523809524,0.5523809523809524,0.5523809523809524,0.5523809523809524,0.5523809523809524,0.5523809523809524,0.5523809523809524,0.5523809523809524,0.5523809523809524,0.5523809523809524,0.5523809523809524,0.5523809523809524,0.5523809523809524,0.5523809523809524,0.5523809523809524,0.5523809523809524,0.5523809523809524,0.5523809523809524,0.5523809523809524,0.5523809523809524,0.5523809523809524,0.5523809523809524,0.5523809523809524,0.5523809523809524,0.5619047619047619,0.5714285714285714,0.6,0.6190476190476191,0.6571428571428571,0.6761904761904762,0.7047619047619048,0.7142857142857143,0.7142857142857143,0.7333333333333333,0.7333333333333333,0.7333333333333333,0.7333333333333333,0.7333333333333333,0.7333333333333333,0.7333333333333333,0.7333333333333333,0.7333333333333333,0.7333333333333333,0.7333333333333333,0.7333333333333333,0.7333333333333333,0.7333333333333333,0.7333333333333333,0.7333333333333333,0.7333333333333333,0.7333333333333333,0.7333333333333333,0.7333333333333333,0.7333333333333333,0.7333333333333333,0.7333333333333333,0.7333333333333333,0.7333333333333333,0.7333333333333333,0.7333333333333333,0.7333333333333333,0.7333333333333333,0.7333333333333333,0.7333333333333333,0.7333333333333333,0.7333333333333333,0.7333333333333333,0.7333333333333333,0.7333333333333333,0.7333333333333333,0.7333333333333333,0.7333333333333333,0.7333333333333333,0.7333333333333333,0.7333333333333333,0.7333333333333333,0.7333333333333333,0.7333333333333333,0.7333333333333333,0.7333333333333333,0.7333333333333333,0.7333333333333333,0.7333333333333333,0.7333333333333333,0.7333333333333333,0.7333333333333333,0.7333333333333333,0.7333333333333333,0.7333333333333333,0.7333333333333333,0.7333333333333333,0.7333333333333333,0.7333333333333333,0.7333333333333333,0.7238095238095238,0.7238095238095238,0.7142857142857143,0.7142857142857143,0.7142857142857143,0.7142857142857143,0.7142857142857143,0.7142857142857143,0.7142857142857143,0.7142857142857143,0.7142857142857143,0.7047619047619048,0.6952380952380952,0.6952380952380952,0.6952380952380952,0.6857142857142857,0.6857142857142857,0.6857142857142857,0.6857142857142857,0.6857142857142857,0.6761904761904762,0.6761904761904762,0.6761904761904762,0.6666666666666666,0.6666666666666666,0.6666666666666666,0.6666666666666666,0.6571428571428571,0.6571428571428571,0.6571428571428571,0.6571428571428571,0.6476190476190476,0.6476190476190476,0.6476190476190476,0.638095238095238,0.6285714285714286,0.6285714285714286,0.6285714285714286,0.6190476190476191,0.6190476190476191,0.6190476190476191,0.6095238095238096,0.6,0.5904761904761905,0.580952380952381,0.5714285714285714,0.5523809523809524,0.5238095238095238,0.49523809523809526,0.44761904761904764,0.42857142857142855,0.37142857142857144,0.34285714285714286,0.2857142857142857,0.2571428571428571,0.2,0.18095238095238095,0.14285714285714285,0.13333333333333333,0.10476190476190476,0.09523809523809523,0.0761904761904762,0.0761904761904762,0.06666666666666667,0.06666666666666667,0.05714285714285714,0.047619047619047616,0.047619047619047616,0.047619047619047616,0.0380952380952381,0.02857142857142857,0.01904761904761905,0.01904761904761905,0.01904761904761905,0.009523809523809525,0.009523809523809525,0.009523809523809525,0.009523809523809525,0.009523809523809525,0.009523809523809525,0.009523809523809525,0.009523809523809525,0.009523809523809525,0.009523809523809525,0.009523809523809525,0.009523809523809525,0.009523809523809525,0.009523809523809525,0.009523809523809525,0.009523809523809525,0.009523809523809525,0.009523809523809525,0.009523809523809525,0.009523809523809525,0.009523809523809525,0.009523809523809525,0.009523809523809525,0.009523809523809525,0.009523809523809525,0.009523809523809525,0.009523809523809525,0.009523809523809525,0.009523809523809525,0.009523809523809525,0.009523809523809525,0.009523809523809525,0.009523809523809525,0.009523809523809525,0.009523809523809525,0.009523809523809525,0.009523809523809525,0.009523809523809525,0.009523809523809525,0.009523809523809525,0.009523809523809525,0.009523809523809525,0.009523809523809525,0.009523809523809525,0.009523809523809525,0.009523809523809525,0.009523809523809525,0.009523809523809525,0.009523809523809525,0.009523809523809525,0.009523809523809525,0.009523809523809525,0.009523809523809525,0.009523809523809525,0.009523809523809525,0.009523809523809525,0.009523809523809525,0.009523809523809525,0.009523809523809525,0.009523809523809525,0.009523809523809525,0.009523809523809525,0.009523809523809525,0.009523809523809525,0.009523809523809525,0.009523809523809525,0.009523809523809525,0.009523809523809525,0.009523809523809525,0.009523809523809525,0.009523809523809525,0.009523809523809525,0.009523809523809525,0.009523809523809525,0.009523809523809525,0.009523809523809525,0.009523809523809525,0.009523809523809525,0.009523809523809525,0.009523809523809525,0.009523809523809525,0.009523809523809525,0.009523809523809525,0.009523809523809525,0.009523809523809525,0.009523809523809525,0.009523809523809525,0.009523809523809525,0.009523809523809525,0.009523809523809525,0.009523809523809525,0.009523809523809525,0.009523809523809525,0.009523809523809525,0.009523809523809525,0.009523809523809525,0.009523809523809525,0.009523809523809525,0.009523809523809525,0.009523809523809525,0.009523809523809525,0.009523809523809525,0.009523809523809525,0.009523809523809525,0.009523809523809525,0.009523809523809525,0.009523809523809525,0.009523809523809525,0.009523809523809525,0.009523809523809525,0.009523809523809525,0.009523809523809525,0.009523809523809525,0.009523809523809525,0.009523809523809525,0.009523809523809525,0.009523809523809525,0.009523809523809525,0.009523809523809525,0.009523809523809525,0.009523809523809525,0.009523809523809525,0.009523809523809525,0.009523809523809525,0.009523809523809525,0.009523809523809525,0.009523809523809525,0.009523809523809525,0.009523809523809525,0.009523809523809525,0.009523809523809525,0.009523809523809525,0.009523809523809525,0.009523809523809525,0.009523809523809525,0.009523809523809525,0.009523809523809525,0.009523809523809525,0.009523809523809525,0.009523809523809525,0.009523809523809525,0.009523809523809525,0.009523809523809525,0.009523809523809525,0.009523809523809525,0.009523809523809525,0.009523809523809525,0.009523809523809525,0.009523809523809525,0.009523809523809525,0.009523809523809525,0.009523809523809525,0.009523809523809525,0.009523809523809525,0.009523809523809525,0.009523809523809525,0.009523809523809525,0.009523809523809525,0.009523809523809525,0.009523809523809525,0.009523809523809525,0.009523809523809525,0.009523809523809525,0.009523809523809525,0.009523809523809525,0.009523809523809525,0.009523809523809525,0.009523809523809525,0.009523809523809525,0.009523809523809525,0.009523809523809525,0.009523809523809525,0.009523809523809525,0.01904761904761905,0.02857142857142857,0.02857142857142857,0.0380952380952381,0.047619047619047616,0.05714285714285714,0.0761904761904762,0.11428571428571428,0.14285714285714285,0.21904761904761905,0.2571428571428571,0.3619047619047619,0.3904761904761905,0.45714285714285713,0.4857142857142857,0.5047619047619047,0.5047619047619047,0.5047619047619047,0.5047619047619047,0.5047619047619047,0.5047619047619047,0.5047619047619047,0.5047619047619047,0.5047619047619047,0.5047619047619047,0.5142857142857142,0.5238095238095238,0.5238095238095238,0.5238095238095238,0.5238095238095238,0.5238095238095238,0.5238095238095238,0.5238095238095238,0.5238095238095238,0.5238095238095238,0.5238095238095238,0.5238095238095238,0.5238095238095238,0.5238095238095238,0.5238095238095238,0.5238095238095238,0.5238095238095238,0.5238095238095238,0.5238095238095238,0.5238095238095238,0.5238095238095238,0.5238095238095238,0.5238095238095238,0.5238095238095238,0.5238095238095238,0.5238095238095238,0.5238095238095238,0.5238095238095238,0.5238095238095238,0.5238095238095238,0.5238095238095238,0.5238095238095238,0.5238095238095238,0.5238095238095238,0.5238095238095238,0.5238095238095238,0.5238095238095238,0.5238095238095238,0.5238095238095238,0.5238095238095238,0.5238095238095238,0.5238095238095238,0.5238095238095238,0.5238095238095238,0.5238095238095238,0.5238095238095238,0.5238095238095238,0.5238095238095238,0.5238095238095238,0.5238095238095238,0.5238095238095238,0.5238095238095238,0.5238095238095238,0.5238095238095238,0.5238095238095238,0.5238095238095238,0.5238095238095238,0.5238095238095238,0.5238095238095238,0.5238095238095238,0.5238095238095238,0.5238095238095238,0.5238095238095238,0.5238095238095238,0.5238095238095238,0.5238095238095238,0.5238095238095238,0.5238095238095238,0.5238095238095238,0.5238095238095238,0.5238095238095238,0.5238095238095238,0.5238095238095238,0.5238095238095238,0.5238095238095238,0.5238095238095238,0.5238095238095238,0.5238095238095238,0.5238095238095238,0.5238095238095238,0.5238095238095238,0.5238095238095238,0.5238095238095238,0.5238095238095238,0.5238095238095238,0.5238095238095238,0.5238095238095238,0.5333333333333333,0.5428571428571428,0.5714285714285714,0.580952380952381,0.5904761904761905,0.5904761904761905,0.5904761904761905,0.5904761904761905,0.5904761904761905,0.580952380952381,0.5714285714285714,0.5714285714285714,0.5523809523809524,0.5428571428571428,0.5142857142857142,0.5047619047619047,0.44761904761904764,0.41904761904761906,0.3142857142857143,0.22857142857142856,0.0761904761904762,0.01904761904761905,-0.02857142857142857,-0.0380952380952381,-0.0380952380952381,-0.0380952380952381,-0.0380952380952381,-0.0380952380952381,-0.0380952380952381,-0.0380952380952381,-0.0380952380952381,-0.0380952380952381,-0.0380952380952381,-0.0380952380952381,-0.0380952380952381,-0.0380952380952381,-0.0380952380952381,-0.0380952380952381,-0.0380952380952381,-0.0380952380952381,-0.0380952380952381,-0.0380952380952381,-0.0380952380952381,-0.0380952380952381,-0.0380952380952381,-0.0380952380952381,-0.0380952380952381,-0.0380952380952381,-0.0380952380952381,-0.0380952380952381,-0.0380952380952381,-0.0380952380952381,-0.0380952380952381,-0.0380952380952381,-0.0380952380952381,-0.0380952380952381,-0.0380952380952381,-0.0380952380952381,-0.0380952380952381,-0.0380952380952381,-0.0380952380952381,-0.0380952380952381,-0.0380952380952381,-0.0380952380952381,-0.0380952380952381,-0.0380952380952381,-0.0380952380952381,-0.0380952380952381,-0.0380952380952381,-0.0380952380952381,-0.0380952380952381,-0.0380952380952381,-0.0380952380952381,-0.0380952380952381,-0.0380952380952381,-0.0380952380952381,-0.0380952380952381,-0.0380952380952381,-0.0380952380952381,-0.0380952380952381,-0.0380952380952381,-0.0380952380952381,-0.0380952380952381,-0.0380952380952381,-0.0380952380952381,-0.0380952380952381,-0.0380952380952381,-0.0380952380952381,-0.0380952380952381,-0.0380952380952381,-0.0380952380952381,-0.0380952380952381,-0.0380952380952381,-0.0380952380952381,-0.0380952380952381,-0.0380952380952381,-0.0380952380952381,-0.0380952380952381,-0.0380952380952381,-0.0380952380952381,-0.0380952380952381,-0.0380952380952381,-0.0380952380952381,-0.0380952380952381,-0.0380952380952381,-0.0380952380952381,-0.0380952380952381,-0.0380952380952381,-0.0380952380952381,-0.02857142857142857,-0.02857142857142857,-0.02857142857142857,-0.02857142857142857,-0.02857142857142857,-0.02857142857142857,-0.02857142857142857,-0.02857142857142857,-0.02857142857142857,-0.02857142857142857,-0.02857142857142857,-0.02857142857142857,-0.02857142857142857,-0.02857142857142857,-0.01904761904761905,-0.01904761904761905,-0.01904761904761905,-0.01904761904761905,-0.01904761904761905,-0.01904761904761905,-0.01904761904761905,-0.009523809523809525,-0.009523809523809525,0,0,0.01904761904761905,0.01904761904761905,0.0380952380952381,0.047619047619047616,0.06666666666666667,0.06666666666666667,0.0761904761904762,0.0761904761904762,0.08571428571428572,0.08571428571428572,0.08571428571428572,0.08571428571428572,0.08571428571428572,0.08571428571428572,0.08571428571428572,0.08571428571428572,0.08571428571428572,0.09523809523809523,0.11428571428571428,0.1523809523809524,0.18095238095238095,0.26666666666666666,0.3238095238095238,0.44761904761904764,0.5142857142857142,0.6095238095238096,0.6571428571428571,0.7619047619047619,0.8095238095238095,0.9333333333333333,1,1.0380952380952382,1.0666666666666667,1.0761904761904761,1.0761904761904761,1.0666666666666667,1.0666666666666667,1.0666666666666667,1.0571428571428572,1.0571428571428572,1.0571428571428572,1.0571428571428572,1.0571428571428572,1.0571428571428572,1.0476190476190477,1.0380952380952382,1.0285714285714285,1.0285714285714285,1.0285714285714285,1.019047619047619,1.019047619047619,1.019047619047619,1.019047619047619,1.019047619047619,1.0095238095238095,1.0095238095238095,1.0095238095238095,1.0095238095238095,1.0095238095238095,1.0095238095238095,1.0095238095238095,1.0095238095238095,1.0095238095238095,1.0095238095238095,1.0095238095238095,1.0095238095238095,1.0095238095238095,1.0095238095238095,1.0095238095238095,1.0095238095238095,1.0095238095238095,1.0095238095238095,1.0095238095238095,1.0095238095238095,1.0095238095238095,1.0095238095238095,1.0095238095238095,1.0095238095238095,1.0095238095238095,1.0095238095238095,1.0095238095238095,1.0095238095238095,1.0095238095238095,1.0095238095238095,1.0095238095238095,1.0095238095238095,1.0095238095238095,1.0095238095238095,1.0095238095238095,1.0095238095238095,1.0095238095238095,1.0095238095238095,1.0095238095238095,1.0095238095238095,1.0095238095238095,1.0095238095238095,1.0095238095238095,1.0095238095238095,1.0095238095238095,1.0095238095238095,1.0095238095238095,1.0095238095238095,1.0095238095238095,1.0095238095238095,1.0095238095238095,1.0095238095238095,1.0095238095238095,1.0095238095238095,1.0095238095238095,1.0095238095238095,1.0095238095238095,1.0095238095238095,1.0095238095238095,1.0095238095238095,1.0095238095238095,1.0095238095238095,1.0095238095238095,1.0095238095238095,1.0095238095238095,1.0095238095238095,1.0095238095238095,1.0095238095238095,1.0095238095238095,1.0095238095238095,1.0095238095238095,1.0095238095238095,1.019047619047619,1.0476190476190477,1.0571428571428572,1.0952380952380953,1.0952380952380953,1.0952380952380953,1.0952380952380953,1.0857142857142856,1.0857142857142856,1.0857142857142856,1.0857142857142856,1.0857142857142856,1.0857142857142856,1.0761904761904761,1.0761904761904761,1.0761904761904761,1.0666666666666667,1.0571428571428572,1.0476190476190477,1.0285714285714285,1.019047619047619,1.019047619047619,1.0380952380952382,1.0571428571428572,1.0857142857142856,1.0857142857142856,1.0571428571428572,1.0476190476190477,1.0285714285714285,1.0285714285714285,1.0285714285714285,1.0285714285714285,1.0095238095238095,1.0095238095238095,1,1,1,1,1,1,1,1,1,1,1,1,1,1,1,1,1,1,1,1,1,1,1,1,1,1,1,1,1,1,1,1,1.0095238095238095,1,1,1,1,1,1,1,1,0.9904761904761905,0.9523809523809523,0.9333333333333333,0.8952380952380953,0.8857142857142857,0.8285714285714286,0.7904761904761904,0.6476190476190476,0.6,0.4857142857142857,0.44761904761904764,0.4095238095238095,0.3904761904761905,0.34285714285714286,0.3142857142857143,0.17142857142857143,0.13333333333333333,0.08571428571428572,0.06666666666666667,0.05714285714285714,0.05714285714285714,0.05714285714285714,0.05714285714285714,0.05714285714285714,0.05714285714285714,0.05714285714285714,0.05714285714285714,0.05714285714285714,0.05714285714285714,0.05714285714285714,0.05714285714285714,0.05714285714285714,0.05714285714285714,0.05714285714285714,0.05714285714285714,0.05714285714285714,0.047619047619047616,0.047619047619047616,0.05714285714285714,0.06666666666666667,0.09523809523809523,0.11428571428571428,0.1619047619047619,0.18095238095238095,0.22857142857142856,0.23809523809523808,0.2857142857142857,0.29523809523809524,0.3238095238095238,0.3333333333333333,0.3523809523809524,0.3619047619047619,0.38095238095238093,0.3904761904761905,0.4,0.41904761904761906,0.42857142857142855,0.45714285714285713,0.45714285714285713,0.45714285714285713,0.45714285714285713,0.44761904761904764,0.4380952380952381,0.41904761904761906,0.41904761904761906,0.41904761904761906,0.41904761904761906,0.41904761904761906,0.41904761904761906,0.41904761904761906,0.41904761904761906,0.41904761904761906,0.41904761904761906,0.41904761904761906,0.41904761904761906,0.41904761904761906,0.41904761904761906,0.41904761904761906,0.42857142857142855,0.42857142857142855,0.42857142857142855,0.42857142857142855,0.4380952380952381,0.4380952380952381,0.4380952380952381,0.44761904761904764,0.44761904761904764,0.44761904761904764,0.44761904761904764,0.44761904761904764,0.44761904761904764,0.44761904761904764,0.44761904761904764,0.44761904761904764,0.44761904761904764,0.44761904761904764,0.44761904761904764,0.44761904761904764,0.44761904761904764,0.44761904761904764,0.44761904761904764,0.44761904761904764,0.44761904761904764,0.4,0.3619047619047619,0.3333333333333333,0.26666666666666666,0.23809523809523808,0.1619047619047619,0.13333333333333333,0.11428571428571428,0.09523809523809523,0.09523809523809523,0.08571428571428572,0.0761904761904762,0.05714285714285714,0.0380952380952381,0.01904761904761905,0.01904761904761905,0.01904761904761905,0.009523809523809525,0.009523809523809525,0.009523809523809525,0.01904761904761905,0.01904761904761905,0.01904761904761905,0.01904761904761905,0.01904761904761905,0.01904761904761905,0.01904761904761905,0.02857142857142857,0.02857142857142857,0.02857142857142857,0.02857142857142857,0.02857142857142857,0.02857142857142857,0.02857142857142857,0.02857142857142857,0.02857142857142857,0.02857142857142857,0.02857142857142857,0.02857142857142857,0.02857142857142857,0.02857142857142857,0.02857142857142857,0.02857142857142857,0.02857142857142857,0.02857142857142857,0.02857142857142857,0.02857142857142857,0.02857142857142857,0.02857142857142857,0.02857142857142857,0.02857142857142857,0.02857142857142857,0.02857142857142857,0.02857142857142857,0.02857142857142857,0.02857142857142857,0.02857142857142857,0.02857142857142857,0.02857142857142857,0.02857142857142857,0.02857142857142857,0.02857142857142857,0.02857142857142857,0.02857142857142857,0.02857142857142857,0.02857142857142857,0.02857142857142857,0.02857142857142857,0.02857142857142857,0.02857142857142857,0.02857142857142857,0.02857142857142857,0.02857142857142857,0.02857142857142857,0.02857142857142857,0.02857142857142857,0.02857142857142857,0.02857142857142857,0.02857142857142857,0.02857142857142857,0.02857142857142857,0.02857142857142857,0.02857142857142857,0.02857142857142857,0.02857142857142857,0.02857142857142857,0.02857142857142857,0.02857142857142857,0.02857142857142857,-0.009523809523809525,-0.12380952380952381,-0.2,-0.34285714285714286,-0.638095238095238,-0.7714285714285715,-1.161904761904762,-1.3714285714285714,-1.6571428571428573,-1.7619047619047619,-2.019047619047619,-2.1523809523809523,-2.5428571428571427,-2.8,-3.2476190476190476,-3.4380952380952383,-3.914285714285714,-4.238095238095238,-4.866666666666666,-5.123809523809523,-5.771428571428571,-6.0095238095238095,-6.495238095238095,-6.495238095238095,-6.495238095238095,-6.495238095238095,-6.495238095238095,-6.495238095238095,-6.495238095238095,-6.495238095238095,-6.495238095238095,-6.495238095238095,-6.495238095238095,-6.495238095238095,-6.485714285714286,-6.419047619047619,-6.3238095238095235,-6.019047619047619,-5.819047619047619,-5.019047619047619,-4.647619047619048,-3.657142857142857,-3.066666666666667,-2.1714285714285713,-1.7809523809523808,-1.3714285714285714,-1.2666666666666666,-1.1714285714285715,-1.0857142857142856,-1.0476190476190477,-1.0095238095238095,-0.9809523809523809,-0.9809523809523809,-0.9809523809523809,-0.9809523809523809,-0.9809523809523809,-0.9809523809523809,-0.9809523809523809,-0.9809523809523809,-0.9809523809523809,-0.9809523809523809,-0.9809523809523809,-0.9809523809523809,-0.9809523809523809,-0.9809523809523809,-0.9809523809523809,-0.9809523809523809,-0.9809523809523809,-0.9809523809523809,-0.9809523809523809,-0.9809523809523809,-0.9809523809523809,-0.9809523809523809,-0.9809523809523809,-0.9809523809523809,-0.9809523809523809,-0.9809523809523809,-0.9809523809523809,-0.9809523809523809,-0.9809523809523809,-0.9809523809523809,-0.9809523809523809]},"final_keyboard_state":["H","O","B","L","E","T","Z","R","A"],"num_clicks":9,"points":11,"cheat":false,"trial_type":"Hangman","trial_index":5,"time_elapsed":73540,"internal_node_id":"0.0-4.0","protocol_sum":"","subject_identifier":305,"subject_sum":[4,48,102,218,242,16,149,35,167,73,13,75,250,212,118,109,165,113,153,80,162,181,249,109,25,47,192,83,126,132,243,42],"subject_pair":152,"STUDY_ID":"66a0b3911f23dfc7665bb169","PROLIFIC_PID":"662939c49821886e0246c494","SESSION_ID":"66a10e8905f44658a9602e76","practice_instructions":1,"leaderboard_instructions":1,"bonus":0,"reveal_word":true,"self_rating":"3","confidence":"40"},{"view_history":"[{\"page_index\":0,\"viewing_time\":4534},{\"page_index\":1,\"viewing_time\":23800}]","rt":28335,"trial_type":"instructions","trial_index":6,"time_elapsed":101876,"internal_node_id":"0.0-5.0","protocol_sum":"","subject_identifier":305,"subject_sum":[4,48,102,218,242,16,149,35,167,73,13,75,250,212,118,109,165,113,153,80,162,181,249,109,25,47,192,83,126,132,243,42],"subject_pair":152,"STUDY_ID":"66a0b3911f23dfc7665bb169","PROLIFIC_PID":"662939c49821886e0246c494","SESSION_ID":"66a10e8905f44658a9602e76","practice_instructions":1,"leaderboard_instructions":1,"bonus":0,"reveal_word":true,"self_rating":"3","confidence":"40"},{"rt":8347,"responses":"{\"Q0\":\"...from <b>a previous session</b> that is not part of the upcoming tournament.\"}","question_order":"[0]","trial_type":"survey-multi-choice","trial_index":7,"time_elapsed":110226,"internal_node_id":"0.0-6.0","protocol_sum":"","subject_identifier":305,"subject_sum":[4,48,102,218,242,16,149,35,167,73,13,75,250,212,118,109,165,113,153,80,162,181,249,109,25,47,192,83,126,132,243,42],"subject_pair":152,"correct":true,"test_part":"multichoice_leaderboard","STUDY_ID":"66a0b3911f23dfc7665bb169","PROLIFIC_PID":"662939c49821886e0246c494","SESSION_ID":"66a10e8905f44658a9602e76","practice_instructions":1,"leaderboard_instructions":1,"bonus":0,"reveal_word":true,"self_rating":"3","confidence":"40"},{"view_history":"[{\"page_index\":0,\"viewing_time\":8863}]","rt":8864,"trial_type":"instructions","trial_index":8,"time_elapsed":119092,"internal_node_id":"0.0-8.0","protocol_sum":"","subject_identifier":305,"subject_sum":[4,48,102,218,242,16,149,35,167,73,13,75,250,212,118,109,165,113,153,80,162,181,249,109,25,47,192,83,126,132,243,42],"subject_pair":152,"STUDY_ID":"66a0b3911f23dfc7665bb169","PROLIFIC_PID":"662939c49821886e0246c494","SESSION_ID":"66a10e8905f44658a9602e76","practice_instructions":1,"leaderboard_instructions":1,"bonus":0,"reveal_word":true,"self_rating":"3","confidence":"40"},{"rt":7182,"responses":"{\"Q0\":\"...how well players did (in terms of <b>points</b>) in <b>previous games.</b>\"}","question_order":"[0]","trial_type":"survey-multi-choice","trial_index":9,"time_elapsed":126276,"internal_node_id":"0.0-9.0","protocol_sum":"","subject_identifier":305,"subject_sum":[4,48,102,218,242,16,149,35,167,73,13,75,250,212,118,109,165,113,153,80,162,181,249,109,25,47,192,83,126,132,243,42],"subject_pair":152,"correct":false,"test_part":"multichoice_tournament","STUDY_ID":"66a0b3911f23dfc7665bb169","PROLIFIC_PID":"662939c49821886e0246c494","SESSION_ID":"66a10e8905f44658a9602e76","practice_instructions":1,"leaderboard_instructions":1,"bonus":0,"reveal_word":true,"self_rating":"3","confidence":"40"},{"view_history":"[{\"page_index\":0,\"viewing_time\":3648}]","rt":3648,"trial_type":"instructions","trial_index":10,"time_elapsed":129926,"internal_node_id":"0.0-10.0-0.0","protocol_sum":"","subject_identifier":305,"subject_sum":[4,48,102,218,242,16,149,35,167,73,13,75,250,212,118,109,165,113,153,80,162,181,249,109,25,47,192,83,126,132,243,42],"subject_pair":152,"STUDY_ID":"66a0b3911f23dfc7665bb169","PROLIFIC_PID":"662939c49821886e0246c494","SESSION_ID":"66a10e8905f44658a9602e76","practice_instructions":1,"leaderboard_instructions":1,"bonus":0,"reveal_word":true,"self_rating":"3","confidence":"40"},{"rt":7398,"responses":"{\"Q0\":\"...players' leaderboard position (in terms of <b>points</b>) in an <b>upcoming tournament.</b>\"}","question_order":"[0]","trial_type":"survey-multi-choice","trial_index":11,"time_elapsed":137327,"internal_node_id":"0.0-10.0-1.0","protocol_sum":"","subject_identifier":305,"subject_sum":[4,48,102,218,242,16,149,35,167,73,13,75,250,212,118,109,165,113,153,80,162,181,249,109,25,47,192,83,126,132,243,42],"subject_pair":152,"correct":true,"test_part":"multichoice_tournament","STUDY_ID":"66a0b3911f23dfc7665bb169","PROLIFIC_PID":"662939c49821886e0246c494","SESSION_ID":"66a10e8905f44658a9602e76","practice_instructions":1,"leaderboard_instructions":1,"bonus":0,"reveal_word":true,"self_rating":"3","confidence":"40"},{"view_history":"[{\"page_index\":0,\"viewing_time\":13031}]","rt":13031,"trial_type":"instructions","trial_index":12,"time_elapsed":150359,"internal_node_id":"0.0-11.0","protocol_sum":"","subject_identifier":305,"subject_sum":[4,48,102,218,242,16,149,35,167,73,13,75,250,212,118,109,165,113,153,80,162,181,249,109,25,47,192,83,126,132,243,42],"subject_pair":152,"STUDY_ID":"66a0b3911f23dfc7665bb169","PROLIFIC_PID":"662939c49821886e0246c494","SESSION_ID":"66a10e8905f44658a9602e76","practice_instructions":1,"leaderboard_instructions":1,"bonus":0,"reveal_word":true,"self_rating":"3","confidence":"40"},{"view_history":"[{\"page_index\":0,\"viewing_time\":17565}]","rt":17565,"trial_type":"instructions","trial_index":13,"time_elapsed":167927,"internal_node_id":"0.0-12.0-0.0","protocol_sum":"","subject_identifier":305,"subject_sum":[4,48,102,218,242,16,149,35,167,73,13,75,250,212,118,109,165,113,153,80,162,181,249,109,25,47,192,83,126,132,243,42],"subject_pair":152,"STUDY_ID":"66a0b3911f23dfc7665bb169","PROLIFIC_PID":"662939c49821886e0246c494","SESSION_ID":"66a10e8905f44658a9602e76","practice_instructions":1,"leaderboard_instructions":1,"bonus":0,"reveal_word":true,"self_rating":"3","confidence":"40"},{"rt":6780,"response":"HAWAII","responses":["HAWAII"],"trial_type":"type-this","trial_index":14,"time_elapsed":175211,"internal_node_id":"0.0-12.0-1.0","protocol_sum":"","subject_identifier":305,"subject_sum":[4,48,102,218,242,16,149,35,167,73,13,75,250,212,118,109,165,113,153,80,162,181,249,109,25,47,192,83,126,132,243,42],"subject_pair":152,"STUDY_ID":"66a0b3911f23dfc7665bb169","PROLIFIC_PID":"662939c49821886e0246c494","SESSION_ID":"66a10e8905f44658a9602e76","practice_instructions":1,"leaderboard_instructions":1,"bonus":0,"reveal_word":true,"self_rating":"3","confidence":"40"},{"word":"HAWAII","click_log":{"letter":["","G","F","U","E","I","H","A","W"],"t":[0,3575,6141,9024,10875,11925,15374,16357,17058],"hit":[null,0,0,0,0,2,1,2,1],"asked":["","G","GF","GFU","GFUE","GFUEI","GFUEIH","GFUEIHA","GFUEIHAW"],"word_state":["______","______","______","______","______","____II","H___II","HA_AII","HAWAII"]},"hover_log":{"letter":["?","?","?","?","?","?","?","?","?","?","?","?","?","?","?","?","?","?","?","?","?","?","?","?","?","?","?","?","?","?","?","?","?","?","?","?","?","?","?","?","?","?","?","?","?","?","?","?","?","?","?","?","?","?","?","?","?","?","?","?","?","?","?","?","?","?","?","?","?","?","?","?","?","?","?","?","?","?","?","?","?","?","?","?","?","?","?","?","?","?","?","?","?","?","?","?","?","?","?","?","?","?","?","?","?","?","?","?","?","?","?","?","?","?","?","?","?","?","?","?","?","?","?","?","?","?","?","?","?","?","?","?","?","?","?","?","?","?","?","?","?","?","?","?","?","?","?","?","?","?","?","?","?","?","?","?","?","?","?","?","?","?","?","?","?","?","?","?","?","?","?","?","?","?","?","?","?","?","?","?","?","?","?","?","?","?","?","?","?","?","?","?","?","?","?","?","?","?","?","?","?","?","?","?","?","?","?","?","?","?","?","?","?","?","?","?","?","?","?","?","?","?","?","?","?","?","?","?","?","?","?","?","?","?","?","?","?","?","?","?","?","?","?","?","?","?","?","?","?","?","?","?","?","?","?","?","?","?","?","?","?","?","?","?","?","?","?","?","?","?","?","?","?","?","?","?","?","?","?","?","?","?","?","?","?","?","?","?","?","?","?","?","?","?","?","?","?","?","?","?","?","?","?","?","?","?","?","?","?","?","?","?","?","?","?","?","?","?","?","?","?","?","?","?","?","?","?","?","?","?","?","?","?","?","?","?","?","?","?","?","?","?","?","?","?","?","?","?","?","?","?","?","?","?","?","?","?","?","?","?","?","?","?","?","?","?","?","?","?","?","?","?","?","?","?","?","?","?","?","?","?","?","?","?","?","?","?","?","?","?","?","?","?","?","?","?","?","?","?","?","?","?","?","?","?","?","?","?","?","?","?","?","?","?","?","?","?","?","?","?","?","?","?","?","?","?","?","?","?","?","?","?","?","?","?","?","?","?","?","?","?","?","?","?","?","?","?","?","?","?","?","?","?","?","?","?","?","?","?","?","?","?","?","?","?","?","?","?","?","?","?","?","?","?","?","?","?","?","?","?","?","?","?","?","?","?","?","?","?","?","?","?","?","?","?","?","?","?","?","?","?","?","?","?","?","?","?","?","?","?","?","?","?","?","?","?","?","?","?","?","?","?","?","?","?","?","?","?","?","?","?","?","?","?","?","?","?","?","?","?","?","?","?","?","?","?","?","?","?","?","?","?","?","?","?","?","?","?","?","?","?","?","?","?","?","?","?","?","?","?","?","?","?","?","?","?","?","?","?","?","?","?","?","?","?","?","?","?","?","?","?","?","?","?","?","?","?","?","?","?","?","?","?","?","?","?","?","?","?","?","?","?","?","?","?","?","?","?","?","?","?","?","?","?","?","?","?","?","?","?","?","?","?","?","?","?","?","?","?","?","?","?","?","?","?","?","?","?","?","?","?","?","?","?","?","?","?","?","?","?","?","?","?","?","?","?","?","?","?","?","?","?","?","?","?","?","?","?","?","?","?","?","?","?","?","?","?","?","?","?","?","?","?","?","?","?","?","?","?","?","?","?","?","?","?","?","?","?","?","?","?","?","?","?","?","?","?","?","?","?","?","?","?","?","?","?","?","?","?","?","?","?","?","?","?","?","?","?","?","?","?","?","?","?","?","?","?","?","?","?","?","?","?","?","?","?","?","?","?","?","?","?","?","?","?","?","?","?","?","?","?","?","?","?","?","?","?","?","?","?","?","?","?","?","?","?","?","?","?","?","?","?","?","?","?","?","?","?","?","?","?","?","?","?","?","?","?","?","?","?","?","?","?","?","?","?","?","?","?","?","?","?","?","?","?","?","?","?","?","?","?","?","?","?","?","?","?","?","?","?","?","?","?","?","?","?","?","?","?","?","?","?","?","?","?","?","?","?","?","?","?","?","?","?","?","?","?","?","?","?","?","?","?","?","?","?","?","?","?","?","?","?","?","?","?","?","?","?","?","?","?","?","?","?","?","?","?","?","?","?","?","?","?","?","?","?","?","?","?","?","?","?","?","?","?","?","?","?","?","?","?","?","?","?","?","?","?","?","?","?","?","?","?","?","?","?","?","?","?","?","?","?","?","?","?","?","?","?","?","?","?","?","?","?","?","?","?","?","?","?","?","?","?","?","?","?","?","?","?","?","?","?","?","?","?","?","?","?","?","?","?","?","?","?","?","?","?","?","?","?","?","?","?","?","?","?","?","?","?","?","?","?","?","?","?","?","?","?","?","?","?","?","?","?","?","?","?","?","?","?","?","?","?","?","?","?","?","?","?","?","?","?","?","?","?","?","?","?","?","?","?","?","?","?","?","?","?","?","?","?","?","?","?","?","?","?","?","?","?","?","?","?","?","?","?","?","?","?","?","?","?","?","?","?","?","?","?","?","?","?","?","?","?","?","?","?","?","?","?","?","?","?","?","?","?","?","?","?","?","?","?","?","?","?","?","?","?","?","?","?","?","?","?","?","?","?","?","?","?","?","?","?","?","?","?","?","?","?","?","?","?","?","?","?","?","?","?","?","?","?","?","?","?","?","?","?","?","?","?","?","?","?","?","?","?","?","?","?","?","?","?","?","?","?","?","?","?","?","?","?","?","?","?","?","?","?","?","?","?","?","?","?","?","?","?","?","?","?","?","?","?","?","?","?","?","?","?","?","?","?","?","?","?","?","?","?","?","?","?","?","?","?","?","?","?","?","?","?","?","?","?","?","?","?","?","?","?","?","?","?","?","?","?","?","?","?","?","?","?","?","?","?","?","?","?","?","?","?","?","?","?","?","?","?","?","?","?","?","?","?","?","?","?","?","?","?","?","?","?","?","?","?","?","?","?","?","?","?","?","?","?","?","?","?","?","?","?","?","?","?","?","?","?","?","?","?","?","?","?","?","?","?","?","?","?","?","?","?","?","?","?","?","?","?","?","?","?","?","?","?","?","?","?","?","?","?","?","?","?","?","?","?","?","?","?","?","?","?","?","?","?","?","?","?","?","?","?","?","?","?","?","?","?","?","?","?","?","?","?","?","?","?","?","?","?","?","?","?","?","?","?","?","?","?","?","?","?","?","?","?","?","?","?","?","?","?","?","?","?","?","?","?","?","?","?","?","?","?","?","?","?","?","?","?","?","?","?","?","?","?","?","?","?","?","?","?","?","?","?","?","?","?","?","?","?","?","?","?","?","?","?","?","?","?","?","?","?","?","?","?","?","?","?","?","?","?","?","?","?","?","?","?","?","?","?","?","?","?","?","?","?","?","?","?","?","?","?","?","?","?","?","?","?","?","?","?","?","?","?","?","?","?","?","?","?","?","?","?","?","?","?","?","?","?","?","?","?","?","?","?","?","?","?","?","?","?","?","?","?","?","?","?","?","?","?","?","?","?","?","?","?","?","?","?","?","?","?","?","?","?","?","?","?","?","?","?","?","?","?","?","?","?","?","?","?","?","?","?","?","?","?","?","?","?","?","?","?","?","?","?","?","?","?","?","?","?","?","?","?","?","?","?","?","?","?","?","?","?","?","?","?","?","?","?","?","?","?","?","?","?","?","?","?","?","?","?","?","?","?","?","?","?","?","?","?","?","?","?","?","?","?","?","?","?","?","?","?","?","?","?","?","?","?","?","?","?","?","?","?","?","?","?","?","?","?","?","?","?","?","?","?","?","?","?","?","?","?","?","?","?","?","?","?","?","?","?","?","?","?","?","?","?","?","?","?","?","?","?","?","?","?","?","?","?","?","?","?","?","?","?","?","?","?","?","?","?","?","?","?","?","?","?","?","?","?","?","?","?","?","?","?","?","?","?","?","?","?","?","?","?","?","?","?","?","?","?","?","?","?","?","?","?","?","?","?","?","?","?","?","?","?","?","?","?","?","?","?","?","?","?","?","?","?","?","?","?","?","?","?","?","?","?","?","?","?","?","?","?","?","?","?","?","?","?","?","?","?","?","?","?","?","?","?","?","?","?","?","?","?","?","?","?","?","?","?","?","?","?","?","?","?","?","?","?","?","?","?","?","?","?","?","?","?","?","?","?","?","?","?","?","?","?","?","?","?","?","?","?","?","?","?","?","?","?","?","?","?","?","?","?","?","?","?","?","?","?","?","?","?","?","?","?","?","?","?","?","?","?","?","?","?","?","?","?","?","?","?","?","?","?","?","?","?","?","?","?","?","?","?","?","?","?","?","?","?","?","?","?","?","?","?","?","?","?","?","?","?","?","?","?","?","?","?","?","?","?","?","?","?","?","?","?","?","?","?","?","?