[{"success":true,"trial_type":"fullscreen","trial_index":0,"time_elapsed":3841,"internal_node_id":"0.0-0.0","protocol_sum":"","subject_identifier":417,"subject_sum":[141,246,111,100,181,116,36,57,29,54,63,214,184,17,254,211,196,48,199,117,151,218,38,80,37,114,139,214,55,186,216,4],"subject_pair":208,"STUDY_ID":"66a22c0758a3d5c9d26873c6","PROLIFIC_PID":"6665cd88654aed261dac715c","SESSION_ID":"66a299dd5beaa778c596b929","practice_instructions":1,"leaderboard_instructions":0,"bonus":0,"reveal_word":true,"self_rating":"5","confidence":"83"},{"view_history":"[{\"page_index\":0,\"viewing_time\":3477.800000000745}]","rt":3478,"trial_type":"instructions","trial_index":1,"time_elapsed":7320,"internal_node_id":"0.0-1.0","protocol_sum":"","subject_identifier":417,"subject_sum":[141,246,111,100,181,116,36,57,29,54,63,214,184,17,254,211,196,48,199,117,151,218,38,80,37,114,139,214,55,186,216,4],"subject_pair":208,"STUDY_ID":"66a22c0758a3d5c9d26873c6","PROLIFIC_PID":"6665cd88654aed261dac715c","SESSION_ID":"66a299dd5beaa778c596b929","practice_instructions":1,"leaderboard_instructions":0,"bonus":0,"reveal_word":true,"self_rating":"5","confidence":"83"},{"view_history":"[{\"page_index\":0,\"viewing_time\":11652.5}]","rt":11653,"trial_type":"instructions","trial_index":2,"time_elapsed":18974,"internal_node_id":"0.0-2.0-0.0","protocol_sum":"","subject_identifier":417,"subject_sum":[141,246,111,100,181,116,36,57,29,54,63,214,184,17,254,211,196,48,199,117,151,218,38,80,37,114,139,214,55,186,216,4],"subject_pair":208,"STUDY_ID":"66a22c0758a3d5c9d26873c6","PROLIFIC_PID":"6665cd88654aed261dac715c","SESSION_ID":"66a299dd5beaa778c596b929","practice_instructions":1,"leaderboard_instructions":0,"bonus":0,"reveal_word":true,"self_rating":"5","confidence":"83"},{"rt":15555.5,"responses":"{\"Q0\":\"... reveal the word with as <b>few letter guesses</b> as possible\"}","question_order":"[0]","trial_type":"survey-multi-choice","trial_index":3,"time_elapsed":34530,"internal_node_id":"0.0-2.0-1.0","protocol_sum":"","subject_identifier":417,"subject_sum":[141,246,111,100,181,116,36,57,29,54,63,214,184,17,254,211,196,48,199,117,151,218,38,80,37,114,139,214,55,186,216,4],"subject_pair":208,"correct":true,"test_part":"multichoice_nonpretend","STUDY_ID":"66a22c0758a3d5c9d26873c6","PROLIFIC_PID":"6665cd88654aed261dac715c","SESSION_ID":"66a299dd5beaa778c596b929","practice_instructions":1,"leaderboard_instructions":0,"bonus":0,"reveal_word":true,"self_rating":"5","confidence":"83"},{"view_history":"[{\"page_index\":0,\"viewing_time\":1693.800000000745}]","rt":1694.1000000014901,"trial_type":"instructions","trial_index":4,"time_elapsed":36226,"internal_node_id":"0.0-3.0","protocol_sum":"","subject_identifier":417,"subject_sum":[141,246,111,100,181,116,36,57,29,54,63,214,184,17,254,211,196,48,199,117,151,218,38,80,37,114,139,214,55,186,216,4],"subject_pair":208,"STUDY_ID":"66a22c0758a3d5c9d26873c6","PROLIFIC_PID":"6665cd88654aed261dac715c","SESSION_ID":"66a299dd5beaa778c596b929","practice_instructions":1,"leaderboard_instructions":0,"bonus":0,"reveal_word":true,"self_rating":"5","confidence":"83"},{"word":"ZEBRA","click_log":{"letter":["","I","A","G","O","E","C","U","S","Q","B","Z","R"],"t":[0,5929.699999999255,9465.800000000745,27672.199999999255,30118.39999999851,32302.699999999255,74842.69999999925,75738.80000000075,77162.5,78018.69999999925,80610.30000000075,82964,84731.30000000075],"hit":[null,0,1,0,0,1,0,0,0,0,1,1,1],"asked":["","I","IA","IAG","IAGO","IAGOE","IAGOEC","IAGOECU","IAGOECUS","IAGOECUSQ","IAGOECUSQB","IAGOECUSQBZ","IAGOECUSQBZR"],"word_state":["_____","_____","____A","____A","____A","_E__A","_E__A","_E__A","_E__A","_E__A","_EB_A","ZEB_A","ZEBRA"]},"hover_log":{"letter":["?","?","?","?","?","?","?","?","?","?","?","?","?","?","?","?","?","?","?","?","?","?","?","?","?","?","?","?","?","?","?","?","?","?","?","?","?","?","?","?","?","?","?","?","?","?","?","?","?","?","?","?","?","?","?","?","?","?","?","?","?","?","?","?","?","?","?","?","?","?","?","?","?","?","?","?","?","?","?","?","?","?","?","?","?","?","?","?","?","?","?","?","?","?","?","?","?","?","?","?","?","?","?","?","?","?","?","?","?","?","?","?","?","?","?","?","?","?","?","?","?","?","?","?","?","?","?","?","?","J","?","K","K","L","?","?","M","?","?","?","?","?","?","?","?","?","?","?","?","?","?","?","?","?","?","?","?","?","?","?","?","?","?","?","?","?","?","?","?","?","?","?","?","?","?","?","?","?","?","I","I","I","I","I","I","I","I","I","I","I","I","I","I","I","I","I","I","I","I","I","I","I","I","I","I","I","I","I","I","I","I","I","I","I","I","I","I","I","I","I","I","I","I","I","I","I","I","I","I","I","I","I","I","I","I","I","I","I","I","I","I","I","I","I","I","I","I","I","I","I","I","I","I","I","I","I","I","I","I","I","I","I","I","I","I","I","I","I","I","I","I","I","I","I","I","I","I","I","I","I","I","I","I","I","I","I","I","I","I","I","I","I","I","I","I","I","I","I","I","I","I","I","I","I","I","I","I","I","I","I","I","I","I","I","I","I","I","I","I","I","I","I","I","I","I","I","I","I","I","I","?","H","H","H","H","H","H","H","H","H","H","H","H","H","H","H","H","H","H","H","H","H","H","H","H","H","H","H","H","H","H","H","H","H","H","H","H","H","H","H","H","H","H","H","H","H","H","H","H","H","H","H","H","H","H","H","H","H","H","H","H","?","?","?","?","?","?","?","I","I","I","I","I","I","I","I","I","I","I","I","I","I","I","I","I","I","I","I","I","I","I","I","I","I","I","I","I","I","I","I","I","I","I","I","I","I","I","I","I","I","I","I","I","I","I","I","I","I","I","I","I","I","I","I","I","I","I","I","I","I","I","I","I","I","I","I","I","I","I","I","I","I","I","I","I","I","I","I","I","I","I","I","I","I","I","I","I","I","I","I","I","I","?","?","?","?","?","?","?","?","?","?","?","?","?","?","?","?","?","?","?","?","?","?","?","?","?","?","?","Q","Q","Q","Q","Q","Q","Q","Q","Q","Q","Q","?","?","?","?","?","?","?","?","?","?","P","P","?","?","?","?","?","?","?","?","?","?","?","?","?","?","?","?","?","?","?","?","?","?","?","?","?","?","?","?","?","?","?","?","?","?","?","?","?","?","?","?","?","?","?","?","?","?","?","?","?","?","?","?","?","?","?","?","?","?","?","?","?","?","?","?","?","?","?","?","?","?","?","?","?","?","?","?","?","?","?","?","?","?","?","?","?","?","?","?","?","?","?","?","?","?","?","?","M","M","M","?","?","?","?","B","B","B","B","B","B","B","B","B","B","B","B","B","B","?","?","?","A","A","A","A","A","A","A","A","A","A","A","A","A","A","A","A","A","A","A","A","A","A","A","A","A","A","A","A","A","A","A","A","A","A","A","A","A","A","A","A","A","A","A","A","A","A","A","A","A","A","A","A","A","A","A","A","A","A","A","A","A","A","A","A","A","A","A","A","A","A","A","A","A","A","A","A","A","A","A","A","A","A","A","A","A","A","A","A","A","A","A","A","A","A","A","A","A","A","A","A","A","A","A","A","A","A","A","A","A","A","A","A","A","A","A","A","A","A","A","A","A","A","A","A","A","A","A","A","A","A","A","A","A","A","A","A","A","A","A","A","A","A","A","A","A","A","A","A","A","A","A","A","A","A","A","A","A","A","A","A","A","A","A","A","A","A","A","A","A","A","?","B","B","B","B","B","B","B","B","B","B","B","B","B","B","B","B","B","B","B","B","B","B","B","B","B","B","B","B","B","B","B","B","B","B","B","B","B","B","B","B","B","B","B","B","B","B","B","B","B","B","B","B","B","B","B","B","B","B","B","B","B","B","B","B","B","B","B","B","B","B","B","B","B","B","B","B","B","B","B","B","B","B","B","B","B","B","B","B","B","B","B","B","B","B","B","B","B","B","B","B","B","B","B","B","B","B","B","B","B","B","B","B","B","B","B","B","B","B","B","B","B","B","B","B","B","B","B","B","B","B","B","B","B","B","B","B","B","B","B","B","B","B","B","B","B","B","B","B","B","B","B","B","B","B","B","B","B","B","B","B","B","B","B","B","B","B","B","B","B","B","B","B","B","B","B","B","B","B","B","B","B","B","B","B","B","B","B","B","B","B","B","B","B","B","B","B","B","B","B","B","B","B","B","B","B","B","B","B","B","B","B","B","B","B","B","B","B","B","B","B","B","B","B","B","B","B","B","B","B","B","B","B","B","B","B","B","B","B","B","B","B","B","B","B","B","B","B","B","B","B","B","B","B","B","B","B","B","B","B","B","B","B","B","B","B","B","B","B","B","B","B","B","B","B","B","B","B","B","B","B","B","B","B","B","B","B","B","B","B","B","B","B","B","B","B","B","B","B","B","B","B","B","B","B","B","B","B","B","B","B","B","B","B","B","B","B","B","B","B","B","B","B","B","B","B","B","B","B","B","B","B","B","B","B","B","B","B","B","B","B","B","B","B","B","B","B","B","B","B","B","B","B","B","B","B","B","B","B","B","B","B","B","B","B","B","B","B","B","B","B","B","B","B","B","B","B","B","B","B","B","B","B","B","B","B","B","B","B","B","B","B","B","B","B","B","B","B","B","B","B","B","B","B","B","B","B","B","B","B","B","B","B","B","B","B","B","B","B","B","B","B","B","B","B","B","B","B","B","B","B","B","B","B","B","B","B","B","B","B","B","B","B","B","B","B","B","B","B","B","B","B","B","B","B","B","B","B","B","B","B","B","B","B","B","B","B","B","B","B","B","B","B","B","B","B","B","B","B","B","B","B","B","B","B","B","B","B","B","B","B","B","B","B","B","B","B","B","B","B","B","B","B","B","B","B","B","B","B","B","B","B","B","B","B","B","B","B","B","B","B","B","B","B","B","B","B","B","B","B","B","B","B","B","B","B","B","B","B","B","B","B","B","B","B","B","B","B","B","B","B","B","B","B","B","B","B","B","B","B","B","B","B","B","B","B","B","B","B","B","B","B","B","B","B","B","B","B","B","B","B","B","B","B","B","B","B","B","B","B","B","B","B","B","B","B","B","B","B","B","B","B","B","B","B","B","B","B","B","B","B","B","B","B","B","B","B","B","B","B","B","B","B","B","B","B","B","B","B","B","B","B","B","B","B","B","B","B","B","B","B","B","B","B","B","B","B","B","B","B","B","B","B","B","B","B","B","B","B","B","B","B","B","B","B","B","B","B","B","B","B","B","B","B","B","B","B","B","B","B","B","B","B","B","B","B","B","B","B","B","B","B","B","B","B","B","B","B","B","B","B","B","B","B","B","B","B","B","B","B","B","B","B","B","B","B","B","B","B","B","B","B","B","B","B","B","B","B","B","B","B","B","B","B","B","B","B","B","B","B","B","B","B","B","B","B","B","B","B","B","B","B","B","B","B","B","B","B","B","B","B","B","B","B","B","B","B","B","B","B","B","B","B","B","B","B","B","B","B","B","B","B","B","B","B","B","B","B","B","B","B","B","B","B","B","B","B","B","B","B","B","B","B","B","B","B","B","B","B","B","B","B","B","B","B","B","B","B","B","B","B","B","B","B","B","B","B","B","B","B","B","B","B","B","B","B","B","B","B","B","B","B","B","B","B","B","B","B","B","B","B","B","B","B","B","B","B","B","B","B","B","B","B","B","B","B","B","B","B","B","B","B","B","B","B","B","B","B","B","B","B","B","B","B","B","B","B","B","B","B","B","B","B","B","B","B","B","B","B","B","B","B","B","B","B","B","B","B","B","B","B","B","B","B","B","B","B","B","B","B","B","B","B","B","B","B","B","B","B","B","B","B","B","B","B","B","B","B","B","B","B","B","B","B","B","B","B","B","B","B","B","B","B","B","B","B","B","B","B","B","B","B","B","B","B","B","B","B","B","B","B","B","B","B","B","B","B","B","B","B","B","B","B","B","B","B","B","B","B","B","B","B","B","B","B","B","B","B","B","B","B","B","B","?","?","?","?","?","?","?","?","?","?","?","?","?","?","?","?","?","?","?","?","?","?","?","?","?","F","F","F","?","O","O","O","O","O","O","O","O","O","O","O","O","O","O","O","O","O","O","O","O","O","O","O","O","?","?","?","?","?","?","?","?","O","O","N","N","N","?","M","M","M","M","M","M","M","?","?","?","?","?","?","?","?","?","?","?","?","?","?","?","?","?","?","?","?","?","?","?","?","?","?","?","L","L","L","?","?","?","?","?","?","?","?","?","?","?","?","?","?","?","?","?","?","?","?","?","?","?","?","?","?","?","?","?","F","?","G","G","G","G","G","G","G","G","G","G","G","G","G","G","G","G","G","G","G","G","G","G","G","G","G","G","G","G","G","G","G","G","G","G","G","G","G","G","G","G","G","G","G","G","G","G","G","G","G","G","G","G","G","G","G","G","G","G","G","G","G","G","G","G","G","G","G","G","G","G","G","G","G","G","G","G","G","G","G","G","G","G","G","G","G","G","G","G","G","G","G","G","G","G","G","G","G","G","G","G","G","G","G","G","G","G","G","G","G","G","G","G","G","?","?","?","?","?","?","?","?","?","?","?","?","?","?","N","N","N","N","N","N","N","N","?","?","?","?","?","?","?","?","?","?","?","?","?","?","?","?","?","?","?","?","?","?","?","?","O","?","?","P","P","P","P","P","P","P","P","P","P","P","O","O","O","O","O","O","O","O","O","O","O","O","O","O","O","O","O","O","O","O","O","O","O","O","O","O","O","O","O","O","O","O","O","O","O","O","O","O","O","O","O","O","O","O","O","O","O","O","O","O","O","O","O","O","O","O","O","O","O","O","O","O","O","O","O","O","O","O","O","O","O","O","O","O","O","O","O","O","O","O","O","O","O","O","O","O","O","O","O","O","O","O","O","O","O","O","O","O","O","O","O","O","O","O","O","O","O","O","?","?","N","N","N","N","N","?","?","?","?","?","?","?","?","?","?","?","?","?","?","?","?","?","?","?","?","?","?","?","?","?","?","?","?","?","?","?","?","E","E","?","?","?","?","?","?","?","?","?","?","?","?","?","?","?","?","E","E","E","E","E","E","E","E","E","E","E","E","E","E","E","E","E","E","E","E","E","E","E","E","E","E","E","E","E","E","E","E","E","E","E","E","E","E","E","E","E","E","E","E","E","E","E","E","E","E","E","E","E","E","E","E","E","E","E","E","E","E","E","E","E","E","E","E","E","E","E","E","E","E","E","E","E","E","E","E","E","E","E","E","E","E","E","E","E","E","E","E","E","E","E","E","E","E","E","E","E","E","E","E","E","E","E","E","E","E","E","E","E","E","E","E","E","E","E","E","E","E","E","E","E","E","E","E","E","E","E","E","E","E","E","E","E","E","E","E","E","E","E","E","E","E","E","E","E","E","E","E","E","E","E","E","E","E","E","E","E","E","E","E","E","E","E","E","E","E","E","E","E","E","E","E","E","E","E","E","E","E","E","E","E","E","E","E","E","E","E","E","E","E","E","E","E","E","E","E","E","E","E","E","E","E","E","E","E","E","E","E","E","E","E","E","E","E","E","E","E","E","E","E","E","E","E","E","E","E","E","E","E","E","E","E","E","E","E","E","E","E","E","E","E","E","E","E","E","E","E","E","E","E","E","E","E","E","E","E","E","E","E","E","E","E","E","E","E","E","E","E","E","E","E","E","E","E","E","E","E","E","E","E","E","E","E","E","E","E","E","E","E","E","E","E","E","E","E","E","E","E","E","E","E","E","E","E","E","E","E","E","E","E","E","E","E","E","E","E","E","E","E","E","E","E","E","E","E","E","E","E","E","E","E","E","E","E","E","E","E","E","E","E","E","E","E","E","E","E","E","E","E","E","E","E","E","E","E","E","E","E","E","E","E","E","E","E","E","E","E","E","E","E","E","E","E","E","E","E","E","E","E","E","E","E","E","E","E","E","E","E","E","E","E","E","E","E","E","E","E","E","E","E","E","E","E","E","E","E","E","E","E","E","E","E","E","E","E","E","E","E","E","E","E","E","E","E","E","E","E","E","E","E","E","E","E","E","E","E","E","E","E","E","E","E","E","E","E","E","E","E","E","E","E","E","E","E","E","E","E","E","E","E","E","E","E","E","E","E","E","E","E","E","E","E","E","E","E","E","E","E","E","E","E","E","E","E","E","E","E","E","E","E","E","E","E","E","E","E","E","E","E","E","E","E","E","E","E","E","E","E","E","E","E","E","E","E","E","E","E","E","E","E","E","E","E","E","E","E","E","E","E","E","E","E","E","E","E","E","E","E","E","E","E","E","E","E","E","E","E","E","E","E","E","E","E","E","E","E","E","E","E","E","E","E","E","E","E","E","E","E","E","E","E","E","E","E","E","E","E","E","E","E","E","E","E","E","E","E","E","E","E","E","E","E","E","E","E","E","E","E","E","E","E","E","E","E","E","E","E","E","E","E","E","E","E","E","E","E","E","E","E","E","E","E","E","E","E","E","E","E","E","E","E","E","E","E","E","E","E","E","E","E","E","E","E","E","E","E","E","E","E","E","E","E","E","E","E","E","E","E","E","E","E","E","E","E","E","E","E","E","E","E","E","E","E","E","E","E","E","E","E","E","E","E","E","E","E","E","E","E","E","E","E","E","E","E","E","E","E","E","E","E","E","E","E","E","E","E","E","E","E","E","E","E","E","E","E","E","E","E","E","E","E","E","E","E","E","E","E","E","E","E","E","E","E","E","E","E","E","E","E","E","E","E","E","E","E","E","E","E","E","E","E","E","E","E","E","E","E","E","E","E","E","E","E","E","E","E","E","E","E","E","E","E","E","E","E","E","E","E","E","E","E","E","E","E","E","E","E","E","E","E","E","E","E","E","E","E","E","E","E","E","E","E","E","E","E","E","E","E","E","E","E","E","E","E","E","E","E","E","E","E","E","E","E","E","E","E","E","E","E","E","E","E","E","E","E","E","E","E","E","E","E","E","E","E","E","E","E","E","E","E","E","E","E","E","E","E","E","E","E","E","E","E","E","E","E","E","E","E","E","E","E","E","E","E","E","E","E","E","E","E","E","E","E","E","E","E","E","E","E","E","E","E","E","E","E","E","E","E","E","E","E","E","E","E","E","E","E","E","E","E","E","E","E","E","E","E","E","E","E","E","E","E","E","E","E","E","E","E","E","E","E","E","E","E","E","E","E","E","E","E","E","E","E","E","E","E","E","E","E","E","E","E","E","E","E","E","E","E","E","E","E","E","E","E","E","E","E","E","E","E","E","E","E","E","E","E","E","E","E","E","E","E","E","E","E","E","E","E","E","E","E","E","E","E","E","E","E","E","E","E","E","E","E","E","E","E","E","E","E","E","E","E","E","E","E","E","E","E","E","E","E","E","E","E","E","E","E","E","E","E","E","E","E","E","E","E","E","E","E","E","E","E","E","E","E","E","E","E","E","E","E","E","E","E","E","E","E","E","E","E","E","E","E","E","E","E","E","E","E","E","E","E","E","E","E","E","E","E","E","E","E","E","E","E","E","E","E","E","E","E","E","E","E","E","E","E","E","E","E","E","E","E","E","E","E","E","E","E","E","E","E","E","E","E","E","E","E","E","E","E","E","E","E","E","E","E","E","E","E","E","E","E","E","E","E","E","E","E","E","E","E","E","E","E","E","E","E","E","E","E","E","E","E","E","E","E","E","E","E","E","E","E","E","E","E","E","E","E","E","E","E","E","E","E","E","E","E","E","E","E","E","E","E","E","E","E","E","E","E","E","E","E","E","E","E","E","E","E","E","E","E","E","E","E","E","E","E","E","E","E","E","E","E","E","E","E","E","E","E","E","E","E","E","E","E","E","E","E","E","E","E","E","E","E","E","E","E","E","E","E","E","E","E","E","E","E","E","E","E","E","E","E","E","E","E","E","E","E","E","E","E","E","E","E","E","E","E","E","E","E","E","E","E","E","E","E","E","E","E","E","E","E","E","E","E","E","E","E","E","E","E","E","E","E","E","E","E","E","E","E","E","E","E","E","E","E","E","E","E","E","E","E","E","E","E","E","E","E","E","E","E","E","E","E","E","E","E","E","E","E","E","E","E","E","E","E","E","E","E","E","E","E","E","E","E","E","E","E","E","E","E","E","E","E","E","E","E","E","E","E","E","E","E","E","E","E","E","E","E","E","E","E","E","E","E","E","E","E","E","E","E","E","E","E","E","E","E","E","E","E","E","E","E","E","E","E","E","E","E","E","E","E","E","E","E","E","E","E","E","E","E","E","E","E","E","E","E","E","E","E","E","E","E","E","E","E","E","E","E","E","E","E","E","E","E","E","E","E","E","E","E","E","E","E","E","E","E","E","E","E","E","E","E","E","E","E","E","E","E","E","E","E","E","E","E","E","E","E","E","E","E","E","E","E","E","E","E","E","E","E","E","E","E","E","E","E","E","E","E","E","E","E","E","E","E","E","E","E","E","E","E","E","E","E","E","E","E","E","E","E","E","E","E","E","E","E","E","E","E","E","E","E","E","E","E","E","E","E","E","E","E","E","E","E","E","E","E","E","E","E","E","E","E","E","E","E","E","E","E","E","E","E","E","E","E","E","E","E","E","E","E","E","E","E","E","E","E","E","E","E","E","E","E","E","E","E","E","E","E","E","E","E","E","E","E","E","E","E","E","E","E","E","E","E","E","E","E","E","E","E","E","E","E","E","E","E","E","E","E","E","E","E","E","E","E","E","E","E","E","E","E","E","E","E","E","E","E","E","E","E","E","E","E","E","E","E","E","E","E","E","E","E","E","E","E","E","E","E","E","E","E","E","E","E","E","E","E","E","E","E","E","E","E","E","E","E","E","E","E","E","E","E","E","E","E","E","E","E","E","E","E","E","E","E","E","E","E","E","E","E","E","E","E","E","E","E","E","E","E","E","E","E","E","E","E","E","E","E","E","E","E","E","E","E","E","E","E","E","E","E","E","E","E","E","E","E","E","E","E","E","E","E","E","E","E","E","E","E","E","E","E","E","E","E","E","E","E","E","E","E","E","E","E","E","E","E","E","E","E","E","E","E","E","E","E","E","E","E","E","E","E","E","E","E","E","E","E","E","E","E","E","E","E","E","E","E","E","E","E","E","E","E","E","E","E","E","E","E","E","E","E","E","E","E","E","E","E","E","E","E","E","E","E","E","E","E","E","E","E","E","E","E","E","E","E","E","E","E","E","E","E","E","E","E","E","E","E","E","E","E","E","E","E","E","E","E","E","E","E","E","E","E","E","E","E","E","E","E","E","E","E","E","E","E","E","E","E","E","E","E","E","E","E","E","E","E","E","E","E","E","E","E","E","E","E","E","E","E","E","E","E","E","E","E","E","E","E","E","E","E","E","E","E","E","E","E","E","E","E","E","E","E","E","E","E","E","E","E","E","E","E","E","E","E","E","E","E","E","E","E","E","E","E","E","E","E","E","E","E","E","E","E","E","E","E","E","E","E","E","E","E","E","E","E","E","E","E","E","E","E","E","E","E","E","E","E","E","E","E","E","E","E","E","E","E","E","E","E","E","E","E","E","E","E","E","E","E","E","E","E","E","E","E","E","E","E","E","E","E","E","E","E","E","E","E","E","E","E","E","E","E","E","E","E","E","E","E","E","E","E","E","E","E","E","E","E","E","E","E","E","E","E","E","E","E","E","E","E","E","E","E","E","E","E","E","E","E","E","E","E","E","E","E","E","E","E","E","E","E","E","E","E","E","E","E","E","E","E","E","E","E","E","E","E","E","E","E","E","E","E","E","E","E","E","E","E","E","E","E","E","E","E","E","E","E","E","E","E","E","E","E","E","E","E","E","E","E","E","E","E","E","E","E","E","E","E","E","E","E","E","E","E","E","E","E","E","E","E","E","E","E","E","E","E","E","E","E","E","E","E","E","E","E","E","E","E","E","E","E","E","E","E","E","E","E","E","E","E","E","E","E","E","E","E","E","E","E","E","E","E","E","E","E","E","E","E","E","E","E","E","E","E","E","E","E","E","E","E","E","E","E","E","E","E","E","E","E","E","E","E","E","E","E","E","E","E","E","E","E","E","E","E","E","E","E","E","E","E","E","E","E","E","E","E","E","E","E","E","E","E","E","E","E","E","E","E","E","E","E","E","E","E","E","E","E","E","E","E","E","E","E","E","E","E","E","E","E","E","E","E","E","E","E","E","E","E","E","E","E","E","E","E","E","E","E","E","E","E","E","E","E","E","E","E","E","E","E","?","?","?","?","?","?","?","?","?","M","M","M","M","M","M","M","M","M","M","M","M","M","M","M","M","M","M","?","?","?","?","?","?","?","?","?","?","?","?","?","?","?","?","?","?","?","?","?","?","?","?","?","?","?","?","?","?","?","?","?","?","?","?","?","?","?","?","?","?","?","?","?","?","?","?","?","?","?","?","?","?","?","?","?","?","?","?","?","?","?","?","?","?","?","?","?","?","?","?","?","?","?","?","?","?","?","?","?","?","?","?","?","?","?","?","?","?","?","?","?","?","?","?","?","?","?","?","?","?","?","?","?","?","?","?","?","?","?","?","?","?","?","?","?","?","?","?","?","?","?","?","?","?","?","?","?","?","?","?","?","?","?","?","?","?","?","?","?","?","?","?","?","?","?","?","?","?","?","?","?","?","?","?","?","?","?","?","?","?","?","?","?","?","?","?","?","?","?","?","?","?","?","?","?","?","?","?","?","?","?","?","?","?","?","?","?","?","?","?","?","?","?","?","?","?","?","?","?","?","?","?","?","?","?","?","?","?","?","?","?","?","?","?","?","?","?","?","?","?","?","?","?","?","?","?","?","?","?","?","?","?","?","?","?","?","?","?","?","?","?","?","?","?","?","?","?","?","?","?","?","?","?","?","?","?","?","?","?","?","?","?","?","?","?","?","?","?","?","?","?","?","?","?","?","?","?","?","?","?","?","?","?","?","?","?","?","?","?","?","?","?","?","?","?","?","?","?","?","?","?","?","?","?","?","?","?","?","?","?","?","?","?","?","?","?","?","?","?","?","?","?","?","?","?","?","?","?","?","?","?","?","?","?","?","?","?","?","?","?","?","?","?","?","?","?","?","?","?","?","?","?","?","?","?","?","?","?","?","?","?","?","?","?","?","?","?","?","?","?","?","?","?","?","?","?","?","?","?","?","?","?","?","?","?","?","?","?","?","?","?","?","?","?","?","?","?","?","?","?","?","?","?","?","?","?","?","?","?","?","?","?","?","?","?","?","?","?","?","?","?","?","?","?","?","?","?","?","?","?","?","?","?","?","?","?","?","?","?","?","?","?","?","?","?","?","?","?","?","?","?","?","?","?","?","?","?","?","?","?","?","?","?","?","?","?","?","?","?","?","?","?","?","?","?","?","?","?","?","?","?","?","?","?","?","?","?","?","?","?","?","?","?","?","?","?","?","?","?","?","?","?","?","?","?","?","?","?","?","?","?","?","?","?","?","?","?","?","?","?","?","?","?","?","?","?","?","?","?","?","?","?","?","?","?","?","?","?","?","?","?","?","?","?","?","?","?","?","?","?","?","?","?","?","?","?","?","?","?","?","?","?","?","?","?","?","?","?","?","?","?","?","?","?","?","?","?","?","?","?","?","?","?","?","?","?","?","?","?","?","?","?","?","?","?","?","?","?","?","?","?","?","?","?","?","?","?","?","?","?","?","?","?","?","?","?","?","?","?","?","?","?","?","?","?","?","?","?","?","?","?","?","?","?","?","?","?","?","?","?","?","?","?","?","?","?","?","?","?","?","?","?","?","?","?","?","?","?","?","?","?","?","?","?","?","?","?","?","?","?","?","?","?","?","?","?","?","?","?","?","?","?","?","?","?","?","?","?","?","?","?","?","?","?","N","N","N","?","?","?","?","?","?","?","?","?","?","?","?","?","?","?","?","?","?","?","N","N","N","?","?","M","M","M","M","M","?","?","?","?","?","?","?","?","?","?","?","?","C","C","C","C","C","C","C","C","C","C","C","C","C","C","C","C","C","C","C","C","C","C","C","C","C","C","C","C","C","C","C","C","C","C","C","C","C","C","C","C","C","?","?","?","?","M","M","M","M","?","?","?","?","?","?","?","?","?","?","?","?","?","?","U","U","U","U","U","U","U","U","U","U","U","U","U","U","U","U","U","U","U","U","U","U","U","U","U","U","U","U","U","U","U","U","U","U","U","U","U","U","U","U","U","U","U","U","U","U","U","U","U","?","?","?","?","?","?","?","?","?","?","?","?","?","K","K","K","K","K","?","?","L","L","L","L","L","L","L","L","L","L","L","L","?","?","?","K","K","K","K","K","K","K","K","K","K","K","K","?","?","?","?","?","?","?","S","S","S","S","S","S","S","S","S","S","S","S","S","S","S","S","S","S","S","S","S","S","S","S","S","S","S","S","S","S","S","S","S","?","?","?","?","?","?","?","?","?","?","?","?","?","?","?","?","?","?","?","?","?","?","?","?","?","?","?","?","?","?","Q","Q","Q","Q","Q","Q","Q","Q","Q","Q","Q","Q","Q","Q","Q","Q","Q","Q","Q","Q","Q","Q","Q","Q","Q","Q","Q","Q","Q","Q","Q","Q","Q","Q","Q","Q","Q","Q","Q","Q","Q","Q","Q","Q","Q","?","?","?","?","Q","Q","Q","Q","Q","Q","Q","Q","Q","Q","?","?","?","?","?","?","P","P","P","P","P","P","P","P","P","?","?","?","?","?","?","?","?","?","?","?","?","?","?","?","?","W","W","W","W","?","?","?","?","?","?","?","?","?","?","?","?","?","?","?","?","?","?","?","?","?","?","?","M","M","M","M","M","M","?","?","?","?","?","?","?","?","D","D","D","D","D","D","D","D","D","D","D","D","?","?","C","C","C","C","C","C","C","C","C","C","C","C","C","C","C","C","C","C","C","C","?","B","B","B","B","B","B","B","B","B","B","B","B","B","B","B","B","B","B","B","B","B","B","B","B","B","B","B","B","B","B","B","B","B","B","B","B","B","B","B","B","B","B","B","B","B","B","B","B","B","B","B","B","B","B","B","B","B","B","B","B","B","B","B","B","B","B","B","B","B","B","B","B","B","B","B","B","B","B","B","B","B","B","B","B","B","B","B","B","B","B","B","B","B","B","B","B","B","B","B","B","B","B","B","B","B","B","B","B","B","B","B","B","B","B","B","B","B","B","B","B","?","K","K","K","?","?","?","T","T","T","T","T","T","T","T","T","T","T","T","?","U","U","U","?","V","V","W","W","X","X","X","X","X","X","X","X","X","X","X","X","X","X","X","X","X","?","Y","Y","Y","Y","Y","Y","?","?","?","?","?","?","?","?","?","?","?","?","?","?","Z","Z","Z","Z","Z","Z","Z","Z","Z","Z","Z","Z","Z","Z","Z","Z","Z","Z","Z","Z","Z","Z","Z","Z","Z","Z","Z","Z","Z","Z","Z","Z","Z","Z","Z","Z","Z","Z","Z","Z","Z","Z","Z","Z","Z","Z","?","Y","Y","Y","Y","?","?","?","?","?","?","N","N","N","N","N","N","N","N","N","N","N","N","N","N","N","N","N","?","?","?","?","?","?","?","?","?","?","V","?","?","?","?","?","?","?","U","U","U","U","U","U","U","?","?","?","?","T","T","T","T","T","?","?","?","?","?","?","?","?","?","?","?","?","?","?","?","P","P","P","P","P","Q","Q","Q","Q","Q","Q","?","R","R","R","R","R","R","R","R","R","R","R","R","R","R","R","R","R","R","R","R","R","R","R","R","R","R","R","R","R","R","R","R","R","R","R","R","R","R","R","R","R","R","R","R","R","R","R","R","R","R","R","R","R","?","Q","Q","Q","Q","?","?","P","P","P","?","O","O","O","O","O","O","O","O","O","O","O","O","O","O","O","O","O","O","O","O","O","O","O","O","O","O","O","O","O","O","O","O","O","O","O","O","O","O","O","O","O","O","O","O","O","O","O","O","O","O","O","O","O","O","O","O","O","O","O","O","O","O","O","O","O","O","O","O","O","O","O","O","O","O","O","O","O","O","O","O","O","O","O","O","O","O","O","O","O","O","O","O","O","O","O","O","O"],"t":[27,31,43,56,70,83,98,111,126,140,153,167,181,194,208,223,236,251,264,278,292,306,319,333,347,361,375,389,403,417,430,444,458,472,486,500,514,528,542,555,570,583,597,612,625,639,653,667,681,694,708,722,736,750,764,778,792,806,819,834,848,861,875,889,903,917,931,945,958,972,986,1000,1014,1028,1042,1055,1069,1083,1097,1111,1125,1139,1153,1167,1181,1195,1209,1223,1236,1250,1264,1278,1292,1306,1319,1333,1348,1362,1375,1389,1403,1417,1431,1445,1459,1473,1486,1500,1514,1529,1542,1556,1569,1583,1597,1611,1625,1639,1653,1667,1681,1694,1708,1722,1736,1750,1764,1778,1792,1808,1821,1834,1848,1863,1876,1890,1904,1918,1932,1946,1960,1973,1986,2000,2015,2028,2043,2057,2070,2084,2098,2112,2126,2140,2154,2167,2181,2195,2209,2224,2237,2251,2265,2279,2292,2306,2320,2334,2348,2361,2375,2389,2403,2417,2431,2445,2459,2473,2486,2501,2515,2529,2542,2556,2570,2584,2598,2612,2626,2639,2653,2667,2681,2695,2709,2722,2737,2750,2764,2778,2792,2806,2820,2834,2848,2862,2875,2889,2903,2917,2931,2945,2959,2972,2986,3000,3014,3028,3042,3056,3070,3084,3098,3111,3125,3139,3153,3167,3181,3195,3209,3224,3236,3250,3264,3278,3292,3306,3320,3334,3348,3361,3375,3389,3403,3417,3431,3445,3459,3472,3486,3500,3514,3528,3542,3556,3571,3584,3597,3612,3625,3639,3653,3667,3681,3695,3709,3723,3736,3750,3764,3779,3792,3806,3820,3834,3848,3861,3875,3889,3903,3917,3931,3945,3959,3973,3986,4000,4014,4028,4042,4056,4070,4084,4098,4112,4125,4139,4153,4167,4181,4195,4209,4223,4236,4250,4264,4278,4293,4306,4320,4334,4348,4362,4376,4390,4403,4417,4431,4445,4459,4473,4487,4501,4515,4528,4543,4557,4570,4584,4599,4613,4626,4640,4653,4667,4682,4695,4709,4723,4736,4750,4764,4778,4793,4806,4820,4834,4848,4862,4876,4890,4904,4918,4932,4945,4959,4974,4987,5001,5015,5028,5043,5056,5071,5084,5098,5112,5126,5140,5154,5168,5182,5196,5209,5223,5237,5251,5265,5279,5293,5307,5320,5334,5348,5362,5376,5390,5404,5417,5432,5445,5459,5473,5487,5501,5514,5528,5542,5556,5570,5585,5598,5612,5626,5640,5654,5668,5681,5696,5709,5723,5737,5751,5765,5779,5792,5806,5820,5834,5848,5862,5876,5890,5904,5917,5933,5945,5959,5973,5987,6001,6015,6029,6043,6057,6070,6084,6098,6112,6126,6140,6154,6168,6181,6196,6209,6223,6237,6251,6265,6279,6292,6306,6323,6334,6348,6362,6376,6390,6403,6417,6431,6446,6459,6473,6487,6501,6515,6528,6543,6557,6571,6584,6599,6612,6626,6640,6654,6668,6682,6696,6710,6723,6737,6751,6765,6779,6792,6806,6821,6834,6849,6862,6876,6890,6904,6917,6932,6946,6960,6973,6987,7001,7015,7029,7042,7057,7071,7084,7098,7112,7126,7140,7154,7168,7182,7196,7210,7224,7237,7252,7265,7279,7293,7307,7320,7335,7348,7362,7377,7390,7404,7418,7432,7445,7459,7473,7487,7501,7515,7529,7543,7557,7571,7585,7598,7612,7627,7640,7654,7668,7682,7695,7709,7724,7738,7752,7765,7779,7793,7806,7821,7834,7848,7862,7876,7890,7904,7918,7932,7945,7960,7973,7988,8001,8015,8029,8043,8057,8071,8084,8098,8112,8126,8140,8155,8168,8182,8196,8210,8224,8238,8252,8265,8279,8293,8307,8321,8334,8349,8363,8376,8391,8404,8421,8439,8453,8467,8481,8495,8509,8522,8536,8550,8564,8578,8592,8606,8620,8634,8647,8661,8675,8689,8703,8717,8731,8745,8758,8773,8787,8800,8814,8828,8842,8856,8870,8884,8898,8912,8926,8940,8953,8967,8981,8995,9009,9023,9036,9050,9064,9078,9092,9105,9120,9134,9147,9161,9176,9189,9203,9217,9231,9244,9259,9273,9287,9300,9314,9328,9341,9356,9370,9384,9397,9412,9425,9439,9453,9471,9486,9502,9516,9530,9544,9558,9571,9585,9599,9613,9627,9641,9654,9668,9683,9696,9710,9723,9738,9752,9766,9780,9794,9807,9821,9835,9848,9863,9876,9890,9904,9918,9932,9946,9960,9973,9987,10001,10016,10029,10043,10057,10071,10085,10099,10112,10127,10141,10154,10169,10183,10196,10210,10223,10238,10251,10265,10279,10293,10307,10321,10335,10349,10363,10376,10390,10404,10418,10432,10446,10460,10473,10487,10501,10515,10529,10543,10557,10571,10585,10599,10613,10627,10641,10654,10668,10682,10696,10710,10724,10738,10751,10765,10779,10793,10807,10821,10835,10849,10863,10877,10890,10904,10918,10933,10946,10960,10974,10988,11002,11016,11029,11043,11057,11071,11085,11099,11113,11127,11140,11154,11168,11182,11196,11210,11224,11238,11252,11266,11280,11293,11308,11321,11335,11349,11363,11377,11390,11404,11418,11432,11446,11460,11474,11488,11502,11515,11529,11543,11557,11572,11586,11599,11613,11626,11640,11654,11668,11682,11696,11710,11724,11738,11751,11765,11779,11793,11807,11821,11835,11849,11863,11877,11890,11904,11919,11932,11946,11960,11975,11988,12002,12015,12030,12043,12057,12071,12085,12099,12113,12126,12141,12154,12168,12182,12196,12210,12224,12238,12252,12265,12279,12293,12307,12322,12335,12349,12363,12377,12390,12404,12418,12433,12447,12460,12474,12488,12502,12515,12529,12543,12557,12572,12585,12599,12613,12627,12641,12655,12668,12682,12696,12710,12724,12738,12752,12766,12779,12793,12808,12821,12835,12849,12863,12877,12890,12904,12919,12932,12946,12960,12974,12988,13002,13016,13030,13044,13057,13071,13085,13099,13113,13127,13141,13154,13168,13182,13197,13211,13224,13238,13252,13266,13279,13293,13307,13322,13336,13350,13363,13377,13391,13405,13419,13432,13446,13460,13474,13488,13502,13516,13529,13543,13557,13571,13586,13599,13614,13627,13641,13655,13669,13682,13696,13710,13724,13738,13752,13766,13780,13794,13807,13821,13835,13849,13863,13877,13891,13905,13919,13932,13946,13960,13974,13989,14003,14016,14030,14043,14057,14072,14085,14099,14113,14127,14141,14155,14169,14182,14196,14210,14224,14238,14252,14266,14280,14293,14307,14322,14336,14349,14364,14378,14391,14405,14419,14432,14446,14460,14474,14488,14502,14516,14530,14543,14557,14571,14586,14599,14613,14627,14641,14655,14668,14683,14696,14710,14724,14738,14752,14766,14780,14794,14807,14821,14835,14850,14863,14877,14891,14905,14918,14933,14946,14961,14974,14988,15002,15016,15030,15043,15057,15072,15085,15099,15113,15127,15141,15155,15169,15183,15196,15210,15225,15238,15252,15266,15280,15294,15308,15322,15336,15350,15363,15377,15391,15405,15419,15433,15446,15460,15474,15489,15503,15516,15530,15544,15557,15571,15585,15599,15614,15627,15641,15655,15669,15683,15697,15710,15724,15738,15752,15766,15780,15794,15808,15822,15835,15849,15864,15877,15891,15905,15919,15933,15946,15961,15975,15988,16003,16016,16030,16044,16058,16072,16085,16099,16113,16127,16141,16155,16169,16183,16197,16210,16224,16238,16252,16266,16280,16294,16308,16322,16335,16349,16363,16377,16391,16405,16419,16433,16447,16461,16474,16488,16502,16516,16530,16544,16558,16572,16585,16599,16614,16627,16641,16655,16669,16683,16697,16711,16725,16738,16752,16766,16780,16794,16808,16822,16835,16849,16863,16877,16891,16905,16919,16933,16947,16961,16974,16988,17002,17016,17030,17045,17058,17072,17085,17099,17114,17127,17141,17155,17169,17183,17197,17211,17225,17238,17252,17266,17280,17295,17308,17322,17336,17350,17363,17377,17392,17406,17420,17434,17447,17460,17475,17488,17502,17517,17530,17544,17558,17572,17586,17599,17614,17627,17642,17655,17669,17683,17697,17711,17725,17738,17752,17766,17780,17794,17808,17822,17836,17850,17863,17877,17891,17905,17919,17933,17947,17961,17975,17989,18002,18016,18030,18044,18058,18072,18086,18100,18113,18127,18141,18155,18169,18183,18197,18211,18225,18239,18252,18266,18280,18294,18308,18322,18336,18350,18364,18377,18391,18405,18419,18433,18447,18461,18475,18489,18503,18516,18530,18544,18558,18573,18586,18600,18614,18627,18641,18655,18669,18683,18698,18711,18725,18739,18752,18766,18781,18794,18808,18822,18836,18850,18864,18878,18891,18906,18919,18933,18947,18961,18975,18989,19003,19017,19031,19045,19059,19072,19087,19100,19114,19128,19142,19155,19169,19183,19198,19211,19225,19239,19253,19267,19280,19294,19308,19323,19336,19350,19364,19378,19392,19406,19419,19433,19447,19461,19475,19489,19503,19516,19530,19544,19559,19572,19586,19601,19614,19628,19641,19655,19669,19683,19697,19711,19725,19739,19753,19766,19780,19794,19808,19822,19836,19850,19864,19878,19891,19905,19919,19933,19947,19962,19975,19989,20003,20017,20030,20044,20058,20072,20086,20100,20114,20128,20142,20155,20169,20183,20198,20211,20226,20239,20253,20267,20281,20294,20308,20323,20336,20350,20364,20378,20392,20405,20419,20433,20447,20461,20475,20489,20503,20517,20530,20545,20558,20572,20586,20600,20614,20628,20642,20655,20669,20683,20698,20711,20725,20739,20753,20767,20781,20795,20808,20822,20836,20850,20864,20878,20892,20906,20920,20934,20947,20961,20976,20989,21003,21017,21031,21045,21059,21072,21086,21100,21114,21128,21142,21156,21169,21183,21197,21211,21225,21240,21253,21267,21281,21295,21308,21322,21336,21350,21364,21378,21392,21406,21419,21433,21447,21463,21476,21489,21503,21517,21531,21544,21558,21572,21586,21600,21614,21628,21642,21656,21670,21684,21697,21711,21725,21739,21754,21768,21781,21795,21808,21823,21836,21850,21865,21879,21892,21906,21920,21933,21947,21961,21975,21989,22003,22017,22031,22045,22058,22072,22086,22100,22114,22128,22142,22156,22170,22184,22197,22211,22225,22239,22253,22267,22281,22295,22308,22323,22337,22350,22364,22378,22392,22406,22420,22434,22447,22461,22475,22489,22503,22517,22531,22545,22559,22572,22586,22600,22615,22628,22643,22656,22670,22683,22697,22711,22725,22739,22753,22768,22781,22795,22808,22822,22836,22850,22865,22879,22892,22906,22920,22934,22947,22961,22975,22989,23003,23017,23031,23045,23059,23073,23087,23101,23114,23128,23142,23156,23170,23184,23198,23212,23225,23239,23254,23267,23281,23295,23309,23323,23336,23350,23364,23379,23393,23406,23420,23434,23448,23461,23476,23489,23503,23517,23531,23545,23559,23573,23587,23600,23615,23628,23642,23656,23670,23684,23698,23712,23725,23739,23753,23767,23782,23795,23809,23823,23837,23850,23864,23878,23892,23906,23920,23934,23948,23962,23975,23990,24003,24017,24031,24045,24059,24073,24087,24100,24114,24128,24142,24156,24170,24184,24198,24211,24225,24239,24253,24267,24281,24295,24310,24323,24337,24350,24364,24378,24392,24407,24420,24434,24448,24462,24476,24489,24503,24517,24531,24545,24559,24573,24587,24600,24615,24629,24642,24656,24670,24684,24698,24712,24726,24739,24753,24767,24781,24795,24809,24823,24837,24851,24865,24878,24892,24906,24920,24934,24948,24962,24976,24989,25003,25018,25031,25045,25059,25073,25087,25101,25115,25128,25142,25156,25170,25184,25198,25212,25226,25239,25254,25267,25281,25295,25309,25323,25337,25351,25364,25378,25392,25406,25420,25434,25448,25462,25476,25489,25504,25518,25532,25545,25559,25573,25587,25601,25616,25629,25643,25657,25671,25684,25698,25712,25726,25740,25753,25767,25781,25795,25809,25824,25838,25851,25865,25879,25893,25907,25921,25935,25948,25962,25976,25990,26003,26018,26031,26046,26059,26074,26088,26101,26115,26129,26142,26156,26170,26184,26198,26212,26226,26240,26254,26268,26281,26296,26310,26323,26337,26351,26365,26379,26394,26407,26421,26434,26449,26463,26476,26490,26504,26518,26531,26546,26560,26573,26587,26602,26615,26629,26643,26656,26670,26685,26698,26712,26727,26740,26754,26768,26783,26796,26810,26823,26837,26851,26865,26879,26893,26907,26921,26935,26949,26962,26976,26990,27004,27018,27031,27045,27059,27073,27088,27101,27115,27129,27143,27157,27171,27185,27199,27213,27227,27240,27254,27268,27282,27296,27310,27323,27338,27352,27365,27379,27394,27407,27420,27434,27448,27462,27476,27490,27504,27518,27532,27546,27559,27573,27587,27601,27615,27629,27642,27657,27671,27685,27698,27713,27726,27740,27754,27768,27782,27795,27809,27823,27837,27852,27865,27879,27893,27907,27920,27934,27948,27963,27976,27990,28004,28018,28032,28045,28059,28074,28088,28101,28115,28129,28143,28156,28170,28185,28198,28212,28226,28240,28254,28268,28282,28295,28309,28323,28337,28351,28365,28379,28393,28407,28421,28435,28448,28462,28476,28490,28504,28518,28532,28546,28560,28573,28587,28601,28616,28629,28643,28657,28671,28684,28698,28713,28726,28740,28754,28768,28783,28796,28810,28824,28837,28851,28865,28880,28894,28908,28920,28934,28949,28963,28977,28990,29005,29019,29032,29046,29060,29074,29088,29102,29116,29129,29143,29158,29171,29185,29199,29213,29227,29241,29255,29269,29282,29297,29309,29324,29338,29352,29366,29379,29393,29407,29421,29435,29448,29463,29476,29490,29505,29518,29533,29546,29560,29574,29588,29602,29616,29629,29644,29657,29671,29685,29698,29712,29726,29740,29754,29768,29782,29796,29810,29824,29838,29851,29865,29880,29893,29908,29922,29935,29949,29962,29976,29990,30004,30018,30032,30046,30060,30074,30087,30101,30115,30129,30143,30157,30171,30185,30199,30212,30226,30240,30254,30268,30282,30296,30310,30323,30337,30351,30365,30379,30393,30407,30421,30435,30449,30463,30476,30490,30504,30519,30532,30546,30560,30574,30587,30602,30616,30629,30643,30658,30671,30685,30699,30713,30726,30740,30754,30769,30782,30796,30810,30824,30838,30851,30865,30880,30893,30907,30921,30935,30949,30963,30976,30990,31004,31018,31032,31046,31061,31074,31088,31102,31116,31130,31143,31157,31172,31185,31199,31213,31227,31240,31254,31268,31283,31296,31311,31324,31338,31352,31365,31379,31393,31408,31421,31435,31449,31464,31477,31490,31504,31518,31532,31546,31560,31574,31588,31602,31616,31629,31643,31657,31671,31685,31699,31713,31727,31740,31754,31768,31782,31796,31810,31824,31838,31852,31866,31880,31893,31907,31921,31935,31949,31963,31976,31990,32004,32018,32032,32047,32060,32074,32088,32102,32116,32130,32144,32157,32171,32185,32199,32213,32227,32241,32254,32268,32282,32296,32310,32324,32338,32352,32366,32380,32393,32407,32421,32435,32449,32463,32477,32491,32504,32518,32532,32546,32560,32574,32588,32602,32616,32630,32643,32657,32672,32686,32699,32713,32727,32741,32755,32769,32783,32796,32810,32824,32838,32852,32866,32880,32893,32907,32921,32936,32949,32963,32977,32991,33005,33018,33032,33046,33060,33074,33088,33102,33116,33130,33143,33157,33171,33185,33199,33213,33227,33241,33255,33268,33282,33296,33310,33325,33338,33352,33366,33380,33393,33407,33421,33436,33449,33463,33477,33491,33505,33518,33533,33546,33560,33574,33588,33602,33616,33630,33643,33658,33671,33685,33699,33713,33727,33741,33755,33768,33782,33796,33810,33824,33838,33852,33866,33880,33893,33908,33921,33936,33949,33963,33978,33991,34005,34019,34033,34046,34060,34074,34089,34102,34116,34130,34144,34157,34171,34186,34199,34213,34227,34241,34255,34269,34283,34296,34310,34324,34338,34352,34366,34380,34394,34407,34421,34436,34449,34463,34477,34491,34505,34519,34533,34547,34561,34574,34589,34603,34616,34631,34644,34658,34672,34686,34700,34714,34728,34742,34756,34769,34783,34797,34811,34825,34839,34852,34866,34880,34894,34908,34922,34936,34949,34964,34978,34991,35005,35019,35032,35046,35060,35074,35089,35102,35116,35130,35144,35158,35172,35185,35199,35213,35228,35242,35255,35269,35283,35297,35311,35325,35339,35353,35366,35380,35394,35408,35422,35436,35450,35464,35478,35492,35505,35520,35533,35547,35561,35575,35589,35603,35617,35631,35644,35658,35673,35686,35700,35714,35728,35742,35755,35769,35783,35797,35811,35825,35839,35853,35866,35881,35894,35908,35921,35935,35949,35964,35978,35991,36005,36019,36033,36047,36060,36075,36088,36102,36117,36131,36144,36158,36172,36185,36199,36213,36227,36241,36255,36269,36283,36297,36310,36325,36339,36352,36366,36381,36395,36408,36422,36436,36450,36463,36477,36491,36506,36519,36533,36547,36561,36575,36589,36603,36617,36630,36645,36658,36672,36686,36700,36714,36728,36742,36756,36769,36783,36797,36811,36825,36839,36853,36867,36880,36894,36908,36922,36937,36950,36964,36978,36992,37005,37019,37033,37047,37061,37075,37088,37103,37117,37130,37144,37159,37172,37186,37199,37213,37227,37242,37255,37269,37283,37297,37311,37325,37338,37353,37366,37380,37394,37408,37422,37436,37450,37463,37478,37491,37505,37519,37533,37547,37561,37575,37589,37602,37616,37630,37644,37658,37673,37686,37700,37713,37727,37741,37755,37769,37783,37797,37811,37825,37838,37853,37866,37880,37894,37908,37922,37936,37950,37963,37978,37991,38006,38020,38033,38047,38061,38075,38089,38102,38116,38130,38145,38158,38172,38186,38200,38214,38227,38241,38256,38270,38283,38297,38311,38325,38339,38352,38366,38380,38395,38408,38422,38436,38450,38464,38477,38491,38505,38519,38533,38547,38561,38575,38589,38603,38617,38631,38644,38658,38672,38686,38700,38714,38728,38741,38755,38770,38783,38798,38811,38825,38839,38853,38867,38881,38894,38908,38922,38936,38950,38964,38978,38991,39005,39019,39033,39047,39061,39075,39089,39103,39117,39130,39145,39159,39172,39186,39200,39214,39228,39242,39255,39270,39283,39297,39311,39325,39339,39353,39367,39381,39394,39408,39422,39437,39451,39464,39479,39492,39505,39519,39533,39547,39561,39575,39589,39603,39617,39630,39644,39658,39672,39687,39700,39714,39728,39742,39755,39769,39783,39797,39811,39825,39839,39854,39867,39881,39895,39908,39923,39937,39950,39964,39978,39992,40006,40020,40034,40048,40062,40075,40089,40103,40117,40132,40145,40159,40173,40187,40201,40214,40228,40242,40256,40270,40284,40298,40312,40325,40339,40353,40367,40381,40395,40409,40423,40437,40451,40464,40478,40492,40506,40520,40534,40548,40562,40576,40589,40604,40617,40631,40645,40659,40673,40687,40701,40715,40728,40742,40756,40770,40784,40798,40812,40826,40840,40853,40867,40881,40895,40909,40923,40937,40951,40964,40979,40992,41006,41020,41034,41048,41062,41076,41090,41103,41117,41131,41145,41159,41173,41187,41201,41215,41228,41242,41256,41270,41287,41305,41319,41333,41346,41360,41374,41388,41402,41416,41430,41444,41458,41471,41485,41499,41513,41526,41540,41554,41568,41582,41597,41610,41624,41638,41652,41665,41679,41693,41707,41721,41735,41749,41763,41777,41790,41804,41819,41832,41846,41860,41874,41888,41902,41915,41929,41943,41957,41971,41985,41999,42013,42027,42041,42055,42068,42082,42097,42110,42124,42138,42152,42166,42179,42193,42207,42221,42235,42249,42263,42277,42291,42305,42318,42332,42346,42361,42374,42388,42402,42415,42430,42444,42457,42471,42485,42499,42513,42527,42541,42555,42568,42582,42596,42611,42624,42638,42652,42666,42679,42693,42707,42721,42735,42749,42763,42777,42791,42805,42818,42832,42846,42860,42874,42888,42902,42916,42930,42943,42957,42971,42985,42999,43013,43027,43041,43055,43069,43082,43096,43110,43124,43138,43152,43166,43179,43193,43207,43221,43235,43249,43263,43277,43291,43305,43318,43332,43347,43360,43374,43388,43402,43416,43430,43444,43457,43471,43486,43499,43513,43527,43541,43555,43568,43582,43596,43610,43625,43638,43652,43666,43680,43693,43707,43721,43735,43749,43763,43777,43791,43805,43818,43832,43846,43860,43874,43888,43902,43916,43930,43944,43957,43971,43986,43999,44013,44027,44041,44055,44069,44082,44096,44110,44124,44138,44152,44166,44180,44194,44208,44222,44235,44249,44263,44277,44291,44305,44319,44333,44347,44360,44374,44388,44402,44416,44430,44444,44458,44471,44486,44499,44513,44527,44541,44555,44569,44583,44597,44610,44624,44638,44652,44666,44680,44694,44708,44721,44735,44749,44763,44779,44791,44805,44819,44833,44846,44860,44874,44889,44902,44916,44930,44944,44958,44971,44985,44999,45014,45028,45042,45056,45070,45083,45097,45111,45126,45139,45152,45166,45180,45194,45208,45222,45235,45249,45264,45277,45291,45305,45320,45333,45347,45361,45374,45388,45402,45416,45430,45444,45458,45472,45485,45499,45513,45527,45542,45556,45569,45583,45597,45611,45625,45638,45652,45667,45680,45694,45708,45722,45735,45749,45763,45777,45791,45805,45819,45833,45847,45861,45874,45888,45903,45916,45930,45944,45958,45972,45986,45999,46013,46027,46041,46055,46069,46083,46097,46111,46125,46138,46152,46166,46180,46194,46208,46222,46236,46249,46263,46277,46291,46305,46319,46333,46347,46361,46375,46388,46403,46416,46430,46444,46458,46472,46486,46499,46513,46528,46542,46556,46570,46583,46597,46611,46625,46638,46652,46666,46680,46694,46708,46722,46736,46749,46763,46777,46791,46805,46819,46833,46847,46861,46875,46888,46903,46916,46930,46945,46959,46972,46986,47000,47013,47027,47041,47056,47069,47084,47097,47111,47125,47138,47152,47166,47180,47194,47208,47222,47236,47250,47263,47278,47291,47305,47319,47333,47347,47361,47375,47388,47402,47416,47430,47444,47458,47472,47486,47500,47513,47527,47541,47555,47569,47584,47597,47611,47625,47638,47652,47666,47680,47694,47708,47722,47736,47750,47764,47777,47792,47806,47819,47833,47847,47861,47875,47888,47902,47916,47931,47944,47958,47972,47986,48000,48014,48028,48041,48055,48069,48083,48097,48111,48125,48139,48153,48166,48180,48194,48208,48222,48236,48250,48264,48277,48291,48307,48319,48333,48347,48361,48375,48389,48403,48416,48430,48444,48458,48472,48486,48500,48514,48528,48541,48555,48569,48583,48597,48611,48625,48639,48653,48667,48680,48694,48708,48722,48737,48750,48764,48778,48791,48805,48819,48833,48847,48861,48875,48889,48903,48916,48930,48944,48958,48972,48986,49000,49014,49028,49042,49056,49069,49084,49097,49111,49125,49139,49153,49166,49180,49194,49209,49222,49236,49250,49264,49278,49292,49305,49320,49333,49347,49361,49375,49389,49403,49418,49430,49445,49459,49472,49486,49500,49514,49528,49542,49555,49569,49583,49597,49611,49625,49639,49653,49667,49681,49695,49708,49722,49737,49750,49764,49778,49792,49806,49819,49833,49847,49861,49876,49889,49903,49917,49930,49945,49958,49972,49986,50000,50014,50028,50042,50055,50069,50083,50097,50111,50125,50139,50153,50167,50181,50194,50208,50223,50237,50250,50264,50278,50292,50306,50319,50334,50348,50362,50375,50389,50403,50417,50431,50445,50458,50472,50486,50500,50514,50528,50542,50556,50569,50584,50597,50612,50625,50639,50653,50667,50681,50695,50708,50722,50736,50750,50764,50778,50792,50806,50820,50833,50847,50861,50876,50889,50903,50917,50931,50945,50958,50973,50987,51000,51014,51028,51042,51056,51070,51083,51098,51112,51125,51139,51153,51167,51181,51195,51208,51222,51236,51250,51264,51278,51292,51306,51320,51334,51347,51362,51375,51389,51403,51417,51431,51445,51459,51472,51486,51500,51515,51528,51542,51556,51570,51584,51598,51611,51626,51639,51653,51667,51681,51695,51709,51723,51736,51750,51764,51778,51793,51806,51820,51834,51848,51861,51876,51889,51903,51917,51931,51945,51959,51972,51986,52000,52014,52028,52042,52056,52070,52084,52098,52111,52125,52139,52153,52167,52182,52195,52209,52223,52236,52250,52264,52278,52292,52306,52320,52334,52347,52361,52375,52389,52403,52417,52431,52445,52459,52473,52486,52501,52514,52528,52543,52556,52570,52584,52598,52612,52625,52639,52654,52667,52681,52695,52709,52723,52736,52750,52764,52778,52792,52806,52820,52834,52848,52862,52876,52890,52904,52918,52931,52945,52959,52973,52987,53001,53014,53029,53042,53056,53070,53084,53098,53112,53125,53139,53153,53167,53181,53195,53209,53223,53237,53250,53264,53278,53292,53306,53320,53334,53348,53362,53375,53389,53403,53417,53431,53445,53459,53473,53487,53500,53514,53529,53543,53556,53570,53584,53598,53612,53625,53639,53653,53667,53682,53695,53709,53723,53737,53750,53765,53778,53792,53806,53820,53834,53848,53862,53876,53889,53903,53917,53931,53945,53959,53973,53987,54001,54014,54029,54043,54056,54070,54084,54098,54112,54126,54139,54153,54167,54181,54195,54209,54223,54237,54251,54265,54278,54292,54306,54320,54334,54348,54362,54376,54391,54403,54418,54431,54445,54459,54473,54487,54501,54515,54528,54543,54556,54570,54584,54598,54612,54626,54640,54653,54667,54681,54695,54709,54723,54737,54751,54765,54779,54792,54806,54820,54834,54848,54863,54876,54889,54904,54917,54931,54945,54959,54973,54987,55001,55015,55029,55043,55056,55070,55084,55098,55112,55126,55140,55153,55168,55181,55195,55209,55223,55237,55251,55265,55278,55293,55306,55320,55334,55348,55362,55376,55390,55403,55417,55431,55446,55459,55473,55487,55501,55515,55529,55542,55557,55570,55584,55598,55613,55626,55640,55653,55667,55681,55695,55709,55723,55737,55751,55765,55779,55793,55806,55820,55834,55848,55862,55876,55890,55904,55917,55931,55945,55959,55974,55988,56002,56015,56029,56043,56057,56070,56084,56098,56112,56126,56140,56154,56168,56181,56195,56209,56223,56237,56251,56265,56279,56293,56307,56320,56334,56348,56362,56376,56390,56404,56418,56431,56445,56459,56473,56487,56502,56515,56529,56543,56556,56570,56584,56599,56612,56626,56640,56654,56668,56682,56695,56709,56723,56737,56751,56765,56779,56793,56807,56820,56834,56849,56862,56876,56890,56904,56918,56931,56946,56959,56974,56987,57001,57015,57029,57043,57057,57070,57085,57098,57112,57126,57141,57154,57168,57182,57196,57209,57223,57237,57251,57265,57279,57293,57307,57320,57335,57349,57362,57376,57390,57404,57418,57432,57445,57459,57473,57488,57502,57515,57529,57543,57557,57571,57585,57598,57613,57626,57640,57654,57668,57682,57696,57709,57723,57737,57751,57765,57779,57793,57807,57821,57835,57848,57863,57876,57890,57904,57918,57932,57946,57960,57974,57987,58001,58015,58029,58043,58057,58071,58085,58098,58112,58127,58141,58154,58168,58182,58196,58210,58223,58237,58251,58266,58279,58293,58307,58321,58335,58348,58362,58376,58390,58404,58419,58432,58446,58459,58473,58487,58501,58515,58529,58543,58557,58571,58585,58598,58613,58626,58640,58654,58668,58682,58696,58710,58723,58738,58751,58765,58779,58793,58807,58821,58835,58848,58862,58876,58890,58904,58918,58932,58946,58960,58973,58987,59001,59015,59029,59043,59057,59071,59085,59099,59112,59126,59140,59154,59169,59182,59196,59210,59223,59237,59252,59265,59280,59293,59307,59321,59335,59349,59363,59376,59390,59404,59418,59432,59446,59460,59473,59487,59502,59515,59529,59543,59557,59571,59585,59599,59612,59626,59640,59655,59668,59682,59696,59710,59724,59737,59751,59765,59779,59793,59807,59821,59835,59849,59863,59877,59890,59904,59918,59932,59946,59960,59974,59987,60001,60015,60029,60044,60057,60071,60085,60099,60112,60126,60141,60154,60168,60182,60196,60210,60224,60237,60251,60265,60279,60293,60307,60321,60335,60349,60363,60376,60390,60404,60418,60432,60446,60460,60474,60488,60502,60515,60529,60543,60557,60571,60585,60600,60613,60627,60641,60654,60668,60682,60696,60710,60724,60738,60752,60765,60779,60793,60808,60821,60835,60849,60863,60877,60890,60904,60919,60933,60946,60960,60974,60988,61002,61015,61030,61043,61057,61071,61086,61099,61113,61127,61141,61154,61168,61182,61196,61210,61224,61238,61252,61266,61279,61294,61307,61321,61335,61349,61363,61377,61391,61405,61418,61432,61446,61460,61474,61488,61502,61516,61529,61543,61557,61571,61585,61599,61613,61627,61641,61654,61669,61682,61696,61710,61724,61738,61752,61766,61779,61793,61807,61821,61835,61849,61863,61877,61891,61904,61918,61932,61946,61961,61975,61988,62002,62016,62029,62043,62057,62072,62085,62100,62114,62127,62141,62154,62168,62182,62196,62210,62224,62238,62252,62266,62279,62293,62308,62322,62335,62349,62363,62377,62391,62405,62419,62432,62446,62460,62474,62488,62502,62516,62530,62543,62557,62571,62585,62599,62614,62627,62641,62655,62668,62682,62696,62710,62724,62738,62752,62766,62780,62794,62807,62822,62835,62849,62863,62877,62891,62905,62918,62932,62946,62960,62974,62988,63002,63016,63030,63044,63057,63071,63085,63099,63113,63127,63141,63155,63168,63182,63197,63210,63224,63238,63252,63266,63280,63294,63308,63321,63335,63349,63363,63377,63391,63405,63419,63432,63446,63461,63474,63488,63503,63516,63530,63544,63558,63571,63586,63600,63613,63627,63641,63655,63669,63682,63696,63711,63725,63738,63753,63766,63780,63794,63808,63821,63835,63849,63863,63877,63891,63905,63919,63933,63947,63961,63975,63989,64002,64017,64030,64045,64058,64072,64085,64100,64113,64127,64142,64155,64169,64183,64197,64211,64224,64238,64253,64266,64280,64294,64308,64321,64335,64349,64363,64377,64391,64405,64419,64433,64449,64461,64474,64488,64502,64516,64530,64544,64558,64572,64585,64599,64614,64627,64641,64655,64670,64683,64697,64710,64725,64738,64752,64767,64781,64794,64808,64822,64836,64850,64864,64878,64892,64905,64919,64933,64947,64961,64975,64989,65003,65016,65030,65044,65058,65072,65086,65100,65114,65128,65142,65156,65169,65183,65197,65211,65225,65239,65253,65266,65281,65294,65308,65322,65335,65349,65364,65377,65391,65405,65419,65433,65447,65461,65474,65488,65502,65516,65530,65544,65558,65572,65586,65600,65614,65627,65641,65656,65670,65683,65697,65710,65725,65739,65752,65766,65780,65794,65808,65822,65836,65849,65864,65877,65891,65906,65919,65933,65947,65963,65975,65989,66003,66016,66030,66044,66058,66072,66087,66100,66114,66127,66141,66155,66169,66183,66197,66211,66225,66238,66253,66266,66280,66294,66309,66322,66336,66350,66363,66377,66391,66405,66419,66433,66447,66461,66475,66488,66502,66516,66530,66544,66558,66572,66586,66599,66614,66627,66641,66655,66669,66683,66697,66711,66725,66738,66752,66768,66780,66794,66808,66822,66836,66850,66864,66878,66891,66906,66919,66933,66947,66961,66975,66989,67002,67016,67030,67044,67059,67072,67086,67100,67114,67128,67142,67155,67169,67183,67197,67211,67225,67239,67252,67266,67280,67294,67308,67322,67336,67350,67364,67377,67391,67405,67419,67433,67447,67461,67475,67489,67502,67516,67530,67544,67558,67572,67586,67600,67614,67628,67641,67655,67669,67683,67698,67711,67725,67739,67753,67766,67781,67794,67808,67822,67836,67850,67864,67877,67891,67905,67919,67933,67947,67961,67975,67989,68003,68016,68030,68044,68058,68072,68086,68100,68114,68128,68142,68155,68170,68184,68198,68211,68225,68239,68252,68267,68280,68294,68308,68323,68336,68350,68364,68378,68392,68405,68419,68433,68447,68461,68475,68489,68503,68516,68530,68544,68558,68572,68586,68600,68614,68628,68642,68655,68669,68683,68698,68711,68725,68739,68753,68767,68781,68794,68808,68822,68836,68850,68864,68878,68892,68906,68919,68933,68947,68961,68976,68989,69003,69017,69030,69044,69058,69072,69086,69100,69114,69128,69142,69156,69169,69183,69198,69211,69225,69240,69253,69267,69281,69295,69309,69322,69336,69350,69364,69378,69392,69405,69420,69433,69447,69461,69475,69489,69503,69517,69530,69545,69558,69572,69586,69601,69615,69628,69642,69656,69669,69683,69697,69712,69725,69739,69753,69767,69781,69795,69808,69822,69837,69850,69864,69878,69892,69906,69919,69933,69947,69962,69976,69989,70003,70017,70031,70045,70058,70072,70086,70100,70114,70128,70142,70156,70170,70183,70197,70211,70225,70239,70253,70267,70281,70295,70309,70322,70336,70350,70364,70378,70392,70406,70420,70433,70447,70461,70475,70489,70503,70517,70531,70545,70558,70572,70586,70600,70614,70628,70642,70656,70670,70684,70698,70711,70726,70739,70753,70767,70781,70795,70809,70822,70837,70850,70864,70878,70892,70906,70920,70934,70948,70961,70975,70989,71003,71017,71031,71045,71059,71072,71086,71101,71115,71128,71142,71156,71170,71184,71197,71211,71226,71239,71253,71267,71281,71295,71309,71322,71336,71351,71364,71378,71392,71406,71420,71434,71447,71462,71475,71489,71503,71518,71531,71545,71559,71573,71587,71601,71615,71629,71642,71656,71670,71684,71698,71712,71726,71740,71754,71767,71782,71795,71809,71823,71837,71851,71864,71879,71893,71906,71921,71935,71948,71962,71976,71990,72004,72018,72032,72045,72059,72073,72087,72101,72115,72129,72143,72157,72170,72184,72198,72212,72226,72240,72254,72268,72282,72295,72309,72323,72337,72350,72365,72379,72392,72406,72420,72434,72448,72462,72476,72489,72504,72518,72531,72545,72559,72573,72587,72601,72615,72629,72643,72657,72670,72684,72698,72712,72726,72740,72754,72768,72782,72795,72809,72823,72837,72851,72865,72879,72893,72906,72921,72935,72948,72962,72976,72989,73004,73018,73032,73046,73059,73073,73087,73101,73115,73128,73142,73156,73170,73184,73198,73212,73225,73239,73253,73267,73281,73295,73309,73323,73337,73350,73364,73379,73393,73407,73421,73435,73449,73462,73476,73490,73504,73518,73532,73546,73559,73573,73587,73601,73615,73629,73642,73656,73670,73684,73698,73712,73726,73739,73753,73767,73781,73795,73809,73823,73837,73851,73865,73878,73893,73906,73920,73934,73948,73962,73976,73990,74004,74017,74031,74045,74059,74073,74087,74101,74115,74128,74142,74156,74170,74184,74199,74212,74226,74240,74254,74268,74282,74296,74310,74324,74338,74351,74365,74379,74393,74407,74421,74435,74448,74462,74476,74490,74504,74517,74532,74546,74559,74573,74587,74601,74615,74629,74642,74656,74671,74684,74698,74712,74726,74740,74754,74767,74782,74795,74809,74823,74837,74851,74865,74879,74893,74906,74921,74934,74948,74962,74976,74990,75004,75018,75031,75045,75059,75073,75087,75101,75115,75129,75143,75157,75171,75184,75199,75213,75226,75240,75254,75268,75282,75296,75309,75323,75337,75351,75365,75379,75393,75406,75421,75434,75448,75462,75476,75490,75504,75517,75532,75545,75559,75573,75587,75601,75615,75629,75643,75656,75670,75684,75698,75712,75726,75741,75754,75768,75782,75795,75809,75823,75837,75851,75865,75879,75893,75906,75920,75935,75948,75962,75976,75990,76004,76018,76031,76046,76059,76073,76087,76101,76115,76129,76143,76157,76171,76185,76199,76213,76226,76240,76254,76268,76282,76295,76310,76324,76337,76351,76365,76379,76393,76407,76421,76435,76449,76462,76476,76490,76504,76518,76532,76546,76560,76573,76588,76601,76615,76629,76643,76657,76671,76685,76699,76712,76726,76740,76754,76769,76782,76796,76810,76824,76837,76851,76866,76879,76894,76907,76921,76935,76949,76962,76976,76990,77004,77018,77032,77046,77059,77074,77088,77101,77116,77129,77143,77157,77172,77185,77198,77212,77226,77240,77254,77268,77282,77296,77309,77324,77338,77352,77366,77379,77394,77408,77421,77435,77448,77463,77476,77490,77504,77518,77532,77546,77559,77573,77587,77601,77615,77629,77643,77657,77671,77685,77699,77712,77726,77740,77755,77768,77782,77797,77810,77823,77838,77852,77865,77879,77893,77907,77921,77935,77949,77962,77976,77990,78004,78018,78032,78046,78060,78074,78087,78101,78115,78129,78143,78157,78171,78185,78198,78212,78226,78240,78254,78268,78282,78296,78310,78323,78337,78351,78365,78380,78393,78407,78421,78435,78449,78462,78477,78491,78504,78518,78532,78546,78560,78574,78587,78602,78616,78629,78644,78658,78671,78685,78699,78713,78726,78741,78754,78768,78783,78796,78810,78824,78838,78852,78865,78879,78893,78907,78922,78936,78949,78963,78977,78991,79005,79019,79033,79047,79060,79075,79088,79102,79116,79130,79144,79158,79172,79186,79199,79213,79226,79240,79254,79268,79282,79296,79310,79324,79338,79352,79365,79380,79394,79407,79421,79436,79449,79463,79477,79491,79504,79519,79533,79547,79560,79574,79588,79602,79616,79629,79643,79657,79671,79685,79699,79713,79727,79741,79755,79768,79782,79797,79810,79824,79838,79852,79865,79879,79894,79907,79921,79935,79949,79963,79977,79991,80004,80018,80033,80046,80061,80074,80088,80102,80115,80130,80143,80157,80171,80185,80199,80213,80227,80240,80254,80268,80283,80296,80310,80324,80338,80351,80365,80379,80393,80407,80421,80435,80449,80463,80477,80490,80505,80518,80533,80546,80560,80574,80588,80602,80616,80630,80643,80657,80671,80686,80699,80713,80727,80741,80755,80768,80782,80796,80810,80824,80838,80852,80866,80879,80894,80907,80922,80935,80949,80963,80977,80991,81004,81019,81032,81047,81060,81074,81088,81102,81116,81130,81144,81157,81171,81186,81199,81213,81227,81241,81255,81268,81282,81296,81310,81324,81338,81352,81366,81380,81393,81407,81421,81435,81449,81463,81477,81491,81505,81518,81533,81547,81560,81574,81588,81602,81616,81630,81643,81657,81672,81685,81700,81713,81727,81741,81755,81769,81783,81797,81811,81825,81839,81852,81866,81880,81893,81907,81921,81935,81949,81963,81977,81991,82005,82019,82033,82047,82061,82074,82088,82103,82116,82130,82143,82157,82172,82186,82199,82213,82227,82241,82255,82269,82283,82296,82311,82324,82338,82352,82366,82380,82394,82408,82422,82436,82449,82463,82477,82491,82505,82519,82532,82546,82560,82574,82588,82602,82617,82630,82644,82658,82671,82686,82699,82713,82727,82741,82755,82769,82782,82796,82810,82825,82839,82852,82866,82880,82894,82908,82921,82935,82949,82964,82977,82992,83005,83019,83033,83047,83061,83074,83088,83102,83116,83130,83144,83158,83172,83185,83199,83213,83227,83242,83255,83269,83283,83297,83311,83325,83338,83353,83367,83381,83394,83408,83422,83436,83449,83463,83477,83491,83505,83519,83533,83547,83560,83575,83588,83603,83616,83631,83644,83658,83672,83686,83700,83713,83727,83742,83755,83769,83783,83797,83811,83825,83838,83853,83866,83880,83895,83908,83922,83936,83950,83964,83978,83991,84005,84019,84033,84047,84060,84075,84088,84103,84117,84131,84144,84159,84172,84186,84200,84214,84228,84242,84255,84269,84283,84297,84311,84325,84339,84352,84367,84381,84394,84409,84422,84436,84450,84464,84478,84492,84505,84519,84533,84547,84561,84575,84589,84603,84616,84630,84644,84659,84672,84686,84699,84714,84727,84742,84755,84769,84783,84797,84811,84825,84838,84853,84866,84880,84894,84908,84922,84936,84950,84965,84977,84991,85006,85019,85033,85047,85061,85075,85088,85103,85116,85130,85144,85158,85172,85186,85200,85214,85227,85241,85256,85269,85284,85297,85311,85325,85338,85353,85367,85381,85395,85408,85422,85436,85450,85464,85477,85491,85506,85520,85533,85547,85561,85575,85588,85603,85617,85630,85644,85658,85672,85686,85700,85714,85727,85741,85755,85769,85783,85797,85811,85825,85839,85852,85867,85880,85894,85908,85922,85936,85950,85963,85978,85991,86005,86019,86033,86047,86061,86075,86089,86103,86117,86130,86144,86158,86172,86186,86200,86214,86228,86241,86255,86269,86283,86297,86311,86325,86339,86353,86366,86380,86394,86408,86423,86436,86450,86464,86478,86493,86505,86519,86533,86547,86561,86575,86589,86603,86617,86630,86644,86658,86672,86686,86700,86714,86728,86743],"hit":[null],"x":[-2.693877551020408,-2.693877551020408,-2.693877551020408,-2.693877551020408,-2.693877551020408,-2.693877551020408,-2.693877551020408,-2.693877551020408,-2.693877551020408,-2.693877551020408,-2.693877551020408,-2.693877551020408,-2.693877551020408,-2.693877551020408,-2.693877551020408,-2.693877551020408,-2.693877551020408,-2.693877551020408,-2.693877551020408,-2.693877551020408,-2.693877551020408,-2.693877551020408,-2.693877551020408,-2.693877551020408,-2.693877551020408,-2.693877551020408,-2.693877551020408,-2.693877551020408,-2.693877551020408,-2.693877551020408,-2.693877551020408,-2.693877551020408,-2.693877551020408,-2.693877551020408,-2.693877551020408,-2.693877551020408,-2.693877551020408,-2.693877551020408,-2.693877551020408,-2.693877551020408,-2.693877551020408,-2.693877551020408,-2.693877551020408,-2.693877551020408,-2.693877551020408,-2.693877551020408,-2.693877551020408,-2.693877551020408,-2.693877551020408,-2.693877551020408,-2.693877551020408,-2.693877551020408,-2.693877551020408,-2.693877551020408,-2.693877551020408,-2.693877551020408,-2.693877551020408,-2.693877551020408,-2.693877551020408,-2.693877551020408,-2.693877551020408,-2.693877551020408,-2.693877551020408,-2.693877551020408,-2.693877551020408,-2.693877551020408,-2.693877551020408,-2.693877551020408,-2.693877551020408,-2.693877551020408,-2.693877551020408,-2.693877551020408,-2.693877551020408,-2.693877551020408,-2.693877551020408,-2.693877551020408,-2.693877551020408,-2.693877551020408,-2.693877551020408,-2.693877551020408,-2.693877551020408,-2.693877551020408,-2.693877551020408,-2.693877551020408,-2.693877551020408,-2.693877551020408,-2.693877551020408,-2.693877551020408,-2.693877551020408,-2.693877551020408,-2.693877551020408,-2.693877551020408,-2.693877551020408,-2.693877551020408,-2.693877551020408,-2.693877551020408,-2.693877551020408,-2.693877551020408,-2.693877551020408,-2.693877551020408,-2.693877551020408,-2.693877551020408,-2.693877551020408,-2.693877551020408,-2.693877551020408,-2.693877551020408,-2.693877551020408,-2.693877551020408,-2.693877551020408,-2.693877551020408,-2.693877551020408,-2.693877551020408,-2.693877551020408,-2.693877551020408,-2.693877551020408,-2.693877551020408,-2.693877551020408,-2.693877551020408,-2.693877551020408,-2.693877551020408,-2.693877551020408,-2.693877551020408,-2.693877551020408,-2.693877551020408,-2.693877551020408,-2.693877551020408,-2.693877551020408,-2.693877551020408,-2.693877551020408,-0.01020408163265306,0.05442176870748299,0.10204081632653061,0.19727891156462585,0.2789115646258503,0.3469387755102041,0.36394557823129253,0.42857142857142855,0.5034013605442177,0.5986394557823129,0.6462585034013606,0.7006802721088435,0.7210884353741497,0.7210884353741497,0.7210884353741497,0.7210884353741497,0.7210884353741497,0.7210884353741497,0.7210884353741497,0.7210884353741497,0.7210884353741497,0.7210884353741497,0.7585034013605442,0.7857142857142857,0.8231292517006803,0.8401360544217688,0.8775510204081632,0.9149659863945578,0.9523809523809523,0.9727891156462585,1.010204081632653,1.0476190476190477,1.064625850340136,1.0748299319727892,1.0850340136054422,1.0850340136054422,1.0850340136054422,1.0850340136054422,1.0850340136054422,1.0850340136054422,1.0850340136054422,1.0850340136054422,1.0850340136054422,1.0850340136054422,1.0850340136054422,1.0850340136054422,1.0850340136054422,1.0850340136054422,1.0850340136054422,1.0850340136054422,1.1020408163265305,1.1020408163265305,1.1224489795918366,1.1326530612244898,1.1394557823129252,1.1496598639455782,1.1496598639455782,1.1496598639455782,1.1496598639455782,1.1496598639455782,1.1496598639455782,1.1496598639455782,1.1496598639455782,1.1496598639455782,1.1496598639455782,1.1496598639455782,1.1496598639455782,1.1496598639455782,1.1496598639455782,1.1496598639455782,1.1496598639455782,1.1496598639455782,1.1496598639455782,1.1496598639455782,1.1496598639455782,1.1496598639455782,1.1496598639455782,1.1496598639455782,1.1496598639455782,1.1496598639455782,1.1496598639455782,1.1496598639455782,1.1496598639455782,1.1496598639455782,1.1496598639455782,1.1496598639455782,1.1496598639455782,1.1496598639455782,1.1496598639455782,1.1496598639455782,1.1496598639455782,1.1496598639455782,1.1496598639455782,1.1496598639455782,1.1496598639455782,1.1496598639455782,1.1496598639455782,1.1496598639455782,1.1496598639455782,1.1496598639455782,1.1496598639455782,1.1496598639455782,1.1496598639455782,1.1496598639455782,1.1496598639455782,1.1496598639455782,1.1496598639455782,1.1496598639455782,1.1496598639455782,1.1496598639455782,1.1496598639455782,1.1496598639455782,1.1496598639455782,1.1496598639455782,1.1496598639455782,1.1496598639455782,1.1496598639455782,1.1496598639455782,1.1496598639455782,1.1496598639455782,1.1496598639455782,1.1496598639455782,1.1496598639455782,1.1496598639455782,1.1496598639455782,1.1496598639455782,1.1496598639455782,1.1496598639455782,1.1496598639455782,1.1496598639455782,1.1496598639455782,1.1496598639455782,1.1496598639455782,1.1496598639455782,1.1496598639455782,1.1496598639455782,1.1496598639455782,1.1496598639455782,1.1496598639455782,1.1496598639455782,1.1496598639455782,1.1496598639455782,1.1496598639455782,1.1496598639455782,1.1496598639455782,1.1496598639455782,1.1496598639455782,1.1496598639455782,1.1496598639455782,1.1496598639455782,1.1496598639455782,1.1496598639455782,1.1496598639455782,1.1496598639455782,1.1496598639455782,1.1496598639455782,1.1496598639455782,1.1496598639455782,1.1496598639455782,1.1496598639455782,1.1496598639455782,1.1496598639455782,1.1496598639455782,1.1496598639455782,1.1496598639455782,1.1496598639455782,1.1496598639455782,1.1496598639455782,1.1496598639455782,1.1496598639455782,1.1496598639455782,1.1496598639455782,1.1496598639455782,1.1496598639455782,1.1496598639455782,1.1496598639455782,1.1496598639455782,1.1496598639455782,1.1496598639455782,1.1496598639455782,1.1496598639455782,1.1496598639455782,1.1496598639455782,1.1496598639455782,1.1496598639455782,1.1496598639455782,1.1496598639455782,1.1496598639455782,1.1496598639455782,1.1496598639455782,1.1496598639455782,1.1496598639455782,1.1496598639455782,1.1496598639455782,1.1496598639455782,1.1496598639455782,1.1496598639455782,1.1428571428571428,1.1326530612244898,1.1326530612244898,1.1054421768707483,1.0782312925170068,1.0510204081632653,1.0510204081632653,1.0408163265306123,1.0408163265306123,1.0408163265306123,1.0408163265306123,1.0408163265306123,1.0408163265306123,1.0408163265306123,1.0408163265306123,1.0408163265306123,1.0408163265306123,1.0408163265306123,1.0408163265306123,1.0408163265306123,1.0408163265306123,1.0408163265306123,1.0408163265306123,1.0408163265306123,1.0408163265306123,1.0408163265306123,1.0408163265306123,1.0408163265306123,1.0408163265306123,1.0408163265306123,1.0408163265306123,1.0408163265306123,1.0408163265306123,1.0408163265306123,1.0408163265306123,1.0408163265306123,1.0408163265306123,1.0408163265306123,1.0408163265306123,1.0408163265306123,1.0408163265306123,1.0408163265306123,1.0408163265306123,1.0408163265306123,1.0408163265306123,1.0408163265306123,1.0408163265306123,1.0408163265306123,1.0408163265306123,1.0408163265306123,1.0408163265306123,1.0408163265306123,1.0408163265306123,1.0408163265306123,1.0408163265306123,1.0408163265306123,1.0408163265306123,1.0408163265306123,1.0408163265306123,1.0408163265306123,1.0408163265306123,1.0408163265306123,1.0408163265306123,1.0408163265306123,1.0476190476190477,1.064625850340136,1.064625850340136,1.0748299319727892,1.0850340136054422,1.0850340136054422,1.0850340136054422,1.0850340136054422,1.0952380952380953,1.1020408163265305,1.1020408163265305,1.1122448979591837,1.1224489795918366,1.1224489795918366,1.1224489795918366,1.1224489795918366,1.1394557823129252,1.1496598639455782,1.1496598639455782,1.1496598639455782,1.1496598639455782,1.1496598639455782,1.1496598639455782,1.1496598639455782,1.1496598639455782,1.1496598639455782,1.1496598639455782,1.1496598639455782,1.1496598639455782,1.1496598639455782,1.1496598639455782,1.1496598639455782,1.1496598639455782,1.1496598639455782,1.1496598639455782,1.1496598639455782,1.1496598639455782,1.1496598639455782,1.1496598639455782,1.1496598639455782,1.1496598639455782,1.1496598639455782,1.1496598639455782,1.1496598639455782,1.1496598639455782,1.1496598639455782,1.1496598639455782,1.1496598639455782,1.1496598639455782,1.1496598639455782,1.1496598639455782,1.1496598639455782,1.1496598639455782,1.1496598639455782,1.1496598639455782,1.1496598639455782,1.1496598639455782,1.1496598639455782,1.1496598639455782,1.1496598639455782,1.1496598639455782,1.1496598639455782,1.1496598639455782,1.1496598639455782,1.1496598639455782,1.1496598639455782,1.1496598639455782,1.1496598639455782,1.1496598639455782,1.1496598639455782,1.1496598639455782,1.1496598639455782,1.1496598639455782,1.1496598639455782,1.1496598639455782,1.1496598639455782,1.1496598639455782,1.1496598639455782,1.1496598639455782,1.1496598639455782,1.1496598639455782,1.1496598639455782,1.1428571428571428,1.1428571428571428,1.1428571428571428,1.1428571428571428,1.1428571428571428,1.1428571428571428,1.1428571428571428,1.1428571428571428,1.1428571428571428,1.1428571428571428,1.1428571428571428,1.1428571428571428,1.1428571428571428,1.1326530612244898,1.1326530612244898,1.1326530612244898,1.1326530612244898,1.1326530612244898,1.1326530612244898,1.1326530612244898,1.1326530612244898,1.1326530612244898,1.1326530612244898,1.1326530612244898,1.1326530612244898,1.1326530612244898,1.1326530612244898,1.1326530612244898,1.1326530612244898,1.1326530612244898,1.1326530612244898,1.1326530612244898,1.1326530612244898,1.1258503401360545,1.1258503401360545,1.1258503401360545,1.1258503401360545,1.1156462585034013,1.1156462585034013,1.1156462585034013,1.1054421768707483,1.1054421768707483,1.0952380952380953,1.0952380952380953,1.0782312925170068,1.0680272108843538,1.0680272108843538,1.0510204081632653,1.0408163265306123,1.030612244897959,1.0204081632653061,1.0034013605442176,0.9829931972789115,0.9761904761904762,0.9761904761904762,0.9659863945578231,0.9659863945578231,0.95578231292517,0.9455782312925171,0.9455782312925171,0.9455782312925171,0.9387755102040817,0.9387755102040817,0.9387755102040817,0.9387755102040817,0.9387755102040817,0.9387755102040817,0.9387755102040817,0.9013605442176871,0.8707482993197279,0.8333333333333334,0.7959183673469388,0.7789115646258503,0.7687074829931972,0.7517006802721088,0.7414965986394558,0.7312925170068028,0.7312925170068028,0.7210884353741497,0.7142857142857143,0.7142857142857143,0.7142857142857143,0.7040816326530612,0.6938775510204082,0.6938775510204082,0.6836734693877551,0.6768707482993197,0.6666666666666666,0.6666666666666666,0.6666666666666666,0.6564625850340136,0.6564625850340136,0.6564625850340136,0.6564625850340136,0.6564625850340136,0.6564625850340136,0.6564625850340136,0.6564625850340136,0.6462585034013606,0.6462585034013606,0.6394557823129252,0.6394557823129252,0.6292517006802721,0.6292517006802721,0.6190476190476191,0.6190476190476191,0.608843537414966,0.608843537414966,0.6020408163265306,0.6020408163265306,0.6020408163265306,0.6020408163265306,0.6020408163265306,0.6020408163265306,0.6020408163265306,0.6020408163265306,0.6020408163265306,0.5714285714285714,0.5714285714285714,0.564625850340136,0.564625850340136,0.564625850340136,0.564625850340136,0.564625850340136,0.564625850340136,0.564625850340136,0.564625850340136,0.564625850340136,0.564625850340136,0.564625850340136,0.564625850340136,0.564625850340136,0.564625850340136,0.564625850340136,0.564625850340136,0.564625850340136,0.564625850340136,0.564625850340136,0.564625850340136,0.564625850340136,0.564625850340136,0.564625850340136,0.564625850340136,0.564625850340136,0.564625850340136,0.564625850340136,0.564625850340136,0.564625850340136,0.564625850340136,0.564625850340136,0.564625850340136,0.564625850340136,0.564625850340136,0.564625850340136,0.564625850340136,0.564625850340136,0.564625850340136,0.564625850340136,0.564625850340136,0.564625850340136,0.564625850340136,0.564625850340136,0.564625850340136,0.54421768707483,0.5170068027210885,0.4897959183673469,0.45918367346938777,0.4421768707482993,0.3843537414965986,0.3197278911564626,0.25510204081632654,0.22789115646258504,0.18027210884353742,0.14285714285714285,0.1326530612244898,0.12244897959183673,0.11564625850340136,0.11564625850340136,0.11564625850340136,0.1054421768707483,0.1054421768707483,0.1054421768707483,0.1054421768707483,0.1054421768707483,0.09523809523809523,0.09523809523809523,0.09523809523809523,0.0782312925170068,0.06802721088435375,0.05782312925170068,0.047619047619047616,0.047619047619047616,0.047619047619047616,0.047619047619047616,0.04081632653061224,0.04081632653061224,0.04081632653061224,0.04081632653061224,0.04081632653061224,0.04081632653061224,0.04081632653061224,0.04081632653061224,0.04081632653061224,0.04081632653061224,0.04081632653061224,0.04081632653061224,0.04081632653061224,0.04081632653061224,0.04081632653061224,0.04081632653061224,0.04081632653061224,0.04081632653061224,0.04081632653061224,0.04081632653061224,0.04081632653061224,0.04081632653061224,0.04081632653061224,0.04081632653061224,0.04081632653061224,0.04081632653061224,0.04081632653061224,0.04081632653061224,0.04081632653061224,0.04081632653061224,0.04081632653061224,0.04081632653061224,0.04081632653061224,0.04081632653061224,0.04081632653061224,0.04081632653061224,0.030612244897959183,0.030612244897959183,0.030612244897959183,0.030612244897959183,0.030612244897959183,0.030612244897959183,0.030612244897959183,0.030612244897959183,0.030612244897959183,0.030612244897959183,0.030612244897959183,0.030612244897959183,0.030612244897959183,0.030612244897959183,0.030612244897959183,0.030612244897959183,0.030612244897959183,0.030612244897959183,0.030612244897959183,0.030612244897959183,0.030612244897959183,0.030612244897959183,0.030612244897959183,0.030612244897959183,0.030612244897959183,0.030612244897959183,0.030612244897959183,0.030612244897959183,0.02040816326530612,0.02040816326530612,0.02040816326530612,0.02040816326530612,0.02040816326530612,0.02040816326530612,0.02040816326530612,0.02040816326530612,0.02040816326530612,0.02040816326530612,0.02040816326530612,0.02040816326530612,0.02040816326530612,0.02040816326530612,0.02040816326530612,0.02040816326530612,0.02040816326530612,0.02040816326530612,0.02040816326530612,0.02040816326530612,0.02040816326530612,0.02040816326530612,0.02040816326530612,0.02040816326530612,0.02040816326530612,0.02040816326530612,0.01020408163265306,0.01020408163265306,0.01020408163265306,0.01020408163265306,0.01020408163265306,0.01020408163265306,0.01020408163265306,0.01020408163265306,0.01020408163265306,0.01020408163265306,0.01020408163265306,0.003401360544217687,0.003401360544217687,0.003401360544217687,0.003401360544217687,0.003401360544217687,0.003401360544217687,0.003401360544217687,0.003401360544217687,0.003401360544217687,0.003401360544217687,0.003401360544217687,0.003401360544217687,0.003401360544217687,0.003401360544217687,0.003401360544217687,0.003401360544217687,0.003401360544217687,0.003401360544217687,0.003401360544217687,0.003401360544217687,0.003401360544217687,0.003401360544217687,0.003401360544217687,0.003401360544217687,0.003401360544217687,0.003401360544217687,0.003401360544217687,0.003401360544217687,0.003401360544217687,0.003401360544217687,0.003401360544217687,0.003401360544217687,0.003401360544217687,0.003401360544217687,0.003401360544217687,0.003401360544217687,0.003401360544217687,0.003401360544217687,0.003401360544217687,0.003401360544217687,0.003401360544217687,0.003401360544217687,0.003401360544217687,0.003401360544217687,0.003401360544217687,0.003401360544217687,0.003401360544217687,0.003401360544217687,0.003401360544217687,0.003401360544217687,0.003401360544217687,0.003401360544217687,0.003401360544217687,0.003401360544217687,0.003401360544217687,0.003401360544217687,0.003401360544217687,0.003401360544217687,0.003401360544217687,0.003401360544217687,0.003401360544217687,0.003401360544217687,0.003401360544217687,0.003401360544217687,0.01020408163265306,0.06462585034013606,0.1598639455782313,0.16666666666666666,0.16666666666666666,0.16666666666666666,0.16666666666666666,0.16666666666666666,0.16666666666666666,0.16666666666666666,0.16666666666666666,0.16666666666666666,0.16666666666666666,0.16666666666666666,0.16666666666666666,0.16666666666666666,0.16666666666666666,0.16666666666666666,0.16666666666666666,0.16666666666666666,0.16666666666666666,0.16666666666666666,0.16666666666666666,0.16666666666666666,0.16666666666666666,0.16666666666666666,0.16666666666666666,0.16666666666666666,0.16666666666666666,0.16666666666666666,0.16666666666666666,0.16666666666666666,0.16666666666666666,0.16666666666666666,0.16666666666666666,0.16666666666666666,0.16666666666666666,0.16666666666666666,0.16666666666666666,0.16666666666666666,0.16666666666666666,0.16666666666666666,0.16666666666666666,0.16666666666666666,0.16666666666666666,0.16666666666666666,0.16666666666666666,0.16666666666666666,0.16666666666666666,0.16666666666666666,0.16666666666666666,0.16666666666666666,0.16666666666666666,0.16666666666666666,0.16666666666666666,0.16666666666666666,0.16666666666666666,0.16666666666666666,0.16666666666666666,0.16666666666666666,0.16666666666666666,0.16666666666666666,0.16666666666666666,0.16666666666666666,0.16666666666666666,0.16666666666666666,0.16666666666666666,0.16666666666666666,0.16666666666666666,0.16666666666666666,0.16666666666666666,0.16666666666666666,0.16666666666666666,0.16666666666666666,0.16666666666666666,0.16666666666666666,0.16666666666666666,0.16666666666666666,0.16666666666666666,0.16666666666666666,0.16666666666666666,0.16666666666666666,0.16666666666666666,0.16666666666666666,0.16666666666666666,0.16666666666666666,0.16666666666666666,0.16666666666666666,0.16666666666666666,0.16666666666666666,0.16666666666666666,0.16666666666666666,0.16666666666666666,0.16666666666666666,0.16666666666666666,0.16666666666666666,0.16666666666666666,0.16666666666666666,0.16666666666666666,0.16666666666666666,0.16666666666666666,0.16666666666666666,0.16666666666666666,0.16666666666666666,0.16666666666666666,0.16666666666666666,0.16666666666666666,0.16666666666666666,0.16666666666666666,0.16666666666666666,0.16666666666666666,0.16666666666666666,0.16666666666666666,0.16666666666666666,0.16666666666666666,0.16666666666666666,0.16666666666666666,0.16666666666666666,0.16666666666666666,0.16666666666666666,0.16666666666666666,0.16666666666666666,0.16666666666666666,0.16666666666666666,0.16666666666666666,0.16666666666666666,0.16666666666666666,0.16666666666666666,0.16666666666666666,0.16666666666666666,0.16666666666666666,0.16666666666666666,0.16666666666666666,0.16666666666666666,0.16666666666666666,0.16666666666666666,0.16666666666666666,0.16666666666666666,0.16666666666666666,0.16666666666666666,0.16666666666666666,0.16666666666666666,0.16666666666666666,0.16666666666666666,0.16666666666666666,0.16666666666666666,0.16666666666666666,0.16666666666666666,0.16666666666666666,0.16666666666666666,0.16666666666666666,0.16666666666666666,0.16666666666666666,0.16666666666666666,0.16666666666666666,0.16666666666666666,0.16666666666666666,0.16666666666666666,0.16666666666666666,0.16666666666666666,0.16666666666666666,0.16666666666666666,0.16666666666666666,0.16666666666666666,0.16666666666666666,0.16666666666666666,0.16666666666666666,0.16666666666666666,0.16666666666666666,0.16666666666666666,0.16666666666666666,0.16666666666666666,0.16666666666666666,0.16666666666666666,0.16666666666666666,0.16666666666666666,0.16666666666666666,0.16666666666666666,0.16666666666666666,0.16666666666666666,0.16666666666666666,0.16666666666666666,0.16666666666666666,0.16666666666666666,0.16666666666666666,0.16666666666666666,0.16666666666666666,0.16666666666666666,0.16666666666666666,0.16666666666666666,0.16666666666666666,0.16666666666666666,0.16666666666666666,0.16666666666666666,0.16666666666666666,0.16666666666666666,0.16666666666666666,0.16666666666666666,0.16666666666666666,0.16666666666666666,0.16666666666666666,0.16666666666666666,0.16666666666666666,0.16666666666666666,0.16666666666666666,0.16666666666666666,0.16666666666666666,0.16666666666666666,0.16666666666666666,0.16666666666666666,0.16666666666666666,0.16666666666666666,0.16666666666666666,0.16666666666666666,0.16666666666666666,0.16666666666666666,0.16666666666666666,0.16666666666666666,0.16666666666666666,0.16666666666666666,0.16666666666666666,0.16666666666666666,0.16666666666666666,0.16666666666666666,0.16666666666666666,0.16666666666666666,0.16666666666666666,0.16666666666666666,0.16666666666666666,0.16666666666666666,0.16666666666666666,0.16666666666666666,0.16666666666666666,0.16666666666666666,0.16666666666666666,0.16666666666666666,0.16666666666666666,0.16666666666666666,0.16666666666666666,0.16666666666666666,0.16666666666666666,0.16666666666666666,0.16666666666666666,0.16666666666666666,0.16666666666666666,0.16666666666666666,0.16666666666666666,0.16666666666666666,0.16666666666666666,0.16666666666666666,0.16666666666666666,0.16666666666666666,0.16666666666666666,0.16666666666666666,0.16666666666666666,0.16666666666666666,0.16666666666666666,0.16666666666666666,0.16666666666666666,0.16666666666666666,0.16666666666666666,0.16666666666666666,0.16666666666666666,0.16666666666666666,0.16666666666666666,0.16666666666666666,0.16666666666666666,0.16666666666666666,0.16666666666666666,0.16666666666666666,0.16666666666666666,0.16666666666666666,0.16666666666666666,0.16666666666666666,0.16666666666666666,0.16666666666666666,0.16666666666666666,0.16666666666666666,0.16666666666666666,0.16666666666666666,0.16666666666666666,0.16666666666666666,0.16666666666666666,0.16666666666666666,0.16666666666666666,0.16666666666666666,0.16666666666666666,0.16666666666666666,0.16666666666666666,0.16666666666666666,0.16666666666666666,0.16666666666666666,0.16666666666666666,0.16666666666666666,0.16666666666666666,0.16666666666666666,0.16666666666666666,0.16666666666666666,0.16666666666666666,0.16666666666666666,0.16666666666666666,0.16666666666666666,0.16666666666666666,0.16666666666666666,0.16666666666666666,0.16666666666666666,0.16666666666666666,0.16666666666666666,0.16666666666666666,0.16666666666666666,0.16666666666666666,0.16666666666666666,0.16666666666666666,0.16666666666666666,0.16666666666666666,0.16666666666666666,0.16666666666666666,0.16666666666666666,0.16666666666666666,0.16666666666666666,0.16666666666666666,0.16666666666666666,0.16666666666666666,0.16666666666666666,0.16666666666666666,0.16666666666666666,0.16666666666666666,0.16666666666666666,0.16666666666666666,0.16666666666666666,0.16666666666666666,0.16666666666666666,0.16666666666666666,0.16666666666666666,0.16666666666666666,0.16666666666666666,0.16666666666666666,0.16666666666666666,0.16666666666666666,0.16666666666666666,0.16666666666666666,0.16666666666666666,0.16666666666666666,0.16666666666666666,0.16666666666666666,0.16666666666666666,0.16666666666666666,0.16666666666666666,0.16666666666666666,0.16666666666666666,0.16666666666666666,0.16666666666666666,0.16666666666666666,0.16666666666666666,0.16666666666666666,0.16666666666666666,0.16666666666666666,0.16666666666666666,0.16666666666666666,0.16666666666666666,0.16666666666666666,0.16666666666666666,0.16666666666666666,0.16666666666666666,0.16666666666666666,0.16666666666666666,0.16666666666666666,0.16666666666666666,0.16666666666666666,0.16666666666666666,0.16666666666666666,0.16666666666666666,0.16666666666666666,0.16666666666666666,0.16666666666666666,0.16666666666666666,0.16666666666666666,0.16666666666666666,0.16666666666666666,0.16666666666666666,0.16666666666666666,0.16666666666666666,0.16666666666666666,0.16666666666666666,0.16666666666666666,0.16666666666666666,0.16666666666666666,0.16666666666666666,0.16666666666666666,0.16666666666666666,0.16666666666666666,0.16666666666666666,0.16666666666666666,0.16666666666666666,0.16666666666666666,0.16666666666666666,0.16666666666666666,0.16666666666666666,0.16666666666666666,0.16666666666666666,0.16666666666666666,0.16666666666666666,0.16666666666666666,0.16666666666666666,0.16666666666666666,0.16666666666666666,0.16666666666666666,0.16666666666666666,0.16666666666666666,0.16666666666666666,0.16666666666666666,0.16666666666666666,0.16666666666666666,0.16666666666666666,0.16666666666666666,0.16666666666666666,0.16666666666666666,0.16666666666666666,0.16666666666666666,0.16666666666666666,0.16666666666666666,0.16666666666666666,0.16666666666666666,0.16666666666666666,0.16666666666666666,0.16666666666666666,0.16666666666666666,0.16666666666666666,0.16666666666666666,0.16666666666666666,0.16666666666666666,0.16666666666666666,0.16666666666666666,0.16666666666666666,0.16666666666666666,0.16666666666666666,0.16666666666666666,0.16666666666666666,0.16666666666666666,0.16666666666666666,0.16666666666666666,0.16666666666666666,0.16666666666666666,0.16666666666666666,0.16666666666666666,0.16666666666666666,0.16666666666666666,0.16666666666666666,0.16666666666666666,0.16666666666666666,0.16666666666666666,0.16666666666666666,0.16666666666666666,0.16666666666666666,0.16666666666666666,0.16666666666666666,0.16666666666666666,0.16666666666666666,0.16666666666666666,0.16666666666666666,0.16666666666666666,0.16666666666666666,0.16666666666666666,0.16666666666666666,0.16666666666666666,0.16666666666666666,0.16666666666666666,0.16666666666666666,0.16666666666666666,0.16666666666666666,0.16666666666666666,0.16666666666666666,0.16666666666666666,0.16666666666666666,0.16666666666666666,0.16666666666666666,0.16666666666666666,0.16666666666666666,0.16666666666666666,0.16666666666666666,0.16666666666666666,0.16666666666666666,0.16666666666666666,0.16666666666666666,0.16666666666666666,0.16666666666666666,0.16666666666666666,0.16666666666666666,0.16666666666666666,0.16666666666666666,0.16666666666666666,0.16666666666666666,0.16666666666666666,0.16666666666666666,0.16666666666666666,0.16666666666666666,0.16666666666666666,0.16666666666666666,0.16666666666666666,0.16666666666666666,0.16666666666666666,0.16666666666666666,0.16666666666666666,0.16666666666666666,0.16666666666666666,0.16666666666666666,0.16666666666666666,0.16666666666666666,0.16666666666666666,0.16666666666666666,0.16666666666666666,0.16666666666666666,0.16666666666666666,0.16666666666666666,0.16666666666666666,0.16666666666666666,0.16666666666666666,0.16666666666666666,0.16666666666666666,0.16666666666666666,0.16666666666666666,0.16666666666666666,0.16666666666666666,0.16666666666666666,0.16666666666666666,0.16666666666666666,0.16666666666666666,0.16666666666666666,0.16666666666666666,0.16666666666666666,0.16666666666666666,0.16666666666666666,0.16666666666666666,0.16666666666666666,0.16666666666666666,0.16666666666666666,0.16666666666666666,0.16666666666666666,0.16666666666666666,0.16666666666666666,0.16666666666666666,0.16666666666666666,0.16666666666666666,0.16666666666666666,0.16666666666666666,0.16666666666666666,0.16666666666666666,0.16666666666666666,0.16666666666666666,0.16666666666666666,0.16666666666666666,0.16666666666666666,0.16666666666666666,0.16666666666666666,0.16666666666666666,0.16666666666666666,0.16666666666666666,0.16666666666666666,0.16666666666666666,0.16666666666666666,0.16666666666666666,0.16666666666666666,0.16666666666666666,0.16666666666666666,0.16666666666666666,0.16666666666666666,0.16666666666666666,0.16666666666666666,0.16666666666666666,0.16666666666666666,0.16666666666666666,0.16666666666666666,0.16666666666666666,0.16666666666666666,0.16666666666666666,0.16666666666666666,0.16666666666666666,0.16666666666666666,0.16666666666666666,0.16666666666666666,0.16666666666666666,0.16666666666666666,0.16666666666666666,0.16666666666666666,0.16666666666666666,0.16666666666666666,0.16666666666666666,0.16666666666666666,0.16666666666666666,0.16666666666666666,0.16666666666666666,0.16666666666666666,0.16666666666666666,0.16666666666666666,0.16666666666666666,0.16666666666666666,0.16666666666666666,0.16666666666666666,0.16666666666666666,0.16666666666666666,0.16666666666666666,0.16666666666666666,0.16666666666666666,0.16666666666666666,0.16666666666666666,0.16666666666666666,0.16666666666666666,0.16666666666666666,0.16666666666666666,0.16666666666666666,0.16666666666666666,0.16666666666666666,0.16666666666666666,0.16666666666666666,0.16666666666666666,0.16666666666666666,0.16666666666666666,0.16666666666666666,0.16666666666666666,0.16666666666666666,0.16666666666666666,0.16666666666666666,0.16666666666666666,0.16666666666666666,0.16666666666666666,0.16666666666666666,0.16666666666666666,0.16666666666666666,0.16666666666666666,0.16666666666666666,0.16666666666666666,0.16666666666666666,0.16666666666666666,0.16666666666666666,0.16666666666666666,0.16666666666666666,0.16666666666666666,0.16666666666666666,0.16666666666666666,0.16666666666666666,0.16666666666666666,0.16666666666666666,0.16666666666666666,0.16666666666666666,0.16666666666666666,0.16666666666666666,0.16666666666666666,0.16666666666666666,0.16666666666666666,0.16666666666666666,0.16666666666666666,0.16666666666666666,0.16666666666666666,0.16666666666666666,0.16666666666666666,0.16666666666666666,0.16666666666666666,0.16666666666666666,0.16666666666666666,0.16666666666666666,0.16666666666666666,0.16666666666666666,0.16666666666666666,0.16666666666666666,0.16666666666666666,0.16666666666666666,0.16666666666666666,0.16666666666666666,0.16666666666666666,0.16666666666666666,0.16666666666666666,0.16666666666666666,0.16666666666666666,0.16666666666666666,0.16666666666666666,0.16666666666666666,0.16666666666666666,0.16666666666666666,0.16666666666666666,0.16666666666666666,0.16666666666666666,0.16666666666666666,0.16666666666666666,0.16666666666666666,0.16666666666666666,0.16666666666666666,0.16666666666666666,0.16666666666666666,0.16666666666666666,0.16666666666666666,0.16666666666666666,0.16666666666666666,0.16666666666666666,0.16666666666666666,0.16666666666666666,0.16666666666666666,0.16666666666666666,0.16666666666666666,0.16666666666666666,0.16666666666666666,0.16666666666666666,0.16666666666666666,0.16666666666666666,0.16666666666666666,0.16666666666666666,0.16666666666666666,0.16666666666666666,0.16666666666666666,0.16666666666666666,0.16666666666666666,0.16666666666666666,0.16666666666666666,0.16666666666666666,0.16666666666666666,0.16666666666666666,0.16666666666666666,0.16666666666666666,0.16666666666666666,0.16666666666666666,0.16666666666666666,0.16666666666666666,0.16666666666666666,0.16666666666666666,0.16666666666666666,0.16666666666666666,0.16666666666666666,0.16666666666666666,0.16666666666666666,0.16666666666666666,0.16666666666666666,0.16666666666666666,0.16666666666666666,0.16666666666666666,0.16666666666666666,0.16666666666666666,0.16666666666666666,0.16666666666666666,0.16666666666666666,0.16666666666666666,0.16666666666666666,0.16666666666666666,0.16666666666666666,0.16666666666666666,0.16666666666666666,0.16666666666666666,0.16666666666666666,0.16666666666666666,0.16666666666666666,0.16666666666666666,0.16666666666666666,0.16666666666666666,0.16666666666666666,0.16666666666666666,0.16666666666666666,0.16666666666666666,0.16666666666666666,0.16666666666666666,0.16666666666666666,0.16666666666666666,0.16666666666666666,0.16666666666666666,0.16666666666666666,0.16666666666666666,0.16666666666666666,0.16666666666666666,0.16666666666666666,0.16666666666666666,0.16666666666666666,0.16666666666666666,0.16666666666666666,0.16666666666666666,0.16666666666666666,0.16666666666666666,0.16666666666666666,0.16666666666666666,0.16666666666666666,0.16666666666666666,0.16666666666666666,0.16666666666666666,0.16666666666666666,0.16666666666666666,0.16666666666666666,0.16666666666666666,0.16666666666666666,0.16666666666666666,0.16666666666666666,0.16666666666666666,0.16666666666666666,0.16666666666666666,0.16666666666666666,0.16666666666666666,0.16666666666666666,0.16666666666666666,0.16666666666666666,0.16666666666666666,0.16666666666666666,0.16666666666666666,0.16666666666666666,0.16666666666666666,0.16666666666666666,0.16666666666666666,0.16666666666666666,0.16666666666666666,0.16666666666666666,0.16666666666666666,0.16666666666666666,0.16666666666666666,0.16666666666666666,0.16666666666666666,0.16666666666666666,0.16666666666666666,0.16666666666666666,0.16666666666666666,0.16666666666666666,0.16666666666666666,0.16666666666666666,0.16666666666666666,0.16666666666666666,0.16666666666666666,0.16666666666666666,0.16666666666666666,0.16666666666666666,0.16666666666666666,0.16666666666666666,0.16666666666666666,0.16666666666666666,0.16666666666666666,0.16666666666666666,0.16666666666666666,0.16666666666666666,0.16666666666666666,0.16666666666666666,0.16666666666666666,0.16666666666666666,0.16666666666666666,0.16666666666666666,0.16666666666666666,0.16666666666666666,0.16666666666666666,0.16666666666666666,0.16666666666666666,0.16666666666666666,0.16666666666666666,0.16666666666666666,0.16666666666666666,0.16666666666666666,0.16666666666666666,0.16666666666666666,0.16666666666666666,0.16666666666666666,0.16666666666666666,0.16666666666666666,0.16666666666666666,0.16666666666666666,0.16666666666666666,0.16666666666666666,0.16666666666666666,0.16666666666666666,0.16666666666666666,0.16666666666666666,0.16666666666666666,0.16666666666666666,0.16666666666666666,0.16666666666666666,0.16666666666666666,0.16666666666666666,0.16666666666666666,0.16666666666666666,0.16666666666666666,0.16666666666666666,0.16666666666666666,0.16666666666666666,0.16666666666666666,0.16666666666666666,0.16666666666666666,0.16666666666666666,0.16666666666666666,0.16666666666666666,0.16666666666666666,0.16666666666666666,0.16666666666666666,0.16666666666666666,0.16666666666666666,0.16666666666666666,0.16666666666666666,0.16666666666666666,0.16666666666666666,0.16666666666666666,0.16666666666666666,0.16666666666666666,0.16666666666666666,0.16666666666666666,0.16666666666666666,0.16666666666666666,0.16666666666666666,0.16666666666666666,0.16666666666666666,0.16666666666666666,0.16666666666666666,0.16666666666666666,0.16666666666666666,0.16666666666666666,0.16666666666666666,0.16666666666666666,0.16666666666666666,0.16666666666666666,0.16666666666666666,0.16666666666666666,0.16666666666666666,0.16666666666666666,0.16666666666666666,0.16666666666666666,0.16666666666666666,0.16666666666666666,0.16666666666666666,0.16666666666666666,0.16666666666666666,0.16666666666666666,0.16666666666666666,0.16666666666666666,0.16666666666666666,0.16666666666666666,0.16666666666666666,0.16666666666666666,0.16666666666666666,0.16666666666666666,0.16666666666666666,0.16666666666666666,0.16666666666666666,0.16666666666666666,0.16666666666