[{"success":true,"trial_type":"fullscreen","trial_index":0,"time_elapsed":3647,"internal_node_id":"0.0-0.0","protocol_sum":"","subject_identifier":511,"subject_sum":[149,86,184,36,153,204,10,175,134,174,231,240,210,83,225,124,97,183,239,115,212,138,41,95,55,217,143,8,176,79,250,127],"subject_pair":255,"STUDY_ID":"66a3ed3c5d10d0e7d8a6b9da","PROLIFIC_PID":"666a13a91d6ab318e467374c","SESSION_ID":"66a424828a958761be7461bb","practice_instructions":1,"leaderboard_instructions":0,"bonus":0,"reveal_word":true,"self_rating":"1","confidence":"96"},{"view_history":"[{\"page_index\":0,\"viewing_time\":1829.7999999970198}]","rt":1830.2000000029802,"trial_type":"instructions","trial_index":1,"time_elapsed":5481,"internal_node_id":"0.0-1.0","protocol_sum":"","subject_identifier":511,"subject_sum":[149,86,184,36,153,204,10,175,134,174,231,240,210,83,225,124,97,183,239,115,212,138,41,95,55,217,143,8,176,79,250,127],"subject_pair":255,"STUDY_ID":"66a3ed3c5d10d0e7d8a6b9da","PROLIFIC_PID":"666a13a91d6ab318e467374c","SESSION_ID":"66a424828a958761be7461bb","practice_instructions":1,"leaderboard_instructions":0,"bonus":0,"reveal_word":true,"self_rating":"1","confidence":"96"},{"view_history":"[{\"page_index\":0,\"viewing_time\":6685.5}]","rt":6685.79999999702,"trial_type":"instructions","trial_index":2,"time_elapsed":12168,"internal_node_id":"0.0-2.0-0.0","protocol_sum":"","subject_identifier":511,"subject_sum":[149,86,184,36,153,204,10,175,134,174,231,240,210,83,225,124,97,183,239,115,212,138,41,95,55,217,143,8,176,79,250,127],"subject_pair":255,"STUDY_ID":"66a3ed3c5d10d0e7d8a6b9da","PROLIFIC_PID":"666a13a91d6ab318e467374c","SESSION_ID":"66a424828a958761be7461bb","practice_instructions":1,"leaderboard_instructions":0,"bonus":0,"reveal_word":true,"self_rating":"1","confidence":"96"},{"rt":5294.4000000059605,"responses":"{\"Q0\":\"... reveal the word with as <b>few letter guesses</b> as possible\"}","question_order":"[0]","trial_type":"survey-multi-choice","trial_index":3,"time_elapsed":17466,"internal_node_id":"0.0-2.0-1.0","protocol_sum":"","subject_identifier":511,"subject_sum":[149,86,184,36,153,204,10,175,134,174,231,240,210,83,225,124,97,183,239,115,212,138,41,95,55,217,143,8,176,79,250,127],"subject_pair":255,"correct":true,"test_part":"multichoice_nonpretend","STUDY_ID":"66a3ed3c5d10d0e7d8a6b9da","PROLIFIC_PID":"666a13a91d6ab318e467374c","SESSION_ID":"66a424828a958761be7461bb","practice_instructions":1,"leaderboard_instructions":0,"bonus":0,"reveal_word":true,"self_rating":"1","confidence":"96"},{"view_history":"[{\"page_index\":0,\"viewing_time\":1410.2999999970198}]","rt":1410.7000000029802,"trial_type":"instructions","trial_index":4,"time_elapsed":18878,"internal_node_id":"0.0-3.0","protocol_sum":"","subject_identifier":511,"subject_sum":[149,86,184,36,153,204,10,175,134,174,231,240,210,83,225,124,97,183,239,115,212,138,41,95,55,217,143,8,176,79,250,127],"subject_pair":255,"STUDY_ID":"66a3ed3c5d10d0e7d8a6b9da","PROLIFIC_PID":"666a13a91d6ab318e467374c","SESSION_ID":"66a424828a958761be7461bb","practice_instructions":1,"leaderboard_instructions":0,"bonus":0,"reveal_word":true,"self_rating":"1","confidence":"96"},{"word":"ZEBRA","click_log":{"letter":["","S","Z","E","B","R","A"],"t":[0,9386.90000000596,24985.10000000894,27014.80000001192,28150,29703.30000001192,30835.90000000596],"hit":[null,0,1,1,1,1,1],"asked":["","S","SZ","SZE","SZEB","SZEBR","SZEBRA"],"word_state":["_____","_____","Z____","ZE___","ZEB__","ZEBR_","ZEBRA"]},"hover_log":{"letter":["?","?","?","?","?","?","?","?","?","?","?","?","?","?","?","?","?","?","?","?","?","?","?","?","?","?","?","?","?","?","?","?","?","?","?","?","?","?","?","?","?","?","?","?","?","?","?","?","?","?","?","?","?","?","?","?","?","?","?","?","?","?","?","?","?","?","?","?","?","?","?","?","?","?","?","?","?","?","?","?","?","?","?","?","?","?","?","?","?","?","?","?","?","?","?","?","?","?","?","?","?","?","?","?","?","?","?","?","?","?","?","?","?","?","?","?","?","?","?","?","?","?","?","?","?","?","?","?","?","?","?","?","?","?","?","?","?","?","?","?","?","?","?","?","?","?","?","?","?","?","?","?","?","?","?","?","?","?","?","?","?","?","?","?","?","?","?","?","?","?","?","?","?","?","?","?","?","?","?","?","?","?","?","?","?","?","?","?","?","?","?","?","?","?","?","?","?","?","?","?","?","?","?","?","?","?","?","?","?","?","?","?","?","?","?","?","?","?","?","?","?","?","?","?","?","?","?","?","?","?","?","?","?","?","?","?","?","?","?","?","?","?","?","?","?","?","?","?","?","?","?","?","?","?","?","?","?","?","?","?","?","?","?","?","?","?","?","?","L","L","?","?","?","?","?","V","V","?","?","?","?","?","?","?","?","V","V","U","?","?","?","L","?","?","?","?","?","?","?","?","?","?","?","?","?","?","?","?","?","?","?","L","L","L","L","L","L","L","L","L","L","L","L","L","L","L","L","L","L","L","L","L","L","L","L","L","L","L","L","L","L","L","?","?","?","?","?","?","M","M","M","M","M","M","M","?","?","?","?","?","?","?","?","?","?","?","?","?","?","?","?","?","?","?","?","?","?","S","S","S","S","S","S","S","S","S","S","S","S","S","S","S","S","S","S","S","S","S","S","S","S","S","S","S","S","S","S","S","S","S","S","S","S","S","S","S","S","S","S","S","S","S","S","S","S","S","S","S","S","S","S","S","S","S","S","S","S","S","S","S","S","S","S","S","S","S","S","S","S","S","S","S","S","S","S","S","S","S","S","S","S","S","S","S","S","S","S","S","S","S","S","S","S","S","S","S","?","T","?","?","U","?","V","V","V","V","V","V","V","V","V","V","?","?","?","?","?","?","?","?","?","?","?","?","?","?","?","?","?","N","N","N","N","N","N","N","N","N","N","N","N","N","N","N","N","N","N","N","N","N","N","N","N","N","N","N","N","N","N","N","N","N","N","N","N","N","N","N","N","N","N","N","N","N","N","?","O","O","O","O","O","O","O","O","O","O","O","O","O","O","O","O","?","?","?","?","N","N","N","N","N","N","N","N","N","N","N","N","N","N","N","N","N","N","N","N","N","N","N","N","N","N","N","?","?","?","?","?","?","?","?","?","?","?","?","?","?","?","?","?","?","?","?","?","?","?","?","?","?","?","?","?","?","?","?","?","?","?","?","?","?","?","?","?","?","?","?","?","?","?","?","?","?","?","?","?","?","?","?","?","?","?","?","N","N","N","N","N","N","N","N","N","N","?","?","?","?","?","?","?","?","?","?","?","?","?","?","?","?","?","?","?","?","?","?","?","?","?","?","?","?","?","?","?","?","?","?","?","?","?","?","?","?","?","?","?","?","?","?","?","?","?","?","?","?","?","?","?","?","?","?","?","?","?","?","?","?","?","?","?","?","?","?","?","?","?","?","?","?","?","?","?","?","?","?","?","?","?","?","?","?","?","?","?","?","?","?","?","?","?","?","?","?","?","?","?","?","?","?","?","?","?","?","?","?","?","?","?","?","?","?","?","?","?","?","?","?","?","?","?","?","?","?","?","?","?","?","?","?","?","?","?","?","?","?","?","?","?","?","?","?","?","?","?","?","?","?","?","?","?","?","?","?","?","?","?","?","?","?","?","?","?","?","?","?","?","?","?","?","?","?","?","?","?","?","?","?","?","?","?","?","?","?","?","?","?","?","?","?","?","N","N","N","N","?","O","O","O","O","?","?","P","P","P","?","?","?","?","?","?","?","?","?","?","?","?","?","?","?","?","?","?","?","?","?","?","?","?","P","P","?","Q","Q","Q","Q","Q","Q","Q","Q","Q","Q","Q","Q","Q","Q","Q","Q","Q","Q","Q","Q","Q","?","?","?","?","?","R","R","R","R","R","R","R","R","R","R","R","R","R","R","R","R","?","?","?","Q","Q","Q","Q","Q","Q","Q","?","?","?","?","?","?","?","?","?","?","?","?","?","?","?","?","?","?","?","?","?","?","?","?","?","?","?","?","?","?","P","?","?","?","?","?","?","?","?","?","?","?","?","?","?","?","?","E","E","E","E","?","?","?","?","?","?","?","?","?","?","?","N","N","N","N","N","N","N","N","N","N","N","N","N","N","?","?","?","?","?","?","?","?","?","?","?","?","W","W","W","W","V","V","?","?","?","?","M","M","M","?","?","?","?","E","?","F","?","?","?","P","P","?","?","?","?","Y","Y","Y","?","X","X","?","?","W","?","?","?","?","N","N","N","?","?","?","O","O","O","O","O","O","O","O","O","?","?","?","N","N","N","N","N","?","?","M","M","M","M","M","M","M","M","M","M","M","M","M","M","M","M","M","M","M","M","M","M","M","M","M","?","L","L","L","L","L","L","L","L","L","L","L","L","L","L","L","L","L","L","L","L","L","L","L","L","L","L","L","L","L","L","?","?","?","?","?","?","?","?","?","?","?","?","?","?","?","?","?","?","?","?","?","?","?","?","?","?","?","X","Y","Y","?","?","?","?","?","?","?","?","?","?","?","?","?","?","?","?","?","?","Z","Z","Z","Z","Z","Z","Z","Z","Z","Z","Z","Z","Z","Z","Z","Z","Z","Z","Z","Z","Z","Z","Z","Z","Z","Z","Z","Z","Z","Z","Z","Z","Z","Z","Z","Z","Z","Z","Z","Z","Z","Z","Z","Z","Z","Z","Z","Z","Z","?","Y","Y","X","?","N","?","?","D","D","D","?","?","?","?","?","?","?","?","?","?","?","?","?","?","?","?","?","C","C","C","C","C","C","C","C","?","D","D","D","D","D","?","?","?","?","?","?","?","E","E","E","E","E","E","E","E","E","E","E","E","E","E","E","E","E","E","E","E","E","E","E","E","E","E","E","E","E","E","E","E","E","E","?","?","D","?","C","C","C","C","C","C","C","C","C","C","C","C","?","?","?","?","?","?","?","?","?","?","B","B","B","B","B","B","B","B","B","B","B","B","B","B","B","B","B","B","B","B","B","B","B","B","B","B","B","B","B","B","B","B","B","B","C","D","E","?","?","?","?","?","?","?","?","?","?","?","Q","Q","Q","Q","Q","Q","Q","Q","Q","Q","Q","Q","Q","Q","Q","Q","?","?","?","?","?","R","R","R","R","R","R","R","R","R","R","R","R","R","R","R","R","R","R","R","R","R","R","R","R","R","R","R","R","R","R","R","R","R","R","R","R","R","R","R","R","R","R","R","R","?","Q","P","O","N","C","B","?","?","?","?","?","?","?","?","?","?","?","?","?","?","?","?","?","?","A","A","A","A","A","A","A","A","A","A","A","A","A","A","A","A","A","A","A","A","A","A","A","A","A","A","A","A","A","A","A","A","A","A","A","A","A","A","A","A","A","A","A","A","A","A","A","A","A","A","A","A","A","A","A","A","A","A","A","A","A","A","A","A","A","A","A","A","A","A","A","A","A","A","A","A","A","A","A","A","A","A","A","A","A","A","A","A","A","A","A","A","A","A","A","A","A","A","A","A","A","A","A","A","A","A","A","A","A","A","A","A","A","A","A","A","A","A","A","A","A","A","A"],"t":[64,78,94,115,138,158,176,196,215,235,255,290,309,329,348,368,388,407,428,446,466,484,505,524,544,563,584,606,628,646,665,685,705,725,744,764,785,805,824,846,886,905,927,945,964,985,1004,1024,1043,1064,1084,1104,1124,1144,1163,1183,1204,1223,1241,1261,1281,1301,1321,1341,1361,1379,1398,1419,1438,1457,1476,1496,1525,1542,1562,1581,1600,1621,1642,1661,1680,1699,1720,1738,1757,1776,1796,1820,1840,1860,1881,1904,1926,1945,1965,1985,2005,2024,2042,2061,2080,2102,2121,2140,2158,2178,2197,2216,2237,2256,2274,2293,2312,2331,2353,2373,2391,2410,2429,2449,2468,2487,2506,2525,2544,2564,2584,2604,2623,2642,2664,2683,2702,2721,2739,2758,2778,2796,2815,2838,2859,2877,2896,2919,2937,2957,2977,2998,3019,3040,3059,3078,3097,3118,3137,3155,3175,3194,3214,3236,3257,3275,3294,3314,3335,3356,3375,3394,3414,3435,3457,3476,3495,3516,3536,3556,3576,3594,3614,3635,3655,3674,3693,3713,3735,3755,3775,3799,3818,3839,3860,3884,3906,3927,3951,3973,3991,4010,4029,4049,4068,4088,4106,4125,4144,4165,4184,4204,4222,4240,4260,4279,4300,4319,4337,4356,4375,4396,4418,4438,4455,4476,4495,4514,4533,4554,4576,4602,4621,4643,4667,4692,4719,4733,4752,4775,4794,4818,4839,4861,4882,4904,4925,4951,4973,4999,5019,5040,5061,5086,5107,5132,5151,5172,5191,5212,5234,5255,5273,5292,5312,5333,5352,5372,5391,5412,5449,5469,5491,5509,5530,5551,5571,5592,5613,5634,5653,5673,5695,5716,5735,5755,5773,5795,5816,5837,5858,5882,5901,5923,5945,5967,5986,6007,6030,6051,6075,6100,6123,6142,6163,6183,6202,6223,6244,6265,6285,6306,6330,6348,6369,6390,6411,6431,6451,6469,6489,6507,6530,6548,6568,6587,6606,6625,6647,6665,6685,6705,6724,6746,6765,6783,6803,6821,6846,6866,6886,6906,6926,6947,6967,6989,7010,7032,7052,7072,7093,7114,7136,7154,7177,7197,7217,7236,7256,7277,7297,7317,7337,7357,7380,7400,7422,7443,7463,7482,7502,7521,7540,7562,7582,7601,7620,7640,7663,7684,7702,7721,7742,7762,7782,7801,7821,7845,7866,7886,7906,7928,7938,7971,7992,8012,8032,8052,8071,8091,8112,8131,8150,8175,8194,8214,8233,8253,8273,8294,8316,8334,8354,8383,8399,8420,8441,8460,8480,8498,8519,8538,8558,8579,8598,8619,8638,8661,8679,8697,8716,8735,8754,8774,8795,8816,8835,8855,8876,8897,8917,8937,8960,8980,9000,9019,9038,9058,9077,9095,9115,9135,9154,9175,9195,9213,9232,9253,9274,9296,9315,9335,9355,9375,9398,9416,9435,9456,9475,9495,9514,9533,9552,9573,9594,9613,9633,9654,9674,9695,9715,9735,9756,9777,9798,9817,9841,9863,9884,9905,9925,9946,9966,9989,10009,10029,10048,10068,10089,10109,10128,10148,10167,10188,10209,10227,10245,10265,10284,10302,10325,10345,10363,10383,10403,10424,10444,10462,10481,10500,10519,10539,10559,10577,10595,10614,10632,10650,10670,10691,10721,10735,10757,10776,10795,10813,10832,10855,10874,10895,10916,10938,10959,10979,10999,11017,11038,11057,11076,11094,11114,11134,11155,11173,11191,11210,11229,11249,11268,11288,11309,11328,11347,11367,11388,11408,11427,11446,11464,11483,11504,11522,11543,11561,11581,11603,11623,11634,11652,11675,11696,11717,11739,11759,11778,11797,11817,11857,11876,11897,11917,11939,11959,11979,11999,12018,12039,12060,12078,12097,12116,12139,12159,12177,12198,12216,12237,12257,12275,12294,12313,12332,12352,12371,12391,12410,12428,12448,12469,12487,12507,12526,12545,12563,12585,12605,12624,12643,12661,12681,12700,12720,12739,12757,12775,12795,12814,12835,12855,12875,12894,12915,12937,12955,12975,13006,13023,13046,13065,13086,13105,13123,13142,13160,13179,13198,13218,13236,13255,13274,13294,13312,13332,13351,13369,13388,13406,13427,13445,13466,13486,13505,13523,13543,13563,13582,13604,13624,13643,13662,13683,13704,13724,13743,13763,13782,13804,13815,13851,13872,13893,13916,13937,13957,13977,13996,14016,14035,14054,14072,14091,14109,14127,14146,14166,14185,14203,14222,14241,14259,14278,14299,14318,14336,14356,14374,14392,14411,14430,14451,14470,14488,14506,14524,14543,14562,14583,14602,14622,14640,14659,14678,14698,14717,14738,14755,14773,14792,14811,14832,14852,14872,14891,14911,14934,14954,14972,14992,15013,15033,15053,15071,15090,15108,15126,15146,15165,15183,15202,15220,15239,15261,15281,15299,15318,15337,15356,15374,15392,15410,15430,15449,15470,15488,15507,15526,15545,15565,15584,15602,15621,15640,15658,15676,15696,15716,15736,15753,15772,15791,15809,15831,15852,15872,15891,15912,15933,15953,15972,15990,16009,16030,16049,16068,16086,16105,16123,16141,16160,16180,16198,16216,16235,16253,16272,16290,16309,16330,16349,16367,16384,16403,16422,16440,16459,16479,16497,16516,16534,16552,16571,16590,16608,16629,16649,16667,16686,16706,16725,16743,16763,16781,16800,16819,16839,16860,16881,16900,16921,16940,16961,16981,16999,17018,17036,17055,17074,17094,17113,17130,17148,17167,17186,17204,17223,17242,17263,17283,17301,17320,17341,17361,17380,17398,17419,17439,17471,17485,17509,17529,17551,17571,17590,17610,17630,17649,17670,17689,17711,17731,17750,17771,17792,17813,17833,17854,17876,17897,17919,17938,17960,17979,17999,18020,18041,18061,18081,18099,18118,18137,18159,18180,18200,18219,18239,18260,18281,18300,18319,18338,18357,18378,18399,18417,18435,18453,18473,18492,18511,18532,18551,18570,18590,18610,18630,18648,18669,18689,18709,18729,18747,18767,18786,18807,18828,18839,18875,18895,18915,18934,18953,18975,18996,19014,19032,19052,19072,19093,19113,19132,19151,19170,19194,19215,19234,19253,19275,19295,19315,19334,19353,19372,19393,19414,19433,19452,19471,19491,19511,19530,19547,19566,19585,19604,19623,19643,19663,19684,19709,19729,19748,19767,19787,19810,19828,19850,19871,19894,19905,19937,19960,19980,19999,20020,20043,20064,20083,20103,20126,20146,20165,20184,20204,20224,20246,20264,20284,20306,20325,20346,20366,20385,20406,20425,20446,20465,20483,20504,20525,20546,20564,20584,20606,20627,20645,20665,20684,20705,20724,20745,20763,20782,20803,20828,20848,20872,20894,20914,20934,20956,20979,20999,21019,21042,21062,21081,21100,21119,21142,21161,21180,21200,21219,21242,21261,21280,21299,21319,21339,21358,21377,21398,21416,21438,21458,21476,21495,21516,21536,21557,21577,21596,21615,21635,21659,21678,21697,21716,21739,21758,21777,21796,21816,21837,21849,21883,21906,21926,21946,21981,21997,22024,22043,22063,22084,22108,22118,22134,22158,22177,22202,22223,22244,22262,22282,22303,22324,22342,22361,22381,22399,22421,22439,22458,22477,22496,22515,22535,22555,22576,22595,22613,22632,22652,22672,22691,22710,22729,22747,22766,22805,22823,22844,22865,22885,22906,22926,22946,22969,22990,23010,23030,23049,23070,23089,23107,23126,23144,23163,23181,23202,23222,23241,23260,23280,23303,23322,23341,23362,23381,23402,23420,23441,23458,23477,23496,23516,23536,23555,23574,23593,23613,23633,23654,23673,23694,23712,23732,23752,23770,23788,23807,23826,23848,23868,23889,23911,23930,23951,23972,23991,24012,24035,24055,24075,24094,24114,24136,24156,24174,24192,24212,24235,24263,24281,24302,24322,24340,24359,24379,24398,24418,24436,24455,24475,24495,24517,24536,24555,24574,24594,24614,24635,24653,24674,24693,24712,24733,24752,24772,24790,24809,24828,24851,24873,24892,24911,24933,24954,24973,24994,25015,25035,25055,25074,25094,25116,25135,25153,25172,25190,25208,25227,25248,25268,25288,25306,25325,25343,25362,25383,25401,25420,25440,25458,25478,25500,25518,25537,25555,25575,25595,25617,25637,25656,25675,25694,25715,25735,25754,25776,25797,25817,25837,25858,25881,25903,25924,25945,25969,25989,26009,26031,26053,26071,26091,26109,26129,26152,26170,26189,26209,26228,26251,26270,26290,26309,26327,26349,26367,26386,26404,26424,26447,26467,26497,26511,26532,26551,26570,26591,26610,26630,26648,26670,26688,26707,26727,26747,26768,26786,26805,26824,26846,26866,26887,26907,26927,26948,26967,26986,27006,27026,27048,27067,27087,27107,27131,27151,27170,27190,27209,27232,27251,27272,27293,27313,27336,27355,27373,27395,27414,27434,27453,27472,27492,27512,27531,27549,27569,27588,27608,27631,27652,27673,27691,27712,27730,27750,27769,27789,27809,27832,27854,27875,27897,27917,27938,27959,27981,28002,28020,28039,28060,28079,28099,28118,28137,28157,28178,28197,28217,28235,28253,28273,28292,28314,28333,28352,28371,28391,28413,28432,28451,28471,28490,28514,28532,28552,28570,28589,28610,28630,28655,28678,28699,28719,28739,28758,28780,28801,28819,28843,28865,28885,28907,28929,28940,28976,28999,29019,29039,29060,29080,29098,29118,29138,29159,29180,29199,29217,29236,29256,29275,29294,29313,29330,29349,29368,29387,29406,29426,29445,29463,29482,29501,29520,29539,29560,29579,29597,29618,29636,29656,29678,29695,29715,29734,29753,29772,29793,29811,29830,29851,29870,29893,29913,29932,29953,29974,29995,30015,30035,30055,30078,30096,30116,30137,30159,30178,30196,30217,30236,30259,30279,30298,30317,30335,30356,30377,30397,30416,30435,30455,30478,30488,30521,30541,30561,30580,30599,30617,30635,30654,30675,30694,30713,30737,30761,30783,30802,30822,30845,30867,30887,30908,30928,30947,30967,30990,31011,31032,31050,31069,31089,31107,31126,31145,31164,31183,31203,31224,31242,31262,31280,31299,31318,31338,31358,31378,31396,31416,31434,31455,31475,31493,31511,31530,31549,31568,31589,31608,31627,31647,31666,31685,31706,31725,31743,31763,31782,31804,31824,31843,31862,31883,31903,31925,31943,31963,31982,32001,32021,32039,32057,32076,32095,32114,32133,32154,32174,32193,32211,32230,32248,32268,32289,32309,32328,32348,32366,32385,32406,32424,32443,32461,32480,32498,32517,32537,32557,32577,32596,32615,32633,32655,32673,32692,32710,32731,32752,32774,32804,32820,32844],"hit":[null],"x":[-1.751700680272109,-1.751700680272109,-1.751700680272109,-1.751700680272109,-1.751700680272109,-1.751700680272109,-1.751700680272109,-1.751700680272109,-1.751700680272109,-1.751700680272109,-1.751700680272109,-1.751700680272109,-1.751700680272109,-1.751700680272109,-1.751700680272109,-1.751700680272109,-1.751700680272109,-1.751700680272109,-1.751700680272109,-1.751700680272109,-1.751700680272109,-1.751700680272109,-1.751700680272109,-1.751700680272109,-1.751700680272109,-1.751700680272109,-1.751700680272109,-1.751700680272109,-1.751700680272109,-1.751700680272109,-1.751700680272109,-1.751700680272109,-1.751700680272109,-1.751700680272109,-1.751700680272109,-1.751700680272109,-1.751700680272109,-1.751700680272109,-1.751700680272109,-1.751700680272109,-1.751700680272109,-1.751700680272109,-1.751700680272109,-1.751700680272109,-1.751700680272109,-1.751700680272109,-1.751700680272109,-1.751700680272109,-1.751700680272109,-1.751700680272109,-1.751700680272109,-1.751700680272109,-1.751700680272109,-1.751700680272109,-1.751700680272109,-1.751700680272109,-1.751700680272109,-1.751700680272109,-1.751700680272109,-1.751700680272109,-1.751700680272109,-1.751700680272109,-1.751700680272109,-1.751700680272109,-1.751700680272109,-1.751700680272109,-1.751700680272109,-1.751700680272109,-1.751700680272109,-1.751700680272109,-1.751700680272109,-1.751700680272109,-1.751700680272109,-1.751700680272109,-1.751700680272109,-1.751700680272109,-1.751700680272109,-1.751700680272109,-1.751700680272109,-1.751700680272109,-1.751700680272109,-1.751700680272109,-1.751700680272109,-1.751700680272109,-1.751700680272109,-1.751700680272109,-1.751700680272109,-1.751700680272109,-1.751700680272109,-1.751700680272109,-1.751700680272109,-1.751700680272109,-1.751700680272109,-1.751700680272109,-1.751700680272109,-1.751700680272109,-1.751700680272109,-1.751700680272109,-1.751700680272109,-1.751700680272109,-1.751700680272109,-1.751700680272109,-1.751700680272109,-1.751700680272109,-1.751700680272109,-1.751700680272109,-1.751700680272109,-1.751700680272109,-1.751700680272109,-1.751700680272109,-1.751700680272109,-1.751700680272109,-1.751700680272109,-1.751700680272109,-1.751700680272109,-1.751700680272109,-1.751700680272109,-1.751700680272109,-1.751700680272109,-1.751700680272109,-1.751700680272109,-1.751700680272109,-1.751700680272109,-1.751700680272109,-1.751700680272109,-1.751700680272109,-1.751700680272109,-1.751700680272109,-1.751700680272109,-1.751700680272109,-1.751700680272109,-1.751700680272109,-1.751700680272109,-1.751700680272109,-1.751700680272109,-1.751700680272109,-1.751700680272109,-1.751700680272109,-1.751700680272109,-1.751700680272109,-1.751700680272109,-1.751700680272109,-1.751700680272109,-1.751700680272109,-1.751700680272109,-1.751700680272109,-1.751700680272109,-1.751700680272109,-1.751700680272109,-1.751700680272109,-1.751700680272109,-1.751700680272109,-1.751700680272109,-1.751700680272109,-1.751700680272109,-1.751700680272109,-1.751700680272109,-1.751700680272109,-1.751700680272109,-1.751700680272109,-1.751700680272109,-1.751700680272109,-1.751700680272109,-1.751700680272109,-1.751700680272109,-1.751700680272109,-1.751700680272109,-1.751700680272109,-1.751700680272109,-1.751700680272109,-1.751700680272109,-1.751700680272109,-1.751700680272109,-1.751700680272109,-1.751700680272109,-1.751700680272109,-1.751700680272109,-1.751700680272109,-1.751700680272109,-1.751700680272109,-1.751700680272109,-1.751700680272109,-1.751700680272109,-1.751700680272109,-1.751700680272109,-1.751700680272109,-1.751700680272109,-1.751700680272109,-1.751700680272109,-1.751700680272109,-1.751700680272109,0.24489795918367346,0.24489795918367346,0.24489795918367346,0.24489795918367346,0.24489795918367346,0.24489795918367346,0.24489795918367346,0.24489795918367346,0.24489795918367346,0.24489795918367346,0.24489795918367346,0.24489795918367346,0.24489795918367346,0.24489795918367346,0.24489795918367346,0.24489795918367346,0.24489795918367346,0.24489795918367346,0.24489795918367346,0.24489795918367346,0.24489795918367346,0.24489795918367346,0.24489795918367346,0.24489795918367346,0.24489795918367346,0.24489795918367346,0.24489795918367346,0.24489795918367346,0.24489795918367346,0.24489795918367346,0.24489795918367346,0.24489795918367346,0.24489795918367346,0.24489795918367346,0.24489795918367346,-1.445578231292517,-1.5170068027210883,-1.5612244897959184,-1.5782312925170068,-1.5748299319727892,-1.5748299319727892,-1.5748299319727892,-0.7380952380952381,-0.6326530612244898,-0.47278911564625853,-0.445578231292517,-0.4897959183673469,-0.5272108843537415,-0.5748299319727891,-0.5952380952380952,-0.6054421768707483,-0.6054421768707483,-0.6020408163265306,-0.5816326530612245,-0.5816326530612245,-0.5986394557823129,-0.6190476190476191,-0.6326530612244898,-0.6598639455782312,-0.6768707482993197,-0.6836734693877551,-0.6836734693877551,-0.6836734693877551,-0.6836734693877551,-0.6836734693877551,-0.6972789115646258,-0.7517006802721088,-0.7721088435374149,-0.7891156462585034,-0.7925170068027211,-0.7925170068027211,-0.7346938775510204,-0.6836734693877551,-0.45918367346938777,-0.2653061224489796,-0.06462585034013606,0.11564625850340136,0.23809523809523808,0.2925170068027211,0.3435374149659864,0.36054421768707484,0.36394557823129253,0.3673469387755102,0.37755102040816324,0.3877551020408163,0.4489795918367347,0.5068027210884354,0.5170068027210885,0.5238095238095238,0.5238095238095238,0.5238095238095238,0.5238095238095238,0.5204081632653061,0.47278911564625853,0.42517006802721086,0.3945578231292517,0.3197278911564626,0.2789115646258503,0.25170068027210885,0.24149659863945577,0.22789115646258504,0.21768707482993196,0.21768707482993196,0.21768707482993196,0.22108843537414966,0.22448979591836735,0.22789115646258504,0.22789115646258504,0.22789115646258504,0.23129251700680273,0.23469387755102042,0.23469387755102042,0.23809523809523808,0.24149659863945577,0.24149659863945577,0.24149659863945577,0.24489795918367346,0.24489795918367346,0.2585034013605442,0.2755102040816326,0.282312925170068,0.2857142857142857,0.2857142857142857,0.2857142857142857,0.2857142857142857,0.2857142857142857,0.2857142857142857,0.2857142857142857,0.2857142857142857,0.2857142857142857,0.282312925170068,0.2789115646258503,0.2789115646258503,0.2789115646258503,0.2789115646258503,0.2789115646258503,0.2789115646258503,0.2789115646258503,0.2789115646258503,0.2789115646258503,0.2789115646258503,0.2789115646258503,0.2789115646258503,0.282312925170068,0.2857142857142857,0.2925170068027211,0.29591836734693877,0.29591836734693877,0.30272108843537415,0.3197278911564626,0.3333333333333333,0.3469387755102041,0.35374149659863946,0.35714285714285715,0.35714285714285715,0.35714285714285715,0.36394557823129253,0.38095238095238093,0.3979591836734694,0.4013605442176871,0.4013605442176871,0.4013605442176871,0.4013605442176871,0.4013605442176871,0.391156462585034,0.38095238095238093,0.35374149659863946,0.3163265306122449,0.22108843537414966,0.07142857142857142,0.023809523809523808,-0.023809523809523808,-0.034013605442176874,-0.03741496598639456,-0.03741496598639456,-0.03741496598639456,-0.03741496598639456,-0.03741496598639456,-0.03741496598639456,-0.03741496598639456,-0.03741496598639456,-0.03741496598639456,-0.03741496598639456,-0.030612244897959183,-0.023809523809523808,-0.02040816326530612,-0.017006802721088437,-0.017006802721088437,-0.017006802721088437,-0.013605442176870748,-0.01020408163265306,-0.01020408163265306,-0.006802721088435374,-0.003401360544217687,0,0,0,0,0,0,0,0,0,0,0,0,0,0,0,0,0,0,0,0,0,0,0,0,0,0,0,0,0,0,0,0,0,0,0,0,0,0,0,0,0,0,0,0,0,0,0,0,0,0,0,0,0,0,0,0,0,0,0,0,0,0,0,0,0,0,0,0,0,0,0,0,0,0,0,0,0,0,0,0,0,0,0,0,0,0,0,0,0,0,0.023809523809523808,0.08843537414965986,0.12585034013605442,0.20748299319727892,0.23129251700680273,0.2687074829931973,0.336734693877551,0.40476190476190477,0.42517006802721086,0.445578231292517,0.4489795918367347,0.4523809523809524,0.4523809523809524,0.4523809523809524,0.4523809523809524,0.4523809523809524,0.46598639455782315,0.47278911564625853,0.48639455782312924,0.4965986394557823,0.5,0.5034013605442177,0.5170068027210885,0.5238095238095238,0.5408163265306123,0.54421768707483,0.54421768707483,0.54421768707483,0.54421768707483,0.54421768707483,0.54421768707483,0.5510204081632653,0.5510204081632653,0.5510204081632653,0.5510204081632653,0.5578231292517006,0.5612244897959183,0.5612244897959183,0.5612244897959183,0.5612244897959183,0.5612244897959183,0.5612244897959183,0.5612244897959183,0.5612244897959183,0.5612244897959183,0.5612244897959183,0.5612244897959183,0.5612244897959183,0.5612244897959183,0.5612244897959183,0.5612244897959183,0.5612244897959183,0.5612244897959183,0.5612244897959183,0.5612244897959183,0.5612244897959183,0.5612244897959183,0.5612244897959183,0.5612244897959183,0.5612244897959183,0.5612244897959183,0.5612244897959183,0.5612244897959183,0.5612244897959183,0.5612244897959183,0.5612244897959183,0.5612244897959183,0.5612244897959183,0.5612244897959183,0.5612244897959183,0.5612244897959183,0.5612244897959183,0.5612244897959183,0.5612244897959183,0.5612244897959183,0.5612244897959183,0.5612244897959183,0.5612244897959183,0.5748299319727891,0.6258503401360545,0.6428571428571429,0.6632653061224489,0.673469387755102,0.6802721088435374,0.6802721088435374,0.6802721088435374,0.6802721088435374,0.6802721088435374,0.6802721088435374,0.6802721088435374,0.6802721088435374,0.6802721088435374,0.6802721088435374,0.6802721088435374,0.6802721088435374,0.673469387755102,0.6700680272108843,0.6598639455782312,0.6530612244897959,0.6428571428571429,0.6224489795918368,0.6156462585034014,0.6054421768707483,0.6020408163265306,0.6020408163265306,0.6020408163265306,0.6020408163265306,0.6020408163265306,0.5952380952380952,0.5850340136054422,0.5782312925170068,0.5680272108843537,0.5680272108843537,0.5680272108843537,0.564625850340136,0.564625850340136,0.564625850340136,0.5612244897959183,0.5544217687074829,0.5510204081632653,0.5476190476190477,0.5476190476190477,0.54421768707483,0.5408163265306123,0.5340136054421769,0.5306122448979592,0.5170068027210885,0.5170068027210885,0.5136054421768708,0.5136054421768708,0.5136054421768708,0.5136054421768708,0.5136054421768708,0.5136054421768708,0.5136054421768708,0.5136054421768708,0.5136054421768708,0.5136054421768708,0.5136054421768708,0.5136054421768708,0.5136054421768708,0.5136054421768708,0.5136054421768708,0.5136054421768708,0.5136054421768708,0.5136054421768708,0.5136054421768708,0.5136054421768708,0.5136054421768708,0.5136054421768708,0.5136054421768708,0.5136054421768708,0.5136054421768708,0.5136054421768708,0.5136054421768708,0.5136054421768708,0.5136054421768708,0.5136054421768708,0.5136054421768708,0.5136054421768708,0.5136054421768708,0.5136054421768708,0.5136054421768708,0.5136054421768708,0.5136054421768708,0.5136054421768708,0.5136054421768708,0.5136054421768708,0.5136054421768708,0.5136054421768708,0.5136054421768708,0.5136054421768708,0.5136054421768708,0.5136054421768708,0.5136054421768708,0.5136054421768708,0.5136054421768708,0.5136054421768708,0.5136054421768708,0.5136054421768708,0.5136054421768708,0.5136054421768708,0.5136054421768708,0.5136054421768708,0.5136054421768708,0.5136054421768708,0.5136054421768708,0.5136054421768708,0.5170068027210885,0.5272108843537415,0.5306122448979592,0.54421768707483,0.5510204081632653,0.5816326530612245,0.608843537414966,0.6122448979591837,0.6224489795918368,0.6224489795918368,0.6258503401360545,0.6292517006802721,0.6292517006802721,0.6292517006802721,0.6292517006802721,0.6258503401360545,0.6156462585034014,0.6054421768707483,0.5782312925170068,0.5680272108843537,0.5612244897959183,0.54421768707483,0.5374149659863946,0.5272108843537415,0.5238095238095238,0.5238095238095238,0.5238095238095238,0.5238095238095238,0.5238095238095238,0.5238095238095238,0.5238095238095238,0.5238095238095238,0.5238095238095238,0.5238095238095238,0.5238095238095238,0.5238095238095238,0.5238095238095238,0.5238095238095238,0.5238095238095238,0.5238095238095238,0.5238095238095238,0.5238095238095238,0.5238095238095238,0.5238095238095238,0.5238095238095238,0.5238095238095238,0.5238095238095238,0.5238095238095238,0.5238095238095238,0.5238095238095238,0.5238095238095238,0.5238095238095238,0.5238095238095238,0.5238095238095238,0.5238095238095238,0.5238095238095238,0.5238095238095238,0.5238095238095238,0.5238095238095238,0.5238095238095238,0.5238095238095238,0.5238095238095238,0.5238095238095238,0.5238095238095238,0.5238095238095238,0.5238095238095238,0.5238095238095238,0.5238095238095238,0.5238095238095238,0.5238095238095238,0.5238095238095238,0.5238095238095238,0.5238095238095238,0.5238095238095238,0.5238095238095238,0.5238095238095238,0.5238095238095238,0.5238095238095238,0.5238095238095238,0.5238095238095238,0.5238095238095238,0.5238095238095238,0.5238095238095238,0.5238095238095238,0.5238095238095238,0.5238095238095238,0.5238095238095238,0.5238095238095238,0.5238095238095238,0.5238095238095238,0.5238095238095238,0.5238095238095238,0.5238095238095238,0.5238095238095238,0.5238095238095238,0.5238095238095238,0.5238095238095238,0.5238095238095238,0.5238095238095238,0.5238095238095238,0.5238095238095238,0.5238095238095238,0.5238095238095238,0.5238095238095238,0.5238095238095238,0.5238095238095238,0.5238095238095238,0.5238095238095238,0.5238095238095238,0.5238095238095238,0.5238095238095238,0.5238095238095238,0.5238095238095238,0.5238095238095238,0.5238095238095238,0.5238095238095238,0.5238095238095238,0.5238095238095238,0.5238095238095238,0.5238095238095238,0.5238095238095238,0.5238095238095238,0.5238095238095238,0.5238095238095238,0.5238095238095238,0.5238095238095238,0.5238095238095238,0.5238095238095238,0.5238095238095238,0.5238095238095238,0.5238095238095238,0.5238095238095238,0.5238095238095238,0.5238095238095238,0.5238095238095238,0.5238095238095238,0.5238095238095238,0.5238095238095238,0.5238095238095238,0.5238095238095238,0.5238095238095238,0.5238095238095238,0.5238095238095238,0.5238095238095238,0.5238095238095238,0.5238095238095238,0.5238095238095238,0.5238095238095238,0.5238095238095238,0.5238095238095238,0.5238095238095238,0.5238095238095238,0.5238095238095238,0.5238095238095238,0.5238095238095238,0.5238095238095238,0.5238095238095238,0.5238095238095238,0.5238095238095238,0.5238095238095238,0.5238095238095238,0.5238095238095238,0.5238095238095238,0.5238095238095238,0.5238095238095238,0.5238095238095238,0.5238095238095238,0.5238095238095238,0.5238095238095238,0.5238095238095238,0.5238095238095238,0.5238095238095238,0.5238095238095238,0.5238095238095238,0.5238095238095238,0.5238095238095238,0.5238095238095238,0.5238095238095238,0.5238095238095238,0.5238095238095238,0.5238095238095238,0.5238095238095238,0.5238095238095238,0.5238095238095238,0.5238095238095238,0.5238095238095238,0.5238095238095238,0.5238095238095238,0.5238095238095238,0.5238095238095238,0.5238095238095238,0.5238095238095238,0.5238095238095238,0.5238095238095238,0.5238095238095238,0.5238095238095238,0.5238095238095238,0.5238095238095238,0.5238095238095238,0.5238095238095238,0.5238095238095238,0.5238095238095238,0.5238095238095238,0.5238095238095238,0.5238095238095238,0.5238095238095238,0.5238095238095238,0.5272108843537415,0.5374149659863946,0.5578231292517006,0.5782312925170068,0.6564625850340136,0.6666666666666666,0.6972789115646258,0.7210884353741497,0.7619047619047619,0.7857142857142857,0.7959183673469388,0.8129251700680272,0.8197278911564626,0.826530612244898,0.826530612244898,0.826530612244898,0.826530612244898,0.826530612244898,0.826530612244898,0.826530612244898,0.826530612244898,0.826530612244898,0.8231292517006803,0.8129251700680272,0.8061224489795918,0.8027210884353742,0.7993197278911565,0.7993197278911565,0.7925170068027211,0.7653061224489796,0.7551020408163265,0.7448979591836735,0.7448979591836735,0.7448979591836735,0.7448979591836735,0.7448979591836735,0.7857142857142857,0.8129251700680272,0.8537414965986394,0.9047619047619048,0.9285714285714286,0.95578231292517,0.9659863945578231,0.9863945578231292,1.0068027210884354,1.010204081632653,1.010204081632653,1.010204081632653,1.010204081632653,1.010204081632653,1.010204081632653,1.010204081632653,1.010204081632653,1.010204081632653,1.010204081632653,1.010204081632653,1.0136054421768708,1.0238095238095237,1.030612244897959,1.0408163265306123,1.0510204081632653,1.054421768707483,1.064625850340136,1.064625850340136,1.0714285714285714,1.0850340136054422,1.0850340136054422,1.0918367346938775,1.0918367346938775,1.0918367346938775,1.0918367346938775,1.0918367346938775,1.0952380952380953,1.098639455782313,1.098639455782313,1.098639455782313,1.098639455782313,1.098639455782313,1.098639455782313,1.098639455782313,1.098639455782313,1.098639455782313,1.0952380952380953,1.0850340136054422,1.0782312925170068,1.0612244897959184,1.0510204081632653,1.0442176870748299,1.0170068027210883,0.9897959183673469,0.9795918367346939,0.9693877551020408,0.9659863945578231,0.9591836734693877,0.95578231292517,0.9523809523809523,0.9489795918367347,0.9455782312925171,0.9421768707482994,0.9319727891156463,0.9251700680272109,0.9183673469387755,0.9149659863945578,0.9149659863945578,0.9149659863945578,0.9149659863945578,0.9149659863945578,0.9149659863945578,0.9149659863945578,0.9149659863945578,0.9149659863945578,0.9149659863945578,0.9149659863945578,0.9149659863945578,0.9149659863945578,0.9149659863945578,0.9149659863945578,0.9149659863945578,0.9149659863945578,0.9115646258503401,0.9047619047619048,0.8945578231292517,0.8809523809523809,0.8469387755102041,0.8333333333333334,0.7721088435374149,0.7346938775510204,0.6870748299319728,0.6394557823129252,0.6190476190476191,0.5884353741496599,0.5714285714285714,0.5612244897959183,0.5578231292517006,0.5544217687074829,0.5476190476190477,0.5476190476190477,0.5476190476190477,0.5476190476190477,0.5476190476190477,0.5544217687074829,0.5714285714285714,0.6054421768707483,0.6156462585034014,0.6190476190476191,0.6258503401360545,0.6258503401360545,0.6292517006802721,0.6360544217687075,0.6428571428571429,0.6462585034013606,0.6462585034013606,0.6462585034013606,0.6462585034013606,0.6326530612244898,0.608843537414966,0.5952380952380952,0.5748299319727891,0.5714285714285714,0.5612244897959183,0.5578231292517006,0.5544217687074829,0.5544217687074829,0.5544217687074829,0.5544217687074829,0.5544217687074829,0.5578231292517006,0.5714285714285714,0.5918367346938775,0.6190476190476191,0.6360544217687075,0.6462585034013606,0.6530612244897959,0.6564625850340136,0.6564625850340136,0.6564625850340136,0.6564625850340136,0.6564625850340136,0.6496598639455783,0.6428571428571429,0.608843537414966,0.5782312925170068,0.5680272108843537,0.5476190476190477,0.5306122448979592,0.46598639455782315,0.42857142857142855,0.41496598639455784,0.3945578231292517,0.3843537414965986,0.38095238095238093,0.38095238095238093,0.38095238095238093,0.38095238095238093,0.391156462585034,0.41156462585034015,0.4931972789115646,0.5340136054421769,0.5952380952380952,0.6360544217687075,0.7278911564625851,0.7721088435374149,0.7857142857142857,0.8333333333333334,0.8639455782312925,0.9013605442176871,0.9081632653061225,0.9217687074829932,0.9217687074829932,0.9183673469387755,0.8809523809523809,0.8299319727891157,0.8095238095238095,0.7755102040816326,0.717687074829932,0.6904761904761905,0.6564625850340136,0.6394557823129252,0.5918367346938775,0.5510204081632653,0.5510204081632653,0.5238095238095238,0.5238095238095238,0.5238095238095238,0.5408163265306123,0.5884353741496599,0.6054421768707483,0.6292517006802721,0.6870748299319728,0.7278911564625851,0.7346938775510204,0.7482993197278912,0.7517006802721088,0.7551020408163265,0.7517006802721088,0.7244897959183674,0.6836734693877551,0.6632653061224489,0.6530612244897959,0.6462585034013606,0.6394557823129252,0.608843537414966,0.5612244897959183,0.54421768707483,0.5272108843537415,0.5204081632653061,0.5034013605442177,0.4897959183673469,0.46598639455782315,0.4557823129251701,0.4489795918367347,0.445578231292517,0.445578231292517,0.445578231292517,0.445578231292517,0.445578231292517,0.445578231292517,0.445578231292517,0.445578231292517,0.445578231292517,0.445578231292517,0.445578231292517,0.445578231292517,0.445578231292517,0.445578231292517,0.445578231292517,0.4489795918367347,0.4489795918367347,0.4421768707482993,0.43197278911564624,0.4217687074829932,0.41496598639455784,0.3877551020408163,0.35374149659863946,0.3435374149659864,0.3231292517006803,0.30952380952380953,0.29931972789115646,0.2789115646258503,0.2619047619047619,0.25510204081632654,0.25170068027210885,0.24829931972789115,0.24829931972789115,0.24829931972789115,0.24829931972789115,0.24829931972789115,0.2619047619047619,0.272108843537415,0.2789115646258503,0.2925170068027211,0.29931972789115646,0.30952380952380953,0.3197278911564626,0.3231292517006803,0.32653061224489793,0.32653061224489793,0.32653061224489793,0.32653061224489793,0.32653061224489793,0.32653061224489793,0.32653061224489793,0.32653061224489793,0.32653061224489793,0.32653061224489793,0.32653061224489793,0.32653061224489793,0.32653061224489793,0.3333333333333333,0.3435374149659864,0.3469387755102041,0.35374149659863946,0.35374149659863946,0.35714285714285715,0.35714285714285715,0.35714285714285715,0.35714285714285715,0.35714285714285715,0.35714285714285715,0.35714285714285715,0.35714285714285715,0.35714285714285715,0.35714285714285715,0.35714285714285715,0.3673469387755102,0.38095238095238093,0.3979591836734694,0.41156462585034015,0.4557823129251701,0.5170068027210885,0.6598639455782312,0.7244897959183674,0.8707482993197279,0.8979591836734694,0.9217687074829932,0.9251700680272109,0.9251700680272109,0.9251700680272109,0.9217687074829932,0.9183673469387755,0.9183673469387755,0.9183673469387755,0.9183673469387755,0.9183673469387755,0.9183673469387755,0.9183673469387755,0.9183673469387755,0.9183673469387755,0.9183673469387755,0.9183673469387755,0.9319727891156463,0.9421768707482994,0.95578231292517,0.9727891156462585,0.9795918367346939,0.9863945578231292,0.9863945578231292,0.9863945578231292,0.9863945578231292,0.9863945578231292,0.9863945578231292,0.9863945578231292,0.9863945578231292,0.9863945578231292,0.9863945578231292,0.9863945578231292,0.9863945578231292,0.9863945578231292,0.9863945578231292,0.9863945578231292,0.9863945578231292,0.9863945578231292,0.9863945578231292,0.9863945578231292,0.9863945578231292,0.9863945578231292,0.9863945578231292,0.9863945578231292,0.9863945578231292,0.9863945578231292,0.9863945578231292,0.9863945578231292,0.9863945578231292,0.9863945578231292,0.9863945578231292,0.9863945578231292,0.9863945578231292,0.9863945578231292,0.9863945578231292,0.9863945578231292,0.9863945578231292,0.9863945578231292,0.9863945578231292,0.9863945578231292,0.9863945578231292,0.9863945578231292,0.9863945578231292,0.9863945578231292,0.9829931972789115,0.9727891156462585,0.9523809523809523,0.9387755102040817,0.8809523809523809,0.8163265306122449,0.7551020408163265,0.6496598639455783,0.6122448979591837,0.5612244897959183,0.5374149659863946,0.47619047619047616,0.43537414965986393,0.4217687074829932,0.4013605442176871,0.3979591836734694,0.391156462585034,0.3843537414965986,0.3843537414965986,0.38095238095238093,0.38095238095238093,0.38095238095238093,0.3707482993197279,0.3435374149659864,0.32653061224489793,0.3129251700680272,0.30612244897959184,0.29931972789115646,0.29931972789115646,0.29591836734693877,0.2891156462585034,0.282312925170068,0.272108843537415,0.2687074829931973,0.2687074829931973,0.2687074829931973,0.272108843537415,0.29591836734693877,0.3231292517006803,0.35374149659863946,0.3945578231292517,0.40476190476190477,0.42517006802721086,0.45918367346938777,0.46938775510204084,0.4931972789115646,0.5,0.5034013605442177,0.5068027210884354,0.5068027210884354,0.5068027210884354,0.5170068027210885,0.5238095238095238,0.5272108843537415,0.5272108843537415,0.5306122448979592,0.5306122448979592,0.5408163265306123,0.5510204081632653,0.5544217687074829,0.5578231292517006,0.5578231292517006,0.5578231292517006,0.5612244897959183,0.5612244897959183,0.564625850340136,0.5680272108843537,0.5680272108843537,0.5680272108843537,0.5680272108843537,0.5680272108843537,0.5680272108843537,0.5680272108843537,0.5680272108843537,0.5680272108843537,0.5680272108843537,0.5680272108843537,0.5680272108843537,0.5680272108843537,0.5680272108843537,0.5680272108843537,0.5680272108843537,0.5680272108843537,0.5680272108843537,0.5680272108843537,0.5578231292517006,0.5306122448979592,0.4897959183673469,0.42517006802721086,0.3469387755102041,0.3197278911564626,0.29931972789115646,0.2925170068027211,0.2925170068027211,0.2925170068027211,0.2789115646258503,0.272108843537415,0.2585034013605442,0.25170068027210885,0.24829931972789115,0.24489795918367346,0.24489795918367346,0.23809523809523808,0.23129251700680273,0.22789115646258504,0.22789115646258504,0.22789115646258504,0.22789115646258504,0.22789115646258504,0.21428571428571427,0.2108843537414966,0.19727891156462585,0.19387755102040816,0.19387755102040816,0.19387755102040816,0.19387755102040816,0.19387755102040816,0.19387755102040816,0.19387755102040816,0.18027210884353742,0.17006802721088435,0.17006802721088435,0.16326530612244897,0.1598639455782313,0.1598639455782313,0.1564625850340136,0.1564625850340136,0.15306122448979592,0.15306122448979592,0.15306122448979592,0.15306122448979592,0.15306122448979592,0.15306122448979592,0.15306122448979592,0.15306122448979592,0.15306122448979592,0.15306122448979592,0.15306122448979592,0.15306122448979592,0.15306122448979592,0.15306122448979592,0.15306122448979592,0.15306122448979592,0.15306122448979592,0.15306122448979592,0.19387755102040816,0.2755102040816326,0.37755102040816324,0.5748299319727891,0.6564625850340136,0.7551020408163265,0.8435374149659864,0.8741496598639455,0.9149659863945578,0.9285714285714286,0.95578231292517,0.9727891156462585,0.9727891156462585,0.9761904761904762,0.9761904761904762,0.9761904761904762,0.9761904761904762,0.9761904761904762,0.9761904761904762,0.9829931972789115,0.9829931972789115,0.9829931972789115,0.9897959183673469,0.9965986394557823,1.0068027210884354,1.0170068027210883,1.0238095238095237,1.0272108843537415,1.0408163265306123,1.054421768707483,1.0578231292517006,1.0680272108843538,1.0714285714285714,1.0748299319727892,1.0782312925170068,1.0816326530612246,1.08843537414966,1.0952380952380953,1.1020408163265305,1.119047619047619,1.1258503401360545,1.1326530612244898,1.1326530612244898,1.1326530612244898,1.1326530612244898,1.1326530612244898,1.1326530612244898,1.1326530612244898,1.1326530612244898,1.1326530612244898,1.1326530612244898,1.1326530612244898,1.1326530612244898,1.1326530612244898,1.1326530612244898,1.1326530612244898,1.1326530612244898,1.1326530612244898,1.1326530612244898,1.1326530612244898,1.1326530612244898,1.1326530612244898,1.1326530612244898,1.1326530612244898,1.1326530612244898,1.1326530612244898,1.1326530612244898,1.1326530612244898,1.1326530612244898,1.1326530612244898,1.1326530612244898,1.1326530612244898,1.1326530612244898,1.1326530612244898,1.1326530612244898,1.1326530612244898,1.1326530612244898,1.1326530612244898,1.1326530612244898,1.119047619047619,1.0578231292517006,1.010204081632653,0.8605442176870748,0.6904761904761905,0.5544217687074829,0.2789115646258503,0.19047619047619047,0.06802721088435375,-0.006802721088435374,-0.027210884353741496,-0.04081632653061224,-0.04421768707482993,-0.04421768707482993,-0.04421768707482993,-0.04421768707482993,-0.030612244897959183,-0.017006802721088437,-0.013605442176870748,-0.01020408163265306,-0.006802721088435374,-0.006802721088435374,0,0.003401360544217687,0.013605442176870748,0.017006802721088437,0.017006802721088437,0.017006802721088437,0.017006802721088437,0.017006802721088437,0.017006802721088437,0.013605442176870748,0.01020408163265306,0.01020408163265306,0.01020408163265306,0.01020408163265306,0.01020408163265306,0.01020408163265306,0.01020408163265306,0.01020408163265306,0.01020408163265306,0.01020408163265306,0.01020408163265306,0.01020408163265306,0.01020408163265306,0.01020408163265306,0.01020408163265306,0.01020408163265306,0.01020408163265306,0.01020408163265306,0.01020408163265306,0.01020408163265306,0.01020408163265306,0.01020408163265306,0.01020408163265306,0.01020408163265306,0.01020408163265306,0.01020408163265306,0.01020408163265306,0.01020408163265306,0.01020408163265306,0.01020408163265306,0.01020408163265306,0.01020408163265306,0.01020408163265306,0.01020408163265306,0.01020408163265306,0.01020408163265306,0.01020408163265306,0.01020408163265306,0.01020408163265306,0.01020408163265306,0.01020408163265306,0.01020408163265306,0.01020408163265306,0.01020408163265306,0.01020408163265306,0.01020408163265306,0.01020408163265306,0.01020408163265306,0.01020408163265306,0.01020408163265306,0.01020408163265306,0.01020408163265306,0.01020408163265306,0.01020408163265306,0.01020408163265306,0.01020408163265306,0.01020408163265306,0.01020408163265306,0.01020408163265306,0.01020408163265306,0.01020408163265306,0.01020408163265306,0.01020408163265306,0.01020408163265306,0.01020408163265306,0.01020408163265306,0.01020408163265306,0.01020408163265306,0.01020408163265306,0.01020408163265306,0.01020408163265306,0.01020408163265306,0.01020408163265306,0.01020408163265306,0.01020408163265306,0.01020408163265306,0.01020408163265306,0.01020408163265306,0.01020408163265306,0.01020408163265306,0.01020408163265306,0.01020408163265306,0.01020408163265306,0.01020408163265306,0.01020408163265306,0.01020408163265306,0.01020408163265306,0.01020408163265306,0.01020408163265306,0.01020408163265306,0.01020408163265306,0.01020408163265306,0.01020408163265306,0.01020408163265306,0.01020408163265306,0.01020408163265306,0.01020408163265306,0.01020408163265306,0.01020408163265306,0.01020408163265306,0.01020408163265306,0.01020408163265306,0.01020408163265306,0.01020408163265306,0.01020408163265306,0.01020408163265306,0.01020408163265306,0.01020408163265306,0.01020408163265306,0.01020408163265306,0.01020408163265306,0.01020408163265306,0.01020408163265306,0.01020408163265306,0.01020408163265306,0.01020408163265306,0.01020408163265306],"y":[-3.0476190476190474,-3.0476190476190474,-3.0476190476190474,-3.0476190476190474,-3.0476190476190474,-3.0476190476190474,-3.0476190476190474,-3.0476190476190474,-3.0476190476190474,-3.0476190476190474,-3.0476190476190474,-3.0476190476190474,-3.0476190476190474,-3.0476190476190474,-3.0476190476190474,-3.0476190476190474,-3.0476190476190474,-3.0476190476190474,-3.0476190476190474,-3.0476190476190474,-3.0476190476190474,-3.0476190476190474,-3.0476190476190474,-3.0476190476190474,-3.0476190476190474,-3.0476190476190474,-3.0476190476190474,-3.0476190476190474,-3.0476190476190474,-3.0476190476190474,-3.0476190476190474,-3.0476190476190474,-3.0476190476190474,-3.0476190476190474,-3.0476190476190474,-3.0476190476190474,-3.0476190476190474,-3.0476190476190474,-3.0476190476190474,-3.0476190476190474,-3.0476190476190474,-3.0476190476190474,-3.0476190476190474,-3.0476190476190474,-3.0476190476190474,-3.0476190476190474,-3.0476190476190474,-3.0476190476190474,-3.0476190476190474,-3.0476190476190474,-3.0476190476190474,-3.0476190476190474,-3.0476190476190474,-3.0476190476190474,-3.0476190476190474,-3.0476190476190474,-3.0476190476190474,-3.0476190476190474,-3.0476190476190474,-3.0476190476190474,-3.0476190476190474,-3.0476190476190474,-3.0476190476190474,-3.0476190476190474,-3.0476190476190474,-3.0476190476190474,-3.0476190476190474,-3.0476190476190474,-3.0476190476190474,-3.0476190476190474,-3.0476190476190474,-3.0476190476190474,-3.0476190476190474,-3.0476190476190474,-3.0476190476190474,-3.0476190476190474,-3.0476190476190474,-3.0476190476190474,-3.0476190476190474,-3.0476190476190474,-3.0476190476190474,-3.0476190476190474,-3.0476190476190474,-3.0476190476190474,-3.0476190476190474,-3.0476190476190474,-3.0476190476190474,-3.0476190476190474,-3.0476190476190474,-3.0476190476190474,-3.0476190476190474,-3.0476190476190474,-3.0476190476190474,-3.0476190476190474,-3.0476190476190474,-3.0476190476190474,-3.0476190476190474,-3.0476190476190474,-3.0476190476190474,-3.0476190476190474,-3.0476190476190474,-3.0476190476190474,-3.0476190476190474,-3.0476190476190474,-3.0476190476190474,-3.0476190476190474,-3.0476190476190474,-3.0476190476190474,-3.0476190476190474,-3.0476190476190474,-3.0476190476190474,-3.0476190476190474,-3.0476190476190474,-3.0476190476190474,-3.0476190476190474,-3.0476190476190474,-3.0476190476190474,-3.0476190476190474,-3.0476190476190474,-3.0476190476190474,-3.0476190476190474,-3.0476190476190474,-3.0476190476190474,-3.0476190476190474,-3.0476190476190474,-3.0476190476190474,-3.0476190476190474,-3.0476190476190474,-3.0476190476190474,-3.0476190476190474,-3.0476190476190474,-3.0476190476190474,-3.0476190476190474,-3.0476190476190474,-3.0476190476190474,-3.0476190476190474,-3.0476190476190474,-3.0476190476190474,-3.0476190476190474,-3.0476190476190474,-3.0476190476190474,-3.0476190476190474,-3.0476190476190474,-3.0476190476190474,-3.0476190476190474,-3.0476190476190474,-3.0476190476190474,-3.0476190476190474,-3.0476190476190474,-3.0476190476190474,-3.0476190476190474,-3.0476190476190474,-3.0476190476190474,-3.0476190476190474,-3.0476190476190474,-3.0476190476190474,-3.0476190476190474,-3.0476190476190474,-3.0476190476190474,-3.0476190476190474,-3.0476190476190474,-3.0476190476190474,-3.0476190476190474,-3.0476190476190474,-3.0476190476190474,-3.0476190476190474,-3.0476190476190474,-3.0476190476190474,-3.0476190476190474,-3.0476190476190474,-3.0476190476190474,-3.0476190476190474,-3.0476190476190474,-3.0476190476190474,-3.0476190476190474,-3.0476190476190474,-3.0476190476190474,-3.0476190476190474,-3.0476190476190474,-3.0476190476190474,-3.0476190476190474,-3.0476190476190474,-3.0476190476190474,-3.0476190476190474,-3.0476190476190474,-3.0476190476190474,-3.0476190476190474,-3.0476190476190474,-3.0476190476190474,-3.0476190476190474,-3.0476190476190474,-1.223809523809524,-1.223809523809524,-1.223809523809524,-1.223809523809524,-1.223809523809524,-1.223809523809524,-1.223809523809524,-1.223809523809524,-1.223809523809524,-1.223809523809524,-1.223809523809524,-1.223809523809524,-1.223809523809524,-1.223809523809524,-1.223809523809524,-1.223809523809524,-1.223809523809524,-1.223809523809524,-1.223809523809524,-1.223809523809524,-1.223809523809524,-1.223809523809524,-1.223809523809524,-1.223809523809524,-1.223809523809524,-1.223809523809524,-1.223809523809524,-1.223809523809524,-1.223809523809524,-1.223809523809524,-1.223809523809524,-1.223809523809524,-1.223809523809524,-1.223809523809524,-1.223809523809524,-3.0428571428571427,-3.1285714285714286,-3.223809523809524,-3.357142857142857,-3.4714285714285715,-3.4714285714285715,-3.4714285714285715,-3.5761904761904764,-3.442857142857143,-3.033333333333333,-2.6619047619047618,-2.1857142857142855,-1.957142857142857,-1.4714285714285715,-1.138095238095238,-1.0238095238095237,-0.7761904761904762,-0.6142857142857143,-0.46190476190476193,-0.24285714285714285,-0.07142857142857142,0.04285714285714286,0.10952380952380952,0.23333333333333334,0.3,0.3,0.3,0.3,0.3,0.3,0.30952380952380953,0.40476190476190477,0.4523809523809524,0.48095238095238096,0.48095238095238096,0.48095238095238096,0.4238095238095238,0.40476190476190477,0.38571428571428573,0.38571428571428573,0.35714285714285715,0.30952380952380953,0.40476190476190477,0.49047619047619045,0.6333333333333333,0.719047619047619,0.7285714285714285,0.7666666666666667,0.8714285714285714,0.9571428571428572,1.0714285714285714,1.138095238095238,1.1476190476190475,1.1571428571428573,1.1571428571428573,1.1571428571428573,1.1571428571428573,1.1571428571428573,1.1571428571428573,1.119047619047619,1.0809523809523809,0.9095238095238095,0.7761904761904762,0.6714285714285714,0.6333333333333333,0.5285714285714286,0.49047619047619045,0.48095238095238096,0.4714285714285714,0.4238095238095238,0.3761904761904762,0.3476190476190476,0.32857142857142857,0.32857142857142857,0.30952380952380953,0.30952380952380953,0.30952380952380953,0.30952380952380953,0.30952380952380953,0.30952380952380953,0.30952380952380953,0.30952380952380953,0.30952380952380953,0.30952380952380953,0.32857142857142857,0.3476190476190476,0.35714285714285715,0.36666666666666664,0.3761904761904762,0.3761904761904762,0.38571428571428573,0.40476190476190477,0.4238095238095238,0.44285714285714284,0.4714285714285714,0.48095238095238096,0.5,0.5,0.5190476190476191,0.5190476190476191,0.5190476190476191,0.5190476190476191,0.5190476190476191,0.5190476190476191,0.5190476190476191,0.5190476190476191,0.5190476190476191,0.5190476190476191,0.5285714285714286,0.5285714285714286,0.5285714285714286,0.5285714285714286,0.5285714285714286,0.5285714285714286,0.5285714285714286,0.5285714285714286,0.5476190476190477,0.5571428571428572,0.5666666666666667,0.5666666666666667,0.5666666666666667,0.5666666666666667,0.5857142857142857,0.5952380952380952,0.6047619047619047,0.6047619047619047,0.6047619047619047,0.6047619047619047,0.6333333333333333,0.6714285714285714,0.7,0.7476190476190476,0.7761904761904762,0.8238095238095238,0.8333333333333334,0.8333333333333334,0.8333333333333334,0.8333333333333334,0.8333333333333334,0.8333333333333334,0.8333333333333334,0.8333333333333334,0.8333333333333334,0.8333333333333334,0.8333333333333334,0.8333333333333334,0.8333333333333334,0.8333333333333334,0.8333333333333334,0.8333333333333334,0.8333333333333334,0.8428571428571429,0.8428571428571429,0.8428571428571429,0.8523809523809524,0.8523809523809524,0.8523809523809524,0.8523809523809524,0.8523809523809524,0.861904761904762,0.861904761904762,0.861904761904762,0.861904761904762,0.861904761904762,0.861904761904762,0.861904761904762,0.861904761904762,0.861904761904762,0.861904761904762,0.861904761904762,0.861904761904762,0.861904761904762,0.861904761904762,0.861904761904762,0.861904761904762,0.861904761904762,0.861904761904762,0.861904761904762,0.861904761904762,0.861904761904762,0.861904761904762,0.861904761904762,0.861904761904762,0.861904761904762,0.861904761904762,0.861904761904762,0.861904761904762,0.861904761904762,0.8809523809523809,0.9095238095238095,0.919047619047619,0.9380952380952381,0.9380952380952381,0.9380952380952381,0.9380952380952381,0.9476190476190476,0.9476190476190476,0.9571428571428572,0.9571428571428572,0.9571428571428572,0.9571428571428572,0.9571428571428572,0.9571428571428572,0.9571428571428572,0.9571428571428572,0.9571428571428572,0.9571428571428572,0.9571428571428572,0.9571428571428572,0.9571428571428572,0.9571428571428572,0.9571428571428572,0.9571428571428572,0.9571428571428572,0.9571428571428572,0.9571428571428572,0.9571428571428572,0.9571428571428572,0.9571428571428572,0.9571428571428572,0.9571428571428572,0.9571428571428572,0.9571428571428572,0.9571428571428572,0.9571428571428572,0.9571428571428572,0.9571428571428572,0.9571428571428572,0.9571428571428572,0.9571428571428572,0.9571428571428572,0.9571428571428572,0.9571428571428572,0.9571428571428572,0.9571428571428572,0.9571428571428572,0.9571428571428572,0.9571428571428572,0.9571428571428572,0.9571428571428572,0.9571428571428572,0.9571428571428572,0.9571428571428572,0.9571428571428572,0.9571428571428572,0.9571428571428572,0.9571428571428572,0.9571428571428572,0.9571428571428572,0.9476190476190476,0.9,0.861904761904762,0.8523809523809524,0.8523809523809524,0.8714285714285714,0.8809523809523809,0.8904761904761904,0.8904761904761904,0.8904761904761904,0.9,0.9,0.9,0.9,0.9,0.9,0.8904761904761904,0.861904761904762,0.8047619047619048,0.7666666666666667,0.7571428571428571,0.7476190476190476,0.7380952380952381,0.7285714285714285,0.7095238095238096,0.7095238095238096,0.7095238095238096,0.7095238095238096,0.7095238095238096,0.7095238095238096,0.7095238095238096,0.7,0.6904761904761905,0.6619047619047619,0.6428571428571429,0.6142857142857143,0.5761904761904761,0.5761904761904761,0.5761904761904761,0.5761904761904761,0.5761904761904761,0.5761904761904761,0.5761904761904761,0.5761904761904761,0.5761904761904761,0.5761904761904761,0.5761904761904761,0.5761904761904761,0.5761904761904761,0.5761904761904761,0.5761904761904761,0.5761904761904761,0.5761904761904761,0.5761904761904761,0.5761904761904761,0.5761904761904761,0.5761904761904761,0.5761904761904761,0.5761904761904761,0.5761904761904761,0.5761904761904761,0.5666666666666667,0.5666666666666667,0.5666666666666667,0.5666666666666667,0.5666666666666667,0.5666666666666667,0.5666666666666667,0.5666666666666667,0.5666666666666667,0.5666666666666667,0.5666666666666667,0.5666666666666667,0.5666666666666667,0.5666666666666667,0.5666666666666667,0.5666666666666667,0.5666666666666667,0.5571428571428572,0.5190476190476191,0.5190476190476191,0.5190476190476191,0.5190476190476191,0.5285714285714286,0.5476190476190477,0.5571428571428572,0.5761904761904761,0.5857142857142857,0.5952380952380952,0.5952380952380952,0.5952380952380952,0.5952380952380952,0.5952380952380952,0.5952380952380952,0.5952380952380952,0.5952380952380952,0.5952380952380952,0.5952380952380952,0.5952380952380952,0.5952380952380952,0.5952380952380952,0.5857142857142857,0.5666666666666667,0.5666666666666667,0.5666666666666667,0.5666666666666667,0.5666666666666667,0.5666666666666667,0.5666666666666667,0.5666666666666667,0.5666666666666667,0.5666666666666667,0.5666666666666667,0.5666666666666667,0.5666666666666667,0.5666666666666667,0.5666666666666667,0.5666666666666667,0.5666666666666667,0.5666666666666667,0.5666666666666667,0.5666666666666667,0.5666666666666667,0.5666666666666667,0.5666666666666667,0.5666666666666667,0.5666666666666667,0.5666666666666667,0.5666666666666667,0.5571428571428572,0.5571428571428572,0.5571428571428572,0.5571428571428572,0.5571428571428572,0.5571428571428572,0.5571428571428572,0.5571428571428572,0.5571428571428572,0.5571428571428572,0.5571428571428572,0.5571428571428572,0.5571428571428572,0.5571428571428572,0.5571428571428572,0.5571428571428572,0.5571428571428572,0.5571428571428572,0.5571428571428572,0.5571428571428572,0.5571428571428572,0.5571428571428572,0.5571428571428572,0.5571428571428572,0.5571428571428572,0.5571428571428572,0.5571428571428572,0.5571428571428572,0.5571428571428572,0.5571428571428572,0.5571428571428572,0.5571428571428572,0.5571428571428572,0.5571428571428572,0.5571428571428572,0.5571428571428572,0.5571428571428572,0.5571428571428572,0.5571428571428572,0.5571428571428572,0.5571428571428572,0.5571428571428572,0.5571428571428572,0.5571428571428572,0.5571428571428572,0.5571428571428572,0.5571428571428572,0.5571428571428572,0.5571428571428572,0.5571428571428572,0.5571428571428572,0.5571428571428572,0.5571428571428572,0.5571428571428572,0.5571428571428572,0.5571428571428572,0.5571428571428572,0.5571428571428572,0.5571428571428572,0.5571428571428572,0.5476190476190477,0.5476190476190477,0.5476190476190477,0.5476190476190477,0.5476190476190477,0.5476190476190477,0.5571428571428572,0.5761904761904761,0.5857142857142857,0.6142857142857143,0.6333333333333333,0.6428571428571429,0.680952380952381,0.7,0.7285714285714285,0.7476190476190476,0.7571428571428571,0.7666666666666667,0.7761904761904762,0.7761904761904762,0.7761904761904762,0.7666666666666667,0.7095238095238096,0.6714285714285714,0.6238095238095238,0.6142857142857143,0.6047619047619047,0.6047619047619047,0.6047619047619047,0.6047619047619047,0.6047619047619047,0.6047619047619047,0.6047619047619047,0.6047619047619047,0.6047619047619047,0.6047619047619047,0.6047619047619047,0.6047619047619047,0.6047619047619047,0.6047619047619047,0.6047619047619047,0.6047619047619047,0.6047619047619047,0.6047619047619047,0.6047619047619047,0.6047619047619047,0.6047619047619047,0.6047619047619047,0.6047619047619047,0.6047619047619047,0.6047619047619047,0.6047619047619047,0.6047619047619047,0.6047619047619047,0.6047619047619047,0.6047619047619047,0.6047619047619047,0.6047619047619047,0.6047619047619047,0.6047619047619047,0.6047619047619047,0.6047619047619047,0.6047619047619047,0.6047619047619047,0.6047619047619047,0.6047619047619047,0.6047619047619047,0.6047619047619047,0.6047619047619047,0.6047619047619047,0.6047619047619047,0.6047619047619047,0.6047619047619047,0.6047619047619047,0.6047619047619047,0.6047619047619047,0.6047619047619047,0.6047619047619047,0.6047619047619047,0.6047619047619047,0.6047619047619047,0.6047619047619047,0.6047619047619047,0.6047619047619047,0.6047619047619047,0.6047619047619047,0.6047619047619047,0.6047619047619047,0.6047619047619047,0.6047619047619047,0.6047619047619047,0.6047619047619047,0.6047619047619047,0.6047619047619047,0.6047619047619047,0.6047619047619047,0.6047619047619047,0.6047619047619047,0.6047619047619047,0.6047619047619047,0.6047619047619047,0.6047619047619047,0.6047619047619047,0.6047619047619047,0.6047619047619047,0.6047619047619047,0.6047619047619047,0.6047619047619047,0.6047619047619047,0.6047619047619047,0.6047619047619047,0.6047619047619047,0.6047619047619047,0.6047619047619047,0.6047619047619047,0.6047619047619047,0.6047619047619047,0.6047619047619047,0.6047619047619047,0.6047619047619047,0.6047619047619047,0.6047619047619047,0.6047619047619047,0.6047619047619047,0.6047619047619047,0.6047619047619047,0.6047619047619047,0.6047619047619047,0.6047619047619047,0.6047619047619047,0.6047619047619047,0.6047619047619047,0.6047619047619047,0.6047619047619047,0.6047619047619047,0.6047619047619047,0.6047619047619047,0.6047619047619047,0.6047619047619047,0.6047619047619047,0.6047619047619047,0.6047619047619047,0.6047619047619047,0.6047619047619047,0.6047619047619047,0.6047619047619047,0.6047619047619047,0.6047619047619047,0.6047619047619047,0.6047619047619047,0.6047619047619047,0.6047619047619047,0.6047619047619047,0.6047619047619047,0.6047619047619047,0.6047619047619047,0.6047619047619047,0.6047619047619047,0.6047619047619047,0.6047619047619047,0.6047619047619047,0.6047619047619047,0.6047619047619047,0.6047619047619047,0.6047619047619047,0.6047619047619047,0.6047619047619047,0.6047619047619047,0.6047619047619047,0.6047619047619047,0.6047619047619047,0.6047619047619047,0.6047619047619047,0.6047619047619047,0.6047619047619047,0.6047619047619047,0.6047619047619047,0.6047619047619047,0.6047619047619047,0.6047619047619047,0.6047619047619047,0.6047619047619047,0.6047619047619047,0.6047619047619047,0.6047619047619047,0.6047619047619047,0.6047619047619047,0.6047619047619047,0.6047619047619047,0.6047619047619047,0.6047619047619047,0.6047619047619047,0.6047619047619047,0.6047619047619047,0.6047619047619047,0.6047619047619047,0.6047619047619047,0.6047619047619047,0.6047619047619047,0.6047619047619047,0.6047619047619047,0.6047619047619047,0.6047619047619047,0.6047619047619047,0.6047619047619047,0.6047619047619047,0.5952380952380952,0.5761904761904761,0.5666666666666667,0.5571428571428572,0.5476190476190477,0.5476190476190477,0.5476190476190477,0.5476190476190477,0.5571428571428572,0.5666666666666667,0.5761904761904761,0.5952380952380952,0.6142857142857143,0.6428571428571429,0.6714285714285714,0.6904761904761905,0.7571428571428571,0.7952380952380952,0.8238095238095238,0.8333333333333334,0.8333333333333334,0.8333333333333334,0.8428571428571429,0.8523809523809524,0.861904761904762,0.8714285714285714,0.8714285714285714,0.8714285714285714,0.8714285714285714,0.8523809523809524,0.8428571428571429,0.8142857142857143,0.8047619047619048,0.8047619047619048,0.8047619047619048,0.8047619047619048,0.680952380952381,0.6142857142857143,0.5857142857142857,0.5761904761904761,0.5761904761904761,0.5761904761904761,0.5761904761904761,0.5857142857142857,0.6047619047619047,0.6047619047619047,0.6047619047619047,0.6047619047619047,0.6047619047619047,0.6047619047619047,0.6047619047619047,0.6047619047619047,0.6047619047619047,0.6047619047619047,0.6047619047619047,0.6047619047619047,0.6047619047619047,0.6047619047619047,0.5857142857142857,0.5761904761904761,0.5666666666666667,0.5666666666666667,0.5571428571428572,0.5571428571428572,0.5571428571428572,0.5571428571428572,0.5571428571428572,0.5571428571428572,0.5571428571428572,0.5571428571428572,0.5571428571428572,0.5571428571428572,0.5571428571428572,0.5571428571428572,0.5571428571428572,0.5571428571428572,0.5571428571428572,0.5571428571428572,0.5571428571428572,0.5571428571428572,0.5571428571428572,0.5571428571428572,0.5571428571428572,0.5476190476190477,0.5476190476190477,0.5285714285714286,0.5190476190476191,0.5190476190476191,0.49047619047619045,0.46190476190476193,0.4238095238095238,0.38571428571428573,0.3761904761904762,0.36666666666666664,0.35714285714285715,0.35714285714285715,0.3476190476190476,0.3476190476190476,0.32857142857142857,0.319047619047619,0.30952380952380953,0.30952380952380953,0.3,0.3,0.3,0.3,0.3,0.3,0.3,0.3,0.3,0.3,0.3,0.3,0.3,0.3,0.3,0.3,0.3,0.3,0.30952380952380953,0.319047619047619,0.319047619047619,0.3380952380952381,0.3380952380952381,0.3380952380952381,0.3380952380952381,0.3380952380952381,0.3380952380952381,0.3380952380952381,0.3380952380952381,0.32857142857142857,0.30952380952380953,0.30952380952380953,0.3,0.28095238095238095,0.2714285714285714,0.2523809523809524,0.23333333333333334,0.1761904761904762,0.14761904761904762,0.11904761904761904,0.1,0.1,0.1,0.10952380952380952,0.11904761904761904,0.21428571428571427,0.2619047619047619,0.3476190476190476,0.40476190476190477,0.43333333333333335,0.49047619047619045,0.5190476190476191,0.5761904761904761,0.6142857142857143,0.6333333333333333,0.6523809523809524,0.6523809523809524,0.6523809523809524,0.6428571428571429,0.6142857142857143,0.5380952380952381,0.5,0.43333333333333335,0.3952380952380952,0.38571428571428573,0.36666666666666664,0.35714285714285715,0.35714285714285715,0.3761904761904762,0.4238095238095238,0.5190476190476191,0.5476190476190477,0.5857142857142857,0.6142857142857143,0.6142857142857143,0.6238095238095238,0.6714285714285714,0.7095238095238096,0.8142857142857143,0.8809523809523809,0.8904761904761904,0.8904761904761904,0.8904761904761904,0.8904761904761904,0.8523809523809524,0.8238095238095238,0.719047619047619,0.6523809523809524,0.6142857142857143,0.5666666666666667,0.5285714285714286,0.4238095238095238,0.35714285714285715,0.28095238095238095,0.16666666666666666,0.1380952380952381,0.08095238095238096,0.08095238095238096,0.07142857142857142,0.11904761904761904,0.1380952380952381,0.2523809523809524,0.35714285714285715,0.5380952380952381,0.6142857142857143,0.7,0.7857142857142857,0.8333333333333334,0.919047619047619,1.0047619047619047,1.0333333333333334,1.061904761904762,1.0714285714285714,1.0714285714285714,1.0523809523809524,1.0142857142857142,0.8809523809523809,0.7761904761904762,0.7761904761904762,0.7,0.6619047619047619,0.5666666666666667,0.49047619047619045,0.3761904761904762,0.3476190476190476,0.32857142857142857,0.319047619047619,0.3380952380952381,0.3476190476190476,0.3952380952380952,0.4142857142857143,0.4238095238095238,0.4523809523809524,0.5,0.5380952380952381,0.5571428571428572,0.5571428571428572,0.5571428571428572,0.5476190476190477,0.5285714285714286,0.5285714285714286,0.5285714285714286,0.5285714285714286,0.5285714285714286,0.5095238095238095,0.49047619047619045,0.44285714285714284,0.4238095238095238,0.4238095238095238,0.4238095238095238,0.4238095238095238,0.4238095238095238,0.4238095238095238,0.4238095238095238,0.4238095238095238,0.4238095238095238,0.4238095238095238,0.4238095238095238,0.4238095238095238,0.4238095238095238,0.4238095238095238,0.4238095238095238,0.4238095238095238,0.4238095238095238,0.43333333333333335,0.44285714285714284,0.4523809523809524,0.4523809523809524,0.46190476190476193,0.46190476190476193,0.46190476190476193,0.48095238095238096,0.49047619047619045,0.49047619047619045,0.5,0.5,0.5,0.5095238095238095,0.5095238095238095,0.5095238095238095,0.5095238095238095,0.5095238095238095,0.5095238095238095,0.5095238095238095,0.5095238095238095,0.5190476190476191,0.5190476190476191,0.5190476190476191,0.5190476190476191,0.5285714285714286,0.5476190476190477,0.5666666666666667,0.5666666666666667,0.5761904761904761,0.5761904761904761,0.5761904761904761,0.5761904761904761,0.5761904761904761,0.5761904761904761,0.5761904761904761,0.5857142857142857,0.6142857142857143,0.6428571428571429,0.6523809523809524,0.6619047619047619,0.6619047619047619,0.6619047619047619,0.6714285714285714,0.6714285714285714,0.6714285714285714,0.6714285714285714,0.6714285714285714,0.6714285714285714,0.6714285714285714,0.6714285714285714,0.6714285714285714,0.6714285714285714,0.6714285714285714,0.6714285714285714,0.6714285714285714,0.6714285714285714,0.6714285714285714,0.680952380952381,0.6904761904761905,0.7380952380952381,0.7571428571428571,0.8142857142857143,0.8714285714285714,0.9095238095238095,0.9095238095238095,0.9,0.8809523809523809,0.861904761904762,0.8523809523809524,0.8523809523809524,0.8428571428571429,0.8428571428571429,0.8333333333333334,0.8333333333333334,0.8333333333333334,0.8333333333333334,0.8333333333333334,0.8333333333333334,0.8333333333333334,0.8333333333333334,0.8333333333333334,0.8333333333333334,0.8333333333333334,0.9,0.919047619047619,0.9571428571428572,0.9761904761904762,0.9857142857142858,1.0047619047619047,1.0047619047619047,1.0047619047619047,1.0047619047619047,1.0047619047619047,1.0047619047619047,1.0047619047619047,1.0047619047619047,1.0047619047619047,1.0047619047619047,1.0047619047619047,1.0047619047619047,1.0047619047619047,1.0047619047619047,1.0047619047619047,1.0047619047619047,1.0047619047619047,1.0047619047619047,1.0047619047619047,1.0047619047619047,1.0047619047619047,1.0047619047619047,1.0047619047619047,1.0047619047619047,1.0047619047619047,1.0047619047619047,1.0047619047619047,1.0047619047619047,1.0047619047619047,1.0047619047619047,1.0047619047619047,1.0047619047619047,1.0047619047619047,1.0047619047619047,1.0047619047619047,1.0047619047619047,1.0047619047619047,1.0047619047619047,1.0047619047619047,1.0047619047619047,1.0047619047619047,1.0047619047619047,1.0047619047619047,1.0047619047619047,1.0238095238095237,1.0333333333333334,1.042857142857143,1.042857142857143,1.0333333333333334,0.9761904761904762,0.6428571428571429,0.49047619047619045,0.28095238095238095,0.18571428571428572,-0.014285714285714285,-0.11904761904761904,-0.15714285714285714,-0.20476190476190476,-0.21428571428571427,-0.24285714285714285,-0.2619047619047619,-0.3,-0.40476190476190477,-0.4238095238095238,-0.4238095238095238,-0.3476190476190476,-0.2714285714285714,-0.23333333333333334,-0.20476190476190476,-0.19523809523809524,-0.19523809523809524,-0.19523809523809524,-0.19523809523809524,-0.16666666666666666,-0.1380952380952381,-0.07142857142857142,-0.05238095238095238,-0.05238095238095238,-0.05238095238095238,-0.05238095238095238,-0.07142857142857142,-0.07142857142857142,-0.04285714285714286,0.004761904761904762,0.014285714285714285,0.03333333333333333,0.05238095238095238,0.06190476190476191,0.08095238095238096,0.08095238095238096,0.08095238095238096,0.08095238095238096,0.08095238095238096,0.08095238095238096,0.09047619047619047,0.09047619047619047,0.09047619047619047,0.09047619047619047,0.09047619047619047,0.09047619047619047,0.09047619047619047,0.09047619047619047,0.09047619047619047,0.09047619047619047,0.09047619047619047,0.09047619047619047,0.09047619047619047,0.09047619047619047,0.09047619047619047,0.09047619047619047,0.09047619047619047,0.09047619047619047,0.09047619047619047,0.09047619047619047,0.09047619047619047,0.09047619047619047,0.09047619047619047,0.09047619047619047,0.09047619047619047,0.09047619047619047,0.09047619047619047,0.09047619047619047,0.09047619047619047,0.09047619047619047,0.09047619047619047,0.09047619047619047,0.10952380952380952,0.11904761904761904,0.1380952380952381,0.15714285714285714,0.15714285714285714,0.1380952380952381,0.04285714285714286,0.004761904761904762,-0.05238095238095238,-0.06190476190476191,-0.06190476190476191,-0.06190476190476191,-0.06190476190476191,-0.07142857142857142,-0.09047619047619047,-0.09047619047619047,-0.09047619047619047,-0.1,-0.1,-0.1,-0.1,-0.1,-0.1,-0.1,-0.1,-0.1,-0.09047619047619047,-0.08095238095238096,-0.07142857142857142,-0.07142857142857142,-0.07142857142857142,-0.07142857142857142,-0.07142857142857142,-0.07142857142857142,-0.07142857142857142,-0.07142857142857142,-0.07142857142857142,-0.06190476190476191,-0.06190476190476191,-0.06190476190476191,-0.06190476190476191,-0.05238095238095238,-0.05238095238095238,-0.04285714285714286,-0.04285714285714286,-0.04285714285714286,-0.04285714285714286,-0.04285714285714286,-0.04285714285714286,-0.04285714285714286,-0.04285714285714286,-0.04285714285714286,-0.04285714285714286,-0.04285714285714286,-0.04285714285714286,-0.04285714285714286,-0.04285714285714286,-0.04285714285714286,-0.04285714285714286,-0.04285714285714286,-0.04285714285714286,-0.023809523809523808,0.004761904761904762,0.004761904761904762,0.004761904761904762,0.03333333333333333,0.07142857142857142,0.15714285714285714,0.19523809523809524,0.22380952380952382,0.2619047619047619,0.28095238095238095,0.319047619047619,0.3380952380952381,0.3380952380952381,0.3380952380952381,0.3380952380952381,0.3476190476190476,0.3476190476190476,0.36666666666666664,0.3761904761904762,0.40476190476190477,0.4142857142857143,0.4238095238095238,0.43333333333333335,0.44285714285714284,0.46190476190476193,0.4714285714285714,0.48095238095238096,0.48095238095238096,0.49047619047619045,0.49047619047619045,0.5,0.5095238095238095,0.5095238095238095,0.5095238095238095,0.5190476190476191,0.5190476190476191,0.5285714285714286,0.5285714285714286,0.5285714285714286,0.5380952380952381,0.5476190476190477,0.5476190476190477,0.5476190476190477,0.5476190476190477,0.5476190476190477,0.5476190476190477,0.5476190476190477,0.5476190476190477,0.5476190476190477,0.5476190476190477,0.5476190476190477,0.5476190476190477,0.5476190476190477,0.5476190476190477,0.5476190476190477,0.5476190476190477,0.5476190476190477,0.5476190476190477,0.5476190476190477,0.5476190476190477,0.5476190476190477,0.5476190476190477,0.5476190476190477,0.5476190476190477,0.5476190476190477,0.5476190476190477,0.5476190476190477,0.5380952380952381,0.5380952380952381,0.5380952380952381,0.5380952380952381,0.5380952380952381,0.5380952380952381,0.5380952380952381,0.5380952380952381,0.5380952380952381,0.5380952380952381,0.5380952380952381,0.5380952380952381,0.5380952380952381,0.5571428571428572,0.5666666666666667,0.5666666666666667,0.49047619047619045,0.40476190476190477,0.08095238095238096,-0.06190476190476191,-0.21428571428571427,-0.2904761904761905,-0.30952380952380953,-0.32857142857142857,-0.32857142857142857,-0.32857142857142857,-0.32857142857142857,-0.32857142857142857,-0.32857142857142857,-0.32857142857142857,-0.32857142857142857,-0.319047619047619,-0.319047619047619,-0.319047619047619,-0.3,-0.28095238095238095,-0.20476190476190476,-0.18571428571428572,-0.15714285714285714,-0.14761904761904762,-0.1380952380952381,-0.12857142857142856,-0.08095238095238096,-0.07142857142857142,-0.05238095238095238,-0.05238095238095238,-0.05238095238095238,-0.05238095238095238,-0.05238095238095238,-0.05238095238095238,-0.05238095238095238,-0.05238095238095238,-0.05238095238095238,-0.05238095238095238,-0.05238095238095238,-0.05238095238095238,-0.05238095238095238,-0.05238095238095238,-0.05238095238095238,-0.05238095238095238,-0.05238095238095238,-0.05238095238095238,-0.05238095238095238,-0.05238095238095238,-0.05238095238095238,-0.05238095238095238,-0.05238095238095238,-0.05238095238095238,-0.05238095238095238,-0.05238095238095238,-0.05238095238095238,-0.05238095238095238,-0.05238095238095238,-0.05238095238095238,-0.05238095238095238,-0.05238095238095238,-0.05238095238095238,-0.05238095238095238,-0.05238095238095238,-0.05238095238095238,-0.05238095238095238,-0.05238095238095238,-0.05238095238095238,-0.05238095238095238,-0.05238095238095238,-0.05238095238095238,-0.05238095238095238,-0.05238095238095238,-0.05238095238095238,-0.05238095238095238,-0.05238095238095238,-0.05238095238095238,-0.05238095238095238,-0.05238095238095238,-0.05238095238095238,-0.05238095238095238,-0.05238095238095238,-0.05238095238095238,-0.05238095238095238,-0.05238095238095238,-0.05238095238095238,-0.05238095238095238,-0.05238095238095238,-0.05238095238095238,-0.05238095238095238,-0.05238095238095238,-0.05238095238095238,-0.05238095238095238,-0.05238095238095238,-0.05238095238095238,-0.05238095238095238,-0.05238095238095238,-0.05238095238095238,-0.05238095238095238,-0.05238095238095238,-0.05238095238095238,-0.05238095238095238,-0.05238095238095238,-0.05238095238095238,-0.05238095238095238,-0.05238095238095238,-0.05238095238095238,-0.05238095238095238,-0.05238095238095238,-0.05238095238095238,-0.05238095238095238,-0.05238095238095238,-0.05238095238095238,-0.05238095238095238,-0.05238095238095238,-0.05238095238095238,-0.05238095238095238,-0.05238095238095238,-0.05238095238095238,-0.05238095238095238,-0.05238095238095238,-0.05238095238095238,-0.05238095238095238,-0.05238095238095238,-0.05238095238095238,-0.05238095238095238,-0.05238095238095238,-0.05238095238095238,-0.05238095238095238,-0.05238095238095238,-0.05238095238095238,-0.05238095238095238,-0.05238095238095238,-0.05238095238095238,-0.05238095238095238,-0.05238095238095238,-0.05238095238095238,-0.05238095238095238,-0.05238095238095238,-0.05238095238095238,-0.05238095238095238,-0.05238095238095238,-0.05238095238095238,-0.05238095238095238,-0.05238095238095238,-0.05238095238095238]},"final_keyboard_state":["S","Z","E","B","R","A"],"num_clicks":6,"points":14,"cheat":false,"trial_type":"Hangman","trial_index":5,"time_elapsed":51729,"internal_node_id":"0.0-4.0","protocol_sum":"","subject_identifier":511,"subject_sum":[149,86,184,36,153,204,10,175,134,174,231,240,210,83,225,124,97,183,239,115,212,138,41,95,55,217,143,8,176,79,250,127],"subject_pair":255,"STUDY_ID":"66a3ed3c5d10d0e7d8a6b9da","PROLIFIC_PID":"666a13a91d6ab318e467374c","SESSION_ID":"66a424828a958761be7461bb","practice_instructions":1,"leaderboard_instructions":0,"bonus":0,"reveal_word":true,"self_rating":"1","confidence":"96"},{"view_history":"[{\"page_index\":0,\"viewing_time\":2669},{\"page_index\":1,\"viewing_time\":10421}]","rt":13091.29999999702,"trial_type":"instructions","trial_index":6,"time_elapsed":64822,"internal_node_id":"0.0-5.0","protocol_sum":"","subject_identifier":511,"subject_sum":[149,86,184,36,153,204,10,175,134,174,231,240,210,83,225,124,97,183,239,115,212,138,41,95,55,217,143,8,176,79,250,127],"subject_pair":255,"STUDY_ID":"66a3ed3c5d10d0e7d8a6b9da","PROLIFIC_PID":"666a13a91d6ab318e467374c","SESSION_ID":"66a424828a958761be7461bb","practice_instructions":1,"leaderboard_instructions":0,"bonus":0,"reveal_word":true,"self_rating":"1","confidence":"96"},{"rt":5592,"responses":"{\"Q0\":\"...from <b>a previous session</b> that is part of the upcoming tournament.\"}","question_order":"[0]","trial_type":"survey-multi-choice","trial_index":7,"time_elapsed":70417,"internal_node_id":"0.0-6.0","protocol_sum":"","subject_identifier":511,"subject_sum":[149,86,184,36,153,204,10,175,134,174,231,240,210,83,225,124,97,183,239,115,212,138,41,95,55,217,143,8,176,79,250,127],"subject_pair":255,"correct":false,"test_part":"multichoice_leaderboard","STUDY_ID":"66a3ed3c5d10d0e7d8a6b9da","PROLIFIC_PID":"666a13a91d6ab318e467374c","SESSION_ID":"66a424828a958761be7461bb","practice_instructions":1,"leaderboard_instructions":0,"bonus":0,"reveal_word":true,"self_rating":"1","confidence":"96"},{"view_history":"[{\"page_index\":0,\"viewing_time\":1775.9000000059605}]","rt":1776.2000000029802,"trial_type":"instructions","trial_index":8,"time_elapsed":72194,"internal_node_id":"0.0-7.0-0.0","protocol_sum":"","subject_identifier":511,"subject_sum":[149,86,184,36,153,204,10,175,134,174,231,240,210,83,225,124,97,183,239,115,212,138,41,95,55,217,143,8,176,79,250,127],"subject_pair":255,"STUDY_ID":"66a3ed3c5d10d0e7d8a6b9da","PROLIFIC_PID":"666a13a91d6ab318e467374c","SESSION_ID":"66a424828a958761be7461bb","practice_instructions":1,"leaderboard_instructions":0,"bonus":0,"reveal_word":true,"self_rating":"1","confidence":"96"},{"rt":8019,"responses":"{\"Q0\":\"...from <b>a previous session</b> that is not part of the upcoming tournament.\"}","question_order":"[0]","trial_type":"survey-multi-choice","trial_index":9,"time_elapsed":80215,"internal_node_id":"0.0-7.0-1.0","protocol_sum":"","subject_identifier":511,"subject_sum":[149,86,184,36,153,204,10,175,134,174,231,240,210,83,225,124,97,183,239,115,212,138,41,95,55,217,143,8,176,79,250,127],"subject_pair":255,"correct":true,"test_part":"multichoice_leaderboard","STUDY_ID":"66a3ed3c5d10d0e7d8a6b9da","PROLIFIC_PID":"666a13a91d6ab318e467374c","SESSION_ID":"66a424828a958761be7461bb","practice_instructions":1,"leaderboard_instructions":0,"bonus":0,"reveal_word":true,"self_rating":"1","confidence":"96"},{"view_history":"[{\"page_index\":0,\"viewing_time\":6415.20000000298}]","rt":6415.600000008941,"trial_type":"instructions","trial_index":10,"time_elapsed":86632,"internal_node_id":"0.0-8.0","protocol_sum":"","subject_identifier":511,"subject_sum":[149,86,184,36,153,204,10,175,134,174,231,240,210,83,225,124,97,183,239,115,212,138,41,95,55,217,143,8,176,79,250,127],"subject_pair":255,"STUDY_ID":"66a3ed3c5d10d0e7d8a6b9da","PROLIFIC_PID":"666a13a91d6ab318e467374c","SESSION_ID":"66a424828a958761be7461bb","practice_instructions":1,"leaderboard_instructions":0,"bonus":0,"reveal_word":true,"self_rating":"1","confidence":"96"},{"rt":5806.5,"responses":"{\"Q0\":\"...players' leaderboard position (in terms of <b>points</b>) in an <b>upcoming tournament.</b>\"}","question_order":"[0]","trial_type":"survey-multi-choice","trial_index":11,"time_elapsed":92440,"internal_node_id":"0.0-9.0","protocol_sum":"","subject_identifier":511,"subject_sum":[149,86,184,36,153,204,10,175,134,174,231,240,210,83,225,124,97,183,239,115,212,138,41,95,55,217,143,8,176,79,250,127],"subject_pair":255,"correct":true,"test_part":"multichoice_tournament","STUDY_ID":"66a3ed3c5d10d0e7d8a6b9da","PROLIFIC_PID":"666a13a91d6ab318e467374c","SESSION_ID":"66a424828a958761be7461bb","practice_instructions":1,"leaderboard_instructions":0,"bonus":0,"reveal_word":true,"self_rating":"1","confidence":"96"},{"view_history":"[{\"page_index\":0,\"viewing_time\":7970.5}]","rt":7970.899999991059,"trial_type":"instructions","trial_index":12,"time_elapsed":100413,"internal_node_id":"0.0-11.0","protocol_sum":"","subject_identifier":511,"subject_sum":[149,86,184,36,153,204,10,175,134,174,231,240,210,83,225,124,97,183,239,115,212,138,41,95,55,217,143,8,176,79,250,127],"subject_pair":255,"STUDY_ID":"66a3ed3c5d10d0e7d8a6b9da","PROLIFIC_PID":"666a13a91d6ab318e467374c","SESSION_ID":"66a424828a958761be7461bb","practice_instructions":1,"leaderboard_instructions":0,"bonus":0,"reveal_word":true,"self_rating":"1","confidence":"96"},{"view_history":"[{\"page_index\":0,\"viewing_time\":13627}]","rt":13627.40000000596,"trial_type":"instructions","trial_index":13,"time_elapsed":114041,"internal_node_id":"0.0-12.0-0.0","protocol_sum":"","subject_identifier":511,"subject_sum":[149,86,184,36,153,204,10,175,134,174,231,240,210,83,225,124,97,183,239,115,212,138,41,95,55,217,143,8,176,79,250,127],"subject_pair":255,"STUDY_ID":"66a3ed3c5d10d0e7d8a6b9da","PROLIFIC_PID":"666a13a91d6ab318e467374c","SESSION_ID":"66a424828a958761be7461bb","practice_instructions":1,"leaderboard_instructions":0,"bonus":0,"reveal_word":true,"self_rating":"1","confidence":"96"},{"rt":7970.4000000059605,"response":"THIRTY FOUR","responses":["THIRTY FOUR"],"trial_type":"type-this","trial_index":14,"time_elapsed":122524,"internal_node_id":"0.0-12.0-1.0","protocol_sum":"","subject_identifier":511,"subject_sum":[149,86,184,36,153,204,10,175,134,174,231,240,210,83,225,124,97,183,239,115,212,138,41,95,55,217,143,8,176,79,250,127],"subject_pair":255,"STUDY_ID":"66a3ed3c5d10d0e7d8a6b9da","PROLIFIC_PID":"666a13a91d6ab318e467374c","SESSION_ID":"66a424828a958761be7461bb","practice_instructions":1,"leaderboard_instructions":0,"bonus":0,"reveal_word":true,"self_rating":"1","confidence":"96"},{"word":"THIRTY FOUR","click_log":{"letter":["","S","F","I","V","O","U","R","T","H","Y"],"t":[0,7221.5,9123.20000000298,11213.09999999404,15019.29999999702,19033.5,21059.39999999106,22818,29658.29999999702,32352,34211.39999999106],"hit":[null,0,1,1,0,1,1,2,2,1,1],"asked":["","S","SF","SFI","SFIV","SFIVO","SFIVOU","SFIVOUR","SFIVOURT","SFIVOURTH","SFIVOURTHY"],"word_state":["______ ____","______ ____","______ F___","__I___ F___","__I___ F___","__I___ FO__","__I___ FOU_","__IR__ FOUR","T_IRT_ FOUR","THIRT_ FOUR","THIRTY FOUR"]},"hover_log":{"letter":["?","?","?","?","?","?","?","?","?","?","?","?","?","?","?","?","?","?","?","?","?","?","?","?","?","?","?","?","?","?","?","?","?","?","?","?","?","?","?","?","?","?","?","?","?","?","?","?","?","?","?","?","?","?","?","?","?","?","?","?","?","?","?","?","?","?","?","?","?","?","?","?","?","?","?","?","?","?","?","?","?","?","?","?","?","?","?","?","?","?","?","?","?","?","?","?","?","?","?","?","?","?","?","?","?","?","?","?","?","?","?","?","?","?","?","?","?","?","?","?","?","?","?","?","?","?","?","?","?","?","?","?","?","?","?","?","?","?","?","?","?","?","?","?","?","?","?","?","?","?","?","?","?","?","?","?","?","?","?","?","?","?","?","?","?","?","?","?","?","?","?","?","?","?","?","?","?","?","?","?","?","?","?","?","?","?","?","?","?","?","?","?","?","?","?","?","?","?","?","?","?","?","?","?","?","?","?","?","?","?","?","?","?","?","?","?","?","?","?","?","?","?","?","?","?","?","?","?","?","?","?","?","?","?","?","?","?","?","?","?","?","?","?","?","?","?","?","?","?","?","?","?","?","?","?","?","?","?","?","?","?","?","?","?","?","?","?","?","?","?","?","?","?","?","?","?","?","?","?","?","?","?","?","?","?","?","?","?","?","?","?","?","?","?","?","?","?","?","?","?","?","?","?","?","?","?","?","?","?","?","?","?","?","?","?","?","?","?","?","?","?","?","?","?","?","?","?","?","?","?","?","?","?","?","?","?","?","?","?","?","?","?","?","?","?","?","?","?","?","?","?","?","?","?","?","?","?","?","?","?","?","?","?","?","?","?","?","?","?","?","?","?","?","?","?","?","?","?","?","?","?","?","?","?","?","?","?","?","?","?","?","?","?","?","?","?","?","?","?","?","?","?","?","?","?","?","?","?","?","?","?","?","?","?","?","?","?","?","?","?","?","?","?","?","?","?","?","?","?","?","?","?","?","?","?","?","?","?","?","?","?","?","?","?","?","?","?","?","?","?","?","?","?","?","?","?","?","?","?","?","?","?","?","?","?","?","?","?","?","?","?","?","?","?","?","?","?","?","?","?","?","?","?","?","?","?","?","?","?","?","?","?","?","?","?","?","?","?","?","?","?","?","?","?","?","?","?","?","?","?","?","?","?","?","?","?","?","?","?","?","?","?","?","?","?","?","?","?","?","?","?","?","?","?","?","?","?","?","?","?","?","?","?","?","?","?","?","?","?","?","?","?","?","?","?","?","?","?","?","?","?","?","?","?","?","?","?","?","?","?","?","?","?","?","?","?","?","?","?","?","?","?","?","?","?","?","?","?","?","?","?","?","?","?","?","?","?","?","?","?","?","?","?","?","?","?","?","?","?","?","?","?","?","?","?","?","?","?","?","?","?","?","?","?","?","?","?","?","?","?","?","?","?","?","?","?","?","?","?","?","?","?","?","?","?","?","?","?","?","?","?","?","?","?","?","?","?","?","?","?","?","?","?","?","?","?","?","?","?","?","?","?","?","?","?","?","?","?","?","?","?","?","?","?","?","?","?","?","?","?","?","?","?","?","?","?","?","?","?","?","?","?","?","?","?","?","?","?","?","?","?","?","?","?","?","?","?","?","?","?","?","?","?","?","?","?","?","?","?","?","?","?","?","?","?","?","?","?","?","?","?","?","?","?","?","?","?","?","?","?","?","?","?","?","?","?","?","?","?","?","?","?","?","?","?","?","?","?","?","?","?","?","?","?","?","?","?","?","?","?","?","?","?","?","?","?","?","?","?","?","?","?","?","?","?","?","?","?","?","?","?","?","?","?","?","?","?","?","?","?","?","?","?","?","?","?","?","?","?","?","?","?","?","?","?","?","?","?","?","?","?","?","?","?","?","?","?","?","?","?","?","?","?","?","?","?","?","?","?","?","?","?","?","?","?","?","?","?","?","?","?","?","?","?","?","?","?","?","?","?","?","?","?","?","?","?","?","?","?","?","?","?","?","?","?","?","?","?","?","?","?","?","?","?","?","?","?","?","?","?","?","?","?","?","?","?","?","?","?","?","?","?","?","?","?","?","?","?","?","?","?","?","?","?","?","?","?","?","?","?","?","?","?","?","?","?","?","?","?","?","?","?","?","?","?","?","?","?","?","?","?","?","?","?","?","?","?","?","?","?","?","?","?","?","?","?","?","?","?","?","?","?","?","?","?","?","?","?","?","?","?","?","?","?","?","?","?","?","?","?","?","?","?","?","?","?","?","?","?","?","?","?","?","?","?","?","?","?","?","?","?","?","?","?","?","?","?","?","?","?","?","?","?","?","?","?","?","?","?","?","?","?","?","?","?","?","?","?","?","?","?","?","?","?","?","?","?","?","?","?","?","?","?","?","?","?","?","?","?","?","?","?","?","?","?","?","?","?","?","?","?","?","?","?","?","?","?","?","?","?","?","?","?","?","?","?","?","?","?","?","?","?","?","?","?","?","?","?","?","?","?","?","?","?","?","?","?","?","?","?","?","?","?","?","?","?","?","?","?","?","?","?","?","?","?","?","?","?","?","?","?","?","?","?","?","?","?","?","?","?","?","?","?","?","?","?","?","?","?","?","?","?","?","?","?","?","?","?","?","?","?","?","?","?","?","?","?","?","?","?","?","?","?","?","?","?","?","?","?","?","?","?","?","?","?","?","?","?","?","?","?","?","?","?","?","?","?","?","?","?","?","?","?","?","?","?","?","?","?","?","?","?","?","?","?","?","?","?","?","?","?","?","?","?","?","?","?","?","?","?","?","?","?","?","?","?","?","?","?","?","?","?","?","?","?","?","?","?","?","?","?","?","?","?","?","?","?","?","?","?","?","?","?","?","?","?","?","?","?","?","?","?","?","?","?","?","?","?","?","?","?","?","?","?","?","?","?","?","?","?","?","?","?","?","?","?","?","?","?","?","?","?","?","?","?","?","?","?","?","?","?","?","?","?","?","?","?","?","?","?","?","?","?","?","?","?","?","?","?","?","?","?","?","?","?","?","?","?","?","?","?","?","?","?","?","?","?","?","?","?","?","?","?","?","?","?","?","?","?","?","?","?","?","?","?","?","?","?","?","?","?","?","?","?","?","?","?","?","?","?","?","?","?","?","?","?","?","?","?","?","?","?","?","?","?","?","?","?","?","?","?","?","?","?","?","?","?","?","?","?","?","?","?","?","?","?","?","?","?","?","?","?","?","?","?","?","?","?","?","?","?","?","?","?","?","?","?","?","?","?","?","?","?","?","?","?","?","?","?","?","?","?","?","?","?","?","?","?","?","?","?","?","?","?","?","?","?","?","?","?","?","?","?","?","?","?","?","?","?","?","?","?","?","?","?","?","?","?","?","?","?","?","?","?","?","?","?","?","?","?","?","?","?","?","?","?","?","?","?","?","?","?","?","?","?","?","?","?","?","?","?","?","?","?","?","?","?","?","?","?","?","?","?","?","?","?","?","?","?","?","?","?","?","?","?","?","?","?","?","?","?","?","?","?","?","?","?","?","?","?","?","?","?","?","?","?","?","?","?","?","?","?","?","?","?","?","?","?","?","?","?","?","?","?","?","?","?","?","?","?","?","?","?","?","?","?","?","?","?","?","?","?","?","?","?","?","?","?","?","?","?","?","?","?","?","?","?","?","?","?","?","?","?","?","?","?","?","?","?","?","?","?","?","?","?","?","?","?","?","?","?","?","?","?","?","?","?","?","?","?","?","?","?","?","?","?","?","?","?","?","?","?","?","?","?","?","?","?","?","?","?","?","?","?","?","?","?","?","?","?","?","?","?","?","?","?","?","?","?","?","?","?","?","?","?","?","?","?","?","?","?","?","?","?","?","?","?","?","?","?","?","?","?","?","?","?","?","?","?","?","?","?","?","?","?","?","?","?","?","?","?","?","?","?","?","?","?","?","?","?","?","?","?","?","?","?","?","?","?","?","?","?","?","?","?","?","?","?","?","?","?","?","?","?","?","?","?","?","?","?","?","?","?","?","?","?","?","?","?","?","?","?","?","?","?","?","?","?","?","?","?","?","?","?","?","?","?","?","?","?","?","?","?","?","?","?","?","?","?","?","?","?","?","?","?","?","?","?","?","?","?","?","?","?","?","?","?","?","?","?","?","?","?","?","?","?","?","?","?","?","?","?","?","?","?","?","?","?","?","?","?","?","?","?","?","?","?","?","?","?","?","?","?","?","?","?","?","?","?","?","?","?","?","?","?","?","?","?","?","?","?","?","?","?","?","?","?","?","?","?","?","?","?","?","?","?","?","?","?","?","?","?","?","?","?","?","?","?","?","?","?","?","?","?","?","?","?","?","?","?","?","?","?","?","?","?","?","?","?","?","?","?","?","?","?","?","?","?","?","?","?","?","?","?","?","?","?","?","?","?","?","?","?","?","?","?","?","?","?","?","?","?","?","?","?","?","?","?","?","?","?","?","?","?","?","?","?","?","?","?","?","?","?","?","?","?","?","?","?","?","?","?","?","?","?","?","?","?","?","?","?","?","?","?","?","?","?","?","?","?","?","?","?","?","?","?","?","?","?","?","?","?","?","?","?","?","?","?","?","?","?","?","?","?","?","?","?","?","?","?","?","?","?","?","?","?","?","?","?","?","?","?","?","?","?","?","?","?","?","?","?","?","?","?","?","?","?","?","?","?","?","?","?","?","?","?","?","?","?","?","?","?","?","?","?","?","?","?","?","?","?","?","?","?","?","?","?","?","?","?","?","?","?","?","?","?","?","?","?","?","?","?","?","?","?","?","?","?","?","?","?","?","?","?","?","?","?","?","?","?","?","?","?","?","?","?","?","?","?","?","?","?","?","?","?","?","?","?","?","?","?","?","?","?","?","?","?","?","?","?","?","?","?","?","?","?","?","?","?","?","?","?","?","?","?","?","?","?","?","?","?","?","?","?","?","?","?","?","?","?","?","?","?","?","?","?","?","?","?","?","?","?","?","?","?","?","?","?","?","?","?","?","?","?","?","?","?","?","?","?","?","?","?","?","?","?","?","?","?","?","?","?","?","?","?","?","?","?","?","?","?","?","?","?","?","?","?","?","?","?","?","?","?","?","?","?","?","?","?","?","?","?","?","?","?","?","?","?","?","?","?","?","?","?","?","?","?","?","?","?","?","?","?","?","?","?","?","?","?","?","?","?","?","?","?","?","?","?","?","?","?","?","?","?","?","?","?","?","?","?","?","?","?","?","?","?","?","?","?","?","?","?","?","?","?","?","?","?","?","?","?","?","?","?","?","?","?","?","?","?","?","?","?","?","?","?","?","?","?","?","?","?","?","?","?","?","?","?","?","?","?","?","?","?","?","?","?","?","?","?","?","?","?","?","?","?","?","?","?","?","?","?","?","?","?","?","?","?","?","?","?","?","?","?","?","?","?","?","?","?","?","?","?","?","?","?","?","?","?","?","?","?","?","?","?","?","?","?","?","?","?","?","?","?","?","?","?","?","?","?","?","?","?","?","?","?","?","?","?","?","?","?","?","?","?","?","?","?","?","?","?","?","?","?","?","?","?","?","?","?","?","?","?","?","?","?","?","?","?","?","?","?","?","?","?","?","?","?","?","?","?","?","?","?","?","?","?","?","?","?","?","?","?","?","?","?","?","?","?","?","?","?","?","?","?","?","?","?","?","?","?","?","?","?","?","?","?","?","?","?","?","?","?","?","?","?","?","?","?","?","?","?","?","?","?","?","?","?","?","?","?","?","?","?","?","?","?","?","?","?","?","?","?","?","?","?","?","?","?","?","?","?","?","?","?","?","?","?","?","?","?","?","?","?","?","?","?","?","?","?","?","?","?","?","?","?","?","?","?","?","?","?","?","?","?","?","?","?","?","?","?","?","?","?","?","?","?","?","?","?","?","?","?","?","?","?","?","?","?","?","?","?","?","?","?","?","?","?","?","?","?","?","?","?","?","?","?","?","?","?","?","?","?","?","?","?","?","?","?","?","?","?","?","?","?","?","?","?","?","?","?","?","?","?","?","?","?","?","?","?","?","?","?","?","?","?","?","?","?","?","?","?","?","?","?","?","?","?","?","?","?","?","?","?","?","?","?","?","?","?","?","?","?","?","?","?","?","?","?","?","?","?","?","?","?","?","?","?","?","?","?","?","?","?","?","?","?","?","?","?","?","?","?","?","?","?","?","?","?","?","?","?","?","?","?","?","?","?","?","?","?","?","?","?","?","?","?","?","?","?","?","?","?","?","?","?","?","?","?","?","?","?","?","?","?","?","?","?","?","?","?","?","?","?","?","?","?","?","?","?","?","?","?","?","?","?","?","?","?","?","?","?","?","?","?","?","?","?","?","?","?","?","?","?","?","?","?","?","?","?","?","?","?","?","?","?","?","?","?","?","?","?","?","?","?","?","?","?","?","?","?","?","?","?","?","?","?","?","?","?","?","?","?","?","?","?","?","?","?","?","?","?","?","?","?","?","?","?","?","?","?","?","?","?","?","?","?","?","?","?","?","?","?","?","?","?","?","?","?","?","?","?","?","?","?","?","?","?","?","?","?","?","?","?","?","?","?","?","?","?","?","?","?","?","?","?","?","?","?","?","?","?","?","?","?","?","?","?","?","?","?","?","?","?","?","?","?","?","?","?","?","?","?","?","?","?","?","?","?","?","?","?","?","?","?","?","?","?","?","?","?","?","?","?","?","?","?","?","?","?","?","?","?","?","?","?","?","?","?","?","?","?","?","?","?","?","?","?","?","?","?","?","?","?","?","?","?","?","?","?","?","?","?","?","?","?","?","?","?","?","?","?","?","?","?","?","?","?","?","?","?","?","?","?","?","?","?","?","?","?","?","?","?","?","?","?","?","?","?","?","?","?","?","?","?","?","?","?","?","?","?","?","?","?","?","?","?","?","?","?","?","?","?","?","?","?","?","?","?","?","?","?","?","?","?","?","?","?","?","?","?","?","?","?","?","?","?","?","?","?","?","?","?","?","?","?","?","?","?","?","?","?","?","?","?","?","?","?","?","?","?","?","?","?","?","?","?","?","?"