[{"success":true,"trial_type":"fullscreen","trial_index":0,"time_elapsed":2905,"internal_node_id":"0.0-0.0","protocol_sum":"","subject_identifier":533,"subject_sum":[234,91,39,85,111,187,19,77,239,44,47,191,148,77,156,221,163,219,219,107,16,71,58,26,236,89,246,241,112,196,202,58],"subject_pair":266,"STUDY_ID":"66a3ed3c5d10d0e7d8a6b9da","PROLIFIC_PID":"662d7fba32d6a738b194d893","SESSION_ID":"66a4723c9d547cadd3c72ae5","practice_instructions":1,"leaderboard_instructions":1,"bonus":0,"reveal_word":true,"self_rating":"1","confidence":"91"},{"view_history":"[{\"page_index\":0,\"viewing_time\":4287.4000000059605}]","rt":4287.9000000059605,"trial_type":"instructions","trial_index":1,"time_elapsed":7195,"internal_node_id":"0.0-1.0","protocol_sum":"","subject_identifier":533,"subject_sum":[234,91,39,85,111,187,19,77,239,44,47,191,148,77,156,221,163,219,219,107,16,71,58,26,236,89,246,241,112,196,202,58],"subject_pair":266,"STUDY_ID":"66a3ed3c5d10d0e7d8a6b9da","PROLIFIC_PID":"662d7fba32d6a738b194d893","SESSION_ID":"66a4723c9d547cadd3c72ae5","practice_instructions":1,"leaderboard_instructions":1,"bonus":0,"reveal_word":true,"self_rating":"1","confidence":"91"},{"view_history":"[{\"page_index\":0,\"viewing_time\":13382.399999976158}]","rt":13382.799999982119,"trial_type":"instructions","trial_index":2,"time_elapsed":20579,"internal_node_id":"0.0-2.0-0.0","protocol_sum":"","subject_identifier":533,"subject_sum":[234,91,39,85,111,187,19,77,239,44,47,191,148,77,156,221,163,219,219,107,16,71,58,26,236,89,246,241,112,196,202,58],"subject_pair":266,"STUDY_ID":"66a3ed3c5d10d0e7d8a6b9da","PROLIFIC_PID":"662d7fba32d6a738b194d893","SESSION_ID":"66a4723c9d547cadd3c72ae5","practice_instructions":1,"leaderboard_instructions":1,"bonus":0,"reveal_word":true,"self_rating":"1","confidence":"91"},{"rt":12123.800000011921,"responses":"{\"Q0\":\"... reveal the word with as <b>few letter guesses</b> as possible\"}","question_order":"[0]","trial_type":"survey-multi-choice","trial_index":3,"time_elapsed":32706,"internal_node_id":"0.0-2.0-1.0","protocol_sum":"","subject_identifier":533,"subject_sum":[234,91,39,85,111,187,19,77,239,44,47,191,148,77,156,221,163,219,219,107,16,71,58,26,236,89,246,241,112,196,202,58],"subject_pair":266,"correct":true,"test_part":"multichoice_nonpretend","STUDY_ID":"66a3ed3c5d10d0e7d8a6b9da","PROLIFIC_PID":"662d7fba32d6a738b194d893","SESSION_ID":"66a4723c9d547cadd3c72ae5","practice_instructions":1,"leaderboard_instructions":1,"bonus":0,"reveal_word":true,"self_rating":"1","confidence":"91"},{"view_history":"[{\"page_index\":0,\"viewing_time\":1425.4000000059605}]","rt":1425.7000000178814,"trial_type":"instructions","trial_index":4,"time_elapsed":34133,"internal_node_id":"0.0-3.0","protocol_sum":"","subject_identifier":533,"subject_sum":[234,91,39,85,111,187,19,77,239,44,47,191,148,77,156,221,163,219,219,107,16,71,58,26,236,89,246,241,112,196,202,58],"subject_pair":266,"STUDY_ID":"66a3ed3c5d10d0e7d8a6b9da","PROLIFIC_PID":"662d7fba32d6a738b194d893","SESSION_ID":"66a4723c9d547cadd3c72ae5","practice_instructions":1,"leaderboard_instructions":1,"bonus":0,"reveal_word":true,"self_rating":"1","confidence":"91"},{"word":"ZEBRA","click_log":{"letter":["","B","A","R","C","O","Z","E"],"t":[0,6462.200000017881,8868.200000017881,14034.5,15450,17723.80000001192,21801.20000001788,22765.20000001788],"hit":[null,1,1,1,0,0,1,1],"asked":["","B","BA","BAR","BARC","BARCO","BARCOZ","BARCOZE"],"word_state":["_____","__B__","__B_A","__BRA","__BRA","__BRA","Z_BRA","ZEBRA"]},"hover_log":{"letter":["?","?","?","?","?","?","?","?","?","?","?","?","?","?","?","?","?","?","?","?","?","?","?","?","?","?","?","?","?","?","?","?","?","?","?","?","?","?","?","?","?","?","?","?","?","C","C","C","C","C","C","C","C","C","C","C","C","C","C","C","C","C","?","?","?","?","?","?","?","?","?","?","?","?","?","?","?","?","?","?","?","?","?","?","?","?","?","?","?","?","?","?","?","?","?","?","B","B","B","B","B","B","B","?","?","?","?","?","?","?","?","?","?","?","?","?","?","?","A","A","A","A","A","A","A","A","A","A","A","A","A","A","A","A","A","A","A","A","A","A","A","A","A","A","A","A","A","A","A","A","A","A","A","A","A","A","A","A","A","A","A","A","A","A","A","?","?","?","?","?","?","?","?","?","?","?","?","?","?","?","?","?","?","K","K","K","K","K","K","K","K","K","K","K","K","K","K","K","?","?","L","L","L","L","L","L","L","L","L","L","L","L","L","L","L","L","L","L","L","L","L","L","L","L","L","L","L","L","L","L","L","L","L","L","L","L","L","L","L","L","L","L","L","L","L","L","L","L","L","?","?","?","?","?","?","?","?","?","?","?","?","?","?","?","?","?","?","L","L","L","L","L","L","L","L","L","L","L","L","L","L","L","L","L","L","L","L","L","L","L","L","L","?","?","?","C","C","C","C","C","C","C","C","C","C","C","C","C","C","C","C","C","C","C","C","C","C","C","?","D","D","D","D","D","D","D","D","C","C","C","C","?","?","?","?","?","?","?","?","?","?","?","?","?","?","?","?","?","?","?","?","?","?","?","?","?","?","?","?","?","?","?","?","?","?","?","?","B","B","B","B","B","B","B","B","B","B","B","B","B","B","B","B","B","B","B","B","B","B","B","B","B","B","B","B","B","B","B","B","B","B","B","B","B","B","B","B","C","C","C","?","?","?","D","D","D","D","D","D","D","D","D","D","D","D","D","D","?","?","?","?","?","?","?","?","?","?","?","?","?","?","?","?","?","?","?","?","?","?","?","?","?","?","D","D","D","D","D","?","?","?","?","?","?","?","?","?","?","?","?","L","L","L","L","L","L","L","L","L","L","L","L","L","L","L","L","L","L","L","L","L","L","L","L","L","L","L","L","L","L","L","L","L","L","?","?","B","B","B","?","?","?","?","?","?","?","?","A","A","A","A","A","A","A","A","A","A","A","A","A","A","A","A","A","A","A","A","A","A","A","A","A","A","A","A","A","A","A","A","A","A","A","A","A","A","A","A","A","?","B","C","E","F","G","?","?","?","?","?","?","?","?","?","?","?","?","?","?","?","?","?","?","O","?","N","N","N","N","N","N","N","N","N","N","N","N","N","N","N","?","M","M","M","M","M","M","M","M","M","?","?","?","?","?","?","?","?","?","?","?","D","D","D","D","D","D","D","D","D","D","D","D","D","D","D","D","D","D","D","D","D","D","D","D","D","D","D","D","D","D","D","D","D","D","D","D","D","D","D","D","D","D","D","D","D","D","D","D","D","D","D","D","D","?","?","?","?","?","?","?","?","?","?","?","?","?","?","?","?","?","?","?","?","?","?","?","F","F","F","F","F","F","F","F","F","F","F","F","F","?","?","?","?","?","?","?","?","?","M","M","M","M","M","M","M","M","M","M","M","M","M","M","M","?","?","?","?","U","U","U","U","U","?","?","T","T","T","T","T","T","T","T","T","T","T","T","T","T","?","?","?","?","?","?","?","?","?","?","?","?","?","?","?","?","?","K","L","?","?","?","E","E","E","E","E","E","E","E","E","E","?","F","F","F","?","?","G","?","?","?","?","?","?","?","?","?","?","Q","Q","Q","Q","Q","Q","Q","Q","Q","?","?","R","R","R","R","R","R","R","R","R","R","R","R","R","R","R","R","R","R","R","R","R","R","R","R","R","R","R","R","R","R","R","R","R","R","R","R","R","R","R","R","R","R","R","R","R","R","R","R","R","R","R","R","R","R","?","Q","Q","P","P","P","P","P","P","P","P","P","P","P","P","P","P","P","?","?","O","?","N","N","N","M","M","?","?","?","?","C","C","C","C","C","C","C","C","C","C","C","C","C","C","C","C","C","C","C","C","C","C","C","C","C","C","C","C","C","C","C","C","?","?","?","?","?","?","?","?","N","N","N","N","N","N","N","N","N","N","N","N","N","N","N","?","?","O","O","O","O","O","O","O","O","O","O","O","O","O","O","O","O","O","O","O","O","O","O","O","O","O","O","O","O","O","O","O","O","O","O","O","O","O","O","O","O","O","?","?","?","?","?","O","O","O","O","O","O","O","O","O","O","O","O","O","O","O","O","O","O","O","O","O","O","O","O","O","O","O","O","O","O","O","O","O","O","O","O","O","O","O","O","O","O","O","O","O","O","O","O","O","O","O","O","O","O","O","O","O","O","O","O","O","O","O","O","O","O","O","O","O","O","O","O","O","O","O","O","O","O","O","O","O","O","O","O","O","O","O","O","O","O","O","O","O","O","O","O","O","O","O","O","O","O","O","O","O","O","O","O","O","O","O","O","O","O","O","O","O","O","O","O","O","O","O","O","O","O","O","O","O","O","O","O","O","O","O","O","O","O","O","O","O","O","O","O","O","O","O","O","O","O","O","O","O","O","O","O","O","O","O","O","O","O","O","O","O","O","O","O","O","O","O","O","O","O","O","O","O","O","O","O","O","O","O","O","O","O","O","O","?","N","N","N","?","?","?","?","?","?","?","?","M","M","?","?","?","?","?","?","?","?","?","?","T","T","T","T","T","T","T","T","T","?","U","U","?","?","?","?","V","?","?","?","?","?","?","?","?","?","?","?","?","W","W","W","W","W","W","W","W","W","W","W","W","W","W","W","W","W","W","W","?","X","X","Y","Y","?","Z","Z","Z","Z","Z","Z","Z","Z","Z","Z","Z","Z","Z","Z","Z","Z","Z","Z","Z","Z","Z","Z","Z","Z","Z","Z","Z","Z","Z","Z","Z","Z","Z","Z","Z","Z","Z","Z","Z","Z","Z","?","?","?","O","?","?","?","?","?","D","D","D","D","D","D","?","?","?","?","?","?","?","D","D","D","E","E","E","E","E","E","E","E","E","E","E","E","E","E","E","E","E","E","E","E","E","E","E","E","E","E","E","E","E","E","E","E","E","E","E","E","E","E","E","E","E","E","E","E","E","E","E","E","E","E","E","E","E","E","E","E","E","E","E","E","E","E","E","?","N","N","?","?","W","?","?","?","?","?","?","?","?","?","?","?","?","?","?","?","?","?","?","?","?","?","?","?","?","?","?","?","?","?","?","?","?","?","?","?","?","?","?","?","?","?","?","?","?","?","?","?","?","?","?","?","?","?","?","?","?","?","?","?","?","?","?","?","?","?","?","?","?","?","?"],"t":[29,60,94,99,117,136,152,168,185,200,216,234,250,268,283,300,317,333,349,368,385,400,418,432,451,466,484,500,517,533,550,567,584,600,617,633,651,668,685,702,716,733,750,766,783,802,818,835,851,867,884,901,917,935,951,967,984,1000,1016,1034,1050,1071,1084,1101,1117,1135,1151,1167,1184,1202,1217,1236,1250,1271,1282,1300,1316,1336,1351,1368,1384,1399,1417,1434,1451,1467,1484,1502,1516,1533,1549,1566,1583,1601,1617,1634,1651,1668,1685,1700,1719,1735,1752,1767,1784,1799,1819,1834,1851,1868,1883,1901,1916,1933,1951,1967,1985,2001,2017,2034,2051,2065,2085,2099,2115,2132,2150,2166,2183,2200,2219,2235,2251,2265,2282,2300,2316,2335,2349,2367,2384,2401,2417,2434,2450,2468,2482,2500,2517,2533,2550,2568,2582,2600,2616,2633,2650,2668,2684,2700,2718,2733,2750,2767,2784,2799,2817,2833,2849,2868,2884,2900,2917,2934,2950,2967,2983,3000,3019,3033,3048,3065,3083,3098,3115,3133,3150,3164,3180,3198,3214,3231,3248,3267,3281,3300,3315,3331,3348,3366,3383,3398,3414,3430,3448,3464,3483,3501,3515,3533,3549,3565,3581,3599,3616,3631,3649,3666,3682,3697,3715,3730,3748,3764,3783,3800,3814,3832,3848,3865,3880,3897,3916,3931,3949,3964,3982,4000,4015,4031,4047,4066,4082,4099,4114,4131,4147,4165,4182,4198,4214,4232,4250,4266,4282,4298,4316,4331,4350,4364,4383,4398,4413,4430,4449,4465,4483,4500,4520,4549,4565,4581,4598,4615,4633,4650,4663,4683,4697,4715,4732,4747,4767,4783,4798,4815,4832,4852,4866,4882,4899,4915,4931,4950,4965,4980,5000,5015,5032,5049,5066,5082,5097,5114,5132,5148,5166,5181,5200,5214,5232,5248,5266,5280,5300,5316,5331,5351,5368,5384,5398,5414,5433,5448,5464,5485,5499,5514,5532,5550,5566,5582,5601,5618,5632,5650,5666,5681,5697,5714,5730,5747,5764,5781,5799,5816,5831,5848,5864,5883,5897,5915,5933,5948,5966,5980,6000,6015,6031,6050,6064,6083,6098,6114,6132,6147,6167,6181,6197,6214,6230,6247,6267,6281,6297,6314,6333,6351,6365,6381,6399,6415,6432,6450,6466,6481,6499,6514,6532,6549,6565,6582,6599,6615,6632,6648,6666,6683,6698,6714,6731,6747,6765,6780,6798,6815,6830,6849,6866,6881,6898,6917,6930,6950,6965,6981,6999,7015,7031,7047,7066,7082,7097,7117,7131,7148,7165,7180,7199,7214,7231,7247,7264,7281,7298,7314,7330,7351,7366,7383,7400,7417,7434,7449,7465,7480,7497,7514,7532,7548,7565,7580,7600,7617,7632,7649,7666,7681,7699,7715,7733,7747,7765,7781,7797,7813,7831,7848,7864,7880,7899,7916,7932,7948,7964,7982,7998,8014,8031,8047,8064,8080,8098,8114,8130,8150,8165,8183,8199,8214,8230,8249,8265,8281,8297,8316,8331,8348,8365,8381,8401,8414,8433,8451,8464,8483,8499,8517,8532,8548,8565,8581,8598,8614,8630,8649,8664,8682,8699,8716,8732,8749,8770,8784,8798,8813,8831,8847,8863,8880,8899,8914,8932,8948,8964,8980,8998,9015,9031,9047,9064,9082,9098,9114,9131,9149,9165,9181,9197,9214,9231,9247,9265,9280,9298,9315,9330,9348,9365,9382,9396,9416,9431,9450,9464,9481,9499,9514,9530,9549,9564,9581,9597,9614,9632,9648,9664,9681,9697,9714,9731,9749,9764,9780,9800,9815,9831,9847,9864,9881,9897,9914,9931,9947,9966,9981,9998,10016,10031,10048,10065,10081,10098,10114,10130,10152,10165,10180,10198,10214,10232,10249,10264,10280,10298,10314,10330,10347,10364,10381,10398,10414,10431,10450,10464,10482,10499,10515,10531,10547,10564,10580,10598,10614,10632,10647,10664,10682,10698,10714,10732,10747,10764,10780,10798,10815,10832,10848,10864,10880,10898,10913,10930,10948,10963,10982,10998,11014,11032,11047,11065,11082,11097,11114,11132,11148,11164,11181,11197,11214,11233,11247,11266,11283,11298,11315,11333,11348,11363,11381,11397,11414,11432,11447,11464,11481,11497,11513,11532,11548,11564,11583,11597,11614,11631,11648,11665,11682,11697,11714,11731,11747,11765,11780,11797,11814,11831,11847,11864,11881,11897,11914,11931,11948,11965,11980,11997,12013,12032,12048,12066,12082,12097,12114,12131,12147,12164,12181,12197,12214,12230,12248,12264,12280,12296,12316,12332,12348,12368,12382,12399,12416,12432,12449,12465,12481,12498,12513,12531,12549,12564,12580,12599,12614,12631,12647,12665,12682,12697,12714,12731,12747,12764,12780,12798,12814,12830,12849,12865,12881,12897,12914,12929,12947,12971,13000,13014,13031,13047,13063,13084,13098,13115,13131,13148,13164,13182,13199,13213,13230,13247,13265,13280,13296,13313,13330,13348,13365,13382,13398,13415,13431,13447,13464,13481,13498,13514,13530,13548,13563,13583,13600,13615,13630,13649,13664,13681,13699,13713,13732,13748,13765,13780,13798,13814,13830,13848,13865,13882,13899,13914,13931,13948,13965,13980,13997,14014,14030,14048,14065,14081,14098,14115,14131,14147,14164,14180,14198,14214,14231,14247,14265,14280,14297,14314,14329,14349,14364,14380,14399,14415,14430,14448,14465,14481,14498,14515,14532,14548,14565,14581,14598,14616,14630,14648,14664,14681,14697,14714,14732,14749,14764,14781,14797,14815,14831,14849,14864,14881,14900,14915,14932,14947,14967,14981,14997,15014,15031,15048,15065,15080,15097,15114,15132,15148,15165,15182,15198,15214,15231,15247,15264,15280,15297,15314,15331,15348,15366,15380,15401,15413,15430,15449,15470,15481,15498,15517,15533,15549,15564,15581,15600,15614,15632,15648,15665,15683,15699,15716,15731,15749,15765,15790,15814,15830,15848,15865,15880,15899,15914,15930,15948,15965,15981,15997,16014,16031,16049,16064,16081,16097,16115,16131,16147,16164,16180,16199,16214,16231,16248,16264,16282,16298,16315,16331,16347,16365,16382,16398,16414,16430,16447,16464,16480,16497,16514,16531,16547,16564,16581,16597,16615,16630,16647,16664,16680,16697,16715,16732,16748,16764,16782,16799,16814,16831,16847,16865,16881,16898,16914,16933,16949,16966,16981,16999,17015,17031,17048,17064,17081,17098,17114,17132,17148,17164,17180,17203,17230,17247,17265,17281,17297,17314,17332,17348,17364,17381,17400,17415,17430,17447,17465,17482,17497,17515,17531,17548,17565,17581,17597,17615,17631,17647,17664,17681,17697,17714,17731,17750,17764,17781,17797,17814,17830,17849,17864,17881,17897,17934,17967,17980,17996,18015,18031,18047,18064,18081,18098,18114,18130,18147,18164,18180,18198,18214,18230,18247,18265,18280,18298,18314,18331,18347,18364,18381,18398,18415,18432,18447,18463,18480,18497,18513,18531,18547,18565,18582,18597,18615,18631,18647,18663,18685,18698,18713,18730,18748,18764,18780,18798,18815,18830,18848,18863,18881,18897,18914,18930,18948,18965,18980,18997,19015,19030,19047,19064,19081,19098,19113,19131,19148,19164,19180,19198,19215,19232,19248,19264,19281,19298,19313,19330,19348,19365,19382,19397,19414,19430,19448,19463,19481,19498,19514,19531,19547,19563,19580,19598,19613,19630,19647,19664,19681,19697,19713,19730,19747,19763,19781,19798,19815,19830,19846,19863,19879,19896,19914,19931,19948,19964,19980,19997,20014,20031,20046,20066,20082,20099,20119,20131,20147,20163,20180,20197,20214,20230,20247,20264,20280,20296,20313,20330,20349,20366,20380,20398,20414,20430,20447,20465,20480,20497,20514,20531,20546,20564,20582,20597,20614,20630,20647,20664,20680,20697,20714,20731,20748,20765,20780,20797,20814,20830,20847,20864,20880,20898,20916,20933,20948,20964,20994,21015,21031,21046,21064,21080,21098,21115,21131,21149,21166,21182,21199,21214,21231,21249,21265,21281,21297,21314,21330,21347,21365,21381,21398,21415,21434,21449,21465,21481,21498,21515,21531,21548,21563,21580,21597,21613,21632,21647,21664,21681,21697,21715,21732,21747,21764,21781,21798,21813,21830,21847,21863,21880,21898,21913,21932,21948,21964,21981,21997,22015,22031,22048,22063,22080,22097,22114,22130,22149,22165,22182,22199,22214,22230,22248,22264,22280,22298,22314,22331,22347,22364,22380,22398,22415,22433,22450,22465,22481,22497,22513,22530,22547,22565,22581,22596,22613,22631,22646,22663,22683,22699,22713,22732,22748,22763,22784,22799,22815,22836,22865,22882,22898,22914,22931,22947,22964,22980,22997,23014,23030,23047,23064,23080,23097,23114,23131,23148,23165,23182,23199,23215,23231,23247,23264,23282,23297,23314,23332,23347,23365,23380,23397,23416,23432,23448,23465,23482,23498,23514,23533,23548,23565,23580,23598,23613,23630,23648,23664,23682,23698,23715,23732,23748,23764,23782,23799,23814,23831,23847,23864,23882,23897,23915,23930,23947,23964,23980,23997,24014,24030,24047,24064,24081,24097,24114,24132,24147,24165,24182,24197,24214,24232,24250,24266,24280,24298,24314,24331,24347,24365,24381,24398,24414,24432,24448,24464,24482,24497,24514,24530,24547,24564,24581,24598,24615,24630,24647,24664,24682,24698,24714,24731,24748,24763,24784],"hit":[null],"x":[-1.8775510204081634,-1.8775510204081634,-1.8775510204081634,-1.8775510204081634,-1.8775510204081634,-1.8775510204081634,-1.8775510204081634,-1.8775510204081634,-1.8775510204081634,-1.8775510204081634,-1.8775510204081634,-1.8775510204081634,-1.8775510204081634,-1.8775510204081634,-1.8775510204081634,-1.8775510204081634,-1.8775510204081634,-1.8775510204081634,-1.8775510204081634,-1.8775510204081634,-1.8775510204081634,-1.8775510204081634,-1.8775510204081634,-1.8775510204081634,-1.8775510204081634,-1.8775510204081634,-1.8775510204081634,-1.8775510204081634,-1.8775510204081634,-1.8775510204081634,-1.8775510204081634,-1.8775510204081634,-1.8775510204081634,-1.8775510204081634,-1.8775510204081634,-1.8775510204081634,-1.8775510204081634,-1.8775510204081634,-1.8775510204081634,0,0.02040816326530612,0.06802721088435375,0.11564625850340136,0.17346938775510204,0.21428571428571427,0.24149659863945577,0.2653061224489796,0.2755102040816326,0.2789115646258503,0.2789115646258503,0.2789115646258503,0.2789115646258503,0.2789115646258503,0.2789115646258503,0.2789115646258503,0.2789115646258503,0.2789115646258503,0.2789115646258503,0.2789115646258503,0.2789115646258503,0.2789115646258503,0.2789115646258503,0.2789115646258503,0.2789115646258503,0.2857142857142857,0.29591836734693877,0.30272108843537415,0.30612244897959184,0.30952380952380953,0.30952380952380953,0.30952380952380953,0.30272108843537415,0.2653061224489796,0.23129251700680273,0.20068027210884354,0.18027210884353742,0.16666666666666666,0.1598639455782313,0.1564625850340136,0.1564625850340136,0.1564625850340136,0.1564625850340136,0.1564625850340136,0.1564625850340136,0.1564625850340136,0.1564625850340136,0.1564625850340136,0.1564625850340136,0.1564625850340136,0.1564625850340136,0.1564625850340136,0.1564625850340136,0.1564625850340136,0.1564625850340136,0.1564625850340136,0.15306122448979592,0.14625850340136054,0.1360544217687075,0.12585034013605442,0.11224489795918367,0.09863945578231292,0.09523809523809523,0.08843537414965986,0.08503401360544217,0.08163265306122448,0.0782312925170068,0.07482993197278912,0.07482993197278912,0.07482993197278912,0.07482993197278912,0.07482993197278912,0.07482993197278912,0.07482993197278912,0.07482993197278912,0.07482993197278912,0.07142857142857142,0.06462585034013606,0.061224489795918366,0.05442176870748299,0.05102040816326531,0.047619047619047616,0.04421768707482993,0.03741496598639456,0.030612244897959183,0.023809523809523808,0.017006802721088437,0.013605442176870748,0.01020408163265306,0.01020408163265306,0.01020408163265306,0.01020408163265306,0.01020408163265306,0.01020408163265306,0.01020408163265306,0.01020408163265306,0.01020408163265306,0.01020408163265306,0.01020408163265306,0.01020408163265306,0.01020408163265306,0.01020408163265306,0.01020408163265306,0.01020408163265306,0.01020408163265306,0.01020408163265306,0.01020408163265306,0.01020408163265306,0.01020408163265306,0.01020408163265306,0.01020408163265306,0.01020408163265306,0.01020408163265306,0.01020408163265306,0.01020408163265306,0.01020408163265306,0.01020408163265306,0.01020408163265306,0.01020408163265306,0.01020408163265306,0.01020408163265306,0.01020408163265306,0.013605442176870748,0.023809523809523808,0.034013605442176874,0.04421768707482993,0.061224489795918366,0.07142857142857142,0.0782312925170068,0.08163265306122448,0.08163265306122448,0.08163265306122448,0.08163265306122448,0.08163265306122448,0.08163265306122448,0.08163265306122448,0.08163265306122448,0.08163265306122448,0.08163265306122448,0.08163265306122448,0.08163265306122448,0.09183673469387756,0.12244897959183673,0.13945578231292516,0.1598639455782313,0.17346938775510204,0.18027210884353742,0.1870748299319728,0.1870748299319728,0.1870748299319728,0.1870748299319728,0.1870748299319728,0.1870748299319728,0.1870748299319728,0.1870748299319728,0.1870748299319728,0.1870748299319728,0.1870748299319728,0.19047619047619047,0.20408163265306123,0.22108843537414966,0.23809523809523808,0.2585034013605442,0.2687074829931973,0.2755102040816326,0.2789115646258503,0.282312925170068,0.282312925170068,0.2857142857142857,0.2857142857142857,0.2857142857142857,0.2857142857142857,0.2857142857142857,0.2857142857142857,0.2857142857142857,0.2857142857142857,0.2857142857142857,0.2857142857142857,0.2857142857142857,0.2857142857142857,0.2857142857142857,0.2857142857142857,0.2857142857142857,0.2857142857142857,0.2857142857142857,0.2857142857142857,0.2857142857142857,0.2857142857142857,0.2857142857142857,0.282312925170068,0.2789115646258503,0.2755102040816326,0.2755102040816326,0.272108843537415,0.272108843537415,0.272108843537415,0.272108843537415,0.272108843537415,0.272108843537415,0.272108843537415,0.272108843537415,0.272108843537415,0.272108843537415,0.272108843537415,0.272108843537415,0.272108843537415,0.272108843537415,0.272108843537415,0.272108843537415,0.272108843537415,0.272108843537415,0.272108843537415,0.272108843537415,0.272108843537415,0.272108843537415,0.2755102040816326,0.2755102040816326,0.2755102040816326,0.2755102040816326,0.2755102040816326,0.2755102040816326,0.2755102040816326,0.2755102040816326,0.2755102040816326,0.2755102040816326,0.2755102040816326,0.2755102040816326,0.2755102040816326,0.2755102040816326,0.2755102040816326,0.2755102040816326,0.2755102040816326,0.2755102040816326,0.2755102040816326,0.2755102040816326,0.2755102040816326,0.2755102040816326,0.2755102040816326,0.2755102040816326,0.2755102040816326,0.2755102040816326,0.2755102040816326,0.2755102040816326,0.2755102040816326,0.2755102040816326,0.2755102040816326,0.2789115646258503,0.2789115646258503,0.282312925170068,0.2857142857142857,0.2891156462585034,0.29591836734693877,0.30612244897959184,0.3129251700680272,0.3163265306122449,0.3231292517006803,0.32653061224489793,0.32653061224489793,0.32653061224489793,0.32653061224489793,0.32653061224489793,0.3197278911564626,0.3129251700680272,0.30952380952380953,0.30612244897959184,0.30272108843537415,0.30272108843537415,0.30272108843537415,0.30272108843537415,0.30272108843537415,0.30272108843537415,0.30272108843537415,0.30272108843537415,0.30612244897959184,0.30952380952380953,0.3163265306122449,0.3197278911564626,0.32653061224489793,0.3333333333333333,0.3469387755102041,0.3741496598639456,0.391156462585034,0.40476190476190477,0.41496598639455784,0.41496598639455784,0.41836734693877553,0.4013605442176871,0.3707482993197279,0.32653061224489793,0.2857142857142857,0.2619047619047619,0.23809523809523808,0.22789115646258504,0.22108843537414966,0.22108843537414966,0.22108843537414966,0.22108843537414966,0.22108843537414966,0.22108843537414966,0.22108843537414966,0.22108843537414966,0.22108843537414966,0.22108843537414966,0.22108843537414966,0.22108843537414966,0.22108843537414966,0.22108843537414966,0.22108843537414966,0.22108843537414966,0.22108843537414966,0.22108843537414966,0.22108843537414966,0.22108843537414966,0.22108843537414966,0.22108843537414966,0.22108843537414966,0.22108843537414966,0.22108843537414966,0.22108843537414966,0.22108843537414966,0.22108843537414966,0.22108843537414966,0.22108843537414966,0.22108843537414966,0.22108843537414966,0.21428571428571427,0.20748299319727892,0.20068027210884354,0.19727891156462585,0.19387755102040816,0.19047619047619047,0.19047619047619047,0.19047619047619047,0.19047619047619047,0.19047619047619047,0.19047619047619047,0.1870748299319728,0.18027210884353742,0.17687074829931973,0.17346938775510204,0.17346938775510204,0.17006802721088435,0.17006802721088435,0.17006802721088435,0.17006802721088435,0.17006802721088435,0.17006802721088435,0.17006802721088435,0.17006802721088435,0.17006802721088435,0.17006802721088435,0.17006802721088435,0.17006802721088435,0.17006802721088435,0.17006802721088435,0.17006802721088435,0.17006802721088435,0.17006802721088435,0.17006802721088435,0.17006802721088435,0.17006802721088435,0.17006802721088435,0.17006802721088435,0.17006802721088435,0.17006802721088435,0.17006802721088435,0.17346938775510204,0.19387755102040816,0.23809523809523808,0.2789115646258503,0.3129251700680272,0.3469387755102041,0.36394557823129253,0.3741496598639456,0.38095238095238093,0.391156462585034,0.3979591836734694,0.41156462585034015,0.42517006802721086,0.4387755102040816,0.4523809523809524,0.45918367346938777,0.46598639455782315,0.46938775510204084,0.47278911564625853,0.47959183673469385,0.47959183673469385,0.48299319727891155,0.48639455782312924,0.4897959183673469,0.4931972789115646,0.4965986394557823,0.4965986394557823,0.4965986394557823,0.4965986394557823,0.4965986394557823,0.4965986394557823,0.4965986394557823,0.4965986394557823,0.4965986394557823,0.4965986394557823,0.4965986394557823,0.4965986394557823,0.4965986394557823,0.4965986394557823,0.4965986394557823,0.4965986394557823,0.4965986394557823,0.4965986394557823,0.4965986394557823,0.4965986394557823,0.4965986394557823,0.48639455782312924,0.47619047619047616,0.45918367346938777,0.4421768707482993,0.42517006802721086,0.40816326530612246,0.3945578231292517,0.38095238095238093,0.3741496598639456,0.3673469387755102,0.35374149659863946,0.3469387755102041,0.3401360544217687,0.336734693877551,0.3333333333333333,0.3299319727891156,0.3299319727891156,0.3299319727891156,0.3299319727891156,0.3299319727891156,0.3299319727891156,0.32653061224489793,0.3231292517006803,0.3163265306122449,0.3129251700680272,0.30612244897959184,0.29931972789115646,0.2925170068027211,0.2857142857142857,0.2789115646258503,0.2755102040816326,0.272108843537415,0.2687074829931973,0.2687074829931973,0.2687074829931973,0.2687074829931973,0.2687074829931973,0.2687074829931973,0.2687074829931973,0.2687074829931973,0.2687074829931973,0.2687074829931973,0.2687074829931973,0.2687074829931973,0.2687074829931973,0.2687074829931973,0.2687074829931973,0.2687074829931973,0.2687074829931973,0.2687074829931973,0.2687074829931973,0.2585034013605442,0.23129251700680273,0.19047619047619047,0.1598639455782313,0.12585034013605442,0.1054421768707483,0.08503401360544217,0.0782312925170068,0.07482993197278912,0.07142857142857142,0.07142857142857142,0.07142857142857142,0.07142857142857142,0.06802721088435375,0.061224489795918366,0.05102040816326531,0.04081632653061224,0.030612244897959183,0.027210884353741496,0.023809523809523808,0.02040816326530612,0.017006802721088437,0.017006802721088437,0.017006802721088437,0.017006802721088437,0.017006802721088437,0.017006802721088437,0.017006802721088437,0.017006802721088437,0.017006802721088437,0.017006802721088437,0.017006802721088437,0.017006802721088437,0.017006802721088437,0.017006802721088437,0.017006802721088437,0.017006802721088437,0.017006802721088437,0.017006802721088437,0.017006802721088437,0.017006802721088437,0.017006802721088437,0.017006802721088437,0.017006802721088437,0.017006802721088437,0.017006802721088437,0.017006802721088437,0.017006802721088437,0.017006802721088437,0.017006802721088437,0.017006802721088437,0.017006802721088437,0.017006802721088437,0.017006802721088437,0.017006802721088437,0.034013605442176874,0.06462585034013606,0.17687074829931973,0.3197278911564626,0.5306122448979592,0.6938775510204082,0.8673469387755102,0.9183673469387755,1.0238095238095237,1.0238095238095237,1.0238095238095237,1.0238095238095237,1.0238095238095237,1.0238095238095237,1.0238095238095237,1.0238095238095237,1.0238095238095237,1.0238095238095237,1.0238095238095237,1.0238095238095237,0.9965986394557823,0.9693877551020408,0.9285714285714286,0.8639455782312925,0.7755102040816326,0.717687074829932,0.6530612244897959,0.6292517006802721,0.6020408163265306,0.6020408163265306,0.6020408163265306,0.6020408163265306,0.6020408163265306,0.6020408163265306,0.6020408163265306,0.6020408163265306,0.6020408163265306,0.6020408163265306,0.6020408163265306,0.5816326530612245,0.5510204081632653,0.5204081632653061,0.4965986394557823,0.47959183673469385,0.4523809523809524,0.43197278911564624,0.42857142857142855,0.42517006802721086,0.42517006802721086,0.42517006802721086,0.42857142857142855,0.43537414965986393,0.4421768707482993,0.4489795918367347,0.4523809523809524,0.4557823129251701,0.45918367346938777,0.45918367346938777,0.45918367346938777,0.45918367346938777,0.45918367346938777,0.45918367346938777,0.45918367346938777,0.4557823129251701,0.4489795918367347,0.445578231292517,0.4387755102040816,0.43537414965986393,0.43197278911564624,0.43197278911564624,0.43197278911564624,0.43197278911564624,0.43197278911564624,0.43197278911564624,0.43197278911564624,0.43197278911564624,0.43197278911564624,0.43197278911564624,0.43197278911564624,0.43197278911564624,0.43197278911564624,0.43197278911564624,0.43197278911564624,0.43197278911564624,0.43197278911564624,0.43197278911564624,0.43197278911564624,0.43197278911564624,0.43197278911564624,0.43197278911564624,0.43197278911564624,0.43197278911564624,0.43197278911564624,0.43197278911564624,0.43197278911564624,0.43197278911564624,0.43197278911564624,0.43197278911564624,0.43197278911564624,0.43197278911564624,0.43197278911564624,0.43197278911564624,0.43197278911564624,0.43197278911564624,0.43197278911564624,0.43197278911564624,0.43197278911564624,0.43197278911564624,0.43197278911564624,0.43197278911564624,0.43197278911564624,0.43197278911564624,0.43197278911564624,0.43197278911564624,0.43197278911564624,0.4421768707482993,0.46938775510204084,0.5102040816326531,0.5612244897959183,0.6292517006802721,0.6768707482993197,0.7108843537414966,0.7448979591836735,0.7448979591836735,0.7448979591836735,0.7448979591836735,0.7448979591836735,0.7448979591836735,0.7448979591836735,0.7448979591836735,0.7448979591836735,0.7448979591836735,0.7448979591836735,0.7448979591836735,0.7448979591836735,0.7448979591836735,0.7346938775510204,0.7244897959183674,0.7108843537414966,0.6938775510204082,0.6802721088435374,0.6768707482993197,0.673469387755102,0.6700680272108843,0.6700680272108843,0.6700680272108843,0.6700680272108843,0.6700680272108843,0.6802721088435374,0.6870748299319728,0.6904761904761905,0.6938775510204082,0.6938775510204082,0.6938775510204082,0.6768707482993197,0.6360544217687075,0.5986394557823129,0.564625850340136,0.5340136054421769,0.5068027210884354,0.4897959183673469,0.46938775510204084,0.4557823129251701,0.445578231292517,0.4387755102040816,0.4387755102040816,0.43537414965986393,0.43537414965986393,0.43537414965986393,0.43537414965986393,0.43197278911564624,0.42857142857142855,0.42517006802721086,0.4217687074829932,0.41496598639455784,0.40816326530612246,0.3945578231292517,0.38095238095238093,0.36394557823129253,0.3401360544217687,0.3129251700680272,0.282312925170068,0.272108843537415,0.25170068027210885,0.23469387755102042,0.22108843537414966,0.2108843537414966,0.19387755102040816,0.18027210884353742,0.16666666666666666,0.14965986394557823,0.13945578231292516,0.1292517006802721,0.11904761904761904,0.11224489795918367,0.1054421768707483,0.10204081632653061,0.09863945578231292,0.09863945578231292,0.09523809523809523,0.09183673469387756,0.08843537414965986,0.08503401360544217,0.08503401360544217,0.08843537414965986,0.10884353741496598,0.10884353741496598,0.10884353741496598,0.10884353741496598,0.10884353741496598,0.10884353741496598,0.10884353741496598,0.10884353741496598,0.10884353741496598,0.10884353741496598,0.10884353741496598,0.10884353741496598,0.10884353741496598,0.17346938775510204,0.25510204081632654,0.35714285714285715,0.43197278911564624,0.5034013605442177,0.5408163265306123,0.5748299319727891,0.5918367346938775,0.6020408163265306,0.6054421768707483,0.608843537414966,0.6122448979591837,0.6122448979591837,0.6190476190476191,0.6292517006802721,0.6462585034013606,0.6700680272108843,0.7006802721088435,0.7278911564625851,0.7653061224489796,0.7993197278911565,0.8333333333333334,0.8503401360544217,0.8741496598639455,0.8877551020408163,0.8979591836734694,0.9047619047619048,0.9183673469387755,0.9217687074829932,0.935374149659864,0.9455782312925171,0.9489795918367347,0.9523809523809523,0.9523809523809523,0.95578231292517,0.9591836734693877,0.9659863945578231,0.9795918367346939,1,1.0272108843537415,1.0476190476190477,1.0680272108843538,1.0850340136054422,1.08843537414966,1.0918367346938775,1.0952380952380953,1.0952380952380953,1.0952380952380953,1.0952380952380953,1.098639455782313,1.1054421768707483,1.119047619047619,1.129251700680272,1.1428571428571428,1.1462585034013606,1.1496598639455782,1.153061224489796,1.153061224489796,1.153061224489796,1.153061224489796,1.153061224489796,1.153061224489796,1.153061224489796,1.153061224489796,1.153061224489796,1.153061224489796,1.153061224489796,1.153061224489796,1.153061224489796,1.153061224489796,1.153061224489796,1.153061224489796,1.153061224489796,1.153061224489796,1.153061224489796,1.153061224489796,1.153061224489796,1.153061224489796,1.153061224489796,1.153061224489796,1.153061224489796,1.153061224489796,1.153061224489796,1.153061224489796,1.153061224489796,1.153061224489796,1.153061224489796,1.153061224489796,1.153061224489796,1.153061224489796,1.153061224489796,1.153061224489796,1.153061224489796,1.153061224489796,1.153061224489796,1.1496598639455782,1.119047619047619,1.0782312925170068,1,0.9489795918367347,0.8945578231292517,0.8673469387755102,0.8469387755102041,0.8333333333333334,0.8299319727891157,0.8299319727891157,0.8299319727891157,0.8299319727891157,0.8299319727891157,0.8299319727891157,0.8299319727891157,0.8299319727891157,0.8299319727891157,0.8299319727891157,0.826530612244898,0.7959183673469388,0.7585034013605442,0.7074829931972789,0.6462585034013606,0.5748299319727891,0.5578231292517006,0.5136054421768708,0.47278911564625853,0.42857142857142855,0.3877551020408163,0.36394557823129253,0.336734693877551,0.3231292517006803,0.3197278911564626,0.3163265306122449,0.3129251700680272,0.3129251700680272,0.3129251700680272,0.3129251700680272,0.3129251700680272,0.30612244897959184,0.30272108843537415,0.29591836734693877,0.2925170068027211,0.2891156462585034,0.2857142857142857,0.2857142857142857,0.2857142857142857,0.2857142857142857,0.2857142857142857,0.2857142857142857,0.2857142857142857,0.2857142857142857,0.2857142857142857,0.2857142857142857,0.2857142857142857,0.2857142857142857,0.2857142857142857,0.2857142857142857,0.2857142857142857,0.2857142857142857,0.2857142857142857,0.2857142857142857,0.29591836734693877,0.3197278911564626,0.3469387755102041,0.3741496598639456,0.42517006802721086,0.4489795918367347,0.47619047619047616,0.5034013605442177,0.5238095238095238,0.5408163265306123,0.564625850340136,0.5714285714285714,0.5748299319727891,0.5782312925170068,0.5816326530612245,0.5850340136054422,0.5850340136054422,0.5884353741496599,0.5884353741496599,0.5884353741496599,0.5884353741496599,0.5918367346938775,0.5952380952380952,0.6020408163265306,0.6190476190476191,0.6326530612244898,0.6496598639455783,0.6632653061224489,0.6768707482993197,0.6870748299319728,0.6938775510204082,0.6972789115646258,0.7006802721088435,0.7006802721088435,0.7006802721088435,0.7006802721088435,0.7006802721088435,0.7006802721088435,0.7006802721088435,0.7006802721088435,0.7006802721088435,0.7006802721088435,0.7006802721088435,0.7006802721088435,0.7006802721088435,0.7006802721088435,0.7006802721088435,0.7006802721088435,0.7006802721088435,0.7006802721088435,0.7006802721088435,0.7006802721088435,0.7006802721088435,0.7006802721088435,0.7006802721088435,0.7006802721088435,0.7006802721088435,0.7006802721088435,0.7006802721088435,0.7006802721088435,0.7006802721088435,0.7006802721088435,0.6972789115646258,0.6904761904761905,0.6836734693877551,0.673469387755102,0.6666666666666666,0.6598639455782312,0.6564625850340136,0.6564625850340136,0.6564625850340136,0.6564625850340136,0.6564625850340136,0.6598639455782312,0.6666666666666666,0.6802721088435374,0.6972789115646258,0.7108843537414966,0.7210884353741497,0.7346938775510204,0.7380952380952381,0.7414965986394558,0.7414965986394558,0.7414965986394558,0.7414965986394558,0.7414965986394558,0.7414965986394558,0.7414965986394558,0.7414965986394558,0.7414965986394558,0.7414965986394558,0.7414965986394558,0.7414965986394558,0.7414965986394558,0.7414965986394558,0.7414965986394558,0.7414965986394558,0.7414965986394558,0.7414965986394558,0.7414965986394558,0.7414965986394558,0.7414965986394558,0.7414965986394558,0.7414965986394558,0.7414965986394558,0.7414965986394558,0.7414965986394558,0.7414965986394558,0.7414965986394558,0.7414965986394558,0.7414965986394558,0.7414965986394558,0.7414965986394558,0.7414965986394558,0.7414965986394558,0.7414965986394558,0.7414965986394558,0.7414965986394558,0.7414965986394558,0.7414965986394558,0.7414965986394558,0.7414965986394558,0.7414965986394558,0.7414965986394558,0.7414965986394558,0.7414965986394558,0.7414965986394558,0.7414965986394558,0.7414965986394558,0.7414965986394558,0.7414965986394558,0.7414965986394558,0.7414965986394558,0.7414965986394558,0.7414965986394558,0.7414965986394558,0.7414965986394558,0.7414965986394558,0.7414965986394558,0.7414965986394558,0.7414965986394558,0.7414965986394558,0.7414965986394558,0.7414965986394558,0.7414965986394558,0.7414965986394558,0.7414965986394558,0.7414965986394558,0.7414965986394558,0.7414965986394558,0.7414965986394558,0.7414965986394558,0.7414965986394558,0.7414965986394558,0.7414965986394558,0.7414965986394558,0.7414965986394558,0.7414965986394558,0.7414965986394558,0.7414965986394558,0.7414965986394558,0.7414965986394558,0.7414965986394558,0.7414965986394558,0.7414965986394558,0.7414965986394558,0.7414965986394558,0.7414965986394558,0.7414965986394558,0.7414965986394558,0.7414965986394558,0.7414965986394558,0.7414965986394558,0.7414965986394558,0.7414965986394558,0.7414965986394558,0.7414965986394558,0.7414965986394558,0.7414965986394558,0.7414965986394558,0.7414965986394558,0.7414965986394558,0.7414965986394558,0.7414965986394558,0.7414965986394558,0.7414965986394558,0.7414965986394558,0.7414965986394558,0.7414965986394558,0.7414965986394558,0.7414965986394558,0.7414965986394558,0.7414965986394558,0.7414965986394558,0.7414965986394558,0.7414965986394558,0.7414965986394558,0.7414965986394558,0.7414965986394558,0.7414965986394558,0.7414965986394558,0.7414965986394558,0.7414965986394558,0.7414965986394558,0.7414965986394558,0.7414965986394558,0.7414965986394558,0.7414965986394558,0.7414965986394558,0.7414965986394558,0.7414965986394558,0.7414965986394558,0.7414965986394558,0.7414965986394558,0.7414965986394558,0.7414965986394558,0.7414965986394558,0.7414965986394558,0.7414965986394558,0.7414965986394558,0.7414965986394558,0.7414965986394558,0.7414965986394558,0.7414965986394558,0.7414965986394558,0.7414965986394558,0.7414965986394558,0.7414965986394558,0.7414965986394558,0.7414965986394558,0.7414965986394558,0.7414965986394558,0.7414965986394558,0.7414965986394558,0.7414965986394558,0.7414965986394558,0.7414965986394558,0.7414965986394558,0.7414965986394558,0.7414965986394558,0.7414965986394558,0.7414965986394558,0.7414965986394558,0.7414965986394558,0.7414965986394558,0.7414965986394558,0.7414965986394558,0.7414965986394558,0.7414965986394558,0.7414965986394558,0.7414965986394558,0.7414965986394558,0.7414965986394558,0.7414965986394558,0.7414965986394558,0.7414965986394558,0.7414965986394558,0.7414965986394558,0.7312925170068028,0.7074829931972789,0.6768707482993197,0.6496598639455783,0.6122448979591837,0.5714285714285714,0.54421768707483,0.5102040816326531,0.5034013605442177,0.4965986394557823,0.4931972789115646,0.4897959183673469,0.48639455782312924,0.48299319727891155,0.47619047619047616,0.45918367346938777,0.43537414965986393,0.4013605442176871,0.36054421768707484,0.3231292517006803,0.2891156462585034,0.2585034013605442,0.23809523809523808,0.21768707482993196,0.20068027210884354,0.19047619047619047,0.17687074829931973,0.17006802721088435,0.16326530612244897,0.15306122448979592,0.14625850340136054,0.14285714285714285,0.13945578231292516,0.13945578231292516,0.13945578231292516,0.14625850340136054,0.19047619047619047,0.2687074829931973,0.30612244897959184,0.35374149659863946,0.37755102040816324,0.3945578231292517,0.40816326530612246,0.43197278911564624,0.47619047619047616,0.4965986394557823,0.5102040816326531,0.5204081632653061,0.5238095238095238,0.5272108843537415,0.5306122448979592,0.5340136054421769,0.5374149659863946,0.5374149659863946,0.5374149659863946,0.5408163265306123,0.54421768707483,0.5544217687074829,0.5680272108843537,0.5986394557823129,0.6122448979591837,0.6122448979591837,0.6156462585034014,0.6122448979591837,0.5986394557823129,0.5816326530612245,0.5680272108843537,0.5578231292517006,0.54421768707483,0.5374149659863946,0.5306122448979592,0.5272108843537415,0.5272108843537415,0.5272108843537415,0.5476190476190477,0.6326530612244898,0.7074829931972789,0.7687074829931972,0.8367346938775511,0.891156462585034,0.9319727891156463,0.9591836734693877,0.9897959183673469,1.0068027210884354,1.0204081632653061,1.030612244897959,1.030612244897959,1.034013605442177,1.034013605442177,1.0374149659863945,1.0408163265306123,1.0408163265306123,1.0408163265306123,1.0442176870748299,1.0442176870748299,1.0442176870748299,1.034013605442177,1.0204081632653061,1.010204081632653,1.0034013605442176,0.9965986394557823,0.9931972789115646,0.9931972789115646,0.9931972789115646,0.9931972789115646,0.9931972789115646,0.9931972789115646,0.9931972789115646,0.9931972789115646,0.9931972789115646,0.9931972789115646,0.9931972789115646,0.9931972789115646,0.9931972789115646,0.9931972789115646,0.9931972789115646,0.9931972789115646,0.9931972789115646,0.9931972789115646,0.9931972789115646,0.9931972789115646,0.9761904761904762,0.9489795918367347,0.8945578231292517,0.8027210884353742,0.7346938775510204,0.6598639455782312,0.5986394557823129,0.5476190476190477,0.5068027210884354,0.46598639455782315,0.4421768707482993,0.41836734693877553,0.4013605442176871,0.3877551020408163,0.37755102040816324,0.3707482993197279,0.36394557823129253,0.36394557823129253,0.36394557823129253,0.36394557823129253,0.36394557823129253,0.36394557823129253,0.3673469387755102,0.3843537414965986,0.42857142857142855,0.48639455782312924,0.5136054421768708,0.5510204081632653,0.5680272108843537,0.5748299319727891,0.5748299319727891,0.5748299319727891,0.5748299319727891,0.5748299319727891,0.5748299319727891,0.5748299319727891,0.5714285714285714,0.5714285714285714,0.5680272108843537,0.5680272108843537,0.5680272108843537,0.5680272108843537,0.5680272108843537,0.5680272108843537,0.5680272108843537,0.5680272108843537,0.5680272108843537,0.5680272108843537,0.5680272108843537,0.5680272108843537,0.5680272108843537,0.5680272108843537,0.5680272108843537,0.5680272108843537,0.5680272108843537,0.5680272108843537,0.5680272108843537,0.5680272108843537,0.5680272108843537,0.5680272108843537,0.5680272108843537,0.5680272108843537,0.5680272108843537,0.5680272108843537,0.5680272108843537,0.5680272108843537,0.5680272108843537,0.5680272108843537,0.5680272108843537,0.5680272108843537,0.5680272108843537,0.5680272108843537,0.5680272108843537,0.5680272108843537,0.5680272108843537,0.5680272108843537,0.5680272108843537,0.5680272108843537,0.5680272108843537,0.5680272108843537,0.5680272108843537,0.5680272108843537,0.5680272108843537,0.5680272108843537,0.5680272108843537,0.5680272108843537,0.5680272108843537,0.5680272108843537,0.5680272108843537,0.5714285714285714,0.5748299319727891,0.5884353741496599,0.5986394557823129,0.6122448979591837,0.6258503401360545,0.6394557823129252,0.6496598639455783,0.6598639455782312,0.6598639455782312,0.6598639455782312,0.6598639455782312,0.6598639455782312,0.6598639455782312,0.6598639455782312,0.6598639455782312,0.6598639455782312,0.6598639455782312,0.6598639455782312,0.6598639455782312,0.6598639455782312,0.6598639455782312,0.6598639455782312,0.6598639455782312,0.6598639455782312,0.6598639455782312,0.6598639455782312,0.6598639455782312,0.6598639455782312,0.6598639455782312,0.6598639455782312,0.6598639455782312,0.6598639455782312,0.6598639455782312,0.6598639455782312,0.6598639455782312,0.6598639455782312,0.6598639455782312,0.6598639455782312,0.6598639455782312,0.6598639455782312,0.6598639455782312,0.6598639455782312,0.6598639455782312,0.6598639455782312,0.6598639455782312,0.6598639455782312,0.6598639455782312,0.6598639455782312,0.6598639455782312,0.6598639455782312,0.6598639455782312,0.6598639455782312,0.6598639455782312,0.6598639455782312,0.6598639455782312,0.6598639455782312,0.6598639455782312,0.6598639455782312,0.6598639455782312,0.6598639455782312,0.6598639455782312,0.6598639455782312,0.6598639455782312,0.6598639455782312,0.6598639455782312,0.6598639455782312,0.6598639455782312,0.6598639455782312,0.6598639455782312,0.6598639455782312,0.6598639455782312,0.6598639455782312,0.6598639455782312,0.6598639455782312,0.6598639455782312],"y":[-3.5714285714285716,-3.5714285714285716,-3.5714285714285716,-3.5714285714285716,-3.5714285714285716,-3.5714285714285716,-3.5714285714285716,-3.5714285714285716,-3.5714285714285716,-3.5714285714285716,-3.5714285714285716,-3.5714285714285716,-3.5714285714285716,-3.5714285714285716,-3.5714285714285716,-3.5714285714285716,-3.5714285714285716,-3.5714285714285716,-3.5714285714285716,-3.5714285714285716,-3.5714285714285716,-3.5714285714285716,-3.5714285714285716,-3.5714285714285716,-3.5714285714285716,-3.5714285714285716,-3.5714285714285716,-3.5714285714285716,-3.5714285714285716,-3.5714285714285716,-3.5714285714285716,-3.5714285714285716,-3.5714285714285716,-3.5714285714285716,-3.5714285714285716,-3.5714285714285716,-3.5714285714285716,-3.5714285714285716,-3.5714285714285716,0.8238095238095238,0.7095238095238096,0.49047619047619045,0.319047619047619,0.14761904761904762,0.04285714285714286,-0.04285714285714286,-0.1,-0.12857142857142856,-0.1380952380952381,-0.1380952380952381,-0.1380952380952381,-0.1380952380952381,-0.1380952380952381,-0.1380952380952381,-0.1380952380952381,-0.1380952380952381,-0.1380952380952381,-0.1380952380952381,-0.1380952380952381,-0.1380952380952381,-0.1380952380952381,-0.1380952380952381,-0.16666666666666666,-0.23333333333333334,-0.3,-0.43333333333333335,-0.5095238095238095,-0.5761904761904761,-0.6047619047619047,-0.6142857142857143,-0.6142857142857143,-0.6142857142857143,-0.5476190476190477,-0.46190476190476193,-0.3761904761904762,-0.319047619047619,-0.2714285714285714,-0.24285714285714285,-0.23333333333333334,-0.23333333333333334,-0.23333333333333334,-0.23333333333333334,-0.23333333333333334,-0.23333333333333334,-0.23333333333333334,-0.23333333333333334,-0.23333333333333334,-0.23333333333333334,-0.23333333333333334,-0.23333333333333334,-0.23333333333333334,-0.23333333333333334,-0.23333333333333334,-0.23333333333333334,-0.23333333333333334,-0.20476190476190476,-0.15714285714285714,-0.09047619047619047,-0.04285714285714286,0.004761904761904762,0.04285714285714286,0.04285714285714286,0.05238095238095238,0.06190476190476191,0.07142857142857142,0.07142857142857142,0.07142857142857142,0.07142857142857142,0.07142857142857142,0.07142857142857142,0.07142857142857142,0.07142857142857142,0.07142857142857142,0.07142857142857142,0.07142857142857142,0.07142857142857142,0.07142857142857142,0.07142857142857142,0.06190476190476191,0.06190476190476191,0.05238095238095238,0.05238095238095238,0.04285714285714286,0.03333333333333333,0.023809523809523808,0.014285714285714285,0.004761904761904762,0.004761904761904762,0.004761904761904762,0.004761904761904762,0.004761904761904762,0.004761904761904762,0.004761904761904762,0.004761904761904762,0.004761904761904762,0.004761904761904762,0.004761904761904762,0.004761904761904762,0.004761904761904762,0.004761904761904762,0.004761904761904762,0.004761904761904762,0.004761904761904762,0.004761904761904762,0.004761904761904762,0.004761904761904762,0.004761904761904762,0.004761904761904762,0.004761904761904762,0.004761904761904762,0.004761904761904762,0.004761904761904762,0.004761904761904762,0.004761904761904762,0.004761904761904762,0.004761904761904762,0.004761904761904762,0.004761904761904762,0.004761904761904762,0.004761904761904762,0.004761904761904762,0.004761904761904762,0.023809523809523808,0.04285714285714286,0.06190476190476191,0.09047619047619047,0.10952380952380952,0.11904761904761904,0.11904761904761904,0.11904761904761904,0.11904761904761904,0.11904761904761904,0.11904761904761904,0.11904761904761904,0.11904761904761904,0.11904761904761904,0.11904761904761904,0.11904761904761904,0.11904761904761904,0.11904761904761904,0.15714285714285714,0.2619047619047619,0.32857142857142857,0.40476190476190477,0.46190476190476193,0.5095238095238095,0.5285714285714286,0.5380952380952381,0.5380952380952381,0.5380952380952381,0.5380952380952381,0.5380952380952381,0.5380952380952381,0.5380952380952381,0.5380952380952381,0.5380952380952381,0.5380952380952381,0.5380952380952381,0.5190476190476191,0.49047619047619045,0.46190476190476193,0.43333333333333335,0.4238095238095238,0.4142857142857143,0.40476190476190477,0.40476190476190477,0.40476190476190477,0.40476190476190477,0.40476190476190477,0.40476190476190477,0.40476190476190477,0.40476190476190477,0.40476190476190477,0.40476190476190477,0.40476190476190477,0.4142857142857143,0.4142857142857143,0.4238095238095238,0.4238095238095238,0.43333333333333335,0.43333333333333335,0.43333333333333335,0.43333333333333335,0.43333333333333335,0.44285714285714284,0.44285714285714284,0.44285714285714284,0.4523809523809524,0.46190476190476193,0.48095238095238096,0.48095238095238096,0.49047619047619045,0.49047619047619045,0.49047619047619045,0.49047619047619045,0.49047619047619045,0.5,0.5,0.5,0.5,0.5,0.5095238095238095,0.5095238095238095,0.5095238095238095,0.5380952380952381,0.5666666666666667,0.5952380952380952,0.6238095238095238,0.6523809523809524,0.6714285714285714,0.6904761904761905,0.7,0.7095238095238096,0.719047619047619,0.719047619047619,0.7380952380952381,0.7476190476190476,0.7666666666666667,0.7761904761904762,0.7857142857142857,0.7952380952380952,0.7952380952380952,0.7952380952380952,0.7952380952380952,0.7666666666666667,0.7380952380952381,0.7,0.6619047619047619,0.6047619047619047,0.5571428571428572,0.5476190476190477,0.5380952380952381,0.5190476190476191,0.5095238095238095,0.5,0.49047619047619045,0.49047619047619045,0.49047619047619045,0.49047619047619045,0.49047619047619045,0.49047619047619045,0.49047619047619045,0.49047619047619045,0.49047619047619045,0.48095238095238096,0.48095238095238096,0.4714285714285714,0.46190476190476193,0.4523809523809524,0.44285714285714284,0.4142857142857143,0.3761904761904762,0.319047619047619,0.2523809523809524,0.1761904761904762,0.09047619047619047,0.03333333333333333,-0.023809523809523808,-0.06190476190476191,-0.08095238095238096,-0.09047619047619047,-0.09047619047619047,-0.1,-0.1,-0.1,-0.1,-0.1,-0.1,-0.1,-0.1,-0.1,-0.09047619047619047,-0.07142857142857142,-0.05238095238095238,-0.04285714285714286,-0.04285714285714286,-0.03333333333333333,-0.023809523809523808,-0.023809523809523808,-0.023809523809523808,-0.03333333333333333,-0.04285714285714286,-0.05238095238095238,-0.05238095238095238,-0.05238095238095238,-0.05238095238095238,-0.03333333333333333,0.004761904761904762,0.03333333333333333,0.04285714285714286,0.05238095238095238,0.05238095238095238,0.05238095238095238,0.05238095238095238,0.05238095238095238,0.05238095238095238,0.05238095238095238,0.05238095238095238,0.05238095238095238,0.05238095238095238,0.05238095238095238,0.05238095238095238,0.05238095238095238,0.05238095238095238,0.05238095238095238,0.05238095238095238,0.05238095238095238,0.05238095238095238,0.05238095238095238,0.05238095238095238,0.05238095238095238,0.05238095238095238,0.05238095238095238,0.05238095238095238,0.05238095238095238,0.05238095238095238,0.05238095238095238,0.05238095238095238,0.05238095238095238,0.05238095238095238,0.05238095238095238,0.05238095238095238,0.05238095238095238,0.05238095238095238,0.05238095238095238,0.04285714285714286,0.04285714285714286,0.03333333333333333,0.03333333333333333,0.03333333333333333,0.03333333333333333,0.03333333333333333,0.03333333333333333,0.03333333333333333,0.03333333333333333,0.03333333333333333,0.03333333333333333,0.03333333333333333,0.03333333333333333,0.03333333333333333,0.03333333333333333,0.03333333333333333,0.03333333333333333,0.03333333333333333,0.03333333333333333,0.03333333333333333,0.03333333333333333,0.03333333333333333,0.03333333333333333,0.03333333333333333,0.03333333333333333,0.03333333333333333,0.03333333333333333,0.03333333333333333,0.03333333333333333,0.03333333333333333,0.03333333333333333,0.03333333333333333,0.03333333333333333,0.03333333333333333,0.03333333333333333,0.03333333333333333,0.03333333333333333,0.03333333333333333,0.03333333333333333,0.03333333333333333,0.03333333333333333,0.004761904761904762,-0.014285714285714285,-0.03333333333333333,-0.05238095238095238,-0.06190476190476191,-0.07142857142857142,-0.07142857142857142,-0.07142857142857142,-0.07142857142857142,-0.07142857142857142,-0.07142857142857142,-0.07142857142857142,-0.07142857142857142,-0.07142857142857142,-0.07142857142857142,-0.06190476190476191,-0.06190476190476191,-0.05238095238095238,-0.05238095238095238,-0.04285714285714286,-0.04285714285714286,-0.03333333333333333,-0.023809523809523808,-0.014285714285714285,-0.004761904761904762,-0.004761904761904762,0.004761904761904762,0.014285714285714285,0.023809523809523808,0.04285714285714286,0.05238095238095238,0.07142857142857142,0.08095238095238096,0.09047619047619047,0.1,0.1,0.10952380952380952,0.10952380952380952,0.10952380952380952,0.10952380952380952,0.10952380952380952,0.10952380952380952,0.10952380952380952,0.10952380952380952,0.10952380952380952,0.10952380952380952,0.1,0.1,0.1,0.1,0.1,0.1,0.10952380952380952,0.12857142857142856,0.16666666666666666,0.19523809523809524,0.21428571428571427,0.24285714285714285,0.2714285714285714,0.3,0.32857142857142857,0.35714285714285715,0.3761904761904762,0.3952380952380952,0.4142857142857143,0.44285714285714284,0.46190476190476193,0.48095238095238096,0.5,0.5095238095238095,0.5190476190476191,0.5285714285714286,0.5285714285714286,0.5380952380952381,0.5380952380952381,0.5380952380952381,0.5380952380952381,0.5380952380952381,0.5380952380952381,0.5380952380952381,0.5380952380952381,0.5380952380952381,0.5380952380952381,0.5380952380952381,0.5380952380952381,0.5380952380952381,0.5380952380952381,0.5380952380952381,0.5285714285714286,0.5285714285714286,0.5285714285714286,0.5285714285714286,0.5285714285714286,0.5285714285714286,0.5190476190476191,0.5,0.43333333333333335,0.32857142857142857,0.23333333333333334,0.12857142857142856,0.07142857142857142,0.004761904761904762,-0.014285714285714285,-0.023809523809523808,-0.023809523809523808,-0.023809523809523808,-0.023809523809523808,-0.03333333333333333,-0.03333333333333333,-0.04285714285714286,-0.05238095238095238,-0.07142857142857142,-0.08095238095238096,-0.08095238095238096,-0.08095238095238096,-0.08095238095238096,-0.08095238095238096,-0.08095238095238096,-0.08095238095238096,-0.08095238095238096,-0.08095238095238096,-0.08095238095238096,-0.08095238095238096,-0.08095238095238096,-0.08095238095238096,-0.08095238095238096,-0.08095238095238096,-0.08095238095238096,-0.08095238095238096,-0.08095238095238096,-0.08095238095238096,-0.08095238095238096,-0.08095238095238096,-0.08095238095238096,-0.08095238095238096,-0.08095238095238096,-0.08095238095238096,-0.08095238095238096,-0.08095238095238096,-0.08095238095238096,-0.08095238095238096,-0.08095238095238096,-0.08095238095238096,-0.08095238095238096,-0.08095238095238096,-0.08095238095238096,-0.08095238095238096,-0.08095238095238096,-0.08095238095238096,-0.08095238095238096,-0.08095238095238096,-0.08095238095238096,-0.08095238095238096,-0.08095238095238096,-0.04285714285714286,0.04285714285714286,0.1380952380952381,0.16666666666666666,0.22380952380952382,0.22380952380952382,0.22380952380952382,0.22380952380952382,0.22380952380952382,0.22380952380952382,0.22380952380952382,0.22380952380952382,0.22380952380952382,0.22380952380952382,0.22380952380952382,0.22380952380952382,0.22380952380952382,0.24285714285714285,0.2714285714285714,0.30952380952380953,0.3761904761904762,0.4238095238095238,0.46190476190476193,0.48095238095238096,0.48095238095238096,0.48095238095238096,0.48095238095238096,0.48095238095238096,0.48095238095238096,0.48095238095238096,0.48095238095238096,0.48095238095238096,0.48095238095238096,0.48095238095238096,0.48095238095238096,0.48095238095238096,0.49047619047619045,0.5,0.5,0.5,0.5,0.48095238095238096,0.4714285714285714,0.46190476190476193,0.44285714285714284,0.4142857142857143,0.36666666666666664,0.3380952380952381,0.28095238095238095,0.2523809523809524,0.21428571428571427,0.19523809523809524,0.19523809523809524,0.18571428571428572,0.18571428571428572,0.18571428571428572,0.18571428571428572,0.18571428571428572,0.16666666666666666,0.14761904761904762,0.12857142857142856,0.10952380952380952,0.09047619047619047,0.09047619047619047,0.08095238095238096,0.08095238095238096,0.08095238095238096,0.08095238095238096,0.08095238095238096,0.08095238095238096,0.08095238095238096,0.08095238095238096,0.08095238095238096,0.08095238095238096,0.08095238095238096,0.08095238095238096,0.08095238095238096,0.08095238095238096,0.08095238095238096,0.08095238095238096,0.08095238095238096,0.08095238095238096,0.08095238095238096,0.08095238095238096,0.08095238095238096,0.08095238095238096,0.08095238095238096,0.08095238095238096,0.08095238095238096,0.08095238095238096,0.08095238095238096,0.08095238095238096,0.08095238095238096,0.08095238095238096,0.08095238095238096,0.08095238095238096,0.08095238095238096,0.08095238095238096,0.08095238095238096,0.08095238095238096,0.08095238095238096,0.08095238095238096,0.08095238095238096,0.08095238095238096,0.08095238095238096,0.08095238095238096,0.08095238095238096,0.08095238095238096,0.08095238095238096,0.08095238095238096,0.08095238095238096,0.1,0.12857142857142856,0.16666666666666666,0.20476190476190476,0.2523809523809524,0.2714285714285714,0.28095238095238095,0.2904761904761905,0.2904761904761905,0.2904761904761905,0.2904761904761905,0.2904761904761905,0.2904761904761905,0.2904761904761905,0.2904761904761905,0.2904761904761905,0.2904761904761905,0.2904761904761905,0.2904761904761905,0.2904761904761905,0.2904761904761905,0.2714285714285714,0.23333333333333334,0.18571428571428572,0.11904761904761904,0.08095238095238096,0.06190476190476191,0.05238095238095238,0.04285714285714286,0.04285714285714286,0.04285714285714286,0.04285714285714286,0.05238095238095238,0.08095238095238096,0.1,0.11904761904761904,0.12857142857142856,0.15714285714285714,0.1761904761904762,0.20476190476190476,0.2523809523809524,0.2904761904761905,0.319047619047619,0.3380952380952381,0.36666666666666664,0.3761904761904762,0.3952380952380952,0.4142857142857143,0.4238095238095238,0.4238095238095238,0.43333333333333335,0.43333333333333335,0.43333333333333335,0.43333333333333335,0.44285714285714284,0.46190476190476193,0.48095238095238096,0.5095238095238095,0.5380952380952381,0.5761904761904761,0.6142857142857143,0.6714285714285714,0.7285714285714285,0.7761904761904762,0.8142857142857143,0.8523809523809524,0.8904761904761904,0.9,0.9095238095238095,0.919047619047619,0.9285714285714286,0.9285714285714286,0.9285714285714286,0.9285714285714286,0.9285714285714286,0.9285714285714286,0.9285714285714286,0.9285714285714286,0.9285714285714286,0.9285714285714286,0.9285714285714286,0.9285714285714286,0.9285714285714286,0.9285714285714286,0.9285714285714286,0.9285714285714286,0.9285714285714286,0.9285714285714286,0.9285714285714286,0.8904761904761904,0.8523809523809524,0.8523809523809524,0.8523809523809524,0.8523809523809524,0.8523809523809524,0.8523809523809524,0.8523809523809524,0.8523809523809524,0.8523809523809524,0.8523809523809524,0.8523809523809524,0.8523809523809524,0.8428571428571429,0.6333333333333333,0.46190476190476193,0.3,0.20476190476190476,0.12857142857142856,0.09047619047619047,0.05238095238095238,0.023809523809523808,0.014285714285714285,0.004761904761904762,0.004761904761904762,0.004761904761904762,0.004761904761904762,0.004761904761904762,0.004761904761904762,0.004761904761904762,0.014285714285714285,0.03333333333333333,0.06190476190476191,0.09047619047619047,0.11904761904761904,0.14761904761904762,0.16666666666666666,0.18571428571428572,0.20476190476190476,0.22380952380952382,0.24285714285714285,0.28095238095238095,0.3,0.3476190476190476,0.3761904761904762,0.3952380952380952,0.40476190476190477,0.4238095238095238,0.4238095238095238,0.44285714285714284,0.46190476190476193,0.48095238095238096,0.49047619047619045,0.5190476190476191,0.5285714285714286,0.5476190476190477,0.5571428571428572,0.5571428571428572,0.5666666666666667,0.5666666666666667,0.5666666666666667,0.5666666666666667,0.5666666666666667,0.5761904761904761,0.5761904761904761,0.5761904761904761,0.5761904761904761,0.5761904761904761,0.5761904761904761,0.5761904761904761,0.5761904761904761,0.5761904761904761,0.5761904761904761,0.5761904761904761,0.5761904761904761,0.5761904761904761,0.5761904761904761,0.5761904761904761,0.5761904761904761,0.5761904761904761,0.5761904761904761,0.5761904761904761,0.5761904761904761,0.5761904761904761,0.5761904761904761,0.5761904761904761,0.5761904761904761,0.5761904761904761,0.5761904761904761,0.5761904761904761,0.5761904761904761,0.5761904761904761,0.5761904761904761,0.5761904761904761,0.5761904761904761,0.5761904761904761,0.5761904761904761,0.5761904761904761,0.5761904761904761,0.5761904761904761,0.5761904761904761,0.5761904761904761,0.5761904761904761,0.5761904761904761,0.5761904761904761,0.5761904761904761,0.5761904761904761,0.5761904761904761,0.5761904761904761,0.5761904761904761,0.5761904761904761,0.5761904761904761,0.5857142857142857,0.5857142857142857,0.5952380952380952,0.5952380952380952,0.5952380952380952,0.5952380952380952,0.5952380952380952,0.5952380952380952,0.5952380952380952,0.5952380952380952,0.5952380952380952,0.5952380952380952,0.5952380952380952,0.5952380952380952,0.5952380952380952,0.5952380952380952,0.5952380952380952,0.5952380952380952,0.6142857142857143,0.6238095238095238,0.6238095238095238,0.6142857142857143,0.6047619047619047,0.5285714285714286,0.4523809523809524,0.35714285714285715,0.28095238095238095,0.22380952380952382,0.16666666666666666,0.1380952380952381,0.12857142857142856,0.11904761904761904,0.10952380952380952,0.10952380952380952,0.10952380952380952,0.10952380952380952,0.1,0.09047619047619047,0.08095238095238096,0.06190476190476191,0.05238095238095238,0.04285714285714286,0.03333333333333333,0.03333333333333333,0.023809523809523808,0.023809523809523808,0.023809523809523808,0.023809523809523808,0.023809523809523808,0.023809523809523808,0.023809523809523808,0.023809523809523808,0.023809523809523808,0.023809523809523808,0.023809523809523808,0.023809523809523808,0.023809523809523808,0.023809523809523808,0.023809523809523808,0.023809523809523808,0.03333333333333333,0.06190476190476191,0.1,0.1380952380952381,0.18571428571428572,0.21428571428571427,0.24285714285714285,0.28095238095238095,0.30952380952380953,0.3380952380952381,0.3761904761904762,0.3952380952380952,0.40476190476190477,0.4142857142857143,0.4238095238095238,0.4238095238095238,0.4238095238095238,0.4238095238095238,0.4238095238095238,0.4238095238095238,0.4238095238095238,0.4238095238095238,0.4238095238095238,0.43333333333333335,0.44285714285714284,0.4523809523809524,0.46190476190476193,0.4714285714285714,0.49047619047619045,0.5,0.5095238095238095,0.5095238095238095,0.5095238095238095,0.5095238095238095,0.5095238095238095,0.5095238095238095,0.5095238095238095,0.5095238095238095,0.5095238095238095,0.5,0.5,0.5,0.5,0.5,0.5,0.5,0.5,0.5,0.5,0.5,0.5,0.5,0.5,0.5,0.5,0.5,0.5,0.5,0.5,0.5,0.5,0.5,0.5,0.5095238095238095,0.5190476190476191,0.5285714285714286,0.5380952380952381,0.5380952380952381,0.5476190476190477,0.5476190476190477,0.5476190476190477,0.5476190476190477,0.5476190476190477,0.5380952380952381,0.5285714285714286,0.5285714285714286,0.5285714285714286,0.5285714285714286,0.5285714285714286,0.5285714285714286,0.5285714285714286,0.5285714285714286,0.5285714285714286,0.5285714285714286,0.5285714285714286,0.5285714285714286,0.5285714285714286,0.5285714285714286,0.5285714285714286,0.5285714285714286,0.5285714285714286,0.5285714285714286,0.5285714285714286,0.5285714285714286,0.5285714285714286,0.5285714285714286,0.5285714285714286,0.5285714285714286,0.5285714285714286,0.5285714285714286,0.5285714285714286,0.5285714285714286,0.5285714285714286,0.5285714285714286,0.5285714285714286,0.5285714285714286,0.5285714285714286,0.5285714285714286,0.5285714285714286,0.5285714285714286,0.5285714285714286,0.5285714285714286,0.5285714285714286,0.5285714285714286,0.5285714285714286,0.5285714285714286,0.5285714285714286,0.5285714285714286,0.5285714285714286,0.5285714285714286,0.5285714285714286,0.5285714285714286,0.5285714285714286,0.5285714285714286,0.5285714285714286,0.5285714285714286,0.5285714285714286,0.5285714285714286,0.5285714285714286,0.5285714285714286,0.5285714285714286,0.5285714285714286,0.5285714285714286,0.5285714285714286,0.5285714285714286,0.5285714285714286,0.5285714285714286,0.5285714285714286,0.5285714285714286,0.5285714285714286,0.5285714285714286,0.5285714285714286,0.5285714285714286,0.5285714285714286,0.5285714285714286,0.5285714285714286,0.5285714285714286,0.5285714285714286,0.5285714285714286,0.5285714285714286,0.5285714285714286,0.5285714285714286,0.5285714285714286,0.5285714285714286,0.5285714285714286,0.5285714285714286,0.5285714285714286,0.5285714285714286,0.5285714285714286,0.5285714285714286,0.5285714285714286,0.5285714285714286,0.5285714285714286,0.5285714285714286,0.5285714285714286,0.5285714285714286,0.5285714285714286,0.5285714285714286,0.5285714285714286,0.5285714285714286,0.5285714285714286,0.5285714285714286,0.5285714285714286,0.5285714285714286,0.5285714285714286,0.5285714285714286,0.5285714285714286,0.5285714285714286,0.5285714285714286,0.5285714285714286,0.5285714285714286,0.5285714285714286,0.5285714285714286,0.5285714285714286,0.5285714285714286,0.5285714285714286,0.5285714285714286,0.5285714285714286,0.5285714285714286,0.5285714285714286,0.5285714285714286,0.5285714285714286,0.5285714285714286,0.5285714285714286,0.5285714285714286,0.5285714285714286,0.5285714285714286,0.5285714285714286,0.5285714285714286,0.5285714285714286,0.5285714285714286,0.5285714285714286,0.5285714285714286,0.5285714285714286,0.5285714285714286,0.5285714285714286,0.5285714285714286,0.5285714285714286,0.5285714285714286,0.5285714285714286,0.5285714285714286,0.5285714285714286,0.5285714285714286,0.5285714285714286,0.5285714285714286,0.5285714285714286,0.5285714285714286,0.5285714285714286,0.5285714285714286,0.5285714285714286,0.5285714285714286,0.5285714285714286,0.5285714285714286,0.5285714285714286,0.5285714285714286,0.5285714285714286,0.5285714285714286,0.5285714285714286,0.5285714285714286,0.5285714285714286,0.5285714285714286,0.5285714285714286,0.5285714285714286,0.5285714285714286,0.5285714285714286,0.5285714285714286,0.5285714285714286,0.5285714285714286,0.5285714285714286,0.5285714285714286,0.5285714285714286,0.5285714285714286,0.5285714285714286,0.5285714285714286,0.5285714285714286,0.5285714285714286,0.5285714285714286,0.5285714285714286,0.5285714285714286,0.5285714285714286,0.5285714285714286,0.5285714285714286,0.5285714285714286,0.5285714285714286,0.5285714285714286,0.5285714285714286,0.5285714285714286,0.5285714285714286,0.5285714285714286,0.5380952380952381,0.5571428571428572,0.5571428571428572,0.5761904761904761,0.5952380952380952,0.6047619047619047,0.6142857142857143,0.6142857142857143,0.6142857142857143,0.6142857142857143,0.6142857142857143,0.6142857142857143,0.6142857142857143,0.6142857142857143,0.6142857142857143,0.6333333333333333,0.6714285714285714,0.719047619047619,0.7571428571428571,0.7952380952380952,0.8142857142857143,0.8333333333333334,0.8428571428571429,0.8428571428571429,0.8523809523809524,0.861904761904762,0.8714285714285714,0.8714285714285714,0.8809523809523809,0.8904761904761904,0.8904761904761904,0.8904761904761904,0.8904761904761904,0.8904761904761904,0.8904761904761904,0.8809523809523809,0.861904761904762,0.8523809523809524,0.8428571428571429,0.8428571428571429,0.8428571428571429,0.8428571428571429,0.8428571428571429,0.8428571428571429,0.8428571428571429,0.8428571428571429,0.8428571428571429,0.8428571428571429,0.8428571428571429,0.8428571428571429,0.8428571428571429,0.8428571428571429,0.8523809523809524,0.8523809523809524,0.8523809523809524,0.8523809523809524,0.8714285714285714,0.8809523809523809,0.9285714285714286,0.9571428571428572,0.9571428571428572,0.9761904761904762,0.9857142857142858,1.0047619047619047,1.0142857142857142,1.0333333333333334,1.0333333333333334,1.042857142857143,1.042857142857143,1.042857142857143,1.042857142857143,1.042857142857143,1.042857142857143,1.042857142857143,1.042857142857143,1.042857142857143,1.042857142857143,1.042857142857143,1.0333333333333334,1.0333333333333334,1.0333333333333334,1.0333333333333334,1.042857142857143,1.042857142857143,1.0523809523809524,1.0523809523809524,1.0523809523809524,1.0523809523809524,1.0523809523809524,1.042857142857143,1.0333333333333334,1.0238095238095237,1.0142857142857142,1.0047619047619047,1.0047619047619047,0.9952380952380953,0.9857142857142858,0.9761904761904762,0.9761904761904762,0.9761904761904762,0.9761904761904762,0.9761904761904762,0.9761904761904762,0.9761904761904762,0.9761904761904762,0.9761904761904762,0.9761904761904762,0.9761904761904762,0.9761904761904762,0.9761904761904762,0.9761904761904762,0.9761904761904762,0.9761904761904762,0.9761904761904762,0.9761904761904762,0.9761904761904762,0.9761904761904762,0.9761904761904762,0.9761904761904762,0.9761904761904762,0.9380952380952381,0.8809523809523809,0.7761904761904762,0.5952380952380952,0.4714285714285714,0.3476190476190476,0.2714285714285714,0.22380952380952382,0.18571428571428572,0.1380952380952381,0.11904761904761904,0.08095238095238096,0.06190476190476191,0.04285714285714286,0.023809523809523808,0.014285714285714285,0.004761904761904762,0.004761904761904762,-0.004761904761904762,-0.004761904761904762,-0.004761904761904762,-0.004761904761904762,-0.004761904761904762,-0.004761904761904762,-0.004761904761904762,-0.014285714285714285,-0.014285714285714285,-0.023809523809523808,-0.023809523809523808,-0.023809523809523808,-0.03333333333333333,-0.03333333333333333,-0.03333333333333333,-0.03333333333333333,-0.03333333333333333,-0.03333333333333333,-0.04285714285714286,-0.04285714285714286,-0.04285714285714286,-0.04285714285714286,-0.04285714285714286,-0.04285714285714286,-0.04285714285714286,-0.04285714285714286,-0.04285714285714286,-0.04285714285714286,-0.04285714285714286,-0.04285714285714286,-0.04285714285714286,-0.04285714285714286,-0.04285714285714286,-0.04285714285714286,-0.04285714285714286,-0.04285714285714286,-0.04285714285714286,-0.04285714285714286,-0.04285714285714286,-0.04285714285714286,-0.04285714285714286,-0.04285714285714286,-0.04285714285714286,-0.04285714285714286,-0.04285714285714286,-0.04285714285714286,-0.04285714285714286,-0.04285714285714286,-0.04285714285714286,-0.04285714285714286,-0.04285714285714286,-0.04285714285714286,-0.04285714285714286,-0.04285714285714286,-0.04285714285714286,-0.04285714285714286,-0.04285714285714286,-0.04285714285714286,-0.04285714285714286,-0.04285714285714286,-0.04285714285714286,-0.04285714285714286,-0.04285714285714286,-0.04285714285714286,-0.04285714285714286,-0.04285714285714286,-0.04285714285714286,-0.04285714285714286,-0.023809523809523808,0.023809523809523808,0.10952380952380952,0.23333333333333334,0.35714285714285715,0.5761904761904761,0.7095238095238096,0.8333333333333334,0.9380952380952381,0.9952380952380953,1.042857142857143,1.0714285714285714,1.0714285714285714,1.0714285714285714,1.0714285714285714,1.0714285714285714,1.0714285714285714,1.0714285714285714,1.0714285714285714,1.0714285714285714,1.0714285714285714,1.0714285714285714,1.0714285714285714,1.0714285714285714,1.0714285714285714,1.0714285714285714,1.0714285714285714,1.0714285714285714,1.0714285714285714,1.0714285714285714,1.0714285714285714,1.0714285714285714,1.0714285714285714,1.0714285714285714,1.0714285714285714,1.0714285714285714,1.0714285714285714,1.0714285714285714,1.0714285714285714,1.0714285714285714,1.0714285714285714,1.0714285714285714,1.0714285714285714,1.0714285714285714,1.0714285714285714,1.0714285714285714,1.0714285714285714,1.0714285714285714,1.0714285714285714,1.0714285714285714,1.0714285714285714,1.0714285714285714,1.0714285714285714,1.0714285714285714,1.0714285714285714,1.0714285714285714,1.0714285714285714,1.0714285714285714,1.0714285714285714,1.0714285714285714,1.0714285714285714,1.0714285714285714,1.0714285714285714,1.0714285714285714,1.0714285714285714,1.0714285714285714,1.0714285714285714,1.0714285714285714,1.0714285714285714,1.0714285714285714,1.0714285714285714,1.0714285714285714,1.0714285714285714,1.0714285714285714,1.0714285714285714,1.0714285714285714,1.0714285714285714,1.0714285714285714,1.0714285714285714]},"final_keyboard_state":["B","A","R","C","O","Z","E"],"num_clicks":7,"points":13,"cheat":false,"trial_type":"Hangman","trial_index":5,"time_elapsed":58938,"internal_node_id":"0.0-4.0","protocol_sum":"","subject_identifier":533,"subject_sum":[234,91,39,85,111,187,19,77,239,44,47,191,148,77,156,221,163,219,219,107,16,71,58,26,236,89,246,241,112,196,202,58],"subject_pair":266,"STUDY_ID":"66a3ed3c5d10d0e7d8a6b9da","PROLIFIC_PID":"662d7fba32d6a738b194d893","SESSION_ID":"66a4723c9d547cadd3c72ae5","practice_instructions":1,"leaderboard_instructions":1,"bonus":0,"reveal_word":true,"self_rating":"1","confidence":"91"},{"view_history":"[{\"page_index\":0,\"viewing_time\":3489.699999988079},{\"page_index\":1,\"viewing_time\":9779}]","rt":13269.699999988079,"trial_type":"instructions","trial_index":6,"time_elapsed":72210,"internal_node_id":"0.0-5.0","protocol_sum":"","subject_identifier":533,"subject_sum":[234,91,39,85,111,187,19,77,239,44,47,191,148,77,156,221,163,219,219,107,16,71,58,26,236,89,246,241,112,196,202,58],"subject_pair":266,"STUDY_ID":"66a3ed3c5d10d0e7d8a6b9da","PROLIFIC_PID":"662d7fba32d6a738b194d893","SESSION_ID":"66a4723c9d547cadd3c72ae5","practice_instructions":1,"leaderboard_instructions":1,"bonus":0,"reveal_word":true,"self_rating":"1","confidence":"91"},{"rt":6205.800000011921,"responses":"{\"Q0\":\"...from <b>a previous session</b> that is part of the upcoming tournament.\"}","question_order":"[0]","trial_type":"survey-multi-choice","trial_index":7,"time_elapsed":78418,"internal_node_id":"0.0-6.0","protocol_sum":"","subject_identifier":533,"subject_sum":[234,91,39,85,111,187,19,77,239,44,47,191,148,77,156,221,163,219,219,107,16,71,58,26,236,89,246,241,112,196,202,58],"subject_pair":266,"correct":false,"test_part":"multichoice_leaderboard","STUDY_ID":"66a3ed3c5d10d0e7d8a6b9da","PROLIFIC_PID":"662d7fba32d6a738b194d893","SESSION_ID":"66a4723c9d547cadd3c72ae5","practice_instructions":1,"leaderboard_instructions":1,"bonus":0,"reveal_word":true,"self_rating":"1","confidence":"91"},{"view_history":"[{\"page_index\":0,\"viewing_time\":1669}]","rt":1669.300000011921,"trial_type":"instructions","trial_index":8,"time_elapsed":80088,"internal_node_id":"0.0-7.0-0.0","protocol_sum":"","subject_identifier":533,"subject_sum":[234,91,39,85,111,187,19,77,239,44,47,191,148,77,156,221,163,219,219,107,16,71,58,26,236,89,246,241,112,196,202,58],"subject_pair":266,"STUDY_ID":"66a3ed3c5d10d0e7d8a6b9da","PROLIFIC_PID":"662d7fba32d6a738b194d893","SESSION_ID":"66a4723c9d547cadd3c72ae5","practice_instructions":1,"leaderboard_instructions":1,"bonus":0,"reveal_word":true,"self_rating":"1","confidence":"91"},{"rt":6886.5999999940395,"responses":"{\"Q0\":\"...from <b>a previous session</b> that is not part of the upcoming tournament.\"}","question_order":"[0]","trial_type":"survey-multi-choice","trial_index":9,"time_elapsed":86976,"internal_node_id":"0.0-7.0-1.0","protocol_sum":"","subject_identifier":533,"subject_sum":[234,91,39,85,111,187,19,77,239,44,47,191,148,77,156,221,163,219,219,107,16,71,58,26,236,89,246,241,112,196,202,58],"subject_pair":266,"correct":true,"test_part":"multichoice_leaderboard","STUDY_ID":"66a3ed3c5d10d0e7d8a6b9da","PROLIFIC_PID":"662d7fba32d6a738b194d893","SESSION_ID":"66a4723c9d547cadd3c72ae5","practice_instructions":1,"leaderboard_instructions":1,"bonus":0,"reveal_word":true,"self_rating":"1","confidence":"91"},{"view_history":"[{\"page_index\":0,\"viewing_time\":7083.5999999940395}]","rt":7083.800000011921,"trial_type":"instructions","trial_index":10,"time_elapsed":94062,"internal_node_id":"0.0-8.0","protocol_sum":"","subject_identifier":533,"subject_sum":[234,91,39,85,111,187,19,77,239,44,47,191,148,77,156,221,163,219,219,107,16,71,58,26,236,89,246,241,112,196,202,58],"subject_pair":266,"STUDY_ID":"66a3ed3c5d10d0e7d8a6b9da","PROLIFIC_PID":"662d7fba32d6a738b194d893","SESSION_ID":"66a4723c9d547cadd3c72ae5","practice_instructions":1,"leaderboard_instructions":1,"bonus":0,"reveal_word":true,"self_rating":"1","confidence":"91"},{"rt":8192.90000000596,"responses":"{\"Q0\":\"...how well players did (in terms of <b>points</b>) in <b>previous games.</b>\"}","question_order":"[0]","trial_type":"survey-multi-choice","trial_index":11,"time_elapsed":102257,"internal_node_id":"0.0-9.0","protocol_sum":"","subject_identifier":533,"subject_sum":[234,91,39,85,111,187,19,77,239,44,47,191,148,77,156,221,163,219,219,107,16,71,58,26,236,89,246,241,112,196,202,58],"subject_pair":266,"correct":false,"test_part":"multichoice_tournament","STUDY_ID":"66a3ed3c5d10d0e7d8a6b9da","PROLIFIC_PID":"662d7fba32d6a738b194d893","SESSION_ID":"66a4723c9d547cadd3c72ae5","practice_instructions":1,"leaderboard_instructions":1,"bonus":0,"reveal_word":true,"self_rating":"1","confidence":"91"},{"view_history":"[{\"page_index\":0,\"viewing_time\":2492.0999999940395}]","rt":2492.4000000059605,"trial_type":"instructions","trial_index":12,"time_elapsed":104751,"internal_node_id":"0.0-10.0-0.0","protocol_sum":"","subject_identifier":533,"subject_sum":[234,91,39,85,111,187,19,77,239,44,47,191,148,77,156,221,163,219,219,107,16,71,58,26,236,89,246,241,112,196,202,58],"subject_pair":266,"STUDY_ID":"66a3ed3c5d10d0e7d8a6b9da","PROLIFIC_PID":"662d7fba32d6a738b194d893","SESSION_ID":"66a4723c9d547cadd3c72ae5","practice_instructions":1,"leaderboard_instructions":1,"bonus":0,"reveal_word":true,"self_rating":"1","confidence":"91"},{"rt":4140.0999999940395,"responses":"{\"Q0\":\"...players' leaderboard position (in terms of <b>points</b>) in an <b>upcoming tournament.</b>\"}","question_order":"[0]","trial_type":"survey-multi-choice","trial_index":13,"time_elapsed":108892,"internal_node_id":"0.0-10.0-1.0","protocol_sum":"","subject_identifier":533,"subject_sum":[234,91,39,85,111,187,19,77,239,44,47,191,148,77,156,221,163,219,219,107,16,71,58,26,236,89,246,241,112,196,202,58],"subject_pair":266,"correct":true,"test_part":"multichoice_tournament","STUDY_ID":"66a3ed3c5d10d0e7d8a6b9da","PROLIFIC_PID":"662d7fba32d6a738b194d893","SESSION_ID":"66a4723c9d547cadd3c72ae5","practice_instructions":1,"leaderboard_instructions":1,"bonus":0,"reveal_word":true,"self_rating":"1","confidence":"91"},{"view_history":"[{\"page_index\":0,\"viewing_time\":10338}]","rt":10338.300000011921,"trial_type":"instructions","trial_index":14,"time_elapsed":119232,"internal_node_id":"0.0-11.0","protocol_sum":"","subject_identifier":533,"subject_sum":[234,91,39,85,111,187,19,77,239,44,47,191,148,77,156,221,163,219,219,107,16,71,58,26,236,89,246,241,112,196,202,58],"subject_pair":266,"STUDY_ID":"66a3ed3c5d10d0e7d8a6b9da","PROLIFIC_PID":"662d7fba32d6a738b194d893","SESSION_ID":"66a4723c9d547cadd3c72ae5","practice_instructions":1,"leaderboard_instructions":1,"bonus":0,"reveal_word":true,"self_rating":"1","confidence":"91"},{"view_history":"[{\"page_index\":0,\"viewing_time\":10144}]","rt":10144.200000017881,"trial_type":"instructions","trial_index":15,"time_elapsed":129378,"internal_node_id":"0.0-12.0-0.0","protocol_sum":"","subject_identifier":533,"subject_sum":[234,91,39,85,111,187,19,77,239,44,47,191,148,77,156,221,163,219,219,107,16,71,58,26,236,89,246,241,112,196,202,58],"subject_pair":266,"STUDY_ID":"66a3ed3c5d10d0e7d8a6b9da","PROLIFIC_PID":"662d7fba32d6a738b194d893","SESSION_ID":"66a4723c9d547cadd3c72ae5","practice_instructions":1,"leaderboard_instructions":1,"bonus":0,"reveal_word":true,"self_rating":"1","confidence":"91"},{"rt":8174,"response":"SHAKIRA","responses":["SHAKIRA"],"trial_type":"type-this","trial_index":16,"time_elapsed":138057,"internal_node_id":"0.0-12.0-1.0","protocol_sum":"","subject_identifier":533,"subject_sum":[234,91,39,85,111,187,19,77,239,44,47,191,148,77,156,221,163,219,219,107,16,71,58,26,236,89,246,241,112,196,202,58],"subject_pair":266,"STUDY_ID":"66a3ed3c5d10d0e7d8a6b9da","PROLIFIC_PID":"662d7fba32d6a738b194d893","SESSION_ID":"66a4723c9d547cadd3c72ae5","practice_instructions":1,"leaderboard_instructions":1,"bonus":0,"reveal_word":true,"self_rating":"1","confidence":"91"},{"word":"SHAKIRA","click_log":{"letter":["","D","V","X","Y","H","G","K","S","T","A","R","I"],"t":[0,2103.5,3019.5,3836.300000011921,4285.9000000059605,5302.5999999940395,5968.0999999940395,7335.699999988079,8002.199999988079,9869.300000011921,11152.199999988079,14452.800000011921,15835.40000000596],"hit":[null,0,0,0,0,1,0,1,1,0,2,1,1],"asked":["","D","DV","DVX","DVXY","DVXYH","DVXYHG","DVXYHGK","DVXYHGKS","DVXYHGKST","DVXYHGKSTA","DVXYHGKSTAR","DVXYHGKSTARI"],"word_state":["_______","_______","_______","_______","_______","_H_____","_H_____","_H_K___","SH_K___","SH_K___","SHAK__A","SHAK_RA","SHAKIRA"]},"hover_log":{"letter":["?","?","?","?","?","?","?","?","?","?","?","?","?","?","?","?","?","?","?","?","?","?","?","?","?","?","?","?","?","?","?","?","?","?","?","?","?","?","?","?","?","?","?","?","?","?","?","?","?","?","?","?","?","?","?","?","?","?","?","?","?","?","?","?","?","?","?","?","?","?","?","?","?","?","?","?","?","?","?","?","?","?","?","?","?","?","?","?","?","?","?","?","?","?","?","?","?","?","?","?","?","?","?","?","?","?","?","?","?","?","?","?","?","?","?","?","?","?","?","?","?","?","?","?","?","?","?","?","?","?","?","?","?","?","?","?","?","?","?","?","?","?","?","?","?","?","?","?","?","?","?","?","?","?","?","?","?","?","?","?","?","?","?","?","?","?","?","?","?","?","?","?","?","?","?","?","?","?","?","?","?","?","?","?","?","?","?","?","?","?","?","?","?","?","?","?","?","?","?","?","?","?","?","?","?","?","?","?","?","?","?","?","?","?","?","?","?","?","?","?","?","?","?","?","?","?","?","?","?","?","?","?","?","?","?","?","?","?","?","?","?","?","?","?","?","?","?","?","?","?","?","?","?","?","?","?","?","?","?","?","?","?","?","?","?","?","?","?","?","?","?","?","?","?","?","?","?","?","?","?","?","?","?","?","?","?","?","?","?","?","?","?","?","?","?","?","?","?","?","?","?","?","?","?","?","?","?","?","?","?","?","?","?","?","?","?","?","?","?","?","?","?","?","?","?","?","?","?","?","?","?","?","?","?","?","?","?","?","?","?","?","?","?","?","?","?","?","?","?","?","?","?","?","?","?","?","?","?","?","?","?","?","?","?","?","?","?","?","?","?","?","?","?","?","?","?","?","?","?","?","?","?","?","?","?","?","?","?","?","?","?","?","?","?","?","?","?","?","?","?","?","?","?","?","?","?","?","?","?","?","?","?","?","?","?","?","?","?","?","?","?","?","?","?","?","?","?","?","?","?","?","?","?","?","?","?","?","?","?","?","?","?","?","?","?","?","?","?","?","?","?","?","?","?","?","?","?","?","?","?","?","?","?","?","?","?","?","?","?","?","?","?","?","?","?","?","?","?","?","?","?","?","?","?","?","?","?","?","?","?","?","?","?","?","?","?","?","?","?","?","?","?","?","?","?","?","?","?","?","?","?","?","?","?","?","?","?","?","?","?","?","?","?","?","?","?","?","?","?","?","?","?","?","?","?","?","?","?","?","?","?","?","?","?","?","?","?","?","?","?","?","?","?","?","?","?","?","?","?","?","?","?","?","?","?","?","?","?","?","?","?","?","?","?","?","?","?","?","?","?","?","?","?","?","?","?","?","?","?","?","?","?","?","?","?","?","?","?","?","?","?","?","?","?","?","?","?","?","?","?","?","?","?","?","?","?","?","?","?","?","?","?","?","?","?","?","?","?","?","?","?","?","?","?","?","?","?","?","?","?","?","?","?","?","?","?","?","?","?","?","?","?","?","?","?","?","?","?","?","?","?","?","?","?","?","?","?","?","?","?","?","?","?","?","?","?","?","?","?","?","?","?","?","?","?","?","?","?","?","?","?","?","?","?","?","?","?","?","?","?","?","?","?","?","?","?","?","?","?","?","?","?","?","?","?","?","?","?","?","?","?","?","?","?","?","?","?","?","?","?","?","?","?","?","?","?","?","?","?","?","?","?","?","?","?","?","?","?","?","?","?","?","?","?","?","?","?","?","?","?","?","?","?","?","?","?","?","?","?","?","?","?","?","?","?","?","?","?","?","?","?","?","?","?","?","?","?","?","?","?","?","?","?","?","?","?","?","?","?","?","?","?","?","?","?","?","?","?","?","?","?","?","?","?","?","?","?","?","?","?","?","?","?","?","?","?","?","?","?","?","?","?","?","?","?","?","?","?","?","?","?","?","?","?","?","?","?","?","?","?","?","?","?","?","?","?","?","?","?","?","?","?","?","?","?","?","?","?","?","?","?","?","?","?","?","?","?","?","?","?","?","?","?","?","?","?","?","?","?","?","?","?","?","?","?","?","?","?","?","?","?","?","?","?","?","?","?","?","?","?","?","?","?","?","?","?","?","?","?","?","?","?","?","?","?","?","?","?","?","?","?","?","?","?","?","?","?","?","?","?","?","?","?","?","?","?","?","?","?","?","?","?","?","?","?","?","?","?","?","?","?","?","?","?","?","?","?","?","?","?","?","?","?","?","?","?","?","?","?","?","?","?","?","?","?","?","?","?","?","?","?","?","?","?","?","?","?","?","?","?","?","?","?","?","?","?","?","?","?","?","?","?","?","?","?","?","?","?","?","?","?","?","?","?","?","?","?","?","?","?","?","?","?","?","?","?","?","?","?","?","?","?","?","?","?","?","?","?","?","?","?","?","?","?","?","?","?","?","?","?","?","?","?","?","?","?","?","?","?","?","?","?","?","?","?","?","?","?","?","?","?","?","?","?","?","?","?","?","?","?","?","?","?","?","?","?","?","?","?","?","?","?","?","?","?","?","?","?","?","?","?","?","?","?","?","?","?","?","?","?","?","?","?","?","?","?","?","?","?","?","?","?","?","?","?","?","?","?","?","?","?","?","?","?","?","?","?","?","?","?","?","?","?","?","?","?","?","?","?","?","?","?","?","?","?","?","?","?","?","?","?","?","?","?","?","?","?","?","?","?","?","?","?","?","?","?","?","?","?","?","?","?","?","?","?","?","?","?","?","?","?","?","?","?","?","?","?","?","?","?","?","?","?","?","?","?","?","?","?","?","?","?","?","?","?","?","?","?","?","?","?","?","?","?","?","?","?","?","?","?","?","?","?","?","?","?","?","?","?","?","?","?","?","?","?","?","?","?","?","?","?","?","?","?","?","?","?","?","?","?","?","?","?","?","?","?","?","?","?","?","?","?","?","?","?","?","?","?","?","?","?","?","?","?","?","?","?","?","?","?","?","?","?","?","?","?","?","?","?","?","?","?","?","?","?","?","?","?","?","?","?","?","?","?","?","?","?","?","?","?","?","?","?","?","?","?","?","?","?","?","?","?","?","?","?","?","?","?","?","?","?","?","?","?","?","?","?","?","?","?","?","?","?","?","?","?","?","?","?","?","?","?","?","?","?","?","?","?","?","?","?","?","?","?","?","?","?","?","?","?","?","?","?","?","?","?","?","?","?","?","?","?","?","?","?","?","?","?","?","?","?","?","?","?","?","?","?","?","?","?","?","?","?","?","?","?","?","?","?","?","?","?","?","?","?","?","?","?","?","?","?","?","?","?","?","?","?","?","?","?","?","?","?","?","?","?","?","?","?","?","?","?","?","?","?","?","?","?","?","?","?","?","?","?","?","?","?","?","?","?","?","?","?","?","?","?","?","?","?","?","?","?","?","?","?","?","?","?","?","?","?","?","?","?","?","?","?","?","?","?","?","?","?","?","?","?","?","?","?","?","?","?","?","?","?","?","?","?","?","?","?","?","?","?","?","?","?","?","?","?","?","?","?","?","?","?","?","?","?","?","?","?","?","?","?","?","?","?","?","?","?","?","?","?","?","?","?","?","?","?","?","?","?","?","?","?","?","?","?","?","?","?","?","?","?","?","?","?","?","?","?","?","?","?","?","?","?","?","?","?","?","?","?","?","?","?","?","?","?","?","?","?","?","?","?","?","?","?","?","?","?","?","?","?","?","?","?","?","?","?","?","?","?","?","?","?","?","?","?","?","?","?","?","?","?","?","?","?","?","?","?","?","?","?","?","?","?","?","?","?","?","?","?","?","?","?","?","?","?","?","?","?","?","?","?","?","?","?","?","?","?","?","?","?","?","?","?","?","?","?","?","?","?","?","?","?","?","?","?","?","?","?","?","?","?","?","?","?","?","?","?","?","?","?","?","?","?","?","?","?","?","?","?","?","?","?","?","?","?","?","?","?","?","?","?","?","?","?","?","?","?","?","?","?","?","?","?","?","?","?","?","?","?","?","?","?","?","?","?","?","?","?","?","?","?","?","?","?","?","?","?","?","?","?","?","?","?","?","?","?","?","?","?","?","?","?","?","?","?","?","?","?","?","?","?","?","?","?","?","?","?","?","?","?","?","?","?","?","?","?","?","?","?","?","?","?","?","?","?","?","?","?","?","?","?","?","?","?","?","?","?","?","?","?","?","?","?","?","?","?","?","?","?","?","?","?","?","?","?","?","?","?","?","?","?","?","?","?","?","?","?","?","?","?","?","?","?","?","?","?","?","?","?","?","?","?","?","?","?","?","?","?","?","?","?","?","?","?","?","?","?","?","?","?","?","?","?","?","?","?","?","?","?","?","?","?","?","?","?","?","?","?","?","?","?","?","?","?","?","?","?","?","?","?","?","?","?","?","?","?","?","?","?","?","?","?","?","?","?","?","?","?","?","?","?","?","?","?","?","?","?","?","?","?","?","?","?","?","?","?","?","?","?","?","?","?","?","?","?","?","?","?","?","?","?","?","?","?","?","?","?","?","?","?","?","?","?","?","?","?","?","?","?","?","?","?","?","?","?","?","?","?","?","?","?","?","?","?","?","?","?","?","?","?","?","?","?","?","?","?","?","?","?","?","?","?","?","?","?","?","?","?","?","?","?","?","?","?","?","?","?","?","?","?","?","?","?","?","?","?","?","?","?","?","?","?","?","?","?","?","?","?","?","?","?","?","?","?","?","?","?","?","?","?","?","?","?","?","?","?","?","?","?","?","?","?","?","?","?","?","?","?","?","?","?","?","?","?","?","?","?","?","?","?","?","?","?","?","?","?","?","?","?","?","?","?","?","?","?","?","?","?","?","?","?","?","?","?","?","?","?","?","?","?","?","?","?","?","?","?","?","?","?","?","?","?","?","?","?","?","?","?","?","?","?","?","?","?","?","?","?","?","?","?","?","?","?","?","?","?","?","?","?","?","?","?","?","?","?","?","?","?","?","?","?","?","?","?","?","?","?","?","?","?","?","?","?","?","?","?","?","?","?","?","?","?","?","?","?","?","?","?","?","?","?","?","?","?","?","?","?","?","?","?","?","?","?","?","?","?","?","?","?","?","?","?","?","?","?","?","?","?","?","?","?","?","?","?","?","?","?","?","?","?","?","?","?","?","?","?","?","?","?","?","?","?","?","?","?","?","?","?","?","?","?","?","?","?","?","?","?","?","?","?","?","?","?","?","?","?","?","?","?","?","?","?","?","?","?","?","?","?","?","?","?","?","?","?","?","?","?","?","?","?","?","?","?","?","?","?","?","?","?","?","?","?","?","?","?","?","?","?","?","?","?","?","?","?","?","?","?","?","?","?","?","?","?","?","?","?","?","?","?","?","?","?","?","?","?","?","?","?","?","?","?","?","?","?","?","?","?","?","?","?","?","?","?","?","?","?","?","?","?","?","?","?","?","?","?","?","?","?","?","?","?","?","?","?","?","?","?","?","?","?","?","?","?","?","?","?","?","?","?","?","?","?","?","?","?","?","?","?","?","?","?","?","?","?","?","?","?","?","?","?","?","?","?","?","?","?","?","?","?","?","?","?","?","?","?","?","?","?","?","?","?","?","?","?","?","?","?","?","?","?","?","?","?","?","?","?","?","?","?","?","?","?","?","?","?","?","?","?","?","?","?","?","?","?","?","?","?","?","?","?","?","?","?","?","?","?","?","?","?","?","?","?","?","?","?","?","?","?","?","?","?","?","?","?","?","?","?","?","?","?","?","?","?","?","?","?","?","?","?","?","?","?","?","?","?","?","?","?","?","?","?","?","?","?","?","?","?","?","?","?","?","?","?","?","?","?","?","?","?","?","?","?","?","?","?","?","?","?","?","?","?","?","?","?","?","?","?","?","?","?","?","?","?","?","?","?","?","?","?","?","?","?","?","?","?","?","?","?","?","?","?","?","?","?","?","?","?","?","?","?","?","?","?","?","?","?","?","?","?","?","?","?","?","?","?","?","?","?","?","?","?","?","?","?","?","?","?","?","?","?","?","?","?","?","?","?","?","?","?","?","?","?","?","?","?","?","?","?","?","?","?","?","?","?","?","?","?","?","?","?","?","?","?","?","?","?","?","?","?","?","?","?","?","?","?","?","?","?","?","?","?","?","?","?","?","?","?","?","?","?","?","?","?","?","?","?","?","?","?","?","?","?","?","?","?","?","?","?","?","?","?","?","?","?","?","?","?","?","?","?","?","?","?","?","?","?","?","?","?","?","?","?","?","?","S","?","?","?","?","?","?","?","?","?","?","?","?","?","?","?","?","?","?","?","?","?","?","?","?","?","S","?","?","?","?","?","?","?","?","?","?","?","?","?","?","?","?","?","?","?","?","?","?","?","?","?","S","?","?","?","?","?","?","?","?","?","?","?","?","?","?","?","?","?","?","?","?","?","?","?","?","?","S","?","?","?","?","?","?","?","?","?","?","?","?","?","?","?","?","?","?","?","?","?","?","?","?","?","S","?","?","?","?","?","?","?","?","?","?","?","?","?","?","?","?","?","?","?","?","?","?","?","?","?","?","?","?","?","?","?","?","?","?","?","?","?","?","?","?","?","?","?","?","?","?","?","?","?","?","?","?","?","?","?","?","?","?","?","?","?","?","?","?","?","?","?","?","?","?","?","?","?","?","?","?","?","?","?","?","?","?","?","?","?","?","?","?","?","?","?","?","?","?","?","?","?","?","?","?","?","?","?","?","?","?","?","?","?","?","?","?","?","?","?","?","?","?","?","?","?","?","?","?","?","?","?","?","?","?","?","?","?","?","?","?","?","?","?","?","?","?","?","?","?","?","?","?","?","?","?","?","?","?","?","?","?","?","?","?","?","?","?","?","?","?","?","?","?","?","?","?","?","?","?","?","?","?","?","?","?","?","?","?","?","?","?","?","?","?","?","?","?","?","?","?","?","?","?","?","?","?","?","?","?","?","?","?","?","?","?","?","?","?","?","?","?","?","?","?","?","?","?","?","?","?","?","?","?","?","?","?","?","?","?","?","?","?","?","?","?","?","?","?","?","?","?","?","?","?","?","?","?","?","?","?","?","?","?","?","?","?","?","?","?","?","?","?","?","?","?","?","?","?","?","?","?","?","?","?","?","?","?","?","?","?","?","?","?","?","?","?","?","?","?","?","?","?","?","?","?","?","?","?","?","?","?","?","?","?","?","?","?","?","?","?","?","?","?","?","?","?","?","?","?","?","?","?","?","?","?","?","?","?","?","?","?","?","?","?","?","?","?","?","?","?","?","?","?","?","?","?","?","?","?","?","?","?","?","?","?","?","?","?","?","?","?","?","?","?","?","?","?","?","?","?","?","?","?","?","?","?","?","?","?","?","?","?","?","?","?","?","?","?","?","?","?","?","?","?","?","?","?","?","?","?","?","?","?","?","?","?","?","?","?","?","?","?","?","?","?","?","?","?","?","?","?","?","?","?","?","?","?","?","?","?","?","?","?","?","?","?","?","?","?","?","?","?","?","?","?","?","?","?","?","?","?","?","?","?","?","?","?","?","?","?","?","?","?","?","?","?","?","?","?","?","?","?","?","?","?","?","?","?","?","?","?","?","?","?","?","?","?","?","?","?","?","?","?","?","?","?","?","?","?","?","?","?","?","?","?","?","?","?","?","?","?","?","?","?","?","?","?","?","?","?","?","?","?","?","?","?","?","?","?","?","?","?","?","?","?","?","?","?","?","?","?","?","?","?","?","?","?","?","?","?","?","?","?","?","?","?","?","?","?","?","?","?","?","?","?","?","?","?","?","?","?","?","?","?","?","?","?","?","?","?","?","?","?","?","?","?","?","?","?","?","?","?","?","?","?","?","?","?","?","?","?","?","?","?","?","?","?","?","?","?","?","?","?","?","?","?","?","?","?","?","?","?","?","?","?","?","?","?","?","?","?","?","?","?","?","?","?","?","?","?","?","?","?","?","?","?","?","?","?","?","?","?","?","?","?","?","?","?","?","?","?","?","?","?","?","?","?","?","?","?","?","?","?","?","?","?","?","?","?","?","?","?","?","?","?","?","?","?","?","?","?","?","?","?","?","?","?","?","?","?","?","?","?","?","?","?","?","?","?","?","?","?","?","?","?","?","?","?","?","?","?","?","?","?","?","?","?","?","?","?","?","?","?","?","?","?","?","?","?","?","?","?","?","?","?","?","?","?","?","?","?","?","?","?","?","?","?","?","?","?","?","?","?","?","?","?","?","?","?","?","?","?","?","?","?","?","?","?","?","?","?","?","?","?","?","?","?","?","?","?","?","?","?","?","?","?","?","?","?","?","?","?","?","?","?","?","?","?","?","?","?","?","?","?","?","?","?","?","?","?","?","?","?","?","?","?","?","?","?","?","?","?","?","?","?","?","?","?","?","?","?","?","?","?","?","?","?","?","?","?","?","?","?","?","?","?","?","?","?","?","?","?","?","?","?","?","?","?","?","?","?","?","?","?","?","?","?","?","?","?","?","?","?","?","?","?","?","?","?","?","?","?","?","?","?","?","?","?","?","?","?","?","?","?","?","?","?","?","?","?","?","?","?","?","?","?","?","?","?","?","?","?","?","?","?","?","?","?","?","?","?","?","?","?","?","?","?","?","?","?","?","?","?","?","?","?","?","?","?","?","?","?","?","?","?","?","?","?","?","?","?","?","?","?","?","?","?","?","?","?","?","?","?","?","?","?","?","?","?","?","?","?","?","?","?","?","?","?","?","?","?","?","?","?","?","?","?","?","?","?","?","?","?","?","?","?","?","?","?","?","?","?","?","?","?","?","?","?","?","?","?","?","?","?","?","?","?","?","?","?","?","?","?","?","?","?","?","?","?","?","?","?","?","?","?","?","?","?","?","?","?","?","?","?","?","?","?","?","?","?","?","?","?","?","?","?","?","?","?","?","?","?","?","?","?","?","?","?","?","?","?","?","?","?","?","?","?","?","?","?","?","?","?","?","?","?","?","?","?","?","?","?","?","?","?","?","?","?","?","?","?","?","?","?","?","?","?","?","?","?","?","?","?","?","?","?","?","?","?","?","?","?","?","?","?","?","?","?","?","?","?","?","?","?","?","?","?","?","?","?","?","?","?","?","?","?","?","?","?","?","?","?","?","?","?","?","?","?","?","?","?","?","?","?","?","?","?","?","?","?","?","?","?","?","?","?","?","?","?","?","?","?","?","?","?","?","?","?","?","?","?","?","?","?","?","?","?","?","?","?","?","?","?","?","?","?","?","?","?","?","?","?","?","?","?","?","?","?","?","?","?","?","?","?","?","?","?","?","?","?","?","?","?","?","?","?","?","?","?","?","?","?","?","?","?","?","?","?","?","?","?","?","?","?","?","?","?","?","?","?","?","?","?","?","?","?","?","?","?","?","?","?","?","?","?","?","?","?","?","?","?","?","?","?","?","?","?","?","?","?","?","?","?","?","?","?","?","?","?","?","?","?","?","?","?","?","?","?","?","?","?","?","?","?","?","?","?","?","?","?","?","?","?","?","?","?","?","?","?","?","?","?","?","?","?","?","?","?","?","?","?","?","?","?","?","?","?","?","?","?","?","?","?","?","?","?","?","?","?","?","?","?","?","?","?","?","?","?","?","?","?","?","?","?","?","?","?","?","?","?","?","?","?","?","?","?","?","?","?","?","?","?","?","?","?","?","?","?","?","?","?","?","?","?","?","?","?","?","?","?","?","?","?","?","?","?","?","?","?","?","?","?","?","?","?","?","?","?","?","?","?","?","