[{"success":true,"trial_type":"fullscreen","trial_index":0,"time_elapsed":6196,"internal_node_id":"0.0-0.0","protocol_sum":"","subject_identifier":427,"subject_sum":[212,143,244,178,246,138,16,253,124,134,241,133,166,204,237,224,220,15,44,72,83,141,105,124,179,59,106,218,63,30,133,219],"subject_pair":213,"STUDY_ID":"66a22c0758a3d5c9d26873c6","PROLIFIC_PID":"6690464404e2d3a5271a608d","SESSION_ID":"66a2c6423a2b6bab72a32ca0","practice_instructions":1,"leaderboard_instructions":0,"bonus":0,"reveal_word":true,"self_rating":"3","confidence":"80"},{"view_history":"[{\"page_index\":0,\"viewing_time\":8276.899999976158}]","rt":8277.799999952316,"trial_type":"instructions","trial_index":1,"time_elapsed":14475,"internal_node_id":"0.0-1.0","protocol_sum":"","subject_identifier":427,"subject_sum":[212,143,244,178,246,138,16,253,124,134,241,133,166,204,237,224,220,15,44,72,83,141,105,124,179,59,106,218,63,30,133,219],"subject_pair":213,"STUDY_ID":"66a22c0758a3d5c9d26873c6","PROLIFIC_PID":"6690464404e2d3a5271a608d","SESSION_ID":"66a2c6423a2b6bab72a32ca0","practice_instructions":1,"leaderboard_instructions":0,"bonus":0,"reveal_word":true,"self_rating":"3","confidence":"80"},{"view_history":"[{\"page_index\":0,\"viewing_time\":34957}]","rt":34957.299999952316,"trial_type":"instructions","trial_index":2,"time_elapsed":49433,"internal_node_id":"0.0-2.0-0.0","protocol_sum":"","subject_identifier":427,"subject_sum":[212,143,244,178,246,138,16,253,124,134,241,133,166,204,237,224,220,15,44,72,83,141,105,124,179,59,106,218,63,30,133,219],"subject_pair":213,"STUDY_ID":"66a22c0758a3d5c9d26873c6","PROLIFIC_PID":"6690464404e2d3a5271a608d","SESSION_ID":"66a2c6423a2b6bab72a32ca0","practice_instructions":1,"leaderboard_instructions":0,"bonus":0,"reveal_word":true,"self_rating":"3","confidence":"80"},{"rt":15357,"responses":"{\"Q0\":\"... reveal the word with as <b>few letter guesses</b> as possible\"}","question_order":"[0]","trial_type":"survey-multi-choice","trial_index":3,"time_elapsed":64793,"internal_node_id":"0.0-2.0-1.0","protocol_sum":"","subject_identifier":427,"subject_sum":[212,143,244,178,246,138,16,253,124,134,241,133,166,204,237,224,220,15,44,72,83,141,105,124,179,59,106,218,63,30,133,219],"subject_pair":213,"correct":true,"test_part":"multichoice_nonpretend","STUDY_ID":"66a22c0758a3d5c9d26873c6","PROLIFIC_PID":"6690464404e2d3a5271a608d","SESSION_ID":"66a2c6423a2b6bab72a32ca0","practice_instructions":1,"leaderboard_instructions":0,"bonus":0,"reveal_word":true,"self_rating":"3","confidence":"80"},{"view_history":"[{\"page_index\":0,\"viewing_time\":3559}]","rt":3559.2000000476837,"trial_type":"instructions","trial_index":4,"time_elapsed":68353,"internal_node_id":"0.0-3.0","protocol_sum":"","subject_identifier":427,"subject_sum":[212,143,244,178,246,138,16,253,124,134,241,133,166,204,237,224,220,15,44,72,83,141,105,124,179,59,106,218,63,30,133,219],"subject_pair":213,"STUDY_ID":"66a22c0758a3d5c9d26873c6","PROLIFIC_PID":"6690464404e2d3a5271a608d","SESSION_ID":"66a2c6423a2b6bab72a32ca0","practice_instructions":1,"leaderboard_instructions":0,"bonus":0,"reveal_word":true,"self_rating":"3","confidence":"80"},{"word":"ZEBRA","click_log":{"letter":["","A","Z","E","B","R"],"t":[0,23656.600000023842,27212.699999928474,30198.399999976158,31669.199999928474,33696.5],"hit":[null,1,1,1,1,1],"asked":["","A","AZ","AZE","AZEB","AZEBR"],"word_state":["_____","____A","Z___A","ZE__A","ZEB_A","ZEBRA"]},"hover_log":{"letter":["?","?","K","L","M","?","O","?","R","?","?","?","?","?","?","?","?","?","?","?","?","?","?","?","?","?","?","?","?","?","?","?","?","?","?","?","?","?","?","?","?","?","?","?","?","?","?","?","?","?","?","?","?","?","?","?","?","?","?","?","?","?","?","?","?","?","?","?","?","?","?","?","?","?","?","?","?","?","?","?","?","?","?","?","?","?","?","?","?","?","?","?","?","?","?","?","?","?","?","?","?","?","?","?","?","?","?","?","?","?","?","?","?","?","?","?","?","?","?","?","?","?","?","?","?","?","?","?","?","?","?","?","?","?","?","?","?","?","?","?","?","?","?","?","?","?","?","?","?","?","?","?","?","?","?","?","?","?","?","?","?","?","?","?","?","?","?","?","?","?","?","?","?","?","?","?","?","?","?","?","?","?","?","?","?","?","?","?","?","?","?","?","?","?","?","?","?","?","?","?","?","?","?","?","?","?","?","?","?","?","?","?","?","?","?","?","?","?","?","?","?","?","?","?","?","?","?","?","?","?","?","?","?","?","?","?","?","?","?","?","?","?","?","?","?","?","?","?","?","?","?","?","?","?","?","?","?","?","?","?","?","?","?","?","?","?","?","?","?","?","?","?","?","?","?","?","?","?","?","?","?","?","?","?","?","?","?","?","?","?","?","?","?","?","?","?","?","?","?","?","?","?","?","?","?","?","?","?","?","?","?","?","?","?","?","?","?","?","?","?","?","?","?","?","?","?","?","?","?","?","?","?","?","?","?","?","?","?","?","?","?","?","?","?","?","?","?","?","?","?","?","?","?","?","?","?","?","?","?","?","?","?","?","?","?","?","?","?","?","?","?","?","?","?","?","?","?","?","?","?","?","?","?","?","?","?","?","?","?","?","?","?","?","?","?","?","?","?","?","?","?","?","?","?","?","?","?","?","?","?","?","?","?","?","?","?","?","?","?","?","?","?","?","?","?","?","?","?","?","?","?","?","?","?","?","?","?","?","?","?","?","?","?","?","?","?","?","?","?","?","?","?","?","?","?","?","?","?","?","?","?","?","?","?","?","?","?","?","?","?","?","?","?","?","?","?","?","?","?","?","?","?","?","?","?","?","?","?","?","?","?","?","?","?","?","?","?","?","?","?","?","?","?","?","?","?","?","?","?","?","?","?","?","?","?","?","?","?","?","?","?","?","?","?","?","?","?","?","?","?","?","?","?","?","?","?","?","?","?","?","?","?","?","?","?","?","?","?","?","?","?","?","?","?","?","?","?","?","?","?","?","?","?","?","?","?","?","?","?","?","?","?","?","?","?","?","?","?","?","?","?","?","?","?","?","?","?","?","?","?","?","?","?","?","?","?","?","?","?","?","?","?","?","?","?","?","?","?","?","?","?","?","?","?","?","?","?","?","?","?","?","?","?","?","?","?","?","?","?","?","?","?","?","?","?","?","?","?","?","?","?","?","?","?","?","?","?","?","?","?","?","?","?","?","?","?","?","?","?","?","?","?","?","?","?","?","?","?","?","?","?","?","?","?","?","?","?","?","?","?","?","?","?","?","?","?","?","?","?","?","?","?","?","?","?","?","?","?","?","?","?","?","?","?","?","?","?","?","?","?","?","?","?","?","?","?","?","?","?","?","?","?","?","?","?","?","?","?","?","?","?","?","?","?","?","?","?","?","?","?","?","?","?","?","?","?","?","?","?","?","?","?","?","?","?","?","?","?","?","B","B","B","B","B","B","B","B","B","B","B","B","B","B","B","B","B","B","B","B","B","B","B","B","B","B","B","B","B","B","B","B","B","B","B","B","B","B","B","B","B","B","B","B","B","B","B","B","B","B","B","B","B","B","B","B","B","B","B","B","B","B","B","B","B","B","B","B","B","B","B","B","B","B","B","B","B","B","B","B","B","B","B","B","B","B","B","B","B","B","B","B","B","B","B","B","B","B","B","B","B","B","B","B","B","B","B","B","B","B","B","B","B","B","B","B","B","B","B","B","B","B","B","B","B","B","B","B","B","B","B","B","B","B","B","B","B","B","B","B","B","B","B","B","B","B","B","B","B","B","B","B","B","B","B","B","B","B","B","B","B","B","B","B","B","B","B","B","B","B","B","B","B","B","B","B","B","B","B","B","B","B","B","B","B","B","B","B","B","B","B","B","B","B","B","B","B","B","B","B","B","B","B","B","B","B","B","B","B","B","B","B","B","B","B","B","B","B","B","B","B","B","B","B","B","B","B","B","B","B","B","B","B","B","B","B","B","B","B","B","B","B","B","B","B","B","B","B","B","B","B","B","B","B","B","B","B","B","B","B","B","B","B","B","B","B","B","B","B","B","B","B","B","B","B","B","?","C","C","C","C","C","C","C","C","C","C","?","?","?","?","?","?","?","?","?","?","?","?","?","?","?","?","?","?","?","?","?","?","?","?","?","?","?","?","?","?","?","C","C","C","C","C","C","C","C","C","C","C","C","C","C","C","C","C","C","C","C","C","C","C","C","C","C","C","C","C","C","C","C","C","C","C","C","C","C","C","C","C","C","C","C","C","C","C","C","C","C","C","C","C","C","C","C","C","C","C","C","C","C","C","C","C","C","C","C","C","C","C","C","C","C","C","C","C","C","C","?","?","?","?","?","?","?","L","L","L","L","L","L","L","L","L","L","L","L","L","L","L","L","L","L","L","L","L","L","L","L","L","L","L","L","L","L","L","L","L","L","?","?","U","U","U","U","U","U","?","?","?","?","?","?","?","?","?","?","?","?","?","?","?","?","?","?","?","?","?","?","?","?","?","?","?","?","?","?","?","?","?","?","?","?","?","?","?","?","?","?","?","?","?","?","?","?","?","?","?","?","?","?","?","?","?","?","?","?","?","?","?","?","?","?","?","?","?","T","T","?","?","?","K","K","?","?","?","?","?","B","B","B","B","B","B","B","B","B","B","B","B","B","B","B","B","B","B","B","B","B","B","B","B","B","B","B","B","B","B","B","B","B","B","B","B","B","B","B","B","B","B","B","B","B","B","B","B","B","B","B","B","B","B","B","B","B","B","B","B","B","B","B","B","B","B","B","B","B","B","B","B","B","B","B","B","B","B","B","B","B","?","?","A","A","A","A","A","A","A","A","A","A","A","A","A","A","A","A","A","A","A","A","A","A","A","A","A","A","A","A","A","A","A","A","A","A","A","A","A","A","A","A","A","A","A","A","A","A","A","A","A","A","A","A","A","A","A","A","A","A","A","A","A","A","A","A","A","A","A","A","A","A","A","A","A","A","A","A","A","A","A","A","A","A","A","A","A","A","A","A","A","A","A","A","A","A","A","A","A","A","A","A","A","A","A","A","A","A","A","?","?","?","?","?","?","?","?","?","?","?","?","?","?","?","?","?","?","?","?","?","?","?","?","?","?","?","?","?","?","?","?","?","?","?","?","?","?","?","?","?","?","?","?","?","?","?","?","?","?","?","?","?","?","?","?","?","?","?","?","?","?","?","?","?","?","?","?","?","?","?","?","?","?","?","?","?","?","?","?","?","?","?","?","?","?","?","?","?","?","?","?","?","?","?","?","?","Z","Z","Z","Z","Z","Z","Z","Z","Z","Z","Z","Z","Z","Z","Z","Z","Z","Z","Z","Z","Z","Z","Z","Z","Z","Z","Z","Z","Z","Z","Z","Z","Z","Z","Z","Z","Z","Z","Z","Z","Z","Z","Z","Z","Z","Z","Z","Z","Z","Z","Z","Z","Z","Z","Z","Z","Z","Z","Z","Z","Z","Z","Z","Z","Z","Z","Z","Z","Z","Z","Z","Z","Z","Z","Z","Z","Z","Z","Z","Z","Z","Z","Z","Z","Z","Z","Z","Z","Z","Z","Z","Z","Z","Z","Z","Z","Z","?","?","C","?","B","?","?","?","?","?","?","?","?","?","?","?","?","?","?","?","?","?","?","?","?","?","?","?","?","D","D","D","D","?","?","?","?","?","?","?","?","?","?","E","E","E","E","E","E","E","E","E","E","E","E","E","E","E","E","E","E","E","E","E","E","E","E","E","E","E","E","E","E","E","E","E","E","E","E","E","E","E","E","E","E","E","E","E","E","E","E","E","E","E","E","E","E","E","E","E","E","E","E","E","E","E","E","E","E","E","E","E","E","E","E","E","E","E","E","E","E","E","E","E","E","E","E","E","E","E","E","E","E","E","E","E","E","E","E","E","E","E","E","E","E","E","E","E","E","E","E","E","E","E","E","E","E","E","E","E","E","E","E","E","E","?","?","?","?","?","?","?","?","?","?","?","?","?","?","?","?","?","?","?","?","?","B","B","B","B","B","B","B","B","B","B","B","B","B","B","B","B","B","B","B","B","B","B","B","B","B","B","B","B","B","B","B","B","B","B","B","B","B","B","B","B","B","B","B","B","B","B","B","B","B","B","B","B","B","B","B","B","B","B","B","B","B","B","B","B","B","B","B","B","B","B","B","B","B","B","?","?","?","?","?","?","?","?","?","L","L","L","L","L","?","?","M","M","M","?","N","N","?","O","O","P","P","?","Q","Q","Q","Q","Q","Q","?","?","?","?","?","R","R","R","R","R","R","R","R","R","R","R","R","R","R","R","R","R","R","R","R","R","R","R","R","R","R","R","R","R","R","R","R","R","R","R","R","R","R","R","R","R","R","R","R","R","R","R","R","R","R","R","R","R","R","R","R","R","R","R","R","R","R","R","R","R","R","R","R","R","R","R","R","R","R","R","R","R","R","R","R","R","R","R","R","R","R","R","?","?","?","?","?","?","?","?","?","?","?","?","?","?","?","?","?","?","?","?","?","?","?","?","?","?","?","?","?","?","?","?","?","?","?","?","?","?","?","?","?","?","?","?","?","?","?","?","?","?","?","?","?","?","?","?","?","?","?","?","?","?","?","?","?","?","?","?","?","?","?","?","?","?","?","?","?","?","?","?","?","?","?","?","?"],"t":[41,48,74,89,105,123,144,155,172,189,206,221,238,255,271,289,305,323,338,355,371,388,404,421,438,455,471,488,504,522,538,555,572,588,605,622,639,654,672,688,704,721,738,755,771,788,804,821,838,854,871,888,904,922,938,955,971,988,1005,1021,1037,1054,1071,1088,1104,1122,1138,1155,1171,1189,1205,1221,1238,1255,1273,1288,1304,1321,1338,1355,1372,1388,1405,1422,1438,1455,1472,1488,1504,1521,1538,1556,1571,1588,1605,1621,1638,1655,1672,1688,1705,1721,1738,1755,1772,1788,1805,1822,1838,1855,1871,1888,1905,1922,1938,1954,1971,1988,2005,2022,2038,2055,2072,2088,2104,2122,2138,2155,2171,2188,2204,2221,2238,2254,2272,2288,2304,2321,2338,2355,2371,2389,2404,2422,2438,2455,2473,2488,2505,2522,2538,2555,2571,2588,2605,2621,2638,2654,2671,2688,2705,2721,2738,2755,2771,2788,2805,2822,2838,2855,2871,2888,2905,2921,2938,2955,2972,2988,3005,3021,3038,3055,3071,3088,3105,3122,3138,3156,3171,3188,3204,3221,3238,3254,3271,3288,3305,3322,3338,3355,3372,3388,3405,3421,3438,3455,3471,3488,3504,3521,3538,3555,3572,3588,3605,3622,3638,3655,3671,3688,3704,3721,3738,3755,3771,3788,3805,3821,3838,3855,3871,3888,3905,3922,3938,3955,3972,3988,4005,4021,4038,4055,4071,4088,4104,4122,4138,4155,4171,4188,4205,4221,4238,4254,4271,4289,4305,4321,4337,4355,4371,4388,4405,4422,4439,4454,4471,4488,4505,4522,4538,4554,4571,4588,4605,4622,4638,4654,4671,4688,4704,4720,4738,4755,4771,4788,4805,4822,4838,4855,4872,4888,4905,4921,4938,4955,4971,4989,5004,5022,5038,5054,5071,5088,5105,5121,5138,5155,5171,5188,5205,5222,5238,5255,5271,5287,5304,5321,5338,5355,5371,5388,5404,5421,5438,5454,5471,5488,5505,5522,5538,5555,5572,5588,5604,5621,5638,5655,5671,5688,5705,5722,5738,5755,5772,5788,5805,5821,5838,5855,5871,5888,5906,5921,5938,5955,5971,5988,6005,6022,6038,6055,6071,6088,6105,6122,6138,6155,6171,6188,6205,6221,6238,6254,6271,6288,6305,6322,6337,6354,6371,6388,6405,6422,6438,6455,6471,6488,6505,6524,6538,6555,6572,6588,6605,6621,6638,6655,6671,6688,6705,6721,6737,6755,6771,6788,6805,6821,6838,6855,6872,6888,6905,6921,6938,6955,6972,6988,7005,7022,7038,7055,7071,7088,7105,7121,7138,7155,7171,7188,7205,7221,7238,7254,7271,7288,7305,7322,7338,7355,7373,7387,7404,7422,7438,7455,7472,7488,7505,7522,7538,7555,7572,7588,7605,7621,7638,7655,7671,7688,7705,7721,7738,7755,7772,7788,7805,7822,7838,7855,7872,7888,7904,7921,7938,7954,7972,7988,8005,8022,8038,8054,8071,8088,8105,8121,8138,8155,8172,8188,8205,8222,8238,8254,8272,8288,8305,8322,8338,8355,8372,8388,8405,8422,8439,8455,8472,8488,8505,8521,8538,8555,8571,8587,8604,8621,8638,8655,8671,8688,8705,8722,8738,8755,8772,8788,8805,8821,8838,8854,8871,8888,8905,8922,8938,8955,8972,8988,9005,9022,9038,9055,9071,9088,9105,9121,9138,9155,9171,9188,9205,9222,9238,9255,9271,9288,9304,9322,9338,9355,9372,9388,9405,9422,9438,9455,9471,9488,9505,9522,9538,9555,9572,9588,9605,9622,9638,9655,9672,9688,9705,9722,9738,9755,9772,9788,9805,9821,9838,9855,9871,9888,9904,9922,9938,9955,9972,9989,10005,10021,10038,10054,10071,10088,10105,10122,10138,10155,10171,10188,10205,10222,10239,10255,10271,10288,10305,10321,10338,10355,10372,10388,10405,10421,10438,10455,10471,10489,10505,10522,10538,10555,10571,10588,10605,10621,10638,10655,10671,10687,10705,10721,10738,10755,10771,10788,10805,10821,10838,10854,10871,10888,10905,10921,10938,10954,10971,10988,11005,11025,11038,11055,11072,11089,11105,11123,11138,11155,11172,11188,11205,11221,11239,11255,11272,11287,11304,11322,11338,11356,11371,11389,11404,11422,11439,11455,11472,11488,11505,11522,11538,11555,11571,11588,11605,11622,11638,11655,11673,11688,11705,11721,11739,11756,11771,11789,11805,11821,11837,11854,11871,11888,11905,11922,11938,11955,11971,11988,12005,12022,12038,12055,12071,12088,12105,12122,12138,12155,12172,12188,12204,12221,12238,12255,12272,12288,12304,12321,12338,12355,12372,12388,12405,12421,12438,12455,12471,12489,12505,12522,12539,12555,12572,12589,12605,12622,12638,12655,12672,12689,12705,12722,12738,12755,12773,12788,12805,12821,12838,12855,12872,12889,12904,12921,12938,12954,12971,12987,13005,13022,13038,13055,13071,13088,13105,13121,13138,13155,13172,13188,13205,13222,13238,13255,13271,13288,13305,13322,13339,13355,13372,13389,13406,13422,13438,13455,13472,13488,13505,13522,13538,13555,13572,13589,13605,13621,13638,13656,13672,13688,13705,13721,13738,13755,13772,13788,13805,13821,13838,13855,13872,13888,13905,13922,13937,13955,13972,13989,14005,14022,14038,14055,14072,14088,14105,14122,14138,14155,14171,14188,14205,14222,14238,14255,14272,14288,14305,14321,14338,14355,14371,14389,14405,14422,14438,14455,14471,14489,14505,14521,14538,14555,14572,14588,14605,14621,14638,14655,14672,14688,14705,14722,14739,14755,14771,14789,14805,14821,14838,14855,14872,14888,14905,14921,14938,14955,14971,14988,15005,15021,15038,15055,15071,15088,15105,15121,15138,15155,15171,15189,15205,15221,15238,15255,15273,15289,15305,15322,15339,15355,15372,15388,15405,15422,15438,15455,15472,15488,15505,15522,15539,15555,15571,15588,15605,15622,15639,15655,15672,15688,15705,15722,15739,15755,15772,15789,15805,15822,15838,15855,15872,15888,15905,15921,15938,15955,15972,15988,16005,16022,16039,16055,16072,16089,16105,16123,16139,16155,16171,16188,16205,16222,16238,16255,16272,16288,16305,16321,16338,16355,16372,16388,16405,16421,16438,16455,16472,16489,16505,16521,16539,16555,16572,16588,16605,16622,16638,16655,16672,16689,16705,16721,16738,16755,16772,16789,16805,16822,16839,16855,16872,16888,16905,16922,16938,16955,16971,16988,17005,17022,17038,17055,17071,17088,17105,17122,17137,17155,17172,17188,17205,17221,17238,17255,17272,17290,17305,17322,17338,17355,17373,17388,17405,17422,17438,17455,17472,17489,17505,17522,17538,17555,17571,17588,17605,17621,17638,17654,17671,17688,17705,17721,17738,17755,17772,17788,17805,17822,17839,17855,17871,17889,17905,17921,17938,17955,17971,17988,18006,18021,18038,18055,18072,18088,18105,18122,18138,18155,18171,18189,18205,18222,18238,18255,18271,18288,18305,18321,18338,18355,18372,18389,18405,18422,18438,18455,18471,18489,18505,18522,18538,18555,18571,18588,18605,18623,18638,18655,18671,18689,18705,18722,18738,18755,18771,18789,18805,18822,18839,18855,18872,18889,18905,18922,18938,18955,18972,18989,19005,19022,19038,19054,19071,19088,19104,19121,19138,19154,19171,19187,19205,19222,19238,19255,19271,19289,19305,19322,19339,19354,19371,19388,19405,19422,19438,19456,19472,19488,19505,19521,19538,19555,19571,19587,19605,19621,19638,19655,19671,19689,19705,19721,19738,19755,19771,19788,19805,19821,19838,19855,19872,19889,19905,19922,19937,19955,19972,19988,20006,20022,20039,20055,20071,20089,20105,20122,20138,20155,20172,20188,20206,20222,20238,20254,20271,20289,20305,20322,20338,20354,20372,20388,20405,20422,20438,20455,20472,20488,20505,20523,20538,20554,20571,20588,20604,20621,20638,20655,20673,20688,20704,20721,20738,20755,20772,20788,20805,20822,20839,20855,20871,20888,20905,20922,20938,20955,20972,20989,21005,21022,21039,21055,21072,21089,21105,21122,21139,21155,21172,21188,21205,21221,21238,21255,21272,21289,21304,21322,21339,21355,21373,21388,21405,21421,21438,21455,21471,21489,21505,21523,21538,21556,21573,21588,21605,21622,21638,21655,21672,21689,21705,21722,21738,21755,21771,21788,21806,21821,21839,21855,21872,21888,21905,21922,21938,21955,21971,21989,22005,22022,22038,22055,22072,22088,22105,22121,22138,22155,22172,22188,22205,22222,22239,22254,22271,22288,22305,22322,22339,22355,22371,22389,22405,22422,22439,22455,22472,22488,22505,22522,22539,22555,22572,22589,22605,22622,22639,22655,22672,22688,22705,22721,22738,22755,22771,22789,22804,22821,22839,22855,22872,22888,22905,22922,22938,22954,22971,22989,23005,23022,23037,23055,23071,23088,23104,23121,23138,23155,23171,23189,23206,23222,23238,23255,23271,23288,23304,23321,23338,23355,23371,23389,23406,23421,23439,23455,23472,23489,23505,23522,23539,23556,23572,23589,23605,23623,23639,23655,23673,23689,23706,23722,23739,23755,23771,23789,23806,23822,23839,23855,23872,23889,23905,23921,23938,23955,23972,23989,24005,24022,24039,24055,24072,24089,24106,24122,24139,24155,24172,24189,24205,24222,24238,24255,24272,24288,24305,24322,24339,24355,24372,24388,24405,24422,24438,24455,24472,24488,24505,24522,24538,24555,24571,24588,24605,24622,24639,24655,24671,24689,24705,24722,24738,24756,24772,24789,24807,24822,24839,24855,24872,24889,24905,24922,24938,24956,24972,24989,25005,25022,25039,25055,25072,25089,25105,25122,25139,25155,25172,25189,25205,25221,25238,25255,25271,25288,25305,25321,25338,25355,25372,25388,25404,25422,25438,25455,25471,25489,25505,25522,25539,25555,25572,25589,25605,25622,25638,25655,25672,25688,25705,25723,25739,25756,25772,25789,25805,25822,25838,25855,25872,25888,25905,25922,25939,25955,25972,25988,26005,26022,26038,26055,26072,26088,26105,26122,26138,26155,26172,26189,26205,26222,26238,26256,26271,26288,26305,26322,26337,26355,26371,26389,26405,26421,26438,26455,26472,26489,26505,26522,26538,26555,26571,26588,26605,26622,26638,26655,26672,26689,26705,26722,26739,26755,26772,26789,26805,26821,26839,26855,26872,26889,26905,26922,26939,26955,26972,26989,27005,27022,27039,27055,27071,27089,27105,27121,27138,27155,27172,27189,27205,27222,27238,27255,27272,27288,27305,27321,27339,27356,27372,27389,27405,27422,27438,27455,27472,27489,27506,27522,27538,27555,27574,27588,27605,27622,27638,27655,27672,27689,27705,27723,27739,27757,27772,27788,27805,27822,27839,27856,27872,27889,27905,27922,27939,27956,27972,27988,28006,28022,28039,28055,28072,28088,28105,28122,28138,28155,28172,28188,28206,28221,28238,28255,28272,28289,28305,28323,28338,28355,28372,28389,28406,28422,28439,28455,28472,28489,28505,28522,28538,28555,28572,28589,28605,28622,28639,28655,28672,28689,28705,28721,28738,28755,28771,28788,28805,28821,28838,28856,28871,28889,28905,28921,28938,28955,28971,28989,29005,29021,29038,29055,29072,29088,29105,29122,29139,29155,29172,29189,29205,29222,29239,29255,29272,29288,29305,29322,29339,29355,29371,29389,29405,29421,29438,29455,29472,29488,29504,29521,29538,29555,29571,29588,29605,29622,29638,29655,29672,29689,29706,29722,29739,29755,29772,29788,29805,29822,29839,29855,29871,29888,29905,29922,29938,29955,29971,29988,30005,30022,30039,30056,30072,30089,30105,30122,30139,30155,30172,30189,30205,30222,30238,30255,30272,30289,30306,30322,30338,30355,30372,30388,30405,30422,30439,30455,30472,30489,30505,30523,30538,30554,30572,30588,30606,30622,30638,30655,30672,30689,30705,30722,30739,30755,30772,30789,30805,30822,30839,30855,30872,30888,30905,30922,30939,30956,30972,30989,31005,31022,31039,31055,31072,31088,31104,31121,31139,31155,31172,31189,31206,31222,31239,31255,31271,31288,31305,31322,31339,31355,31371,31388,31405,31422,31439,31455,31471,31489,31505,31522,31538,31555,31571,31588,31605,31621,31638,31655,31671,31688,31705,31722,31738,31755,31772,31789,31805,31821,31839,31855,31872,31889,31905,31922,31939,31956,31972,31988,32005,32022,32038,32056,32072,32089,32105,32122,32139,32155,32172,32189,32205,32223,32238,32255,32272,32289,32305,32322,32340,32356,32372,32389,32405,32422,32438,32456,32472,32489,32505,32521,32539,32555,32573,32588,32606,32623,32638,32656,32672,32690,32705,32722,32739,32755,32772,32789,32805,32822,32839,32855,32872,32890,32905,32922,32938,32956,32972,32988,33005,33022,33039,33055,33072,33089,33105,33122,33138,33155,33172,33189,33205,33222,33239,33255,33272,33288,33305,33322,33339,33355,33372,33388,33405,33421,33438,33455,33472,33488,33505,33522,33539,33555,33572,33589,33605,33621,33638,33654,33672,33688,33708,33722,33738,33755,33772,33789,33805,33822,33838,33856,33872,33889,33906,33922,33938,33955,33972,33989,34005,34022,34039,34055,34072,34089,34106,34122,34139,34155,34172,34188,34205,34222,34239,34256,34272,34289,34307,34322,34340,34356,34372,34389,34405,34422,34439,34456,34472,34489,34505,34522,34538,34556,34573,34588,34605,34622,34639,34655,34672,34689,34705,34721,34739,34756,34772,34789,34806,34822,34839,34855,34872,34888,34906,34922,34939,34955,34972,34989,35005,35022,35039,35056,35072,35089,35105,35122,35139,35155,35172,35189,35205,35222,35239,35255,35272,35289,35305,35322,35338,35355,35372,35389,35406,35422,35439,35456,35472,35489,35506,35522,35539,35555,35572,35589,35606,35622,35638,35655,35672,35688,35706],"hit":[null],"x":[-2.0408163265306123,-2.0408163265306123,0.1054421768707483,0.272108843537415,0.47619047619047616,0.6360544217687075,0.7653061224489796,1.0612244897959184,1.1972789115646258,1.510204081632653,1.6156462585034013,1.8095238095238095,1.901360544217687,1.9829931972789117,2.0306122448979593,2.061224489795918,2.098639455782313,2.1122448979591835,2.1530612244897958,2.1802721088435373,2.204081632653061,2.227891156462585,2.2312925170068025,2.2346938775510203,2.2346938775510203,2.241496598639456,2.241496598639456,2.241496598639456,2.241496598639456,2.241496598639456,2.241496598639456,2.238095238095238,2.2346938775510203,2.227891156462585,2.2244897959183674,2.2210884353741496,2.2176870748299318,2.2176870748299318,2.2142857142857144,2.2142857142857144,2.2142857142857144,2.2142857142857144,2.207482993197279,2.207482993197279,2.207482993197279,2.207482993197279,2.207482993197279,2.207482993197279,2.207482993197279,2.207482993197279,2.207482993197279,2.207482993197279,2.207482993197279,2.207482993197279,2.207482993197279,2.207482993197279,2.207482993197279,2.207482993197279,2.207482993197279,2.207482993197279,2.207482993197279,2.207482993197279,2.207482993197279,2.207482993197279,2.207482993197279,2.207482993197279,2.207482993197279,2.207482993197279,2.207482993197279,2.207482993197279,2.207482993197279,2.207482993197279,2.207482993197279,2.207482993197279,2.207482993197279,2.207482993197279,2.207482993197279,2.207482993197279,2.207482993197279,2.207482993197279,2.207482993197279,2.207482993197279,2.207482993197279,2.207482993197279,2.207482993197279,2.207482993197279,2.207482993197279,2.207482993197279,2.207482993197279,2.207482993197279,2.207482993197279,2.207482993197279,2.207482993197279,2.207482993197279,2.207482993197279,2.207482993197279,2.207482993197279,2.207482993197279,2.207482993197279,2.207482993197279,2.207482993197279,2.207482993197279,2.207482993197279,2.207482993197279,2.207482993197279,2.207482993197279,2.207482993197279,2.207482993197279,2.207482993197279,2.207482993197279,2.207482993197279,2.207482993197279,2.207482993197279,2.207482993197279,2.207482993197279,2.207482993197279,2.207482993197279,2.207482993197279,2.207482993197279,2.207482993197279,2.207482993197279,2.207482993197279,2.207482993197279,2.207482993197279,2.207482993197279,2.207482993197279,2.207482993197279,2.207482993197279,2.207482993197279,2.207482993197279,2.207482993197279,2.207482993197279,2.207482993197279,2.207482993197279,2.207482993197279,2.17687074829932,2.1258503401360542,2.0714285714285716,2.020408163265306,1.9931972789115646,1.9489795918367347,1.9081632653061225,1.8401360544217686,1.8027210884353742,1.7687074829931972,1.7312925170068028,1.7108843537414966,1.6870748299319729,1.6734693877551021,1.663265306122449,1.653061224489796,1.6462585034013606,1.6428571428571428,1.6360544217687074,1.6360544217687074,1.6360544217687074,1.6360544217687074,1.6360544217687074,1.6360544217687074,1.6360544217687074,1.6360544217687074,1.6360544217687074,1.6360544217687074,1.6360544217687074,1.6360544217687074,1.6360544217687074,1.6360544217687074,1.6360544217687074,1.6360544217687074,1.6360544217687074,1.6360544217687074,1.6360544217687074,1.6360544217687074,1.6360544217687074,1.6360544217687074,1.6360544217687074,1.6360544217687074,1.6360544217687074,1.6360544217687074,1.6360544217687074,1.6360544217687074,1.6360544217687074,1.6360544217687074,1.6360544217687074,1.6360544217687074,1.6360544217687074,1.6360544217687074,1.6360544217687074,1.6360544217687074,1.6360544217687074,1.6360544217687074,1.6360544217687074,1.6360544217687074,1.6360544217687074,1.6360544217687074,1.6360544217687074,1.6360544217687074,1.6360544217687074,1.6360544217687074,1.6360544217687074,1.6360544217687074,1.6360544217687074,1.6360544217687074,1.6360544217687074,1.6360544217687074,1.6360544217687074,1.6360544217687074,1.6360544217687074,1.6360544217687074,1.6360544217687074,1.6360544217687074,1.6360544217687074,1.6360544217687074,1.6360544217687074,1.6360544217687074,1.6360544217687074,1.6360544217687074,1.6360544217687074,1.6360544217687074,1.6360544217687074,1.6360544217687074,1.6360544217687074,1.6360544217687074,1.6360544217687074,1.6360544217687074,1.6360544217687074,1.6360544217687074,1.6360544217687074,1.6360544217687074,1.6360544217687074,1.6360544217687074,1.6360544217687074,1.6360544217687074,1.6360544217687074,1.6360544217687074,1.6360544217687074,1.6360544217687074,1.6360544217687074,1.6360544217687074,1.6360544217687074,1.6360544217687074,1.6360544217687074,1.6360544217687074,1.6360544217687074,1.6360544217687074,1.6360544217687074,1.6360544217687074,1.6360544217687074,1.6360544217687074,1.6360544217687074,1.6360544217687074,1.6360544217687074,1.6360544217687074,1.6360544217687074,1.6360544217687074,1.6360544217687074,1.6360544217687074,1.6360544217687074,1.6360544217687074,1.6360544217687074,1.6360544217687074,1.6360544217687074,1.6360544217687074,1.6360544217687074,1.6360544217687074,1.6360544217687074,1.6360544217687074,1.6360544217687074,1.6360544217687074,1.6360544217687074,1.6360544217687074,1.6360544217687074,1.6360544217687074,1.6360544217687074,1.6360544217687074,1.6360544217687074,1.6360544217687074,1.6360544217687074,1.6360544217687074,1.6360544217687074,1.6360544217687074,1.6360544217687074,1.6360544217687074,1.6360544217687074,1.6360544217687074,1.6360544217687074,1.6360544217687074,1.6360544217687074,1.6360544217687074,1.6360544217687074,1.6360544217687074,1.6360544217687074,1.6360544217687074,1.6360544217687074,1.6360544217687074,1.6360544217687074,1.6360544217687074,1.6360544217687074,1.6360544217687074,1.6360544217687074,1.6360544217687074,1.6360544217687074,1.6360544217687074,1.6360544217687074,1.6360544217687074,1.6360544217687074,1.6360544217687074,1.6360544217687074,1.6360544217687074,1.6360544217687074,1.6360544217687074,1.6360544217687074,1.6360544217687074,1.6360544217687074,1.6360544217687074,1.6360544217687074,1.6360544217687074,1.6360544217687074,1.6360544217687074,1.6360544217687074,1.6360544217687074,1.6360544217687074,1.6360544217687074,1.6360544217687074,1.6360544217687074,1.6360544217687074,1.6360544217687074,1.6360544217687074,1.6360544217687074,1.6360544217687074,1.6360544217687074,1.6360544217687074,1.6360544217687074,1.6360544217687074,1.6360544217687074,1.6360544217687074,1.6360544217687074,1.6360544217687074,1.6360544217687074,1.6360544217687074,1.6360544217687074,1.6360544217687074,1.6360544217687074,1.6360544217687074,1.6360544217687074,1.6360544217687074,1.6360544217687074,1.6360544217687074,1.6360544217687074,1.6360544217687074,1.6360544217687074,1.6360544217687074,1.6360544217687074,1.6360544217687074,1.6360544217687074,1.6360544217687074,1.6360544217687074,1.6360544217687074,1.6360544217687074,1.6360544217687074,1.6360544217687074,1.6360544217687074,1.6360544217687074,1.6360544217687074,1.6360544217687074,1.6360544217687074,1.6360544217687074,1.6360544217687074,1.6360544217687074,1.6360544217687074,1.6360544217687074,1.6360544217687074,1.6360544217687074,1.6360544217687074,1.6360544217687074,1.6360544217687074,1.6360544217687074,1.6360544217687074,1.6360544217687074,1.6360544217687074,1.6360544217687074,1.6360544217687074,1.6360544217687074,1.6360544217687074,1.6360544217687074,1.6360544217687074,1.6360544217687074,1.6360544217687074,1.6360544217687074,1.6360544217687074,1.6360544217687074,1.6360544217687074,1.6360544217687074,1.6360544217687074,1.6360544217687074,1.6360544217687074,1.6360544217687074,1.6360544217687074,1.6360544217687074,1.6360544217687074,1.6360544217687074,1.6360544217687074,1.6360544217687074,1.6360544217687074,1.6360544217687074,1.6360544217687074,1.6360544217687074,1.6360544217687074,1.6360544217687074,1.6360544217687074,1.6360544217687074,1.6360544217687074,1.6360544217687074,1.6360544217687074,1.6360544217687074,1.6360544217687074,1.6360544217687074,1.6360544217687074,1.6360544217687074,1.6360544217687074,1.6360544217687074,1.6360544217687074,1.6360544217687074,1.6360544217687074,1.6360544217687074,1.6360544217687074,1.6360544217687074,1.6360544217687074,1.6360544217687074,1.6360544217687074,1.6360544217687074,1.6360544217687074,1.6360544217687074,1.6360544217687074,1.6360544217687074,1.6360544217687074,1.6360544217687074,1.6360544217687074,1.6360544217687074,1.6360544217687074,1.6360544217687074,1.6360544217687074,1.6360544217687074,1.6360544217687074,1.6360544217687074,1.6360544217687074,1.6360544217687074,1.6360544217687074,1.6360544217687074,1.6360544217687074,1.6360544217687074,1.6360544217687074,1.6360544217687074,1.6360544217687074,1.6360544217687074,1.6360544217687074,1.6360544217687074,1.6360544217687074,1.6360544217687074,1.6360544217687074,1.6360544217687074,1.6360544217687074,1.6360544217687074,1.6360544217687074,1.6360544217687074,1.6360544217687074,1.6360544217687074,1.6360544217687074,1.6360544217687074,1.6360544217687074,1.6360544217687074,1.6360544217687074,1.6360544217687074,1.6360544217687074,1.6360544217687074,1.6360544217687074,1.6360544217687074,1.6360544217687074,1.6360544217687074,1.6360544217687074,1.6360544217687074,1.6360544217687074,1.6360544217687074,1.6360544217687074,1.6360544217687074,1.6360544217687074,1.6360544217687074,1.6360544217687074,1.6360544217687074,1.6360544217687074,1.6360544217687074,1.6360544217687074,1.6360544217687074,1.6360544217687074,1.6360544217687074,1.6360544217687074,1.6360544217687074,1.6360544217687074,1.6360544217687074,1.6360544217687074,1.6360544217687074,1.6360544217687074,1.6360544217687074,1.6360544217687074,1.6360544217687074,1.6360544217687074,1.6360544217687074,1.6360544217687074,1.6360544217687074,1.6360544217687074,1.6360544217687074,1.6360544217687074,1.6360544217687074,1.6360544217687074,1.6360544217687074,1.6360544217687074,1.6360544217687074,1.6360544217687074,1.6360544217687074,1.6360544217687074,1.6360544217687074,1.6360544217687074,1.6360544217687074,1.6360544217687074,1.6360544217687074,1.6360544217687074,1.6360544217687074,1.6360544217687074,1.6360544217687074,1.6360544217687074,1.6360544217687074,1.6360544217687074,1.6360544217687074,1.6360544217687074,1.6360544217687074,1.6360544217687074,1.6360544217687074,1.6360544217687074,1.6360544217687074,1.6360544217687074,1.6360544217687074,1.6360544217687074,1.6360544217687074,1.6360544217687074,1.6360544217687074,1.6360544217687074,1.6360544217687074,1.6360544217687074,1.6360544217687074,1.6360544217687074,1.6360544217687074,1.6360544217687074,1.6360544217687074,1.6360544217687074,1.6360544217687074,1.6360544217687074,1.6360544217687074,1.6360544217687074,1.6360544217687074,1.6360544217687074,1.6360544217687074,1.6360544217687074,1.6360544217687074,1.6360544217687074,1.6360544217687074,1.6360544217687074,1.6360544217687074,1.6360544217687074,1.6360544217687074,1.6360544217687074,1.6360544217687074,1.6360544217687074,1.6360544217687074,1.6360544217687074,1.6360544217687074,1.6360544217687074,1.6360544217687074,1.6360544217687074,1.6360544217687074,1.6360544217687074,1.6360544217687074,1.6360544217687074,1.6360544217687074,1.6360544217687074,1.6360544217687074,1.6360544217687074,1.6360544217687074,1.6360544217687074,1.6360544217687074,1.6360544217687074,1.6360544217687074,1.6360544217687074,1.6360544217687074,1.6360544217687074,1.6360544217687074,1.6360544217687074,1.6360544217687074,1.6360544217687074,1.6360544217687074,1.6360544217687074,1.6360544217687074,1.6360544217687074,1.6360544217687074,1.6360544217687074,1.6360544217687074,1.6360544217687074,1.6360544217687074,1.6360544217687074,1.6360544217687074,1.6360544217687074,1.6360544217687074,1.6360544217687074,1.6360544217687074,1.6360544217687074,1.6360544217687074,1.6360544217687074,1.6360544217687074,1.6360544217687074,1.6360544217687074,1.6360544217687074,1.6360544217687074,1.6360544217687074,1.6360544217687074,1.6360544217687074,1.6360544217687074,1.6360544217687074,1.6360544217687074,1.6360544217687074,1.6360544217687074,1.6360544217687074,1.6360544217687074,1.6360544217687074,1.6360544217687074,1.6360544217687074,1.6360544217687074,1.6360544217687074,1.6360544217687074,1.6360544217687074,1.6360544217687074,1.6360544217687074,1.6360544217687074,1.6360544217687074,1.6360544217687074,1.6360544217687074,1.6360544217687074,1.6360544217687074,1.6360544217687074,1.6360544217687074,1.6360544217687074,1.6360544217687074,1.6360544217687074,1.6360544217687074,1.6360544217687074,1.6360544217687074,1.6360544217687074,1.6360544217687074,1.6360544217687074,1.6360544217687074,1.6360544217687074,1.4863945578231292,1.3333333333333333,1.1394557823129252,1.0204081632653061,0.8979591836734694,0.7687074829931972,0.6394557823129252,0.46938775510204084,0.3843537414965986,0.3129251700680272,0.24829931972789115,0.23129251700680273,0.20748299319727892,0.19387755102040816,0.1836734693877551,0.16326530612244897,0.14965986394557823,0.1360544217687075,0.12585034013605442,0.12244897959183673,0.11224489795918367,0.10884353741496598,0.09863945578231292,0.08843537414965986,0.07142857142857142,0.061224489795918366,0.04421768707482993,0.04081632653061224,0.034013605442176874,0.027210884353741496,0.023809523809523808,0.023809523809523808,0.017006802721088437,0.013605442176870748,0.013605442176870748,0.013605442176870748,0.006802721088435374,0.006802721088435374,0,-0.003401360544217687,-0.01020408163265306,-0.013605442176870748,-0.017006802721088437,-0.027210884353741496,-0.04081632653061224,-0.05442176870748299,-0.05442176870748299,-0.061224489795918366,-0.06802721088435375,-0.06802721088435375,-0.06802721088435375,-0.06802721088435375,-0.06802721088435375,-0.06802721088435375,-0.06802721088435375,-0.06802721088435375,-0.06802721088435375,-0.06802721088435375,-0.06802721088435375,-0.06802721088435375,-0.06802721088435375,-0.06802721088435375,-0.06802721088435375,-0.06802721088435375,-0.06802721088435375,-0.06802721088435375,-0.06802721088435375,-0.06802721088435375,-0.06802721088435375,-0.06802721088435375,-0.06802721088435375,-0.06802721088435375,-0.06802721088435375,-0.06802721088435375,-0.06802721088435375,-0.06802721088435375,-0.06802721088435375,-0.06802721088435375,-0.047619047619047616,-0.030612244897959183,-0.006802721088435374,0.013605442176870748,0.023809523809523808,0.047619047619047616,0.05442176870748299,0.061224489795918366,0.06802721088435375,0.07142857142857142,0.0782312925170068,0.08163265306122448,0.08163265306122448,0.08503401360544217,0.08843537414965986,0.08843537414965986,0.09183673469387756,0.09183673469387756,0.09523809523809523,0.09523809523809523,0.09523809523809523,0.09863945578231292,0.10204081632653061,0.1054421768707483,0.10884353741496598,0.10884353741496598,0.11224489795918367,0.11564625850340136,0.11904761904761904,0.12244897959183673,0.12244897959183673,0.12585034013605442,0.12585034013605442,0.1326530612244898,0.1326530612244898,0.1360544217687075,0.13945578231292516,0.14285714285714285,0.14285714285714285,0.14285714285714285,0.14285714285714285,0.14285714285714285,0.14285714285714285,0.14285714285714285,0.14285714285714285,0.14285714285714285,0.14285714285714285,0.14285714285714285,0.14285714285714285,0.14285714285714285,0.14285714285714285,0.14285714285714285,0.14285714285714285,0.14285714285714285,0.14285714285714285,0.14285714285714285,0.14285714285714285,0.14285714285714285,0.14285714285714285,0.14285714285714285,0.14285714285714285,0.14285714285714285,0.14285714285714285,0.14285714285714285,0.14285714285714285,0.14285714285714285,0.14285714285714285,0.14285714285714285,0.14285714285714285,0.14285714285714285,0.14285714285714285,0.14285714285714285,0.14285714285714285,0.14285714285714285,0.14285714285714285,0.14285714285714285,0.14285714285714285,0.14285714285714285,0.14285714285714285,0.14285714285714285,0.14285714285714285,0.14285714285714285,0.14285714285714285,0.14285714285714285,0.14285714285714285,0.14285714285714285,0.14285714285714285,0.14285714285714285,0.14285714285714285,0.14285714285714285,0.14285714285714285,0.14285714285714285,0.14285714285714285,0.14285714285714285,0.14285714285714285,0.14285714285714285,0.14285714285714285,0.14285714285714285,0.14285714285714285,0.14285714285714285,0.14285714285714285,0.14285714285714285,0.14285714285714285,0.14285714285714285,0.14285714285714285,0.14285714285714285,0.14285714285714285,0.14285714285714285,0.14285714285714285,0.14285714285714285,0.14285714285714285,0.14285714285714285,0.14285714285714285,0.14285714285714285,0.14285714285714285,0.14285714285714285,0.14285714285714285,0.14285714285714285,0.14285714285714285,0.14285714285714285,0.14285714285714285,0.14285714285714285,0.14285714285714285,0.14285714285714285,0.14285714285714285,0.14285714285714285,0.14285714285714285,0.14285714285714285,0.14285714285714285,0.14285714285714285,0.14285714285714285,0.14285714285714285,0.14285714285714285,0.14285714285714285,0.14285714285714285,0.14285714285714285,0.14285714285714285,0.14285714285714285,0.14285714285714285,0.14285714285714285,0.14285714285714285,0.14285714285714285,0.14285714285714285,0.14285714285714285,0.14285714285714285,0.14285714285714285,0.14285714285714285,0.14285714285714285,0.14285714285714285,0.14285714285714285,0.14285714285714285,0.14285714285714285,0.14285714285714285,0.14285714285714285,0.14285714285714285,0.14285714285714285,0.14285714285714285,0.14285714285714285,0.14285714285714285,0.14285714285714285,0.14285714285714285,0.14285714285714285,0.14285714285714285,0.14285714285714285,0.14285714285714285,0.14285714285714285,0.14285714285714285,0.14285714285714285,0.14285714285714285,0.14285714285714285,0.14285714285714285,0.14285714285714285,0.14285714285714285,0.14285714285714285,0.14285714285714285,0.14285714285714285,0.14285714285714285,0.14285714285714285,0.14285714285714285,0.14285714285714285,0.14285714285714285,0.14285714285714285,0.14285714285714285,0.14285714285714285,0.14285714285714285,0.14285714285714285,0.14285714285714285,0.14285714285714285,0.14285714285714285,0.14285714285714285,0.14285714285714285,0.14285714285714285,0.14285714285714285,0.14285714285714285,0.14285714285714285,0.14285714285714285,0.14285714285714285,0.14285714285714285,0.14285714285714285,0.14285714285714285,0.14285714285714285,0.14285714285714285,0.14285714285714285,0.14285714285714285,0.14285714285714285,0.14285714285714285,0.14285714285714285,0.14285714285714285,0.14285714285714285,0.14285714285714285,0.14285714285714285,0.14285714285714285,0.14285714285714285,0.14285714285714285,0.14285714285714285,0.14285714285714285,0.14285714285714285,0.14285714285714285,0.14285714285714285,0.14285714285714285,0.14285714285714285,0.14285714285714285,0.14285714285714285,0.14285714285714285,0.14285714285714285,0.14285714285714285,0.14285714285714285,0.14285714285714285,0.14285714285714285,0.14285714285714285,0.14285714285714285,0.14285714285714285,0.14285714285714285,0.14285714285714285,0.14285714285714285,0.14285714285714285,0.14285714285714285,0.14285714285714285,0.14285714285714285,0.14285714285714285,0.14285714285714285,0.14285714285714285,0.14285714285714285,0.14285714285714285,0.14285714285714285,0.14285714285714285,0.14285714285714285,0.14285714285714285,0.14285714285714285,0.14285714285714285,0.14285714285714285,0.14285714285714285,0.14285714285714285,0.14285714285714285,0.14285714285714285,0.14285714285714285,0.14285714285714285,0.14285714285714285,0.14285714285714285,0.14285714285714285,0.14285714285714285,0.14285714285714285,0.14285714285714285,0.14285714285714285,0.14285714285714285,0.14285714285714285,0.14285714285714285,0.14285714285714285,0.14285714285714285,0.14285714285714285,0.14285714285714285,0.14285714285714285,0.14285714285714285,0.14285714285714285,0.14285714285714285,0.14285714285714285,0.14285714285714285,0.14285714285714285,0.14285714285714285,0.14285714285714285,0.14285714285714285,0.14285714285714285,0.14285714285714285,0.14285714285714285,0.14285714285714285,0.14285714285714285,0.14285714285714285,0.14285714285714285,0.14285714285714285,0.14285714285714285,0.14285714285714285,0.14285714285714285,0.14285714285714285,0.14285714285714285,0.14285714285714285,0.14965986394557823,0.16326530612244897,0.19387755102040816,0.2108843537414966,0.23129251700680273,0.25510204081632654,0.2687074829931973,0.282312925170068,0.2857142857142857,0.2925170068027211,0.30272108843537415,0.3129251700680272,0.32653061224489793,0.336734693877551,0.3469387755102041,0.35034013605442177,0.35374149659863946,0.35714285714285715,0.35714285714285715,0.35714285714285715,0.35714285714285715,0.35714285714285715,0.35714285714285715,0.35714285714285715,0.35714285714285715,0.35714285714285715,0.35714285714285715,0.35714285714285715,0.35714285714285715,0.35714285714285715,0.35714285714285715,0.35714285714285715,0.35714285714285715,0.35714285714285715,0.35714285714285715,0.35714285714285715,0.35714285714285715,0.35714285714285715,0.35714285714285715,0.35714285714285715,0.35714285714285715,0.35714285714285715,0.35714285714285715,0.35714285714285715,0.35714285714285715,0.3401360544217687,0.32653061224489793,0.3163265306122449,0.30272108843537415,0.29931972789115646,0.2925170068027211,0.2891156462585034,0.2891156462585034,0.2857142857142857,0.2857142857142857,0.2857142857142857,0.2857142857142857,0.282312925170068,0.282312925170068,0.2789115646258503,0.2789115646258503,0.2789115646258503,0.2789115646258503,0.2789115646258503,0.2789115646258503,0.2789115646258503,0.2789115646258503,0.2789115646258503,0.2789115646258503,0.2789115646258503,0.2789115646258503,0.2789115646258503,0.2789115646258503,0.2789115646258503,0.2789115646258503,0.2789115646258503,0.2789115646258503,0.2789115646258503,0.2789115646258503,0.2789115646258503,0.2789115646258503,0.2789115646258503,0.2789115646258503,0.2789115646258503,0.2789115646258503,0.2789115646258503,0.2789115646258503,0.2789115646258503,0.2789115646258503,0.2789115646258503,0.2789115646258503,0.2789115646258503,0.2789115646258503,0.2789115646258503,0.2789115646258503,0.2789115646258503,0.2789115646258503,0.2789115646258503,0.2789115646258503,0.2789115646258503,0.2789115646258503,0.2789115646258503,0.2789115646258503,0.2789115646258503,0.2789115646258503,0.2789115646258503,0.2789115646258503,0.2789115646258503,0.2789115646258503,0.2789115646258503,0.2789115646258503,0.2789115646258503,0.2789115646258503,0.2789115646258503,0.2789115646258503,0.2789115646258503,0.2789115646258503,0.2789115646258503,0.2789115646258503,0.2789115646258503,0.2755102040816326,0.272108843537415,0.272108843537415,0.2653061224489796,0.2653061224489796,0.2653061224489796,0.2653061224489796,0.2687074829931973,0.2687074829931973,0.2687074829931973,0.2687074829931973,0.2687074829931973,0.2687074829931973,0.2687074829931973,0.2687074829931973,0.2687074829931973,0.2687074829931973,0.2687074829931973,0.2687074829931973,0.2687074829931973,0.2687074829931973,0.2687074829931973,0.2687074829931973,0.2687074829931973,0.2687074829931973,0.2687074829931973,0.2687074829931973,0.2687074829931973,0.272108843537415,0.272108843537415,0.272108843537415,0.272108843537415,0.272108843537415,0.272108843537415,0.272108843537415,0.272108843537415,0.272108843537415,0.272108843537415,0.272108843537415,0.272108843537415,0.272108843537415,0.272108843537415,0.272108843537415,0.272108843537415,0.272108843537415,0.2653061224489796,0.2653061224489796,0.2619047619047619,0.2585034013605442,0.2585034013605442,0.2585034013605442,0.25510204081632654,0.25510204081632654,0.25510204081632654,0.25510204081632654,0.25510204081632654,0.25510204081632654,0.25510204081632654,0.25510204081632654,0.25510204081632654,0.25510204081632654,0.25170068027210885,0.24829931972789115,0.24829931972789115,0.24489795918367346,0.24149659863945577,0.23469387755102042,0.23129251700680273,0.22448979591836735,0.21428571428571427,0.2108843537414966,0.20068027210884354,0.19387755102040816,0.19387755102040816,0.19047619047619047,0.19047619047619047,0.1870748299319728,0.1836734693877551,0.18027210884353742,0.18027210884353742,0.18027210884353742,0.18027210884353742,0.18027210884353742,0.18027210884353742,0.18027210884353742,0.18027210884353742,0.18027210884353742,0.18027210884353742,0.18027210884353742,0.18027210884353742,0.18027210884353742,0.18027210884353742,0.18027210884353742,0.18027210884353742,0.18027210884353742,0.18027210884353742,0.18027210884353742,0.18027210884353742,0.18027210884353742,0.18027210884353742,0.18027210884353742,0.18027210884353742,0.18027210884353742,0.18027210884353742,0.18027210884353742,0.18027210884353742,0.18027210884353742,0.18027210884353742,0.18027210884353742,0.18027210884353742,0.18027210884353742,0.18027210884353742,0.18027210884353742,0.18027210884353742,0.18027210884353742,0.18027210884353742,0.18027210884353742,0.18027210884353742,0.18027210884353742,0.18027210884353742,0.16666666666666666,0.14965986394557823,0.1326530612244898,0.11564625850340136,0.1054421768707483,0.09863945578231292,0.09523809523809523,0.09523809523809523,0.09523809523809523,0.09523809523809523,0.09523809523809523,0.09523809523809523,0.09523809523809523,0.09523809523809523,0.10204081632653061,0.1054421768707483,0.10884353741496598,0.10884353741496598,0.11224489795918367,0.11564625850340136,0.11564625850340136,0.11564625850340136,0.11904761904761904,0.12244897959183673,0.12244897959183673,0.12244897959183673,0.12244897959183673,0.12244897959183673,0.12244897959183673,0.12244897959183673,0.12244897959183673,0.12244897959183673,0.12244897959183673,0.12244897959183673,0.12585034013605442,0.1292517006802721,0.1292517006802721,0.1292517006802721,0.1360544217687075,0.1360544217687075,0.1360544217687075,0.1360544217687075,0.1360544217687075,0.1360544217687075,0.1360544217687075,0.1360544217687075,0.1360544217687075,0.13945578231292516,0.13945578231292516,0.13945578231292516,0.13945578231292516,0.13945578231292516,0.13945578231292516,0.13945578231292516,0.13945578231292516,0.13945578231292516,0.13945578231292516,0.13945578231292516,0.13945578231292516,0.13945578231292516,0.13945578231292516,0.13945578231292516,0.13945578231292516,0.13945578231292516,0.13945578231292516,0.13945578231292516,0.13945578231292516,0.13945578231292516,0.13945578231292516,0.13945578231292516,0.13945578231292516,0.13945578231292516,0.13945578231292516,0.13945578231292516,0.13945578231292516,0.13945578231292516,0.13945578231292516,0.13945578231292516,0.13945578231292516,0.13945578231292516,0.13945578231292516,0.13945578231292516,0.13945578231292516,0.13945578231292516,0.13945578231292516,0.13945578231292516,0.13945578231292516,0.13945578231292516,0.13945578231292516,0.13945578231292516,0.13945578231292516,0.13945578231292516,0.13945578231292516,0.12244897959183673,0.09523809523809523,0.0782312925170068,0.06802721088435375,0.05102040816326531,0.04081632653061224,0.034013605442176874,0.027210884353741496,0.027210884353741496,0.02040816326530612,0.013605442176870748,0.01020408163265306,0.006802721088435374,0,0,0,0,0,0,0,0,0,0,0,0,0,0,0,0,0,0,0,0,0,0,0,0,0,0,0,0,0,0,0,0,0,0,0,0,0,0,0,0,0,0,0,0,0,0,0,0,0,0,0,0,0,0,0,0,0,0,0,0,0,0,0,0,0,0,0,0,0,0,0,0,0,0,0,0,0,0,0,0,0,0,0,0,0,0,0,0,0,0,0,0,0,0,0,0,0,0,-0.06802721088435375,-0.10204081632653061,-0.1326530612244898,-0.1360544217687075,-0.11564625850340136,-0.08163265306122448,0.02040816326530612,0.047619047619047616,0.08843537414965986,0.1360544217687075,0.17346938775510204,0.20408163265306123,0.24489795918367346,0.2857142857142857,0.30612244897959184,0.3129251700680272,0.3231292517006803,0.32653061224489793,0.3333333333333333,0.336734693877551,0.3401360544217687,0.36394557823129253,0.3741496598639456,0.391156462585034,0.3945578231292517,0.3979591836734694,0.4013605442176871,0.4013605442176871,0.4013605442176871,0.4013605442176871,0.4013605442176871,0.4013605442176871,0.4013605442176871,0.4013605442176871,0.4013605442176871,0.4013605442176871,0.4013605442176871,0.4013605442176871,0.4013605442176871,0.4013605442176871,0.4013605442176871,0.4013605442176871,0.4013605442176871,0.4013605442176871,0.4013605442176871,0.4013605442176871,0.4013605442176871,0.4013605442176871,0.4013605442176871,0.4013605442176871,0.4013605442176871,0.4013605442176871,0.4013605442176871,0.4013605442176871,0.4013605442176871,0.4013605442176871,0.4013605442176871,0.4013605442176871,0.4013605442176871,0.4013605442176871,0.4013605442176871,0.4013605442176871,0.4013605442176871,0.4013605442176871,0.4013605442176871,0.6598639455782312,0.7755102040816326,0.8707482993197279,0.9795918367346939,1.034013605442177,1.0850340136054422,1.098639455782313,1.1054421768707483,1.1054421768707483,1.1088435374149659,1.1088435374149659,1.1088435374149659,1.1088435374149659,1.1088435374149659,1.1088435374149659,1.1054421768707483,1.1020408163265305,1.0952380952380953,1.0850340136054422,1.0748299319727892,1.0612244897959184,1.054421768707483,1.0408163265306123,1.034013605442177,1.0272108843537415,1.0238095238095237,1.0204081632653061,1.0204081632653061,1.0170068027210883,1.010204081632653,1.0068027210884354,1.0034013605442176,1,0.9931972789115646,0.9931972789115646,0.9931972789115646,0.9931972789115646,0.9931972789115646,0.9931972789115646,0.9931972789115646,0.9931972789115646,0.9931972789115646,0.9931972789115646,0.9931972789115646,0.9931972789115646,0.9931972789115646,0.9931972789115646,0.9931972789115646,0.9931972789115646,0.9931972789115646,0.9931972789115646,0.9931972789115646,0.9931972789115646,0.9931972789115646,0.9931972789115646,0.9931972789115646,0.9931972789115646,0.9931972789115646,0.9931972789115646,0.9931972789115646,0.9931972789115646,0.9931972789115646,0.9931972789115646,0.9931972789115646,0.9931972789115646,0.9931972789115646,0.9931972789115646,0.9931972789115646,0.9931972789115646,0.9931972789115646,0.9931972789115646,0.9931972789115646,0.9931972789115646,0.9931972789115646,0.9931972789115646,0.9931972789115646,0.9931972789115646,0.9931972789115646,0.9931972789115646,0.9931972789115646,0.9931972789115646,0.9931972789115646,0.9931972789115646,0.9931972789115646,0.9931972789115646,0.9931972789115646,0.9931972789115646,0.9931972789115646,0.9931972789115646,0.9931972789115646,0.9931972789115646,0.9931972789115646,0.9931972789115646,0.9931972789115646,0.9931972789115646,0.9931972789115646,0.9931972789115646,0.9931972789115646,0.9931972789115646,0.9931972789115646,0.9931972789115646,0.9931972789115646,0.9931972789115646,0.9931972789115646,0.9931972789115646,0.9931972789115646,0.9931972789115646,0.9931972789115646,0.9931972789115646,0.9931972789115646,0.9931972789115646,0.9931972789115646,0.9931972789115646,0.9931972789115646,0.9931972789115646,0.9931972789115646,0.9931972789115646,0.9931972789115646,0.9931972789115646,0.9931972789115646,0.9931972789115646,0.9931972789115646,0.9931972789115646,0.9931972789115646,0.9931972789115646,0.9931972789115646,0.9931972789115646,0.9931972789115646,0.9591836734693877,0.6530612244897959,0.4489795918367347,0.2857142857142857,0.20408163265306123,0.18027210884353742,0.1564625850340136,0.14625850340136054,0.1360544217687075,0.1326530612244898,0.12585034013605442,0.12585034013605442,0.12244897959183673,0.12244897959183673,0.12244897959183673,0.12244897959183673,0.12244897959183673,0.1292517006802721,0.14285714285714285,0.16326530612244897,0.19727891156462585,0.22108843537414966,0.2789115646258503,0.3163265306122449,0.35034013605442177,0.391156462585034,0.40476190476190477,0.41496598639455784,0.4217687074829932,0.42857142857142855,0.43537414965986393,0.43537414965986393,0.4421768707482993,0.445578231292517,0.4523809523809524,0.46598639455782315,0.48299319727891155,0.4965986394557823,0.5034013605442177,0.5136054421768708,0.5170068027210885,0.5306122448979592,0.5408163265306123,0.54421768707483,0.5578231292517006,0.5578231292517006,0.564625850340136,0.564625850340136,0.5714285714285714,0.5714285714285714,0.5714285714285714,0.5748299319727891,0.5748299319727891,0.5748299319727891,0.5748299319727891,0.5748299319727891,0.5748299319727891,0.5748299319727891,0.5748299319727891,0.5748299319727891,0.5748299319727891,0.5748299319727891,0.5748299319727891,0.5748299319727891,0.5748299319727891,0.5748299319727891,0.5748299319727891,0.5748299319727891,0.5748299319727891,0.5748299319727891,0.5748299319727891,0.5748299319727891,0.5748299319727891,0.5748299319727891,0.5748299319727891,0.5748299319727891,0.5782312925170068,0.5782312925170068,0.5782312925170068,0.5782312925170068,0.5782312925170068,0.5782312925170068,0.5782312925170068,0.5782312925170068,0.5782312925170068,0.5782312925170068,0.5782312925170068,0.5782312925170068,0.5782312925170068,0.5782312925170068,0.5782312925170068,0.5782312925170068,0.5782312925170068,0.5782312925170068,0.5782312925170068,0.5782312925170068,0.5782312925170068,0.5782312925170068,0.5782312925170068,0.5782312925170068,0.5782312925170068,0.5782312925170068,0.5782312925170068,0.5782312925170068,0.5782312925170068,0.5782312925170068,0.5782312925170068,0.5782312925170068,0.5782312925170068,0.5782312925170068,0.5782312925170068,0.5782312925170068,0.5782312925170068,0.5782312925170068,0.5782312925170068,0.5782312925170068,0.5782312925170068,0.5782312925170068,0.5782312925170068,0.5782312925170068,0.5782312925170068,0.5782312925170068,0.5782312925170068,0.5782312925170068,0.5782312925170068,0.5782312925170068,0.5782312925170068,0.5782312925170068,0.5782312925170068,0.5782312925170068,0.5782312925170068,0.5782312925170068,0.5782312925170068,0.5782312925170068,0.5782312925170068,0.5782312925170068,0.5782312925170068,0.5782312925170068,0.5782312925170068,0.5782312925170068,0.5782312925170068,0.5782312925170068,0.5782312925170068,0.5782312925170068,0.5782312925170068,0.5782312925170068,0.5782312925170068,0.5782312925170068,0.5782312925170068,0.5782312925170068,0.5782312925170068,0.5782312925170068,0.5782312925170068,0.5782312925170068,0.5782312925170068,0.5782312925170068,0.5782312925170068,0.5782312925170068,0.5782312925170068,0.5782312925170068,0.5782312925170068,0.5782312925170068,0.5782312925170068,0.5782312925170068,0.5782312925170068,0.5782312925170068,0.5204081632653061,0.41836734693877553,0.35034013605442177,0.3129251700680272,0.29931972789115646,0.282312925170068,0.2619047619047619,0.23469387755102042,0.22108843537414966,0.20408163265306123,0.1870748299319728,0.17687074829931973,0.16326530612244897,0.14965986394557823,0.13945578231292516,0.1360544217687075,0.1360544217687075,0.1326530612244898,0.1292517006802721,0.1292517006802721,0.12585034013605442,0.12244897959183673,0.12244897959183673,0.12244897959183673,0.12244897959183673,0.12244897959183673,0.12585034013605442,0.1292517006802721,0.1292517006802721,0.1292517006802721,0.1292517006802721,0.1292517006802721,0.1292517006802721,0.1292517006802721,0.1292517006802721,0.1292517006802721,0.1292517006802721,0.1292517006802721,0.1292517006802721,0.1292517006802721,0.1292517006802721,0.1292517006802721,0.1292517006802721,0.1292517006802721,0.1292517006802721,0.1292517006802721,0.1292517006802721,0.1292517006802721,0.1292517006802721,0.1292517006802721,0.1292517006802721,0.1292517006802721,0.1292517006802721,0.1292517006802721,0.1292517006802721,0.1292517006802721,0.1292517006802721,0.1292517006802721,0.1292517006802721,0.1292517006802721,0.1292517006802721,0.1292517006802721,0.1292517006802721,0.1292517006802721,0.1292517006802721,0.1292517006802721,0.1292517006802721,0.1292517006802721,0.1292517006802721,0.1292517006802721,0.1292517006802721,0.1292517006802721,0.1292517006802721,0.1292517006802721,0.1292517006802721,0.1292517006802721,0.1292517006802721,0.1292517006802721,0.1292517006802721,0.1292517006802721,0.1292517006802721,0.1292517006802721,0.1292517006802721,0.1292517006802721,0.1292517006802721,0.1292517006802721,0.1292517006802721,0.1292517006802721,0.1292517006802721,0.1292517006802721,0.1292517006802721,0.1292517006802721,0.1292517006802721,0.1292517006802721,0.16326530612244897,0.2108843537414966,0.22789115646258504,0.24489795918367346,0.2585034013605442,0.2687074829931973,0.2755102040816326,0.2857142857142857,0.29591836734693877,0.30272108843537415,0.3129251700680272,0.3163265306122449,0.3197278911564626,0.32653061224489793,0.3333333333333333,0.35374149659863946,0.3673469387755102,0.38095238095238093,0.40476190476190477,0.42857142857142855,0.4897959183673469,0.5408163265306123,0.6054421768707483,0.6394557823129252,0.6666666666666666,0.7482993197278912,0.8231292517006803,0.9047619047619048,0.9421768707482994,0.9659863945578231,0.9795918367346939,0.9965986394557823,1.0170068027210883,1.030612244897959,1.0510204081632653,1.0612244897959184,1.0714285714285714,1.0714285714285714,1.0748299319727892,1.0816326530612246,1.0850340136054422,1.08843537414966,1.0952380952380953,1.098639455782313,1.1020408163265305,1.1020408163265305,1.1122448979591837,1.1156462585034013,1.119047619047619,1.1224489795918366,1.1258503401360545,1.1258503401360545,1.129251700680272,1.129251700680272,1.129251700680272,1.129251700680272,1.1326530612244898,1.1326530612244898,1.1326530612244898,1.1326530612244898,1.1326530612244898,1.1326530612244898,1.1326530612244898,1.1326530612244898,1.1326530612244898,1.1326530612244898,1.1326530612244898,1.1326530612244898,1.1326530612244898,1.1326530612244898,1.1326530612244898,1.1326530612244898,1.1326530612244898,1.1326530612244898,1.1326530612244898,1.1326530612244898,1.1326530612244898,1.1326530612244898,1.1326530612244898,1.1326530612244898,1.1326530612244898,1.1326530612244898,1.1326530612244898,1.1326530612244898,1.1326530612244898,1.1326530612244898,1.1326530612244898,1.1326530612244898,1.1326530612244898,1.1326530612244898,1.1326530612244898,1.1326530612244898,1.1326530612244898,1.1326530612244898,1.1326530612244898,1.1326530612244898,1.1326530612244898,1.1326530612244898,1.1326530612244898,1.1326530612244898,1.1326530612244898,1.1326530612244898,1.1326530612244898,1.1326530612244898,1.1326530612244898,1.1326530612244898,1.1326530612244898,1.1326530612244898,1.1326530612244898,1.1326530612244898,1.1326530612244898,1.1326530612244898,1.1326530612244898,1.1326530612244898,1.1326530612244898,1.1326530612244898,1.1326530612244898,1.1326530612244898,1.1326530612244898,1.1326530612244898,1.1326530612244898,1.1326530612244898,1.1326530612244898,1.1326530612244898,1.1326530612244898,1.1326530612244898,1.1802721088435375,1.2925170068027212,1.3401360544217686,1.3741496598639455,1.435374149659864,1.4795918367346939,1.510204081632653,1.5374149659863945,1.5510204081632653,1.5612244897959184,1.5680272108843538,1.5714285714285714,1.5782312925170068,1.5816326530612246,1.5850340136054422,1.5850340136054422,1.5850340136054422,1.5850340136054422,1.5850340136054422,1.5850340136054422,1.5850340136054422,1.5850340136054422,1.5850340136054422,1.5850340136054422,1.5850340136054422,1.5850340136054422,1.5850340136054422,1.5850340136054422,1.5850340136054422,1.5850340136054422,1.5850340136054422,1.5850340136054422,1.5850340136054422,1.5850340136054422,1.5850340136054422,1.5850340136054422,1.5850340136054422,1.5850340136054422,1.5850340136054422,1.5850340136054422,1.5850340136054422,1.5850340136054422,1.5850340136054422,1.5850340136054422,1.5850340136054422,1.5850340136054422,1.5850340136054422,1.5850340136054422,1.5850340136054422,1.5850340136054422,1.5850340136054422,1.5850340136054422,1.5850340136054422,1.5850340136054422,1.5850340136054422,1.5850340136054422,1.5850340136054422,1.5850340136054422,1.5850340136054422,1.5850340136054422,1.5850340136054422,1.5850340136054422,1.5850340136054422,1.5850340136054422,1.5850340136054422,1.5850340136054422,1.5850340136054422,1.5850340136054422,1.5850340136054422,1.5850340136054422,1.5850340136054422,1.5850340136054422,1.5850340136054422,1.5850340136054422,1.5850340136054422,1.5850340136054422,1.5850340136054422,1.5850340136054422,1.5850340136054422,1.5850340136054422,1.5850340136054422,1.5850340136054422,1.5850340136054422,1.5850340136054422,1.5850340136054422,1.5850340136054422],"y":[-3.4285714285714284,-3.4285714285714284,0.4523809523809524,0.5285714285714286,0.5761904761904761,0.5761904761904761,0.5761904761904761,0.5285714285714286,0.5,0.40476190476190477,0.35714285714285715,0.2619047619047619,0.18571428571428572,0.10952380952380952,0.07142857142857142,0.03333333333333333,-0.004761904761904762,-0.04285714285714286,-0.08095238095238096,-0.12857142857142856,-0.15714285714285714,-0.19523809523809524,-0.19523809523809524,-0.20476190476190476,-0.20476190476190476,-0.21428571428571427,-0.21428571428571427,-0.21428571428571427,-0.21428571428571427,-0.21428571428571427,-0.22380952380952382,-0.22380952380952382,-0.22380952380952382,-0.23333333333333334,-0.24285714285714285,-0.24285714285714285,-0.24285714285714285,-0.24285714285714285,-0.24285714285714285,-0.24285714285714285,-0.24285714285714285,-0.2523809523809524,-0.2619047619047619,-0.2619047619047619,-0.2619047619047619,-0.2619047619047619,-0.2619047619047619,-0.2619047619047619,-0.2619047619047619,-0.2619047619047619,-0.2619047619047619,-0.2619047619047619,-0.2619047619047619,-0.2619047619047619,-0.2619047619047619,-0.2619047619047619,-0.2619047619047619,-0.2619047619047619,-0.2619047619047619,-0.2619047619047619,-0.2619047619047619,-0.2619047619047619,-0.2619047619047619,-0.2619047619047619,-0.2619047619047619,-0.2619047619047619,-0.2619047619047619,-0.2619047619047619,-0.2619047619047619,-0.2619047619047619,-0.2619047619047619,-0.2619047619047619,-0.2619047619047619,-0.2619047619047619,-0.2619047619047619,-0.2619047619047619,-0.2619047619047619,-0.2619047619047619,-0.2619047619047619,-0.2619047619047619,-0.2619047619047619,-0.2619047619047619,-0.2619047619047619,-0.2619047619047619,-0.2619047619047619,-0.2619047619047619,-0.2619047619047619,-0.2619047619047619,-0.2619047619047619,-0.2619047619047619,-0.2619047619047619,-0.2619047619047619,-0.2619047619047619,-0.2619047619047619,-0.2619047619047619,-0.2619047619047619,-0.2619047619047619,-0.2619047619047619,-0.2619047619047619,-0.2619047619047619,-0.2619047619047619,-0.2619047619047619,-0.2619047619047619,-0.2619047619047619,-0.2619047619047619,-0.2619047619047619,-0.2619047619047619,-0.2619047619047619,-0.2619047619047619,-0.2619047619047619,-0.2619047619047619,-0.2619047619047619,-0.2619047619047619,-0.2619047619047619,-0.2619047619047619,-0.2619047619047619,-0.2619047619047619,-0.2619047619047619,-0.2619047619047619,-0.2619047619047619,-0.2619047619047619,-0.2619047619047619,-0.2619047619047619,-0.2619047619047619,-0.2619047619047619,-0.2619047619047619,-0.2619047619047619,-0.2619047619047619,-0.2619047619047619,-0.2619047619047619,-0.2619047619047619,-0.2619047619047619,-0.2619047619047619,-0.2619047619047619,-0.2619047619047619,-0.32857142857142857,-0.40476190476190477,-0.5,-0.5761904761904761,-0.6142857142857143,-0.680952380952381,-0.7476190476190476,-0.8333333333333334,-0.8809523809523809,-0.919047619047619,-0.9380952380952381,-0.9571428571428572,-0.9666666666666667,-0.9666666666666667,-0.9666666666666667,-0.9666666666666667,-0.9666666666666667,-0.9666666666666667,-0.9666666666666667,-0.9761904761904762,-0.9761904761904762,-0.9761904761904762,-0.9761904761904762,-0.9761904761904762,-0.9761904761904762,-0.9761904761904762,-0.9761904761904762,-0.9761904761904762,-0.9761904761904762,-0.9761904761904762,-0.9761904761904762,-0.9761904761904762,-0.9761904761904762,-0.9761904761904762,-0.9761904761904762,-0.9761904761904762,-0.9761904761904762,-0.9761904761904762,-0.9761904761904762,-0.9761904761904762,-0.9761904761904762,-0.9761904761904762,-0.9761904761904762,-0.9761904761904762,-0.9761904761904762,-0.9761904761904762,-0.9761904761904762,-0.9761904761904762,-0.9761904761904762,-0.9761904761904762,-0.9761904761904762,-0.9761904761904762,-0.9761904761904762,-0.9761904761904762,-0.9761904761904762,-0.9761904761904762,-0.9761904761904762,-0.9761904761904762,-0.9761904761904762,-0.9761904761904762,-0.9761904761904762,-0.9761904761904762,-0.9761904761904762,-0.9761904761904762,-0.9761904761904762,-0.9761904761904762,-0.9761904761904762,-0.9761904761904762,-0.9761904761904762,-0.9761904761904762,-0.9761904761904762,-0.9761904761904762,-0.9761904761904762,-0.9761904761904762,-0.9761904761904762,-0.9761904761904762,-0.9761904761904762,-0.9761904761904762,-0.9761904761904762,-0.9761904761904762,-0.9761904761904762,-0.9761904761904762,-0.9761904761904762,-0.9761904761904762,-0.9761904761904762,-0.9761904761904762,-0.9761904761904762,-0.9761904761904762,-0.9761904761904762,-0.9761904761904762,-0.9761904761904762,-0.9761904761904762,-0.9761904761904762,-0.9761904761904762,-0.9761904761904762,-0.9761904761904762,-0.9761904761904762,-0.9761904761904762,-0.9761904761904762,-0.9761904761904762,-0.9761904761904762,-0.9761904761904762,-0.9761904761904762,-0.9761904761904762,-0.9761904761904762,-0.9761904761904762,-0.9761904761904762,-0.9761904761904762,-0.9761904761904762,-0.9761904761904762,-0.9761904761904762,-0.9761904761904762,-0.9761904761904762,-0.9761904761904762,-0.9761904761904762,-0.9761904761904762,-0.9761904761904762,-0.9761904761904762,-0.9761904761904762,-0.9761904761904762,-0.9761904761904762,-0.9761904761904762,-0.9761904761904762,-0.9761904761904762,-0.9761904761904762,-0.9761904761904762,-0.9761904761904762,-0.9761904761904762,-0.9761904761904762,-0.9761904761904762,-0.9761904761904762,-0.9761904761904762,-0.9761904761904762,-0.9761904761904762,-0.9761904761904762,-0.9761904761904762,-0.9761904761904762,-0.9761904761904762,-0.9761904761904762,-0.9761904761904762,-0.9761904761904762,-0.9761904761904762,-0.9761904761904762,-0.9761904761904762,-0.9761904761904762,-0.9761904761904762,-0.9761904761904762,-0.9761904761904762,-0.9761904761904762,-0.9761904761904762,-0.9761904761904762,-0.9761904761904762,-0.9761904761904762,-0.9761904761904762,-0.9761904761904762,-0.9761904761904762,-0.9761904761904762,-0.9761904761904762,-0.9761904761904762,-0.9761904761904762,-0.9761904761904762,-0.9761904761904762,-0.9761904761904762,-0.9761904761904762,-0.9761904761904762,-0.9761904761904762,-0.9761904761904762,-0.9761904761904762,-0.9761904761904762,-0.9761904761904762,-0.9761904761904762,-0.9761904761904762,-0.9761904761904762,-0.9761904761904762,-0.9761904761904762,-0.9761904761904762,-0.9761904761904762,-0.9761904761904762,-0.9761904761904762,-0.9761904761904762,-0.9761904761904762,-0.9761904761904762,-0.9761904761904762,-0.9761904761904762,-0.9761904761904762,-0.9761904761904762,-0.9761904761904762,-0.9761904761904762,-0.9761904761904762,-0.9761904761904762,-0.9761904761904762,-0.9761904761904762,-0.9761904761904762,-0.9761904761904762,-0.9761904761904762,-0.9761904761904762,-0.9761904761904762,-0.9761904761904762,-0.9761904761904762,-0.9761904761904762,-0.9761904761904762,-0.9761904761904762,-0.9761904761904762,-0.9761904761904762,-0.9761904761904762,-0.9761904761904762,-0.9761904761904762,-0.9761904761904762,-0.9761904761904762,-0.9761904761904762,-0.9761904761904762,-0.9761904761904762,-0.9761904761904762,-0.9761904761904762,-0.9761904761904762,-0.9761904761904762,-0.9761904761904762,-0.9761904761904762,-0.9761904761904762,-0.9761904761904762,-0.9761904761904762,-0.9761904761904762,-0.9761904761904762,-0.9761904761904762,-0.9761904761904762,-0.9761904761904762,-0.9761904761904762,-0.9761904761904762,-0.9761904761904762,-0.9761904761904762,-0.9761904761904762,-0.9761904761904762,-0.9761904761904762,-0.9761904761904762,-0.9761904761904762,-0.9761904761904762,-0.9761904761904762,-0.9761904761904762,-0.9761904761904762,-0.9761904761904762,-0.9761904761904762,-0.9761904761904762,-0.9761904761904762,-0.9761904761904762,-0.9761904761904762,-0.9761904761904762,-0.9761904761904762,-0.9761904761904762,-0.9761904761904762,-0.9761904761904762,-0.9761904761904762,-0.9761904761904762,-0.9761904761904762,-0.9761904761904762,-0.9761904761904762,-0.9761904761904762,-0.9761904761904762,-0.9761904761904762,-0.9761904761904762,-0.9761904761904762,-0.9761904761904762,-0.9761904761904762,-0.9761904761904762,-0.9761904761904762,-0.9761904761904762,-0.9761904761904762,-0.9761904761904762,-0.9761904761904762,-0.9761904761904762,-0.9761904761904762,-0.9761904761904762,-0.9761904761904762,-0.9761904761904762,-0.9761904761904762,-0.9761904761904762,-0.9761904761904762,-0.9761904761904762,-0.9761904761904762,-0.9761904761904762,-0.9761904761904762,-0.9761904761904762,-0.9761904761904762,-0.9761904761904762,-0.9761904761904762,-0.9761904761904762,-0.9761904761904762,-0.9761904761904762,-0.9761904761904762,-0.9761904761904762,-0.9761904761904762,-0.9761904761904762,-0.9761904761904762,-0.9761904761904762,-0.9761904761904762,-0.9761904761904762,-0.9761904761904762,-0.9761904761904762,-0.9761904761904762,-0.9761904761904762,-0.9761904761904762,-0.9761904761904762,-0.9761904761904762,-0.9761904761904762,-0.9761904761904762,-0.9761904761904762,-0.9761904761904762,-0.9761904761904762,-0.9761904761904762,-0.9761904761904762,-0.9761904761904762,-0.9761904761904762,-0.9761904761904762,-0.9761904761904762,-0.9761904761904762,-0.9761904761904762,-0.9761904761904762,-0.9761904761904762,-0.9761904761904762,-0.9761904761904762,-0.9761904761904762,-0.9761904761904762,-0.9761904761904762,-0.9761904761904762,-0.9761904761904762,-0.9761904761904762,-0.9761904761904762,-0.9761904761904762,-0.9761904761904762,-0.9761904761904762,-0.9761904761904762,-0.9761904761904762,-0.9761904761904762,-0.9761904761904762,-0.9761904761904762,-0.9761904761904762,-0.9761904761904762,-0.9761904761904762,-0.9761904761904762,-0.9761904761904762,-0.9761904761904762,-0.9761904761904762,-0.9761904761904762,-0.9761904761904762,-0.9761904761904762,-0.9761904761904762,-0.9761904761904762,-0.9761904761904762,-0.9761904761904762,-0.9761904761904762,-0.9761904761904762,-0.9761904761904762,-0.9761904761904762,-0.9761904761904762,-0.9761904761904762,-0.9761904761904762,-0.9761904761904762,-0.9761904761904762,-0.9761904761904762,-0.9761904761904762,-0.9761904761904762,-0.9761904761904762,-0.9761904761904762,-0.9761904761904762,-0.9761904761904762,-0.9761904761904762,-0.9761904761904762,-0.9761904761904762,-0.9761904761904762,-0.9761904761904762,-0.9761904761904762,-0.9761904761904762,-0.9761904761904762,-0.9761904761904762,-0.9761904761904762,-0.9761904761904762,-0.9761904761904762,-0.9761904761904762,-0.9761904761904762,-0.9761904761904762,-0.9761904761904762,-0.9761904761904762,-0.9761904761904762,-0.9761904761904762,-0.9761904761904762,-0.9761904761904762,-0.9761904761904762,-0.9761904761904762,-0.9761904761904762,-0.9761904761904762,-0.9761904761904762,-0.9761904761904762,-0.9761904761904762,-0.9761904761904762,-0.9761904761904762,-0.9761904761904762,-0.9761904761904762,-0.9761904761904762,-0.9761904761904762,-0.9761904761904762,-0.9761904761904762,-0.9761904761904762,-0.9761904761904762,-0.9761904761904762,-0.9761904761904762,-0.9761904761904762,-0.9761904761904762,-0.9761904761904762,-0.9761904761904762,-0.9761904761904762,-0.9761904761904762,-0.9761904761904762,-0.9761904761904762,-0.9761904761904762,-0.9761904761904762,-0.9761904761904762,-0.9761904761904762,-0.9761904761904762,-0.9761904761904762,-0.9761904761904762,-0.9761904761904762,-0.9761904761904762,-0.9761904761904762,-0.9761904761904762,-0.9761904761904762,-0.9761904761904762,-0.9761904761904762,-0.9761904761904762,-0.9761904761904762,-0.9761904761904762,-0.9761904761904762,-0.9761904761904762,-0.9761904761904762,-0.9761904761904762,-0.9761904761904762,-0.9761904761904762,-0.9761904761904762,-0.9761904761904762,-0.9761904761904762,-0.9761904761904762,-0.9761904761904762,-0.9761904761904762,-0.9761904761904762,-0.9761904761904762,-0.9761904761904762,-0.9761904761904762,-0.9761904761904762,-0.9761904761904762,-0.9761904761904762,-0.9761904761904762,-0.9761904761904762,-0.9761904761904762,-0.9761904761904762,-0.9761904761904762,-0.9761904761904762,-0.9761904761904762,-0.9761904761904762,-0.9761904761904762,-0.9761904761904762,-0.9761904761904762,-0.9761904761904762,-0.9761904761904762,-0.9761904761904762,-0.9761904761904762,-0.9761904761904762,-0.9761904761904762,-0.9761904761904762,-0.9761904761904762,-0.9761904761904762,-0.9761904761904762,-0.9761904761904762,-0.9761904761904762,-0.9761904761904762,-0.9761904761904762,-0.9761904761904762,-0.9761904761904762,-0.9761904761904762,-0.9761904761904762,-0.9761904761904762,-0.9761904761904762,-0.9761904761904762,-0.9761904761904762,-0.9761904761904762,-0.9761904761904762,-0.9761904761904762,-0.9761904761904762,-0.9761904761904762,-0.9761904761904762,-0.9761904761904762,-0.9761904761904762,-0.9761904761904762,-0.9761904761904762,-0.9761904761904762,-0.9761904761904762,-0.9761904761904762,-0.9761904761904762,-0.9761904761904762,-0.9761904761904762,-0.9761904761904762,-0.9761904761904762,-0.9761904761904762,-0.9761904761904762,-0.9761904761904762,-0.9761904761904762,-0.9761904761904762,-0.9761904761904762,-0.9761904761904762,-0.9761904761904762,-0.9761904761904762,-0.9761904761904762,-0.9761904761904762,-0.9761904761904762,-0.9761904761904762,-0.9761904761904762,-0.9761904761904762,-0.9761904761904762,-0.9761904761904762,-0.9761904761904762,-0.9761904761904762,-0.9761904761904762,-0.9761904761904762,-0.9761904761904762,-0.9761904761904762,-0.9761904761904762,-0.9761904761904762,-1.061904761904762,-1.1476190476190475,-1.1761904761904762,-1.1952380952380952,-1.223809523809524,-1.2333333333333334,-1.2619047619047619,-1.3,-1.3,-1.338095238095238,-1.338095238095238,-1.3476190476190477,-1.3476190476190477,-1.3476190476190477,-1.3476190476190477,-1.3476190476190477,-1.3476190476190477,-1.338095238095238,-1.3285714285714285,-1.319047619047619,-1.3,-1.3,-1.2714285714285714,-1.2333333333333334,-1.1571428571428573,-1.1,-1.0142857142857142,-0.9761904761904762,-0.9285714285714286,-0.9095238095238095,-0.8809523809523809,-0.861904761904762,-0.8428571428571429,-0.8333333333333334,-0.8333333333333334,-0.8142857142857143,-0.8047619047619048,-0.7952380952380952,-0.7666666666666667,-0.7380952380952381,-0.719047619047619,-0.7,-0.6714285714285714,-0.6238095238095238,-0.5761904761904761,-0.5,-0.46190476190476193,-0.43333333333333335,-0.4142857142857143,-0.4142857142857143,-0.40476190476190477,-0.40476190476190477,-0.40476190476190477,-0.40476190476190477,-0.40476190476190477,-0.40476190476190477,-0.40476190476190477,-0.40476190476190477,-0.40476190476190477,-0.40476190476190477,-0.40476190476190477,-0.40476190476190477,-0.40476190476190477,-0.40476190476190477,-0.40476190476190477,-0.40476190476190477,-0.40476190476190477,-0.40476190476190477,-0.40476190476190477,-0.40476190476190477,-0.40476190476190477,-0.40476190476190477,-0.40476190476190477,-0.40476190476190477,-0.40476190476190477,-0.40476190476190477,-0.40476190476190477,-0.40476190476190477,-0.3761904761904762,-0.35714285714285715,-0.319047619047619,-0.3,-0.2904761904761905,-0.2714285714285714,-0.2619047619047619,-0.2523809523809524,-0.24285714285714285,-0.24285714285714285,-0.23333333333333334,-0.23333333333333334,-0.23333333333333334,-0.23333333333333334,-0.22380952380952382,-0.22380952380952382,-0.19523809523809524,-0.19523809523809524,-0.18571428571428572,-0.15714285714285714,-0.1380952380952381,-0.11904761904761904,-0.1,-0.08095238095238096,-0.08095238095238096,-0.06190476190476191,-0.05238095238095238,-0.04285714285714286,-0.03333333333333333,-0.014285714285714285,-0.014285714285714285,-0.014285714285714285,-0.004761904761904762,-0.004761904761904762,0.004761904761904762,0.023809523809523808,0.03333333333333333,0.03333333333333333,0.03333333333333333,0.03333333333333333,0.03333333333333333,0.03333333333333333,0.03333333333333333,0.03333333333333333,0.03333333333333333,0.03333333333333333,0.03333333333333333,0.03333333333333333,0.03333333333333333,0.03333333333333333,0.03333333333333333,0.03333333333333333,0.03333333333333333,0.03333333333333333,0.03333333333333333,0.03333333333333333,0.03333333333333333,0.03333333333333333,0.03333333333333333,0.03333333333333333,0.03333333333333333,0.03333333333333333,0.03333333333333333,0.03333333333333333,0.03333333333333333,0.03333333333333333,0.03333333333333333,0.03333333333333333,0.03333333333333333,0.03333333333333333,0.03333333333333333,0.03333333333333333,0.03333333333333333,0.03333333333333333,0.03333333333333333,0.03333333333333333,0.03333333333333333,0.03333333333333333,0.03333333333333333,0.03333333333333333,0.03333333333333333,0.03333333333333333,0.03333333333333333,0.03333333333333333,0.03333333333333333,0.03333333333333333,0.03333333333333333,0.03333333333333333,0.03333333333333333,0.03333333333333333,0.03333333333333333,0.03333333333333333,0.03333333333333333,0.03333333333333333,0.03333333333333333,0.03333333333333333,0.03333333333333333,0.03333333333333333,0.03333333333333333,0.03333333333333333,0.03333333333333333,0.03333333333333333,0.03333333333333333,0.03333333333333333,0.03333333333333333,0.03333333333333333,0.03333333333333333,0.03333333333333333,0.03333333333333333,0.03333333333333333,0.03333333333333333,0.03333333333333333,0.03333333333333333,0.03333333333333333,0.03333333333333333,0.03333333333333333,0.03333333333333333,0.03333333333333333,0.03333333333333333,0.03333333333333333,0.03333333333333333,0.03333333333333333,0.03333333333333333,0.03333333333333333,0.03333333333333333,0.03333333333333333,0.03333333333333333,0.03333333333333333,0.03333333333333333,0.03333333333333333,0.03333333333333333,0.03333333333333333,0.03333333333333333,0.03333333333333333,0.03333333333333333,0.03333333333333333,0.03333333333333333,0.03333333333333333,0.03333333333333333,0.03333333333333333,0.03333333333333333,0.03333333333333333,0.03333333333333333,0.03333333333333333,0.03333333333333333,0.03333333333333333,0.03333333333333333,0.03333333333333333,0.03333333333333333,0.03333333333333333,0.03333333333333333,0.03333333333333333,0.03333333333333333,0.03333333333333333,0.03333333333333333,0.03333333333333333,0.03333333333333333,0.03333333333333333,0.03333333333333333,0.03333333333333333,0.03333333333333333,0.03333333333333333,0.03333333333333333,0.03333333333333333,0.03333333333333333,0.03333333333333333,0.03333333333333333,0.03333333333333333,0.03333333333333333,0.03333333333333333,0.03333333333333333,0.03333333333333333,0.03333333333333333,0.03333333333333333,0.03333333333333333,0.03333333333333333,0.03333333333333333,0.03333333333333333,0.03333333333333333,0.03333333333333333,0.03333333333333333,0.03333333333333333,0.03333333333333333,0.03333333333333333,0.03333333333333333,0.03333333333333333,0.03333333333333333,0.03333333333333333,0.03333333333333333,0.03333333333333333,0.03333333333333333,0.03333333333333333,0.03333333333333333,0.03333333333333333,0.03333333333333333,0.03333333333333333,0.03333333333333333,0.03333333333333333,0.03333333333333333,0.03333333333333333,0.03333333333333333,0.03333333333333333,0.03333333333333333,0.03333333333333333,0.03333333333333333,0.03333333333333333,0.03333333333333333,0.03333333333333333,0.03333333333333333,0.03333333333333333,0.03333333333333333,0.03333333333333333,0.03333333333333333,0.03333333333333333,0.03333333333333333,0.03333333333333333,0.03333333333333333,0.03333333333333333,0.03333333333333333,0.03333333333333333,0.03333333333333333,0.03333333333333333,0.03333333333333333,0.03333333333333333,0.03333333333333333,0.03333333333333333,0.03333333333333333,0.03333333333333333,0.03333333333333333,0.03333333333333333,0.03333333333333333,0.03333333333333333,0.03333333333333333,0.03333333333333333,0.03333333333333333,0.03333333333333333,0.03333333333333333,0.03333333333333333,0.03333333333333333,0.03333333333333333,0.03333333333333333,0.03333333333333333,0.03333333333333333,0.03333333333333333,0.03333333333333333,0.03333333333333333,0.03333333333333333,0.03333333333333333,0.03333333333333333,0.03333333333333333,0.03333333333333333,0.03333333333333333,0.03333333333333333,0.03333333333333333,0.03333333333333333,0.03333333333333333,0.03333333333333333,0.03333333333333333,0.03333333333333333,0.03333333333333333,0.03333333333333333,0.03333333333333333,0.03333333333333333,0.03333333333333333,0.03333333333333333,0.03333333333333333,0.03333333333333333,0.03333333333333333,0.03333333333333333,0.03333333333333333,0.03333333333333333,0.03333333333333333,0.03333333333333333,0.03333333333333333,0.03333333333333333,0.03333333333333333,0.03333333333333333,0.03333333333333333,0.03333333333333333,0.03333333333333333,0.03333333333333333,0.03333333333333333,0.03333333333333333,0.03333333333333333,0.03333333333333333,0.03333333333333333,0.03333333333333333,0.03333333333333333,0.03333333333333333,0.03333333333333333,0.03333333333333333,0.03333333333333333,0.03333333333333333,0.03333333333333333,0.03333333333333333,0.03333333333333333,0.03333333333333333,0.004761904761904762,-0.004761904761904762,-0.023809523809523808,-0.03333333333333333,-0.04285714285714286,-0.04285714285714286,-0.04285714285714286,-0.05238095238095238,-0.05238095238095238,-0.05238095238095238,-0.05238095238095238,-0.05238095238095238,-0.05238095238095238,-0.05238095238095238,-0.05238095238095238,-0.05238095238095238,-0.05238095238095238,-0.05238095238095238,-0.05238095238095238,-0.05238095238095238,-0.05238095238095238,-0.05238095238095238,-0.05238095238095238,-0.05238095238095238,-0.05238095238095238,-0.05238095238095238,-0.05238095238095238,-0.05238095238095238,-0.05238095238095238,-0.05238095238095238,-0.05238095238095238,-0.05238095238095238,-0.05238095238095238,-0.05238095238095238,-0.05238095238095238,-0.05238095238095238,-0.05238095238095238,-0.05238095238095238,-0.05238095238095238,-0.05238095238095238,-0.05238095238095238,-0.05238095238095238,-0.05238095238095238,-0.04285714285714286,-0.04285714285714286,-0.023809523809523808,-0.014285714285714285,-0.014285714285714285,-0.004761904761904762,-0.004761904761904762,-0.004761904761904762,-0.004761904761904762,-0.004761904761904762,-0.004761904761904762,-0.004761904761904762,-0.004761904761904762,-0.004761904761904762,-0.004761904761904762,-0.004761904761904762,-0.004761904761904762,-0.004761904761904762,-0.004761904761904762,-0.004761904761904762,-0.004761904761904762,-0.004761904761904762,-0.004761904761904762,-0.004761904761904762,-0.004761904761904762,-0.004761904761904762,-0.004761904761904762,-0.004761904761904762,-0.004761904761904762,-0.004761904761904762,-0.004761904761904762,-0.004761904761904762,-0.004761904761904762,-0.004761904761904762,-0.004761904761904762,-0.004761904761904762,-0.004761904761904762,-0.004761904761904762,-0.004761904761904762,-0.004761904761904762,-0.004761904761904762,-0.004761904761904762,-0.004761904761904762,-0.004761904761904762,-0.004761904761904762,-0.004761904761904762,-0.004761904761904762,-0.004761904761904762,-0.004761904761904762,-0.004761904761904762,-0.004761904761904762,-0.004761904761904762,-0.004761904761904762,-0.004761904761904762,-0.004761904761904762,-0.004761904761904762,-0.004761904761904762,-0.004761904761904762,-0.004761904761904762,-0.004761904761904762,-0.004761904761904762,-0.004761904761904762,-0.004761904761904762,-0.004761904761904762,-0.004761904761904762,-0.004761904761904762,-0.004761904761904762,-0.004761904761904762,-0.004761904761904762,-0.004761904761904762,-0.004761904761904762,-0.004761904761904762,-0.004761904761904762,-0.004761904761904762,-0.004761904761904762,0.004761904761904762,0.03333333333333333,0.05238095238095238,0.11904761904761904,0.15714285714285714,0.22380952380952382,0.2523809523809524,0.2904761904761905,0.3,0.319047619047619,0.3380952380952381,0.36666666666666664,0.3761904761904762,0.40476190476190477,0.4142857142857143,0.44285714285714284,0.4523809523809524,0.46190476190476193,0.48095238095238096,0.49047619047619045,0.49047619047619045,0.49047619047619045,0.5095238095238095,0.5095238095238095,0.5095238095238095,0.5095238095238095,0.5095238095238095,0.5095238095238095,0.5095238095238095,0.5095238095238095,0.5095238095238095,0.5095238095238095,0.5095238095238095,0.5095238095238095,0.5095238095238095,0.5095238095238095,0.5095238095238095,0.5095238095238095,0.5190476190476191,0.5285714285714286,0.5380952380952381,0.5571428571428572,0.5857142857142857,0.6333333333333333,0.6619047619047619,0.7285714285714285,0.7857142857142857,0.8714285714285714,0.9666666666666667,1.0238095238095237,1.0714285714285714,1.1,1.119047619047619,1.1476190476190475,1.1666666666666667,1.1857142857142857,1.1952380952380952,1.223809523809524,1.2428571428571429,1.2619047619047619,1.2904761904761906,1.3,1.3285714285714285,1.338095238095238,1.3666666666666667,1.3666666666666667,1.3952380952380952,1.4047619047619047,1.4238095238095239,1.4428571428571428,1.4428571428571428,1.4714285714285715,1.480952380952381,1.480952380952381,1.4904761904761905,1.5,1.5095238095238095,1.5095238095238095,1.519047619047619,1.519047619047619,1.519047619047619,1.519047619047619,1.519047619047619,1.519047619047619,1.519047619047619,1.519047619047619,1.519047619047619,1.519047619047619,1.519047619047619,1.519047619047619,1.519047619047619,1.519047619047619,1.519047619047619,1.519047619047619,1.519047619047619,1.519047619047619,1.519047619047619,1.519047619047619,1.519047619047619,1.519047619047619,1.519047619047619,1.519047619047619,1.519047619047619,1.519047619047619,1.519047619047619,1.519047619047619,1.519047619047619,1.519047619047619,1.519047619047619,1.519047619047619,1.519047619047619,1.519047619047619,1.519047619047619,1.519047619047619,1.519047619047619,1.519047619047619,1.519047619047619,1.519047619047619,1.519047619047619,1.519047619047619,1.3857142857142857,1.2142857142857142,1.1,0.8714285714285714,0.7571428571428571,0.680952380952381,0.6047619047619047,0.5380952380952381,0.44285714285714284,0.3380952380952381,0.2714285714285714,0.23333333333333334,0.1761904761904762,0.14761904761904762,0.1,0.06190476190476191,0.03333333333333333,-0.004761904761904762,-0.023809523809523808,-0.05238095238095238,-0.06190476190476191,-0.08095238095238096,-0.08095238095238096,-0.09047619047619047,-0.1,-0.10952380952380952,-0.10952380952380952,-0.10952380952380952,-0.11904761904761904,-0.11904761904761904,-0.11904761904761904,-0.11904761904761904,-0.11904761904761904,-0.11904761904761904,-0.11904761904761904,-0.11904761904761904,-0.10952380952380952,-0.09047619047619047,-0.06190476190476191,-0.04285714285714286,-0.014285714285714285,-0.014285714285714285,-0.004761904761904762,0.004761904761904762,0.014285714285714285,0.023809523809523808,0.023809523809523808,0.023809523809523808,0.023809523809523808,0.023809523809523808,0.023809523809523808,0.023809523809523808,0.023809523809523808,0.023809523809523808,0.023809523809523808,0.023809523809523808,0.023809523809523808,0.023809523809523808,0.023809523809523808,0.023809523809523808,0.023809523809523808,0.023809523809523808,0.023809523809523808,0.023809523809523808,0.023809523809523808,0.023809523809523808,0.023809523809523808,0.023809523809523808,0.023809523809523808,0.023809523809523808,0.023809523809523808,0.023809523809523808,0.023809523809523808,0.023809523809523808,0.023809523809523808,0.023809523809523808,0.023809523809523808,0.023809523809523808,0.023809523809523808,0.023809523809523808,0.023809523809523808,0.023809523809523808,0.023809523809523808,0.023809523809523808,0.023809523809523808,0.023809523809523808,0.023809523809523808,0.023809523809523808,0.023809523809523808,0.023809523809523808,0.023809523809523808,0.023809523809523808,0.023809523809523808,0.023809523809523808,0.023809523809523808,0.014285714285714285,0.014285714285714285,0.004761904761904762,-0.004761904761904762,-0.004761904761904762,-0.004761904761904762,-0.014285714285714285,-0.014285714285714285,-0.014285714285714285,-0.014285714285714285,-0.014285714285714285,-0.014285714285714285,-0.014285714285714285,-0.014285714285714285,-0.014285714285714285,-0.014285714285714285,-0.014285714285714285,-0.014285714285714285,-0.014285714285714285,-0.014285714285714285,-0.014285714285714285,-0.014285714285714285,-0.014285714285714285,-0.014285714285714285,-0.014285714285714285,-0.014285714285714285,-0.014285714285714285,-0.014285714285714285,-0.014285714285714285,-0.014285714285714285,-0.014285714285714285,-0.014285714285714285,-0.014285714285714285,-0.014285714285714285,-0.014285714285714285,-0.014285714285714285,-0.014285714285714285,-0.014285714285714285,-0.014285714285714285,-0.014285714285714285,-0.014285714285714285,-0.014285714285714285,-0.014285714285714285,-0.014285714285714285,-0.014285714285714285,-0.014285714285714285,-0.014285714285714285,-0.014285714285714285,-0.014285714285714285,-0.014285714285714285,-0.014285714285714285,-0.014285714285714285,-0.014285714285714285,-0.014285714285714285,-0.014285714285714285,-0.014285714285714285,-0.014285714285714285,-0.014285714285714285,-0.014285714285714285,-0.014285714285714285,-0.014285714285714285,-0.014285714285714285,-0.014285714285714285,-0.014285714285714285,-0.014285714285714285,-0.014285714285714285,-0.014285714285714285,-0.014285714285714285,-0.014285714285714285,-0.014285714285714285,-0.014285714285714285,-0.014285714285714285,-0.014285714285714285,-0.014285714285714285,-0.014285714285714285,-0.014285714285714285,-0.014285714285714285,-0.014285714285714285,-0.014285714285714285,-0.014285714285714285,-0.014285714285714285,-0.014285714285714285,-0.014285714285714285,-0.014285714285714285,-0.014285714285714285,-0.014285714285714285,-0.014285714285714285,-0.014285714285714285,-0.014285714285714285,-0.014285714285714285,-0.014285714285714285,-0.014285714285714285,-0.014285714285714285,-0.014285714285714285,-0.014285714285714285,-0.014285714285714285,-0.014285714285714285,-0.014285714285714285,-0.014285714285714285,-0.014285714285714285,-0.014285714285714285,-0.014285714285714285,-0.014285714285714285,-0.014285714285714285,-0.014285714285714285,-0.014285714285714285,-0.014285714285714285,-0.014285714285714285,-0.014285714285714285,0.10952380952380952,0.22380952380952382,0.4142857142857143,0.5476190476190477,0.9095238095238095,1.1761904761904762,1.9285714285714286,2.1666666666666665,2.395238095238095,2.623809523809524,2.7857142857142856,2.9095238095238094,2.9857142857142858,3.052380952380952,3.080952380952381,3.0904761904761906,3.0904761904761906,3.0904761904761906,3.0904761904761906,3.080952380952381,3.0714285714285716,2.966666666666667,2.8904761904761904,2.7476190476190476,2.7,2.6619047619047618,2.6523809523809523,2.6333333333333333,2.623809523809524,2.623809523809524,2.6142857142857143,2.6142857142857143,2.604761904761905,2.604761904761905,2.5952380952380953,2.5952380952380953,2.5952380952380953,2.5952380952380953,2.5952380952380953,2.5952380952380953,2.5952380952380953,2.5952380952380953,2.5952380952380953,2.5952380952380953,2.5952380952380953,2.5952380952380953,2.5952380952380953,2.5952380952380953,2.5952380952380953,2.5952380952380953,2.5952380952380953,2.5952380952380953,2.5952380952380953,2.5952380952380953,2.5952380952380953,2.5952380952380953,2.5952380952380953,2.5952380952380953,2.5952380952380953,2.5952380952380953,2.5952380952380953,2.5952380952380953,2.5952380952380953,2.5952380952380953,2.5952380952380953,2.176190476190476,2.0142857142857142,1.9,1.7476190476190476,1.661904761904762,1.5761904761904761,1.5571428571428572,1.5380952380952382,1.519047619047619,1.519047619047619,1.5095238095238095,1.5,1.4904761904761905,1.480952380952381,1.480952380952381,1.4619047619047618,1.4428571428571428,1.4047619047619047,1.3761904761904762,1.3476190476190477,1.3285714285714285,1.3,1.2904761904761906,1.2904761904761906,1.2714285714285714,1.2714285714285714,1.2714285714285714,1.2714285714285714,1.2619047619047619,1.2428571428571429,1.2142857142857142,1.1666666666666667,1.1285714285714286,1.1095238095238096,1.0714285714285714,1.0523809523809524,1.0238095238095237,1.0238095238095237,1.0142857142857142,1.0047619047619047,0.9952380952380953,0.9857142857142858,0.9857142857142858,0.9857142857142858,0.9857142857142858,0.9857142857142858,0.9857142857142858,0.9857142857142858,0.9857142857142858,0.9857142857142858,0.9857142857142858,0.9857142857142858,0.9857142857142858,0.9857142857142858,0.9857142857142858,0.9857142857142858,0.9857142857142858,0.9857142857142858,0.9857142857142858,0.9857142857142858,0.9857142857142858,0.9857142857142858,0.9857142857142858,0.9857142857142858,0.9857142857142858,0.9857142857142858,0.9857142857142858,0.9857142857142858,0.9857142857142858,0.9857142857142858,0.9857142857142858,0.9857142857142858,0.9857142857142858,0.9857142857142858,0.9857142857142858,0.9857142857142858,0.9857142857142858,0.9857142857142858,0.9857142857142858,0.9857142857142858,0.9857142857142858,0.9857142857142858,0.9857142857142858,0.9857142857142858,0.9857142857142858,0.9857142857142858,0.9857142857142858,0.9857142857142858,0.9857142857142858,0.9857142857142858,0.9857142857142858,0.9857142857142858,0.9857142857142858,0.9857142857142858,0.9857142857142858,0.9857142857142858,0.9857142857142858,0.9857142857142858,0.9857142857142858,0.9857142857142858,0.9857142857142858,0.9857142857142858,0.9857142857142858,0.9857142857142858,0.9857142857142858,0.9857142857142858,0.9857142857142858,0.9857142857142858,0.9857142857142858,0.9857142857142858,0.9857142857142858,0.9857142857142858,0.9857142857142858,0.9857142857142858,0.9857142857142858,0.9857142857142858,0.9857142857142858,0.9857142857142858,0.9857142857142858,0.9857142857142858,0.9857142857142858,0.9857142857142858,0.9857142857142858,0.9857142857142858,0.9857142857142858,0.9857142857142858,0.9857142857142858,0.9857142857142858,0.9571428571428572,0.5476190476190477,0.2904761904761905,0.07142857142857142,-0.06190476190476191,-0.11904761904761904,-0.16666666666666666,-0.19523809523809524,-0.23333333333333334,-0.24285714285714285,-0.2619047619047619,-0.2714285714285714,-0.28095238095238095,-0.2904761904761905,-0.2904761904761905,-0.3,-0.30952380952380953,-0.319047619047619,-0.3380952380952381,-0.3476190476190476,-0.35714285714285715,-0.35714285714285715,-0.30952380952380953,-0.28095238095238095,-0.24285714285714285,-0.20476190476190476,-0.19523809523809524,-0.18571428571428572,-0.1761904761904762,-0.16666666666666666,-0.15714285714285714,-0.15714285714285714,-0.15714285714285714,-0.15714285714285714,-0.15714285714285714,-0.15714285714285714,-0.15714285714285714,-0.15714285714285714,-0.15714285714285714,-0.15714285714285714,-0.15714285714285714,-0.15714285714285714,-0.15714285714285714,-0.15714285714285714,-0.15714285714285714,-0.15714285714285714,-0.15714285714285714,-0.15714285714285714,-0.15714285714285714,-0.15714285714285714,-0.14761904761904762,-0.1380952380952381,-0.1380952380952381,-0.12857142857142856,-0.12857142857142856,-0.12857142857142856,-0.11904761904761904,-0.11904761904761904,-0.11904761904761904,-0.11904761904761904,-0.1,-0.1,-0.09047619047619047,-0.08095238095238096,-0.08095238095238096,-0.08095238095238096,-0.08095238095238096,-0.08095238095238096,-0.08095238095238096,-0.08095238095238096,-0.08095238095238096,-0.08095238095238096,-0.08095238095238096,-0.08095238095238096,-0.08095238095238096,-0.08095238095238096,-0.08095238095238096,-0.08095238095238096,-0.08095238095238096,-0.08095238095238096,-0.08095238095238096,-0.08095238095238096,-0.08095238095238096,-0.08095238095238096,-0.08095238095238096,-0.08095238095238096,-0.08095238095238096,-0.08095238095238096,-0.08095238095238096,-0.08095238095238096,-0.08095238095238096,-0.08095238095238096,-0.08095238095238096,-0.08095238095238096,-0.08095238095238096,-0.08095238095238096,-0.08095238095238096,-0.08095238095238096,-0.08095238095238096,-0.08095238095238096,-0.08095238095238096,-0.08095238095238096,-0.08095238095238096,-0.08095238095238096,-0.08095238095238096,-0.08095238095238096,-0.08095238095238096,-0.08095238095238096,-0.08095238095238096,-0.08095238095238096,-0.08095238095238096,-0.08095238095238096,-0.08095238095238096,-0.08095238095238096,-0.08095238095238096,-0.08095238095238096,-0.08095238095238096,-0.08095238095238096,-0.08095238095238096,-0.08095238095238096,-0.08095238095238096,-0.08095238095238096,-0.08095238095238096,-0.08095238095238096,-0.08095238095238096,-0.08095238095238096,-0.08095238095238096,-0.08095238095238096,-0.08095238095238096,-0.08095238095238096,-0.08095238095238096,-0.08095238095238096,-0.08095238095238096,-0.08095238095238096,-0.08095238095238096,-0.08095238095238096,-0.08095238095238096,-0.08095238095238096,-0.08095238095238096,-0.08095238095238096,-0.08095238095238096,-0.08095238095238096,-0.08095238095238096,-0.08095238095238096,-0.08095238095238096,-0.08095238095238096,-0.0809523809523809