[{"success":true,"trial_type":"fullscreen","trial_index":0,"time_elapsed":3213,"internal_node_id":"0.0-0.0","protocol_sum":"","subject_identifier":302,"subject_sum":[142,97,43,209,245,209,50,163,57,87,91,141,175,183,132,44,100,97,78,86,188,243,213,171,101,160,188,75,52,50,148,7],"subject_pair":151,"STUDY_ID":"66a0b3911f23dfc7665bb169","PROLIFIC_PID":"665cb15c8534afbb16c0633f","SESSION_ID":"66a100b96141402dcc237677","practice_instructions":1,"leaderboard_instructions":0,"bonus":0,"reveal_word":false,"self_rating":"3","confidence":"58"},{"view_history":"[{\"page_index\":0,\"viewing_time\":1818.5}]","rt":1818.7000000476837,"trial_type":"instructions","trial_index":1,"time_elapsed":5035,"internal_node_id":"0.0-1.0","protocol_sum":"","subject_identifier":302,"subject_sum":[142,97,43,209,245,209,50,163,57,87,91,141,175,183,132,44,100,97,78,86,188,243,213,171,101,160,188,75,52,50,148,7],"subject_pair":151,"STUDY_ID":"66a0b3911f23dfc7665bb169","PROLIFIC_PID":"665cb15c8534afbb16c0633f","SESSION_ID":"66a100b96141402dcc237677","practice_instructions":1,"leaderboard_instructions":0,"bonus":0,"reveal_word":false,"self_rating":"3","confidence":"58"},{"view_history":"[{\"page_index\":0,\"viewing_time\":12839.299999952316}]","rt":12839.699999809265,"trial_type":"instructions","trial_index":2,"time_elapsed":17875,"internal_node_id":"0.0-2.0-0.0","protocol_sum":"","subject_identifier":302,"subject_sum":[142,97,43,209,245,209,50,163,57,87,91,141,175,183,132,44,100,97,78,86,188,243,213,171,101,160,188,75,52,50,148,7],"subject_pair":151,"STUDY_ID":"66a0b3911f23dfc7665bb169","PROLIFIC_PID":"665cb15c8534afbb16c0633f","SESSION_ID":"66a100b96141402dcc237677","practice_instructions":1,"leaderboard_instructions":0,"bonus":0,"reveal_word":false,"self_rating":"3","confidence":"58"},{"rt":26086.200000047684,"responses":"{\"Q0\":\"... reveal the word with as <b>few letter guesses</b> as possible\"}","question_order":"[0]","trial_type":"survey-multi-choice","trial_index":3,"time_elapsed":43964,"internal_node_id":"0.0-2.0-1.0","protocol_sum":"","subject_identifier":302,"subject_sum":[142,97,43,209,245,209,50,163,57,87,91,141,175,183,132,44,100,97,78,86,188,243,213,171,101,160,188,75,52,50,148,7],"subject_pair":151,"correct":true,"test_part":"multichoice_nonpretend","STUDY_ID":"66a0b3911f23dfc7665bb169","PROLIFIC_PID":"665cb15c8534afbb16c0633f","SESSION_ID":"66a100b96141402dcc237677","practice_instructions":1,"leaderboard_instructions":0,"bonus":0,"reveal_word":false,"self_rating":"3","confidence":"58"},{"view_history":"[{\"page_index\":0,\"viewing_time\":2345.7000000476837}]","rt":2345.9000000953674,"trial_type":"instructions","trial_index":4,"time_elapsed":46310,"internal_node_id":"0.0-3.0","protocol_sum":"","subject_identifier":302,"subject_sum":[142,97,43,209,245,209,50,163,57,87,91,141,175,183,132,44,100,97,78,86,188,243,213,171,101,160,188,75,52,50,148,7],"subject_pair":151,"STUDY_ID":"66a0b3911f23dfc7665bb169","PROLIFIC_PID":"665cb15c8534afbb16c0633f","SESSION_ID":"66a100b96141402dcc237677","practice_instructions":1,"leaderboard_instructions":0,"bonus":0,"reveal_word":false,"self_rating":"3","confidence":"58"},{"word":"ZEBRA","click_log":{"letter":["","O","E","L","A","T","Z","B","R"],"t":[0,5609.599999904633,11625.5,20548.39999985695,28259.700000047684,79149.59999990463,84645.09999990463,86695,88377.20000004768],"hit":[null,0,1,0,1,0,1,1,1],"asked":["","O","OE","OEL","OELA","OELAT","OELATZ","OELATZB","OELATZBR"],"word_state":["_____","_____","_E___","_E___","_E__A","_E__A","ZE__A","ZEB_A","ZEBRA"]},"hover_log":{"letter":["?","J","K","K","?","?","?","?","?","?","?","?","?","?","?","?","?","?","?","?","?","?","?","?","?","?","?","?","?","?","?","?","?","?","?","?","?","?","?","?","?","?","?","?","?","?","?","?","?","?","?","?","?","?","?","?","?","?","?","?","?","?","?","?","?","?","?","?","?","?","?","?","?","?","?","?","?","?","?","?","?","?","?","?","?","?","?","?","?","?","?","?","?","?","?","?","?","?","?","?","?","?","?","?","?","?","?","?","?","?","?","?","?","?","?","?","C","?","?","?","?","?","?","?","?","?","?","?","?","?","?","?","?","?","?","?","?","?","?","?","?","?","?","?","?","?","?","?","?","?","?","?","?","?","?","?","?","?","?","?","?","?","?","?","?","?","?","?","?","?","?","?","?","?","?","?","?","?","?","?","?","?","?","?","?","?","?","?","?","?","?","?","?","?","?","?","?","?","?","?","?","?","?","?","?","?","?","?","?","?","G","G","?","P","?","?","?","?","?","O","O","O","?","?","?","?","?","?","?","?","?","?","?","?","?","?","?","?","?","?","L","L","?","K","K","K","K","K","K","K","K","K","K","K","?","?","?","?","?","?","?","T","?","?","U","U","V","V","W","X","X","?","Y","Y","?","Z","Z","?","?","?","?","?","?","?","?","?","?","?","Q","Q","Q","Q","Q","Q","Q","Q","Q","Q","Q","Q","Q","Q","Q","Q","Q","Q","Q","P","P","P","?","?","?","?","?","O","O","O","O","O","O","O","O","O","O","O","O","O","O","O","O","O","O","O","O","O","O","O","O","O","O","O","O","O","O","O","O","O","O","O","O","O","O","O","O","O","O","O","O","O","O","O","O","O","O","O","O","O","O","O","O","O","O","O","O","O","O","O","O","O","O","O","O","O","O","O","O","O","O","O","O","O","O","O","O","O","O","O","O","O","O","O","O","O","O","O","O","O","O","O","O","O","O","O","O","O","O","O","O","O","O","O","O","O","O","O","O","O","O","O","O","O","O","O","O","O","O","O","O","O","O","O","O","O","O","O","O","O","O","O","O","O","O","O","O","O","O","O","O","O","O","O","O","O","O","O","O","O","O","O","O","O","O","O","O","O","O","O","O","O","O","O","O","O","O","O","O","O","O","O","O","O","O","O","O","O","O","O","O","O","O","O","O","O","O","O","O","O","O","O","O","O","O","O","O","O","O","O","O","O","O","O","O","O","O","O","O","O","O","O","O","O","O","O","O","O","O","O","O","O","O","O","O","O","O","O","O","O","O","O","O","O","O","O","O","O","O","O","O","O","O","O","O","O","O","O","O","O","O","O","O","O","O","O","O","O","O","O","O","O","O","O","O","O","O","O","O","O","O","O","O","O","O","O","O","O","O","O","O","O","O","O","O","O","O","O","O","O","O","O","O","O","O","O","O","O","O","O","O","O","O","O","O","O","O","O","O","O","O","O","O","O","O","O","O","O","O","O","O","O","O","O","O","O","O","O","O","O","O","O","O","O","O","O","O","O","O","O","O","O","O","O","O","?","?","?","?","?","?","?","?","?","?","?","E","E","E","E","E","E","E","E","E","E","E","E","E","E","E","E","E","E","E","E","E","E","E","E","E","E","E","E","E","E","E","E","E","E","E","E","E","E","E","E","E","E","E","E","E","E","E","E","E","E","E","E","E","E","E","E","E","E","E","E","E","E","E","E","E","E","E","E","E","E","E","E","E","E","E","E","E","E","E","E","E","E","E","E","E","E","E","E","E","E","E","E","E","E","E","E","E","E","E","E","E","E","E","E","E","E","E","E","E","E","E","E","E","E","E","E","E","E","E","E","E","E","E","E","E","E","E","E","E","E","E","E","E","E","E","E","E","E","E","E","E","E","E","E","E","E","E","E","E","E","E","E","E","E","E","E","E","E","E","E","E","E","E","E","E","E","E","E","E","E","E","E","E","E","E","E","E","E","E","E","E","E","E","E","E","E","E","E","E","E","E","E","E","E","E","E","E","E","E","E","E","E","E","E","E","E","E","E","E","E","E","E","E","E","E","E","E","E","E","E","E","E","E","E","E","E","E","E","E","E","E","E","E","E","E","E","E","E","E","E","E","E","E","E","E","E","E","E","E","E","E","E","E","E","E","E","E","E","E","E","E","E","E","E","E","E","E","E","E","E","E","E","E","E","E","E","E","E","E","E","E","E","E","E","E","E","E","E","E","E","E","E","E","E","E","E","E","E","E","E","E","E","E","E","E","E","E","E","E","E","E","E","E","E","E","E","E","E","E","E","E","E","E","E","E","E","E","E","E","E","E","E","E","E","E","E","E","E","E","E","E","E","E","E","E","E","E","E","E","E","E","E","E","E","E","E","E","E","E","E","E","E","E","E","E","E","E","E","E","E","E","E","E","E","E","E","E","E","E","E","E","E","E","E","E","E","E","E","E","E","E","E","E","E","E","E","E","E","E","E","E","E","E","E","E","E","E","E","E","E","E","E","E","E","E","E","E","E","E","E","E","E","E","E","E","E","E","E","E","E","E","E","E","E","E","E","E","E","E","E","E","E","E","E","E","?","?","?","?","?","?","?","?","?","?","?","?","M","M","M","?","?","?","?","?","?","?","?","?","?","?","?","?","?","?","?","?","?","?","?","?","?","?","?","?","?","?","?","?","?","?","?","?","?","?","?","?","?","?","?","?","?","?","?","?","?","?","?","?","?","?","?","?","?","?","?","L","L","L","?","?","?","?","?","?","?","?","?","?","?","?","?","?","?","L","L","L","L","L","L","L","L","L","L","L","L","L","L","L","L","L","L","L","L","L","L","L","L","L","L","L","L","L","L","L","L","L","L","L","L","L","L","L","L","L","L","L","L","L","L","L","L","L","L","L","L","L","L","L","L","L","L","L","L","L","L","L","L","L","L","L","L","L","L","L","L","L","L","L","L","L","L","L","L","L","L","L","L","L","L","L","L","L","L","L","L","L","L","L","L","L","L","L","L","L","L","L","L","L","L","L","L","L","L","L","L","L","L","L","L","L","L","L","L","L","L","L","L","L","L","L","L","L","L","L","L","L","L","L","L","L","L","L","L","L","L","L","L","L","L","L","L","L","L","L","L","L","L","L","L","L","L","L","L","L","L","L","L","L","L","L","L","L","L","L","L","L","L","L","L","L","L","L","L","L","L","L","L","L","L","L","L","L","L","L","L","L","L","L","L","L","L","L","L","L","L","L","L","L","L","L","L","L","L","L","L","L","L","L","L","L","L","L","L","L","L","L","L","L","L","L","L","L","L","L","L","L","L","L","L","L","L","L","L","L","L","L","L","L","L","L","L","L","L","L","L","L","L","L","L","L","L","L","L","L","L","L","L","L","L","L","L","L","L","L","L","L","L","L","L","L","L","L","L","L","L","L","L","L","L","L","L","L","L","L","L","L","L","L","L","L","L","L","L","L","L","L","L","L","L","L","L","L","L","L","L","L","L","L","L","L","L","L","L","L","L","L","L","L","L","L","L","L","L","L","L","L","L","L","L","L","L","L","L","L","L","L","L","L","L","L","L","L","L","L","L","L","L","L","L","L","L","L","L","L","L","L","L","L","L","L","L","L","L","L","L","L","L","L","L","L","L","L","L","L","L","L","L","L","L","L","L","L","L","L","L","L","L","L","L","L","L","L","L","L","L","L","L","L","L","L","L","L","L","L","L","L","L","L","L","L","L","L","L","L","L","L","L","L","L","L","L","L","L","L","L","L","L","L","L","L","L","L","L","L","L","L","L","L","K","K","?","?","?","?","?","?","?","?","?","?","?","?","?","?","?","?","?","?","?","?","?","?","A","A","A","A","A","A","A","A","A","A","A","A","A","A","A","A","A","A","A","A","A","A","A","A","A","A","A","A","A","A","A","A","A","A","A","A","A","A","A","A","A","A","A","A","A","A","A","A","A","A","A","A","A","A","A","A","A","A","A","A","A","A","A","A","A","A","A","A","A","A","A","A","A","A","A","A","A","A","A","A","A","A","A","A","A","A","A","A","A","A","A","A","A","A","A","A","A","A","A","A","A","A","A","A","A","A","A","A","A","A","A","A","A","A","A","A","A","A","A","A","A","A","A","A","A","A","A","A","A","A","A","A","A","A","A","A","A","A","A","A","A","A","A","A","A","A","A","A","A","A","A","A","A","A","A","A","A","A","A","A","A","A","A","A","A","A","A","A","A","A","A","A","A","A","A","A","A","A","A","A","A","A","A","A","A","A","A","A","A","A","A","A","A","A","A","A","A","A","A","A","A","A","A","A","A","A","A","A","A","A","A","A","A","A","A","A","A","A","A","A","A","A","A","A","A","A","A","A","A","A","A","A","A","A","A","A","A","A","A","A","A","A","A","A","A","A","A","A","A","A","A","A","A","A","A","A","A","A","A","A","A","A","A","A","A","A","A","A","A","A","A","A","A","A","A","A","A","A","A","A","A","A","A","A","A","A","A","A","A","A","A","A","A","A","A","A","A","A","A","A","A","A","A","A","A","A","A","A","A","A","A","A","A","A","A","A","A","A","A","A","A","A","A","A","A","A","A","A","A","A","A","A","A","A","A","A","A","A","A","A","A","A","A","A","A","A","A","A","A","A","A","A","?","B","C","?","F","G","?","H","H","H","H","H","H","H","H","I","?","?","?","?","?","?","?","?","?","?","?","?","?","?","?","?","?","?","?","?","?","?","?","?","?","?","?","?","?","?","?","?","?","?","?","?","?","?","?","?","?","?","?","?","?","?","?","?","?","?","?","?","?","?","?","?","?","?","?","?","?","?","?","?","?","?","?","?","?","?","?","?","?","?","?","?","?","I","I","I","I","I","I","I","I","I","I","I","I","I","I","I","I","I","?","?","R","?","?","Y","Y","?","X","X","X","X","X","X","X","X","?","?","?","?","?","?","?","?","?","?","?","?","?","?","?","?","?","?","?","?","?","?","?","?","?","?","?","?","?","?","?","?","?","?","?","?","?","?","?","?","?","?","?","?","?","?","?","?","?","?","?","?","?","?","?","?","?","?","?","?","?","?","?","?","?","?","?","?","?","?","?","?","?","?","?","?","?","?","?","?","?","?","?","?","?","?","?","?","?","?","?","?","?","?","?","?","?","?","?","?","?","?","?","?","?","?","?","?","?","?","?","?","?","?","?","?","?","?","?","?","?","?","?","?","?","?","?","?","?","?","?","?","?","?","?","?","?","?","?","?","?","?","?","?","?","?","?","?","?","?","?","?","?","?","?","?","?","?","?","?","?","?","?","?","?","?","?","?","?","?","?","?","?","?","?","?","?","?","?","?","?","?","?","?","?","?","?","?","?","?","?","?","?","?","?","?","?","?","?","?","?","?","?","?","?","?","?","?","?","?","?","?","?","?","?","?","?","?","?","?","?","?","?","?","?","?","?","?","?","?","?","?","?","?","?","?","?","?","?","?","?","?","?","?","?","?","?","?","?","?","?","?","?","?","?","?","?","?","?","?","?","?","?","?","?","?","?","?","?","?","?","?","?","?","?","?","?","?","?","?","?","?","?","?","?","?","?","?","?","?","?","?","?","?","?","?","?","?","?","?","?","?","?","?","?","?","?","?","?","?","?","?","?","?","?","?","?","?","?","?","?","?","?","?","?","?","?","?","?","?","?","?","?","?","?","?","?","?","?","?","?","?","?","?","?","?","?","?","?","?","?","?","?","?","?","?","?","?","?","?","?","?","?","?","?","?","?","?","?","?","?","?","?","?","?","?","?","?","?","?","?","?","?","?","?","?","?","?","?","?","?","?","?","?","?","?","?","?","?","?","?","?","?","?","?","?","?","?","?","?","?","?","?","?","?","?","?","?","?","?","?","?","?","?","?","?","?","?","?","?","?","?","?","?","?","?","?","?","?","?","?","?","?","?","?","?","?","?","?","?","?","?","?","?","?","?","?","?","?","?","?","?","?","?","?","?","?","?","?","?","?","?","?","?","?","?","?","?","?","?","?","?","?","?","?","?","?","?","?","?","?","?","?","?","?","?","?","?","?","?","?","?","?","?","?","?","?","?","?","?","?","?","?","?","?","?","?","?","?","?","?","?","?","?","?","?","?","?","?","?","?","?","?","?","?","?","?","?","?","?","?","?","?","?","?","?","?","?","?","?","?","?","?","?","?","?","?","?","?","?","?","?","?","?","?","?","?","?","?","?","?","?","?","?","?","?","?","?","?","?","?","?","?","?","?","?","?","?","?","?","?","?","?","?","?","?","?","?","?","?","?","?","?","?","?","?","?","?","?","?","?","?","?","?","?","?","?","?","?","?","?","?","?","?","?","?","?","?","?","?","?","?","?","?","?","?","?","?","?","?","?","?","?","?","?","?","?","?","?","?","?","?","?","?","?","?","?","?","?","?","?","?","?","?","?","?","?","?","?","?","?","?","?","?","?","?","?","?","?","?","?","?","?","?","?","?","?","?","?","?","?","?","?","?","?","?","?","?","?","?","?","?","?","?","?","?","?","?","?","?","?","?","?","?","?","?","?","?","?","?","?","?","?","?","?","?","?","?","?","?","?","?","?","?","?","?","?","?","?","?","?","?","?","?","?","?","?","?","?","?","?","?","?","?","?","?","?","?","?","?","?","?","?","?","?","?","?","?","?","?","?","?","?","?","?","?","?","?","?","?","?","?","?","?","?","?","?","?","?","?","?","?","?","?","?","?","?","?","?","?","?","?","?","?","?","?","?","?","?","?","?","?","?","?","?","?","?","?","?","?","?","?","?","?","?","?","?","?","?","?","?","?","?","?","?","?","?","?","?","?","?","?","?","?","?","?","?","?","?","?","?","?","?","?","?","?","?","?","?","?","?","?","?","?","?","?","?","?","?","?","?","?","?","?","?","?","?","?","?","?","?","?","?","?","?","?","?","?","?","?","?","?","?","?","?","?","?","?","?","?","?","?","?","?","?","?","?","?","?","?","?","?","?","?","?","?","?","?","?","?","?","?","?","?","?","?","?","?","?","?","?","?","?","?","?","?","?","?","?","?","?","?","?","?","?","?","?","?","?","?","?","?","?","?","?","?","?","?","?","?","?","?","?","?","?","?","?","?","?","?","?","?","?","?","?","?","?","?","?","?","?","?","?","?","?","?","?","?","?","?","?","?","?","?","?","?","?","?","?","?","?","?","?","?","?","?","?","?","?","?","?","?","?","?","?","?","?","?","?","?","?","?","?","?","?","?","?","?","?","?","?","?","?","?","?","?","?","?","?","?","?","?","?","?","?","?","?","?","?","?","?","?","?","?","?","?","?","?","?","?","?","?","?","?","?","?","?","?","?","?","?","?","?","?","?","?","?","?","?","?","?","?","?","?","?","?","?","?","?","?","?","?","?","?","?","?","?","?","?","?","?","?","?","?","?","?","?","?","?","?","?","?","?","?","?","?","?","?","?","?","?","?","?","?","?","?","?","?","?","?","?","?","?","?","?","?","?","?","?","?","?","?","?","?","?","?","?","?","?","?","?","?","?","?","?","?","?","?","?","?","?","?","?","?","?","?","?","?","?","?","?","?","?","?","?","?","?","?","?","?","?","?","?","?","?","?","?","?","?","?","?","?","?","?","?","?","?","?","?","?","?","?","?","?","?","?","?","?","?","?","?","?","?","?","?","?","?","?","?","?","?","?","?","?","?","?","?","?","?","?","?","?","?","?","?","?","?","?","?","?","?","?","?","?","?","?","?","?","?","?","?","?","?","?","?","?","?","?","?","?","?","?","?","?","?","?","?","?","?","?","?","?","?","?","?","?","?","?","?","?","?","?","?","?","?","?","?","?","?","?","?","?","?","?","?","?","?","?","?","?","?","?","?","?","?","?","?","?","?","?","?","?","?","?","?","?","?","?","?","?","?","?","?","?","?","?","?","?","?","?","?","?","?","?","?","?","?","?","?","?","?","?","?","?","?","?","?","?","?","?","?","?","?","?","?","?","?","?","?","?","?","?","?","?","?","?","?","?","?","?","?","?","?","?","?","?","?","?","?","?","?","?","?","?","?","?","?","?","?","?","?","?","?","?","?","?","?","?","?","?","?","?","?","?","?","?","?","?","?","?","?","?","?","?","?","?","?","?","?","?","?","?","?","?","?","?","?","?","?","?","?","?","?","?","?","?","?","?","?","?","?","?","?","?","?","?","?","?","?","?","?","?","?","?","?","?","?","?","?","?","?","?","?","?","?","?","?","?","?","?","?","?","?","?","?","?","?","?","?","?","?","?","?","?","?","?","?","?","?","?","?","?","?","?","?","?","?","?","?","?","?","?","?","?","?","?","?","?","?","?","?","?","?","?","?","?","?","?","?","?","?","?","?","?","?","?","?","?","?","?","?","?","?","?","?","?","?","?","?","?","?","?","?","?","?","?","?","?","?","?","?","?","?","?","?","?","?","?","?","?","?","?","?","?","?","?","?","?","?","?","?","?","?","?","?","?","?","?","?","?","?","?","?","?","?","?","?","?","?","?","?","?","?","?","?","?","?","?","?","?","?","?","?","?","?","?","?","?","?","?","?","?","?","?","?","?","?","?","?","?","?","?","?","?","?","?","?","?","?","?","?","?","?","?","?","?","?","?","?","?","?","?","?","?","?","?","?","?","?","?","?","?","?","?","?","?","?","?","?","?","?","?","?","?","?","?","?","?","?","?","?","?","?","?","?","?","?","?","?","?","?","?","?","?","?","?","?","?","?","?","?","?","?","?","?","?","?","?","?","?","?","?","?","?","?","?","?","?","?","?","?","?","?","?","?","?","?","?","?","?","?","?","?","?","?","?","?","?","?","?","?","?","?","?","?","?","?","?","?","?","?","?","?","?","?","?","?","?","?","?","?","?","?","?","?","?","?","?","?","?","?","?","?","?","?","?","?","?","?","?","?","?","?","?","?","?","?","?","?","?","?","?","?","?","?","?","?","?","?","?","?","?","?","?","?","?","?","?","?","?","?","?","?","?","?","?","?","?","?","?","?","?","?","?","?","?","?","?","?","?","?","?","?","?","?","?","?","?","?","?","?","?","?","?","?","?","?","?","?","?","?","?","?","?","?","?","?","?","?","?","?","?","?","?","?","?","?","?","?","?","?","?","?","?","?","?","?","?","?","?","?","?","?","?","?","?","?","?","?","?","?","?","?","?","?","?","?","?","?","?","?","?","?","?","?","?","?","?","?","?","?","?","?","?","?","?","?","?","?","?","?","?","?","?","?","?","?","?","?","?","?","?","?","?","?","?","?","?","?","?","?","?","?","?","?","?","?","?","?","?","?","?","?","?","?","?","?","?","?","?","?","?","?","?","?","?","?","?","?","?","?","?","?","?","?","?","?","?","?","?","?","?","?","?","?","?","?","?","?","?","?","?","?","?","?","?","?","?","?","?","?","?","?","?","?","?","?","?","?","?","?","?","?","?","?","?","?","?","?","?","?","?","?","?","?","?","?","?","?","?","?","?","?","?","?","?","?","?","?","?","?","?","?","?","?","?","?","?","?","?","?","?","?","?","?","?","?","?","?","?","?","?","?","?","?","?","?","?","?","?","?","?","?","?","?","?","?","?","?","?","?","?","?","?","?","?","?","?","?","?","?","?","?","?","?","?","?","?","?","?","?","?","?","?","?","?","?","?","?","?","?","?","?","?","?","?","?","?","?","?","?","?","?","?","?","?","?","?","?","?","?","?","?","?","?","?","?","?","?","?","?","?","?","?","?","?","?","?","?","?","?","?","?","?","?","?","?","?","?","?","?","?","?","?","?","?","?","?","?","?","?","?","?","?","?","?","?","?","?","?","?","?","?","?","?","?","?","?","?","?","?","?","?","?","?","?","?","?","?","?","?","?","?","?","?","?","?","?","?","?","?","?","?","?","?","?","?","?","?","?","?","?","?","?","?","?","?","?","?","?","?","?","?","?","?","?","?","?","?","?","?","?","?","?","?","?","?","?","?","?","?","?","?","?","?","?","?","?","?","?","?","?","?","?","?","?","?","?","?","?","?","?","?","?","?","?","?","?","?","?","?","?","?","?","?","?","?","?","?","?","?","?","?","?","?","?","?","?","?","?","?","?","?","?","?","?","?","?","?","?","?","?","?","?","?","?","?","?","?","?","?","?","?","?","?","?","?","?","?","?","?","?","?","?","?","?","?","?","?","?","?","?","?","?","?","?","?","?","?","?","?","?","?","?","?","?","?","?","?","?","?","?","?","?","?","?","?","?","?","?","?","?","?","?","?","?","?","?","?","?","?","?","?","?","?","?","?","?","?","?","?","?","?","?","?","?","?","?","?","?","?","?","?","?","?","?","?","?","?","?","?","?","?","?","?","?","?","?","?","?","?","?","?","?","?","?","?","?","?","?","?","?","?","?","?","?","?","?","?","?","?","?","?","?","?","?","?","?","?","?","?","?","?","?","?","?","?","?","?","?","?","?","?","?","?","?","?","?","?","?","?","?","?","?","?","?","?","?","?","?","?","?","?","?","?","?","?","?","?","?","?","?","?","?","?","?","?","?","?","?","?","?","?","?","?","?","?","?","?","?","?","?","?","?","?","?","?","?","?","?","?","?","?","?","?","?","?","?","?","?","?","?","?","?","?","?","?","?","?","?","?","?","W","V","U","?","?","?","?","?","T","T","T","T","?","?","?","?","?","?","?","?","?","?","?","?","?","?","?","?","?","?","?","?","?","?","?","?","?","?","?","?","?","?","?","?","T","T","T","T","T","T","T","T","T","T","T","T","T","T","T","T","T","T","T","T","T","T","T","T","T","T","T","?","?","?","?","?","?","?","?","?","?","?","?","?","?","?","?","?","?","?","?","?","?","?","?","?","?","?","?","?","?","?","?","?","?","?","?","?","?","?","?","?","?","?","?","?","?","?","?","?","?","?","?","?","?","?","?","?","?","?","?","?","?","?","?","?","?","?","?","?","?","?","?","?","?","?","?","?","?","?","?","?","?","?","?","?","?","?","?","?","?","?","?","?","?","?","?","?","?","?","?","?","?","?","?","?","?","?","?","?","?","?","?","?","?","?","?","?","?","?","?","?","?","?","?","?","?","?","?","?","?","?","?","?","?","?","?","?","?","?","?","?","?","?","?","?","?","?","?","?","?","?","?","?","?","?","?","?","?","?","?","?","?","?","?","?","?","?","?","?","?","?","?","?","?","?","?","?","?","?","?","?","?","?","?","?","?","?","?","?","?","?","?","?","?","?","?","?","?","?","?","?","?","?","?","?","?","?","?","?","?","?","?","?","?","?","?","W","W","W","W","W","W","W","W","?","?","V","V","V","V","V","V","V","?","W","W","?","X","?","Y","Y","Y","Y","Y","Y","Y","Y","Y","Y","Y","Y","Y","Y","Y","Y","Y","Y","Y","Y","Y","Y","Y","Y","Y","Y","Y","Y","?","?","?","?","?","?","?","?","?","?","?","?","?","?","?","?","?","?","?","?","?","?","Z","Z","Z","Z","Z","Z","Z","Z","Z","Z","Z","Z","Z","Z","Z","Z","Z","Z","Z","Z","Z","Z","Z","Z","Z","Z","Z","Z","Z","Z","Z","Z","Z","Z","Z","Z","Z","Z","Z","Z","Z","Z","Z","Z","Z","Z","Z","Z","Z","Z","Z","Z","Z","Z","Z","Z","Z","Z","Z","Z","Z","Z","Z","Z","Z","Z","Z","?","O","?","N","N","?","?","?","?","?","?","?","?","?","?","?","?","?","?","?","?","?","?","?","?","?","?","?","?","?","?","?","?","?","?","?","?","?","?","?","?","?","?","?","?","?","?","?","?","?","?","?","?","?","?","?","B","B","B","B","B","B","B","B","B","B","B","B","B","B","B","B","B","B","B","B","B","B","B","B","B","B","B","B","B","B","B","B","B","B","B","B","B","B","B","B","?","C","?","?","?","?","?","?","?","?","?","?","?","?","?","?","P","P","?","?","?","?","?","?","?","?","?","?","?","?","?","?","?","?","?","?","?","?","?","?","?","?","?","?","?","?","?","?","?","?","?","?","?","?","?","?","?","?","?","?","?","?","?","?","?","?","?","?","?","?","?","?","?","?","?","?","R","R","R","R","R","R","R","R","R","R","R","R","R","R","R","R","R","R","R","R","R","R","R","R","?","?","?","?","?","?","?","?","?","?","?","?","?","?","?","?","?","?","?","?","?","?","?","?","?","?","?","?","?","?","?","?","?","?","?","?","?","?","?","?","?","?","?","?","?","?","Z","?","?","?","?","?","?","?","?","?","?","?","?","?","?","?","?","?","?","?","?","?","?","?","?","?","?","?","?","?","?","?","?","?","?","?","?","?","?","?","?","?","?","?","?","?","?","?","?","?","?","?","?","?","?","?","?","?","?","?","?","?","?","?","?"],"t":[33,48,71,88,105,121,146,154,171,187,204,220,237,253,271,287,304,321,337,354,371,387,405,421,438,455,472,488,505,522,538,554,572,588,605,620,637,655,672,689,706,723,738,754,771,788,806,823,839,856,873,889,906,923,939,956,973,989,1006,1023,1039,1056,1073,1089,1106,1124,1139,1156,1172,1189,1206,1223,1239,1256,1273,1290,1306,1323,1340,1356,1373,1389,1406,1423,1440,1456,1473,1489,1506,1523,1540,1559,1573,1587,1603,1620,1638,1653,1670,1687,1703,1720,1737,1754,1770,1787,1803,1823,1839,1856,1873,1891,1908,1924,1939,1956,1973,1989,2006,2023,2039,2056,2072,2089,2105,2122,2139,2156,2173,2189,2205,2222,2238,2255,2271,2289,2305,2322,2339,2356,2371,2388,2405,2422,2438,2456,2474,2490,2505,2522,2539,2556,2573,2589,2604,2620,2637,2654,2670,2687,2704,2720,2737,2754,2771,2787,2804,2820,2838,2854,2871,2887,2904,2921,2938,2954,2971,2988,3004,3021,3037,3053,3071,3087,3104,3121,3138,3154,3171,3187,3204,3221,3238,3254,3271,3287,3304,3320,3337,3354,3371,3388,3405,3421,3437,3454,3471,3487,3504,3521,3540,3556,3572,3589,3605,3622,3639,3656,3673,3690,3706,3722,3739,3755,3772,3789,3806,3822,3838,3855,3872,3889,3906,3923,3939,3956,3973,3989,4005,4022,4040,4056,4073,4089,4106,4122,4138,4155,4172,4189,4205,4222,4238,4256,4273,4291,4304,4321,4338,4355,4371,4388,4404,4420,4437,4454,4471,4488,4504,4521,4537,4554,4571,4587,4604,4621,4639,4655,4672,4688,4705,4721,4738,4756,4773,4790,4806,4822,4840,4856,4873,4889,4906,4923,4939,4955,4971,4988,5005,5022,5041,5055,5072,5089,5105,5123,5140,5156,5174,5189,5206,5222,5239,5256,5273,5290,5307,5323,5340,5356,5373,5390,5406,5424,5439,5455,5472,5488,5507,5525,5543,5555,5572,5589,5607,5622,5638,5654,5671,5687,5704,5721,5737,5757,5773,5791,5804,5820,5837,5854,5871,5887,5904,5920,5937,5954,5971,5987,6004,6020,6038,6054,6070,6087,6104,6120,6137,6154,6170,6187,6204,6220,6237,6253,6270,6287,6304,6320,6337,6353,6370,6387,6404,6420,6437,6454,6470,6487,6504,6520,6537,6554,6571,6587,6604,6620,6637,6654,6670,6687,6704,6720,6737,6753,6771,6787,6803,6821,6837,6854,6870,6887,6903,6921,6938,6954,6971,6988,7006,7023,7039,7056,7073,7089,7106,7123,7139,7156,7173,7190,7206,7223,7240,7257,7273,7288,7304,7321,7337,7355,7372,7388,7404,7422,7438,7457,7474,7488,7505,7522,7538,7557,7575,7591,7605,7622,7642,7658,7672,7689,7704,7721,7737,7753,7771,7787,7804,7822,7839,7855,7872,7888,7905,7922,7938,7955,7972,7988,8005,8022,8039,8055,8072,8088,8105,8122,8138,8155,8172,8188,8205,8222,8238,8255,8272,8288,8305,8322,8338,8355,8372,8387,8404,8421,8437,8455,8472,8491,8507,8525,8539,8556,8573,8589,8605,8623,8641,8657,8674,8688,8705,8722,8740,8756,8771,8787,8804,8821,8837,8854,8871,8887,8904,8921,8937,8954,8971,8987,9004,9021,9037,9054,9071,9091,9106,9123,9139,9156,9173,9189,9208,9224,9241,9257,9275,9291,9308,9322,9338,9358,9375,9391,9405,9422,9438,9455,9472,9489,9505,9522,9539,9555,9572,9589,9605,9624,9641,9658,9673,9689,9705,9722,9739,9755,9772,9789,9805,9822,9839,9858,9876,9889,9905,9921,9938,9954,9971,9988,10004,10021,10038,10056,10070,10086,10104,10121,10138,10154,10171,10189,10204,10221,10239,10254,10270,10287,10304,10321,10337,10354,10370,10387,10403,10421,10437,10456,10474,10490,10506,10524,10542,10555,10571,10588,10604,10621,10637,10654,10671,10687,10704,10721,10737,10754,10771,10787,10804,10821,10837,10854,10871,10887,10904,10920,10940,10958,10975,10991,11006,11024,11040,11056,11073,11089,11106,11123,11140,11157,11173,11189,11206,11223,11238,11255,11272,11288,11305,11321,11338,11355,11371,11388,11405,11423,11440,11456,11472,11489,11505,11522,11539,11555,11572,11589,11606,11624,11641,11654,11671,11688,11704,11721,11738,11754,11771,11787,11804,11821,11838,11855,11871,11887,11904,11921,11937,11954,11971,11987,12004,12021,12037,12054,12071,12087,12104,12121,12137,12154,12171,12187,12204,12221,12237,12254,12271,12287,12304,12320,12337,12354,12371,12387,12404,12421,12437,12454,12471,12487,12504,12521,12537,12554,12570,12587,12604,12621,12637,12654,12671,12687,12704,12721,12737,12754,12771,12788,12804,12821,12837,12854,12871,12887,12904,12921,12937,12954,12971,12987,13004,13023,13037,13054,13071,13087,13104,13121,13137,13154,13171,13188,13204,13221,13238,13254,13271,13287,13304,13321,13337,13354,13371,13387,13404,13421,13437,13454,13471,13488,13504,13520,13537,13554,13571,13587,13604,13621,13638,13654,13671,13688,13704,13721,13738,13754,13771,13788,13804,13821,13837,13854,13871,13888,13904,13921,13937,13954,13971,13987,14004,14021,14038,14054,14071,14087,14104,14121,14137,14154,14171,14187,14205,14221,14238,14254,14271,14288,14304,14321,14338,14354,14371,14388,14404,14421,14440,14454,14471,14488,14507,14524,14541,14557,14572,14589,14607,14624,14641,14657,14674,14688,14705,14724,14740,14757,14773,14788,14805,14821,14840,14858,14874,14891,14908,14924,14941,14956,14972,14989,15005,15022,15039,15057,15075,15092,15106,15123,15139,15156,15173,15189,15206,15224,15242,15258,15276,15289,15306,15323,15339,15358,15375,15392,15408,15425,15442,15458,15472,15489,15505,15524,15542,15558,15575,15589,15606,15623,15639,15656,15673,15689,15706,15723,15740,15756,15773,15789,15806,15823,15839,15856,15876,15890,15905,15921,15938,15954,15971,15988,16004,16020,16038,16054,16071,16088,16104,16121,16138,16154,16171,16188,16204,16221,16237,16254,16271,16288,16304,16321,16338,16354,16371,16388,16404,16421,16438,16454,16471,16488,16504,16521,16538,16554,16571,16588,16604,16621,16638,16654,16671,16688,16704,16721,16738,16754,16771,16788,16804,16821,16837,16855,16871,16888,16904,16921,16937,16954,16971,16988,17004,17021,17038,17055,17071,17087,17104,17121,17138,17154,17171,17188,17204,17221,17238,17254,17271,17288,17306,17321,17338,17354,17371,17387,17405,17421,17437,17454,17471,17487,17504,17521,17538,17554,17571,17588,17604,17621,17641,17658,17675,17689,17705,17725,17742,17756,17773,17789,17808,17826,17839,17856,17872,17888,17905,17923,17942,17958,17973,17988,18005,18022,18038,18055,18072,18088,18105,18122,18139,18155,18172,18188,18205,18222,18238,18255,18272,18289,18305,18322,18338,18355,18372,18388,18405,18422,18438,18455,18471,18488,18505,18521,18538,18555,18571,18588,18604,18621,18639,18655,18672,18690,18707,18724,18740,18758,18771,18788,18804,18821,18838,18855,18871,18889,18905,18922,18939,18955,18971,18988,19005,19021,19038,19054,19073,19089,19106,19123,19139,19156,19173,19189,19206,19223,19239,19256,19274,19292,19308,19325,19339,19356,19372,19389,19408,19425,19442,19456,19472,19491,19509,19525,19542,19556,19573,19589,19606,19623,19642,19658,19673,19689,19706,19723,19739,19756,19773,19792,19808,19823,19841,19858,19873,19889,19906,19922,19939,19955,19972,19989,20006,20022,20039,20055,20072,20089,20105,20122,20140,20156,20172,20189,20206,20222,20239,20255,20272,20288,20305,20322,20338,20355,20372,20391,20407,20424,20444,20465,20488,20507,20523,20539,20554,20570,20587,20604,20621,20637,20654,20671,20687,20704,20724,20740,20757,20773,20790,20807,20824,20840,20857,20873,20890,20907,20924,20940,20957,20973,20990,21007,21022,21039,21055,21072,21089,21105,21122,21139,21155,21172,21189,21206,21222,21239,21255,21272,21289,21305,21322,21339,21355,21372,21389,21405,21422,21439,21455,21472,21489,21505,21522,21538,21554,21571,21588,21605,21622,21638,21654,21672,21689,21706,21722,21739,21756,21773,21790,21806,21822,21838,21857,21873,21889,21905,21922,21938,21955,21972,21989,22005,22022,22039,22055,22072,22089,22105,22122,22139,22155,22172,22189,22205,22222,22238,22255,22272,22289,22305,22322,22339,22355,22372,22389,22405,22422,22439,22455,22475,22489,22505,22522,22539,22555,22572,22589,22605,22622,22638,22655,22672,22689,22705,22722,22739,22755,22772,22789,22805,22822,22839,22855,22872,22890,22907,22924,22939,22955,22972,22989,23005,23022,23039,23055,23071,23088,23105,23121,23138,23155,23171,23188,23205,23221,23238,23255,23271,23288,23305,23321,23338,23354,23371,23388,23405,23421,23438,23455,23471,23488,23505,23521,23538,23554,23571,23588,23604,23621,23638,23655,23671,23688,23704,23721,23738,23754,23771,23788,23805,23821,23838,23855,23871,23888,23905,23921,23938,23955,23971,23988,24005,24021,24038,24054,24071,24090,24107,24124,24139,24155,24172,24189,24206,24222,24239,24255,24272,24289,24305,24322,24339,24355,24372,24389,24405,24422,24439,24455,24472,24489,24505,24522,24538,24555,24571,24588,24605,24621,24638,24655,24671,24688,24708,24724,24741,24757,24774,24790,24807,24824,24841,24857,24874,24892,24907,24925,24942,24958,24975,24992,25008,25025,25039,25056,25075,25092,25109,25124,25140,25157,25173,25190,25207,25223,25240,25257,25274,25290,25308,25325,25340,25356,25375,25392,25408,25425,25442,25456,25473,25492,25509,25523,25540,25556,25575,25592,25607,25625,25642,25658,25673,25689,25706,25723,25741,25755,25772,25788,25805,25824,25841,25858,25874,25891,25906,25923,25941,25958,25973,25990,26008,26023,26038,26055,26071,26088,26105,26122,26138,26155,26172,26188,26206,26222,26238,26255,26272,26288,26305,26321,26338,26355,26372,26388,26405,26422,26438,26455,26472,26488,26505,26522,26538,26555,26571,26588,26605,26622,26638,26655,26672,26688,26705,26722,26738,26755,26772,26788,26805,26822,26838,26855,26872,26888,26905,26922,26938,26955,26972,26988,27005,27022,27038,27055,27072,27088,27105,27122,27138,27155,27172,27188,27205,27222,27238,27255,27272,27288,27305,27322,27338,27355,27372,27388,27405,27422,27438,27455,27474,27488,27505,27522,27539,27555,27572,27591,27608,27625,27641,27657,27674,27690,27707,27724,27741,27758,27775,27791,27807,27824,27840,27856,27873,27890,27906,27923,27940,27957,27974,27991,28009,28024,28041,28057,28073,28090,28107,28124,28141,28158,28174,28190,28206,28223,28240,28256,28272,28288,28305,28322,28338,28355,28374,28391,28408,28424,28441,28458,28474,28489,28506,28526,28542,28558,28575,28592,28606,28623,28639,28656,28675,28692,28708,28725,28741,28757,28773,28790,28806,28825,28841,28858,28875,28894,28907,28923,28939,28956,28972,28989,29006,29022,29039,29056,29073,29089,29106,29125,29142,29159,29175,29192,29209,29226,29240,29256,29274,29292,29308,29324,29340,29356,29373,29392,29408,29423,29440,29457,29474,29492,29509,29529,29541,29559,29572,29589,29605,29622,29639,29655,29672,29689,29705,29722,29739,29755,29772,29789,29805,29822,29839,29855,29872,29889,29905,29922,29939,29955,29972,29989,30005,30022,30039,30055,30072,30089,30105,30122,30139,30155,30172,30189,30205,30222,30239,30255,30272,30289,30305,30322,30339,30356,30372,30389,30405,30422,30439,30455,30472,30489,30505,30522,30539,30555,30572,30589,30605,30622,30639,30655,30672,30689,30705,30722,30739,30755,30772,30790,30806,30823,30839,30856,30872,30889,30906,30923,30939,30955,30972,30988,31005,31022,31039,31055,31072,31089,31108,31125,31141,31158,31176,31192,31208,31225,31241,31258,31275,31292,31308,31323,31339,31356,31373,31389,31409,31426,31442,31457,31474,31491,31507,31524,31540,31557,31573,31589,31606,31622,31642,31659,31674,31691,31707,31724,31743,31756,31772,31789,31805,31822,31839,31855,31874,31893,31909,31926,31940,31957,31974,31991,32007,32024,32040,32057,32074,32090,32107,32124,32140,32159,32176,32193,32207,32224,32239,32256,32273,32290,32307,32323,32340,32356,32373,32390,32407,32423,32440,32459,32475,32492,32506,32523,32540,32556,32575,32591,32608,32627,32642,32658,32675,32692,32708,32723,32740,32757,32775,32792,32808,32825,32841,32858,32875,32891,32909,32925,32942,32956,32973,32990,33006,33025,33042,33058,33076,33091,33106,33123,33140,33156,33173,33189,33208,33225,33242,33259,33275,33292,33308,33324,33340,33357,33374,33390,33408,33426,33440,33458,33472,33489,33508,33526,33541,33558,33575,33590,33606,33625,33642,33658,33674,33690,33707,33724,33742,33759,33775,33792,33808,33825,33842,33857,33874,33892,33909,33925,33942,33958,33974,33991,34007,34024,34040,34057,34074,34091,34108,34125,34141,34158,34175,34192,34208,34224,34240,34257,34275,34292,34309,34325,34340,34357,34375,34392,34409,34424,34440,34457,34474,34492,34511,34525,34540,34557,34574,34590,34607,34624,34640,34657,34673,34690,34707,34724,34741,34757,34774,34790,34807,34823,34840,34857,34874,34890,34906,34923,34940,34957,34975,34992,35010,35027,35043,35057,35073,35090,35108,35124,35141,35157,35175,35190,35207,35223,35240,35257,35273,35290,35309,35328,35344,35357,35374,35391,35408,35424,35441,35457,35474,35491,35507,35524,35540,35557,35573,35590,35609,35626,35644,35658,35674,35691,35708,35724,35741,35757,35774,35791,35808,35825,35841,35859,35874,35889,35906,35923,35939,35956,35973,35989,36006,36023,36039,36056,36073,36090,36106,36123,36139,36156,36173,36189,36206,36224,36241,36259,36274,36290,36307,36327,36341,36356,36375,36392,36409,36425,36440,36457,36475,36492,36509,36525,36542,36559,36575,36590,36607,36624,36641,36659,36675,36692,36707,36724,36740,36757,36775,36792,36809,36825,36842,36857,36873,36890,36908,36924,36941,36957,36974,36990,37008,37024,37040,37057,37074,37090,37107,37124,37140,37157,37173,37190,37207,37225,37242,37260,37274,37290,37306,37323,37339,37356,37373,37389,37406,37423,37439,37456,37473,37489,37506,37523,37539,37556,37573,37589,37606,37623,37639,37656,37673,37689,37706,37723,37739,37756,37773,37789,37806,37823,37839,37856,37873,37889,37906,37923,37939,37956,37973,37989,38006,38023,38040,38057,38073,38090,38107,38123,38140,38158,38175,38192,38207,38225,38242,38259,38274,38290,38307,38324,38340,38359,38375,38392,38409,38426,38442,38457,38474,38491,38507,38524,38540,38557,38574,38590,38609,38626,38642,38657,38674,38691,38707,38723,38739,38756,38773,38789,38806,38822,38842,38859,38876,38892,38907,38924,38940,38957,38974,38992,39009,39026,39043,39060,39075,39091,39108,39124,39141,39158,39174,39191,39210,39226,39242,39260,39276,39290,39307,39325,39342,39359,39375,39392,39409,39426,39440,39457,39474,39490,39509,39526,39543,39557,39574,39593,39609,39626,39643,39659,39674,39690,39707,39724,39742,39759,39774,39791,39807,39825,39842,39859,39876,39890,39907,39926,39942,39959,39976,39992,40009,40026,40040,40057,40074,40090,40107,40123,40142,40156,40173,40189,40206,40223,40239,40256,40275,40292,40309,40325,40340,40357,40375,40392,40409,40425,40442,40458,40476,40492,40509,40526,40542,40559,40576,40593,40609,40626,40640,40657,40676,40692,40709,40724,40741,40757,40774,40791,40807,40824,40841,40859,40876,40892,40908,40926,40942,40959,40974,40991,41007,41024,41041,41059,41076,41090,41107,41124,41140,41159,41176,41192,41207,41224,41242,41259,41276,41292,41307,41325,41340,41357,41374,41390,41407,41424,41440,41459,41476,41492,41508,41524,41541,41557,41576,41591,41606,41623,41639,41656,41673,41689,41706,41723,41739,41756,41773,41789,41806,41823,41839,41857,41873,41889,41906,41923,41940,41956,41973,41989,42006,42023,42039,42056,42073,42089,42106,42123,42139,42156,42173,42189,42206,42223,42239,42256,42273,42289,42306,42323,42339,42356,42373,42389,42406,42423,42439,42456,42473,42489,42506,42523,42539,42556,42573,42589,42606,42623,42639,42656,42673,42690,42706,42723,42740,42756,42773,42789,42806,42823,42839,42856,42875,42889,42906,42923,42939,42956,42974,42993,43007,43024,43043,43060,43075,43091,43108,43125,43142,43158,43175,43191,43208,43224,43241,43258,43275,43291,43308,43325,43341,43358,43375,43391,43410,43427,43444,43458,43474,43491,43507,43527,43543,43558,43575,43591,43608,43625,43642,43658,43675,43691,43708,43725,43742,43758,43775,43791,43808,43825,43841,43859,43877,43893,43907,43924,43943,43960,43975,43991,44008,44025,44042,44060,44075,44090,44107,44123,44140,44157,44176,44194,44208,44225,44241,44258,44275,44293,44309,44323,44340,44356,44373,44390,44407,44426,44443,44460,44475,44491,44510,44526,44543,44560,44574,44591,44608,44624,44641,44658,44674,44691,44708,44724,44741,44760,44777,44794,44808,44824,44841,44858,44876,44894,44910,44926,44943,44960,44976,44993,45010,45024,45041,45059,45074,45091,45108,45124,45143,45159,45175,45193,45209,45225,45241,45258,45274,45291,45308,45323,45340,45359,45375,45393,45409,45425,45443,45459,45476,45492,45508,45526,45541,45558,45574,45591,45608,45626,45643,45659,45675,45693,45709,45726,45742,45758,45773,45790,45806,45822,45840,45859,45875,45893,45909,45926,45943,45959,45974,45990,46007,46024,46041,46057,46074,46090,46107,46124,46141,46157,46174,46190,46207,46224,46240,46257,46274,46291,46307,46324,46341,46357,46374,46391,46407,46424,46440,46457,46474,46491,46507,46524,46541,46557,46574,46591,46607,46624,46640,46657,46674,46691,46707,46724,46741,46757,46774,46791,46807,46824,46841,46857,46874,46891,46907,46924,46941,46957,46974,46991,47007,47024,47041,47058,47074,47090,47107,47124,47141,47157,47174,47191,47207,47224,47241,47257,47274,47291,47307,47324,47340,47358,47374,47391,47407,47424,47441,47457,47474,47491,47507,47524,47541,47557,47574,47591,47607,47624,47641,47657,47674,47691,47707,47724,47741,47757,47774,47791,47808,47824,47841,47857,47874,47891,47907,47924,47941,47957,47974,47991,48007,48024,48041,48057,48074,48091,48107,48124,48141,48157,48174,48191,48207,48227,48244,48258,48274,48291,48308,48324,48341,48360,48376,48394,48410,48427,48441,48458,48477,48494,48510,48528,48544,48560,48576,48589,48606,48623,48640,48656,48673,48690,48709,48726,48743,48759,48776,48792,48807,48824,48840,48860,48876,48891,48908,48926,48943,48960,48975,48991,49008,49025,49041,49058,49076,49094,49111,49125,49141,49158,49175,49191,49208,49227,49243,49260,49277,49294,49311,49327,49342,49359,49375,49392,49408,49425,49442,49458,49475,49492,49508,49525,49542,49558,49575,49592,49609,49625,49642,49659,49675,49692,49709,49725,49742,49759,49775,49792,49809,49825,49842,49858,49876,49894,49908,49925,49942,49958,49973,49990,50007,50023,50040,50057,50073,50090,50107,50123,50140,50157,50173,50190,50207,50224,50241,50257,50273,50290,50307,50323,50340,50357,50373,50390,50407,50423,50440,50457,50473,50490,50507,50523,50540,50557,50573,50590,50607,50623,50640,50657,50673,50690,50707,50723,50740,50757,50773,50790,50807,50823,50840,50857,50873,50890,50907,50923,50940,50957,50973,50990,51007,51023,51040,51057,51073,51090,51107,51123,51140,51157,51173,51190,51207,51223,51240,51257,51273,51290,51307,51323,51340,51357,51373,51390,51407,51423,51440,51457,51473,51490,51507,51523,51540,51557,51573,51590,51607,51623,51640,51660,51677,51694,51708,51725,51742,51758,51775,51791,51808,51827,51844,51858,51874,51894,51911,51927,51943,51958,51975,51992,52009,52025,52042,52058,52075,52092,52108,52125,52142,52159,52176,52192,52208,52225,52242,52259,52277,52294,52311,52327,52344,52361,52375,52392,52408,52425,52441,52460,52477,52492,52508,52525,52542,52558,52575,52592,52608,52626,52641,52658,52677,52694,52710,52727,52745,52757,52773,52790,52806,52824,52840,52857,52874,52890,52907,52923,52940,52957,52973,52990,53007,53023,53040,53061,53077,53094,53111,53125,53142,53160,53176,53193,53208,53224,53241,53258,53277,53294,53310,53326,53343,53358,53374,53391,53408,53426,53443,53459,53477,53494,53511,53528,53544,53561,53576,53592,53609,53625,53642,53659,53675,53692,53708,53725,53742,53758,53775,53792,53809,53825,53842,53859,53875,53892,53909,53925,53942,53959,53977,53992,54009,54025,54042,54059,54075,54092,54109,54125,54142,54158,54173,54190,54207,54223,54240,54257,54273,54290,54307,54324,54340,54357,54373,54390,54407,54423,54440,54457,54474,54490,54507,54523,54540,54558,54575,54591,54608,54625,54641,54658,54675,54691,54710,54727,54745,54761,54775,54791,54810,54828,54844,54858,54875,54892,54908,54927,54944,54961,54975,54991,55008,55025,55044,55061,55075,55092,55109,55125,55142,55159,55175,55192,55209,55226,55242,55258,55275,55292,55309,55325,55342,55359,55375,55392,55409,55425,55442,55459,55475,55492,55508,55526,55542,55559,55575,55592,55607,55624,55640,55657,55676,55693,55710,55726,55743,55760,55776,55794,55810,55825,55842,55858,55877,55893,55910,55926,55941,55958,55975,55992,56008,56027,56043,56060,56076,56093,56110,56126,56143,56160,56175,56191,56208,56225,56241,56258,56274,56291,56310,56327,56344,56360,56376,56391,56408,56426,56441,56458,56477,56493,56508,56525,56542,56558,56575,56592,56608,56626,56643,56660,56676,56694,56710,56727,56744,56760,56775,56791,56808,56825,56842,56858,56876,56893,56910,56927,56943,56958,56975,56992,57008,57027,57042,57057,57074,57090,57107,57124,57140,57157,57173,57190,57207,57223,57240,57257,57273,57290,57307,57324,57340,57357,57374,57390,57407,57424,57440,57457,57473,57490,57507,57526,57543,57560,57576,57594,57611,57627,57644,57661,57677,57694,57711,57728,57742,57758,57775,57792,57808,57827,57843,57857,57874,57890,57907,57923,57940,57957,57973,57990,58007,58023,58040,58057,58075,58092,58108,58125,58142,58158,58175,58192,58208,58226,58242,58259,58275,58292,58308,58325,58342,58358,58375,58392,58408,58425,58442,58460,58475,58490,58507,58523,58541,58557,58576,58593,58610,58626,58644,58660,58677,58693,58708,58725,58742,58758,58775,58792,58808,58825,58842,58860,58877,58893,58910,58927,58944,58960,58976,58994,59010,59027,59044,59058,59075,59092,59108,59127,59144,59160,59176,59193,59209,59225,59242,59258,59275,59292,59308,59325,59342,59358,59375,59392,59408,59425,59442,59458,59475,59492,59508,59525,59542,59558,59575,59592,59609,59625,59642,59659,59675,59692,59708,59725,59742,59758,59775,59792,59808,59825,59843,59861,59874,59891,59907,59924,59941,59957,59974,59990,60007,60024,60041,60057,60074,60091,60107,60124,60141,60157,60174,60191,60207,60224,60240,60260,60276,60292,60308,60325,60342,60358,60375,60392,60408,60425,60442,60458,60475,60492,60510,60527,60545,60561,60577,60595,60611,60627,60644,60660,60677,60694,60708,60725,60744,60760,60776,60794,60811,60826,60844,60860,60877,60892,60908,60927,60944,60960,60976,60994,61010,61026,61044,61060,61077,61093,61109,61125,61142,61159,61175,61194,61210,61227,61244,61260,61277,61293,61307,61324,61341,61357,61374,61391,61407,61427,61444,61460,61475,61492,61508,61525,61542,61558,61575,61592,61608,61625,61642,61658,61675,61692,61708,61725,61742,61758,61775,61792,61808,61825,61842,61859,61875,61892,61908,61925,61942,61958,61975,61992,62010,62029,62044,62061,62077,62093,62110,62126,62144,62160,62176,62194,62210,62227,62243,62260,62277,62294,62310,62327,62344,62358,62375,62394,62410,62427,62444,62460,62476,62494,62510,62528,62544,62560,62577,62594,62610,62628,62644,62660,62677,62694,62712,62726,62742,62757,62774,62791,62808,62825,62842,62859,62875,62892,62908,62925,62942,62959,62975,62992,63009,63025,63042,63061,63077,63094,63108,63125,63143,63160,63177,63194,63210,63227,63244,63259,63276,63292,63309,63327,63344,63360,63377,63394,63408,63425,63442,63459,63476,63492,63508,63526,63544,63559,63575,63592,63609,63627,63644,63660,63677,63694,63710,63727,63744,63760,63777,63794,63810,63827,63844,63859,63875,63892,63909,63927,63944,63960,63977,63994,64009,64025,64042,64058,64076,64094,64111,64126,64142,64157,64174,64194,64211,64227,64243,64259,64276,64292,64309,64326,64344,64360,64377,64394,64410,64427,64444,64460,64477,64494,64510,64527,64545,64560,64578,64594,64609,64625,64642,64658,64675,64692,64708,64725,64742,64758,64775,64794,64810,64828,64844,64860,64876,64892,64909,64925,64944,64960,64977,64994,65011,65027,65044,65058,65075,65092,65109,65125,65142,65158,65177,65194,65209,65225,65242,65259,65275,65292,65309,65326,65342,65359,65375,65392,65409,65425,65442,65459,65475,65492,65509,65527,65543,65558,65574,65591,65608,65624,65641,65658,65674,65691,65708,65724,65741,65758,65774,65791,65808,65824,65841,65858,65874,65891,65908,65924,65941,65958,65974,65991,66008,66024,66041,66058,66074,66091,66108,66124,66141,66158,66174,66191,66208,66224,66241,66258,66275,66293,66310,66326,66343,66360,66377,66395,66411,66429,66445,66461,66476,66492,66508,66524,66541,66558,66575,66591,66608,66631,66647,66660,66676,66693,66709,66726,66743,66760,66776,66793,66809,66826,66843,66860,66876,66893,66909,66926,66943,66962,66975,66991,67008,67024,67041,67058,67074,67091,67108,67124,67141,67158,67174,67191,67208,67224,67241,67258,67274,67292,67308,67325,67341,67358,67374,67391,67408,67424,67441,67457,67474,67491,67508,67524,67541,67558,67574,67591,67608,67624,67641,67658,67674,67691,67708,67725,67741,67758,67774,67791,67808,67824,67841,67858,67875,67891,67908,67925,67945,67961,67978,67995,68012,68026,68043,68060,68076,68093,68110,68127,68143,68160,68176,68193,68210,68227,68243,68260,68276,68293,68310,68326,68343,68361,68377,68391,68408,68425,68441,68458,68474,68491,68508,68525,68541,68558,68575,68591,68608,68625,68641,68658,68675,68692,68708,68725,68741,68758,68775,68791,68808,68825,68841,68858,68875,68891,68908,68925,68941,68958,68975,68991,69008,69025,69041,69058,69075,69091,69108,69125,69141,69158,69175,69191,69208,69225,69241,69258,69275,69291,69308,69325,69341,69358,69375,69391,69408,69425,69441,69458,69475,69491,69508,69525,69541,69558,69575,69591,69608,69625,69641,69658,69674,69691,69708,69725,69741,69758,69775,69791,69808,69825,69841,69858,69875,69891,69908,69925,69941,69958,69975,69991,70008,70025,70041,70058,70075,70091,70108,70125,70141,70158,70175,70191,70208,70225,70241,70258,70275,70292,70308,70325,70342,70358,70375,70391,70408,70425,70441,70458,70475,70491,70508,70525,70542,70558,70575,70592,70608,70625,70642,70658,70675,70692,70708,70725,70741,70758,70775,70792,70808,70825,70842,70858,70875,70892,70908,70925,70942,70958,70975,70992,71008,71025,71041,71058,71075,71092,71108,71125,71142,71158,71175,71192,71208,71225,71242,71258,71275,71292,71308,71325,71342,71358,71375,71392,71408,71425,71442,71458,71475,71493,71508,71525,71542,71558,71575,71592,71608,71625,71642,71658,71675,71692,71708,71725,71741,71758,71775,71792,71808,71825,71842,71858,71875,71892,71908,71925,71942,71958,71975,71991,72008,72025,72042,72058,72075,72092,72108,72125,72142,72158,72175,72192,72208,72225,72242,72258,72275,72292,72308,72325,72342,72358,72375,72392,72408,72425,72442,72458,72475,72491,72508,72525,72542,72558,72575,72592,72608,72625,72642,72658,72675,72692,72709,72725,72741,72758,72775,72792,72808,72825,72842,72858,72875,72892,72908,72925,72942,72958,72975,72992,73008,73025,73042,73058,73075,73092,73108,73125,73142,73158,73175,73192,73208,73225,73242,73258,73275,73292,73308,73325,73342,73358,73375,73392,73408,73425,73442,73458,73475,73492,73508,73525,73541,73558,73575,73591,73608,73625,73641,73658,73675,73691,73708,73725,73741,73758,73775,73792,73808,73825,73841,73858,73875,73891,73910,73924,73941,73958,73975,73991,74008,74025,74041,74058,74075,74091,74108,74125,74141,74158,74175,74191,74208,74225,74241,74258,74276,74291,74308,74325,74341,74358,74375,74391,74408,74425,74441,74458,74475,74492,74508,74525,74541,74558,74575,74591,74608,74625,74641,74658,74675,74691,74708,74725,74742,74758,74775,74791,74808,74825,74841,74859,74875,74892,74908,74925,74941,74958,74975,74991,75008,75025,75041,75058,75075,75091,75108,75125,75141,75158,75175,75192,75208,75225,75241,75258,75275,75291,75310,75325,75341,75358,75375,75391,75408,75424,75441,75458,75475,75491,75508,75525,75541,75558,75575,75591,75608,75625,75642,75658,75675,75692,75708,75725,75742,75758,75775,75792,75808,75825,75841,75858,75875,75891,75908,75927,75945,75961,75978,75995,76009,76026,76045,76063,76078,76096,76112,76127,76144,76160,76177,76194,76210,76227,76243,76259,76276,76292,76309,76325,76346,76362,76379,76396,76412,76426,76443,76459,76476,76496,76513,76531,76544,76560,76577,76594,76610,76627,76644,76660,76679,76696,76711,76726,76742,76759,76775,76794,76811,76828,76844,76859,76876,76893,76910,76926,76943,76960,76978,76994,77011,77026,77043,77062,77078,77093,77109,77126,77144,77162,77178,77194,77211,77228,77245,77261,77278,77295,77311,77326,77343,77362,77378,77393,77409,77426,77444,77461,77479,77495,77511,77528,77545,77561,77579,77595,77611,77628,77645,77660,77676,77694,77710,77728,77745,77762,77778,77794,77809,77826,77842,77859,77876,77893,77909,77926,77942,77959,77976,77992,78009,78026,78043,78059,78076,78092,78109,78126,78143,78160,78176,78193,78209,78226,78242,78259,78276,78293,78309,78326,78343,78359,78376,78392,78409,78425,78442,78459,78476,78493,78509,78525,78542,78559,78575,78592,78609,78625,78642,78661,78675,78692,78709,78726,78742,78759,78776,78792,78808,78825,78842,78859,78875,78892,78909,78927,78943,78961,78978,78994,79011,79027,79043,79060,79076,79093,79110,79126,79143,79159,79175,79192,79208,79225,79242,79259,79276,79292,79309,79325,79342,79359,79375,79392,79409,79425,79444,79458,79475,79494,79510,79527,79544,79561,79577,79594,79611,79627,79644,79661,79678,79693,79709,79726,79745,79759,79776,79792,79809,79826,79842,79858,79875,79892,79910,79926,79943,79959,79976,79993,80009,80026,80043,80059,80076,80093,80109,80126,80143,80159,80176,80193,80209,80226,80243,80259,80276,80293,80309,80326,80343,80359,80376,80393,80410,80427,80443,80460,80476,80493,80513,80530,80546,80562,80577,80594,80611,80627,80644,80661,80677,80694,80711,80729,80746,80762,80777,80794,80811,80827,80846,80861,80876,80892,80909,80925,80942,80959,80975,80995,81011,81028,81045,81062,81076,81093,81111,81128,81145,81161,81178,81195,81212,81226,81243,81261,81278,81295,81311,81328,81345,81362,81380,81396,81410,81426,81443,81459,81476,81494,81513,81531,81546,81561,81577,81593,81609,81626,81643,81662,81679,81696,81709,81726,81743,81760,81779,81795,81812,81829,81846,81860,81877,81894,81911,81927,81944,81960,81977,81994,82011,82027,82044,82061,82077,82094,82111,82127,82144,82160,82177,82194,82211,82227,82245,82264,82277,82293,82309,82325,82342,82358,82375,82392,82409,82425,82442,82459,82475,82492,82509,82525,82542,82559,82576,82592,82609,82626,82642,82659,82676,82693,82710,82727,82744,82760,82776,82793,82810,82826,82843,82860,82877,82894,82910,82927,82944,82960,82977,82994,83010,83028,83044,83060,83076,83093,83109,83126,83144,83162,83178,83195,83212,83229,83245,83261,83278,83295,83313,83327,83344,83360,83376,83393,83409,83426,83443,83459,83476,83493,83509,83527,83543,83560,83575,83592,83609,83626,83643,83659,83675,83692,83711,83725,83744,83763,83779,83796,83812,83828,83845,83861,83878,83895,83911,83926,83943,83960,83977,83993,84010,84026,84043,84060,84077,84094,84109,84126,84143,84160,84177,84193,84209,84226,84243,84259,84276,84292,84309,84328,84344,84361,84378,84395,84410,84426,84443,84460,84476,84493,84510,84526,84543,84560,84576,84593,84610,84626,84643,84659,84676,84692,84709,84726,84744,84761,84778,84794,84809,84828,84844,84861,84880,84895,84911,84928,84946,84961,84978,84995,85011,85028,85044,85061,85078,85095,85111,85127,85146,85159,85175,85192,85209,85225,85242,85259,85276,85293,85309,85326,85345,85361,85378,85394,85411,85427,85444,85461,85477,85495,85511,85528,85544,85561,85577,85594,85611,85628,85645,85661,85678,85694,85711,85727,85744,85761,85778,85795,85811,85828,85844,85860,85879,85898,85916,85932,85944,85959,85975,85992,86009,86026,86042,86059,86076,86092,86109,86126,86142,86159,86176,86192,86209,86226,86243,86259,86278,86295,86311,86328,86345,86361,86377,86394,86411,86428,86445,86462,86478,86495,86513,86530,86543,86558,86576,86594,86610,86627,86643,86660,86677,86693,86709,86726,86742,86759,86779,86796,86810,86827,86844,86861,86878,86894,86911,86927,86944,86961,86977,86994,87011,87028,87044,87061,87077,87094,87111,87128,87145,87161,87178,87194,87211,87228,87244,87261,87278,87295,87311,87328,87344,87361,87377,87394,87411,87428,87444,87461,87477,87494,87511,87527,87543,87560,87577,87593,87611,87627,87644,87661,87678,87695,87711,87727,87743,87760,87777,87795,87815,87828,87843,87859,87876,87893,87910,87926,87943,87960,87976,87993,88009,88026,88043,88060,88076,88093,88110,88127,88143,88160,88177,88193,88210,88226,88244,88261,88277,88294,88310,88327,88343,88360,88376,88397,88409,88426,88443,88459,88476,88494,88510,88527,88543,88560,88579,88597,88610,88627,88644,88661,88677,88693,88710,88726,88743,88762,88779,88796,88812,88829,88846,88863,88879,88896,88913,88929,88945,88963,88979,88994,89010,89027,89044,89060,89077,89094,89110,89127,89144,89160,89177,89193,89209,89226,89243,89259,89277,89297,89314,89328,89345,89361,89378,89394,89411,89428,89444,89461,89478,89494,89511,89529,89546,89562,89576,89592,89609,89627,89647,89661,89678,89697,89712,89727,89744,89760,89776,89793,89812,89828,89844,89860,89877,89894,89910,89929,89946,89960,89977,89994,90011,90027,90045,90062,90079,90095,90110,90127,90143,90160,90177,90193,90212,90227,90245,90260,90276,90293,90310,90329,90347,90364,90377,90397],"hit":[null],"x":[-2.0408163265306123,0.05442176870748299,0.09863945578231292,0.14285714285714285,0.19047619047619047,0.22448979591836735,0.23809523809523808,0.24829931972789115,0.25170068027210885,0.25170068027210885,0.25170068027210885,0.25170068027210885,0.25170068027210885,0.25170068027210885,0.25170068027210885,0.25170068027210885,0.25170068027210885,0.25170068027210885,0.25170068027210885,0.25170068027210885,0.25170068027210885,0.25170068027210885,0.25170068027210885,0.25170068027210885,0.25170068027210885,0.25170068027210885,0.25170068027210885,0.25170068027210885,0.25170068027210885,0.25170068027210885,0.25170068027210885,0.25170068027210885,0.25170068027210885,0.25170068027210885,0.25170068027210885,0.25170068027210885,0.25170068027210885,0.25170068027210885,0.25170068027210885,0.25170068027210885,0.25170068027210885,0.25170068027210885,0.25170068027210885,0.25170068027210885,0.25170068027210885,0.25170068027210885,0.25170068027210885,0.25170068027210885,0.25170068027210885,0.25170068027210885,0.25170068027210885,0.25170068027210885,0.25170068027210885,0.25170068027210885,0.25170068027210885,0.25170068027210885,0.25170068027210885,0.25170068027210885,0.25170068027210885,0.25170068027210885,0.25170068027210885,0.25170068027210885,0.25170068027210885,0.25170068027210885,0.25170068027210885,0.25170068027210885,0.25170068027210885,0.25170068027210885,0.25170068027210885,0.25170068027210885,0.25170068027210885,0.25170068027210885,0.25170068027210885,0.25170068027210885,0.25170068027210885,0.25170068027210885,0.25170068027210885,0.25170068027210885,0.25170068027210885,0.25170068027210885,0.25170068027210885,0.25170068027210885,0.25170068027210885,0.25170068027210885,0.25170068027210885,0.25170068027210885,0.25170068027210885,0.25170068027210885,0.25170068027210885,0.25170068027210885,0.25170068027210885,0.25170068027210885,0.25170068027210885,0.25170068027210885,0.25170068027210885,0.25170068027210885,0.25170068027210885,0.25170068027210885,0.25170068027210885,0.25170068027210885,0.25170068027210885,0.25170068027210885,0.25170068027210885,0.25170068027210885,0.25170068027210885,0.25170068027210885,0.25170068027210885,0.25170068027210885,0.25170068027210885,0.25170068027210885,0.25170068027210885,0.25170068027210885,0.24829931972789115,0.24489795918367346,0.22789115646258504,0.23129251700680273,0.25170068027210885,0.2687074829931973,0.2755102040816326,0.2755102040816326,0.2755102040816326,0.2755102040816326,0.2755102040816326,0.2755102040816326,0.2789115646258503,0.2789115646258503,0.282312925170068,0.2857142857142857,0.2857142857142857,0.2857142857142857,0.2857142857142857,0.2891156462585034,0.2891156462585034,0.2891156462585034,0.2891156462585034,0.2891156462585034,0.2891156462585034,0.2891156462585034,0.2891156462585034,0.2891156462585034,0.2891156462585034,0.2891156462585034,0.2891156462585034,0.2891156462585034,0.2891156462585034,0.2891156462585034,0.29591836734693877,0.29931972789115646,0.3129251700680272,0.3231292517006803,0.3299319727891156,0.3435374149659864,0.36394557823129253,0.3979591836734694,0.48299319727891155,0.5238095238095238,0.5578231292517006,0.5748299319727891,0.5850340136054422,0.5850340136054422,0.5850340136054422,0.5850340136054422,0.5850340136054422,0.5816326530612245,0.5714285714285714,0.5578231292517006,0.5374149659863946,0.5068027210884354,0.46598639455782315,0.42517006802721086,0.40476190476190477,0.3877551020408163,0.36394557823129253,0.3469387755102041,0.32653061224489793,0.29931972789115646,0.2789115646258503,0.2619047619047619,0.2585034013605442,0.2585034013605442,0.25170068027210885,0.25170068027210885,0.25170068027210885,0.25510204081632654,0.2619047619047619,0.2789115646258503,0.29931972789115646,0.35374149659863946,0.391156462585034,0.41156462585034015,0.4217687074829932,0.43197278911564624,0.43537414965986393,0.43537414965986393,0.4421768707482993,0.46258503401360546,0.4931972789115646,0.54421768707483,0.6054421768707483,0.6700680272108843,0.717687074829932,0.7585034013605442,0.7993197278911565,0.8299319727891157,0.8571428571428571,0.8945578231292517,0.9047619047619048,0.9115646258503401,0.9115646258503401,0.9115646258503401,0.8979591836734694,0.8741496598639455,0.8435374149659864,0.8163265306122449,0.7959183673469388,0.782312925170068,0.7755102040816326,0.7755102040816326,0.7721088435374149,0.7653061224489796,0.7551020408163265,0.7346938775510204,0.6870748299319728,0.6224489795918368,0.5510204081632653,0.5034013605442177,0.47959183673469385,0.46938775510204084,0.46938775510204084,0.46258503401360546,0.45918367346938777,0.4523809523809524,0.4387755102040816,0.42517006802721086,0.40816326530612246,0.3945578231292517,0.38095238095238093,0.36054421768707484,0.3435374149659864,0.3299319727891156,0.29931972789115646,0.25170068027210885,0.19727891156462585,0.1564625850340136,0.11564625850340136,0.10884353741496598,0.10884353741496598,0.10884353741496598,0.10884353741496598,0.10884353741496598,0.10884353741496598,0.10884353741496598,0.10884353741496598,0.10884353741496598,0.1292517006802721,0.14965986394557823,0.1564625850340136,0.16326530612244897,0.16326530612244897,0.16326530612244897,0.17006802721088435,0.1870748299319728,0.20068027210884354,0.2108843537414966,0.23129251700680273,0.2925170068027211,0.38095238095238093,0.47959183673469385,0.5612244897959183,0.6700680272108843,0.7312925170068028,0.7789115646258503,0.8163265306122449,0.8605442176870748,0.9251700680272109,0.9897959183673469,1.034013605442177,1.064625850340136,1.0680272108843538,1.0680272108843538,1.0680272108843538,1.0680272108843538,1.0680272108843538,1.0680272108843538,1.0680272108843538,1.0680272108843538,1.0612244897959184,1.0476190476190477,1.0408163265306123,1.034013605442177,1.0272108843537415,1.0204081632653061,1.0204081632653061,1.0170068027210883,1.0136054421768708,1.0136054421768708,1.0136054421768708,1.0136054421768708,1.0136054421768708,1.0136054421768708,1.0136054421768708,1.0136054421768708,1.0136054421768708,1.0136054421768708,1.0136054421768708,0.9965986394557823,0.9659863945578231,0.9115646258503401,0.8571428571428571,0.8197278911564626,0.7891156462585034,0.782312925170068,0.782312925170068,0.7789115646258503,0.7755102040816326,0.7653061224489796,0.7517006802721088,0.7380952380952381,0.7278911564625851,0.717687074829932,0.7108843537414966,0.7074829931972789,0.7040816326530612,0.6972789115646258,0.6972789115646258,0.6972789115646258,0.6972789115646258,0.6972789115646258,0.6972789115646258,0.6972789115646258,0.6972789115646258,0.6972789115646258,0.6972789115646258,0.6972789115646258,0.6972789115646258,0.6972789115646258,0.6972789115646258,0.6972789115646258,0.6972789115646258,0.6972789115646258,0.6972789115646258,0.6972789115646258,0.6972789115646258,0.6972789115646258,0.6972789115646258,0.6972789115646258,0.6972789115646258,0.6972789115646258,0.6972789115646258,0.6972789115646258,0.6972789115646258,0.6972789115646258,0.6972789115646258,0.6972789115646258,0.6972789115646258,0.6972789115646258,0.6972789115646258,0.6972789115646258,0.6972789115646258,0.6972789115646258,0.6972789115646258,0.6972789115646258,0.6972789115646258,0.6972789115646258,0.6972789115646258,0.6972789115646258,0.6972789115646258,0.6972789115646258,0.6972789115646258,0.6972789115646258,0.6972789115646258,0.6972789115646258,0.6972789115646258,0.6972789115646258,0.6972789115646258,0.6972789115646258,0.6972789115646258,0.6972789115646258,0.6972789115646258,0.6972789115646258,0.6972789115646258,0.6972789115646258,0.6972789115646258,0.6972789115646258,0.6972789115646258,0.6972789115646258,0.6972789115646258,0.6972789115646258,0.6972789115646258,0.6972789115646258,0.6972789115646258,0.6972789115646258,0.6972789115646258,0.6972789115646258,0.6972789115646258,0.6972789115646258,0.6972789115646258,0.6972789115646258,0.6972789115646258,0.6972789115646258,0.6972789115646258,0.6972789115646258,0.6972789115646258,0.6972789115646258,0.6972789115646258,0.6972789115646258,0.6972789115646258,0.6972789115646258,0.6972789115646258,0.6972789115646258,0.6972789115646258,0.6972789115646258,0.6972789115646258,0.6972789115646258,0.6972789115646258,0.6938775510204082,0.6938775510204082,0.6938775510204082,0.6938775510204082,0.6938775510204082,0.6938775510204082,0.6938775510204082,0.6938775510204082,0.6938775510204082,0.6938775510204082,0.6938775510204082,0.6938775510204082,0.6938775510204082,0.6938775510204082,0.6938775510204082,0.6938775510204082,0.6938775510204082,0.6938775510204082,0.6938775510204082,0.6938775510204082,0.6972789115646258,0.6972789115646258,0.6972789115646258,0.6972789115646258,0.7006802721088435,0.7006802721088435,0.7006802721088435,0.7006802721088435,0.7040816326530612,0.7040816326530612,0.7040816326530612,0.7040816326530612,0.7040816326530612,0.7040816326530612,0.7040816326530612,0.7040816326530612,0.7040816326530612,0.7040816326530612,0.7040816326530612,0.7040816326530612,0.7040816326530612,0.7040816326530612,0.7040816326530612,0.7040816326530612,0.7040816326530612,0.7040816326530612,0.7040816326530612,0.7040816326530612,0.7040816326530612,0.7040816326530612,0.7040816326530612,0.7040816326530612,0.7040816326530612,0.7040816326530612,0.7040816326530612,0.7040816326530612,0.7040816326530612,0.7040816326530612,0.7040816326530612,0.7040816326530612,0.7040816326530612,0.7040816326530612,0.7040816326530612,0.7040816326530612,0.7040816326530612,0.7040816326530612,0.7040816326530612,0.7040816326530612,0.7040816326530612,0.7040816326530612,0.7040816326530612,0.7040816326530612,0.7040816326530612,0.7040816326530612,0.7040816326530612,0.7040816326530612,0.7040816326530612,0.7040816326530612,0.7040816326530612,0.7040816326530612,0.7040816326530612,0.7040816326530612,0.7040816326530612,0.7040816326530612,0.7040816326530612,0.7040816326530612,0.7040816326530612,0.7040816326530612,0.7040816326530612,0.7040816326530612,0.7040816326530612,0.7040816326530612,0.7040816326530612,0.7040816326530612,0.7040816326530612,0.7040816326530612,0.7040816326530612,0.7040816326530612,0.7040816326530612,0.7040816326530612,0.7040816326530612,0.7040816326530612,0.7040816326530612,0.7040816326530612,0.7040816326530612,0.7040816326530612,0.7040816326530612,0.7040816326530612,0.7040816326530612,0.7040816326530612,0.7040816326530612,0.7040816326530612,0.7040816326530612,0.7040816326530612,0.7040816326530612,0.7040816326530612,0.7040816326530612,0.7040816326530612,0.7040816326530612,0.7040816326530612,0.7040816326530612,0.7040816326530612,0.7040816326530612,0.7040816326530612,0.7040816326530612,0.7040816326530612,0.7040816326530612,0.7040816326530612,0.7040816326530612,0.7040816326530612,0.7040816326530612,0.7040816326530612,0.7040816326530612,0.7040816326530612,0.7040816326530612,0.7040816326530612,0.7040816326530612,0.7040816326530612,0.7040816326530612,0.7040816326530612,0.7040816326530612,0.7040816326530612,0.7040816326530612,0.7040816326530612,0.7040816326530612,0.7040816326530612,0.7040816326530612,0.7040816326530612,0.7040816326530612,0.7040816326530612,0.7040816326530612,0.7040816326530612,0.7040816326530612,0.7040816326530612,0.7040816326530612,0.7040816326530612,0.7040816326530612,0.7040816326530612,0.7040816326530612,0.7040816326530612,0.7040816326530612,0.7040816326530612,0.7040816326530612,0.7040816326530612,0.7040816326530612,0.7040816326530612,0.7040816326530612,0.7040816326530612,0.7040816326530612,0.7040816326530612,0.7040816326530612,0.7040816326530612,0.7040816326530612,0.7040816326530612,0.7040816326530612,0.7040816326530612,0.7040816326530612,0.7040816326530612,0.7040816326530612,0.7040816326530612,0.7040816326530612,0.7040816326530612,0.7040816326530612,0.7040816326530612,0.7040816326530612,0.7040816326530612,0.7040816326530612,0.7040816326530612,0.7040816326530612,0.7040816326530612,0.7040816326530612,0.7040816326530612,0.7040816326530612,0.7040816326530612,0.7040816326530612,0.7040816326530612,0.7040816326530612,0.7040816326530612,0.7040816326530612,0.7040816326530612,0.7040816326530612,0.7040816326530612,0.7040816326530612,0.7040816326530612,0.7040816326530612,0.7040816326530612,0.7040816326530612,0.7040816326530612,0.7040816326530612,0.7040816326530612,0.7040816326530612,0.7040816326530612,0.7040816326530612,0.7040816326530612,0.7040816326530612,0.7040816326530612,0.7040816326530612,0.7040816326530612,0.7040816326530612,0.7040816326530612,0.7040816326530612,0.7040816326530612,0.7040816326530612,0.7040816326530612,0.7040816326530612,0.7040816326530612,0.7040816326530612,0.7040816326530612,0.7040816326530612,0.7040816326530612,0.7040816326530612,0.7040816326530612,0.7040816326530612,0.7040816326530612,0.7040816326530612,0.7040816326530612,0.7040816326530612,0.7040816326530612,0.7040816326530612,0.7040816326530612,0.7040816326530612,0.7040816326530612,0.7040816326530612,0.7040816326530612,0.7040816326530612,0.6972789115646258,0.6904761904761905,0.6768707482993197,0.6666666666666666,0.6598639455782312,0.6564625850340136,0.6530612244897959,0.6496598639455783,0.6428571428571429,0.6360544217687075,0.6258503401360545,0.6224489795918368,0.6224489795918368,0.6224489795918368,0.6156462585034014,0.6122448979591837,0.608843537414966,0.6054421768707483,0.5986394557823129,0.5952380952380952,0.5918367346938775,0.5850340136054422,0.5850340136054422,0.5850340136054422,0.5850340136054422,0.5816326530612245,0.5816326530612245,0.5816326530612245,0.5816326530612245,0.5816326530612245,0.5816326530612245,0.5816326530612245,0.5816326530612245,0.5816326530612245,0.5816326530612245,0.5816326530612245,0.5816326530612245,0.5816326530612245,0.5816326530612245,0.5816326530612245,0.5816326530612245,0.5816326530612245,0.5816326530612245,0.5816326530612245,0.5816326530612245,0.5816326530612245,0.5816326530612245,0.5816326530612245,0.5816326530612245,0.5816326530612245,0.5816326530612245,0.5816326530612245,0.5816326530612245,0.5816326530612245,0.5816326530612245,0.5816326530612245,0.5816326530612245,0.5816326530612245,0.5816326530612245,0.5816326530612245,0.5816326530612245,0.5816326530612245,0.5816326530612245,0.5816326530612245,0.5816326530612245,0.5816326530612245,0.5816326530612245,0.5816326530612245,0.5816326530612245,0.5816326530612245,0.5816326530612245,0.5816326530612245,0.5816326530612245,0.5816326530612245,0.5816326530612245,0.5816326530612245,0.5816326530612245,0.5816326530612245,0.5816326530612245,0.5816326530612245,0.5816326530612245,0.5816326530612245,0.5816326530612245,0.5816326530612245,0.5816326530612245,0.5816326530612245,0.5816326530612245,0.5816326530612245,0.5816326530612245,0.5816326530612245,0.5816326530612245,0.5816326530612245,0.5816326530612245,0.5816326530612245,0.5816326530612245,0.5816326530612245,0.5816326530612245,0.5816326530612245,0.5816326530612245,0.5816326530612245,0.5816326530612245,0.5816326530612245,0.5816326530612245,0.5816326530612245,0.5816326530612245,0.5816326530612245,0.5816326530612245,0.5816326530612245,0.5816326530612245,0.5816326530612245,0.5816326530612245,0.5816326530612245,0.5816326530612245,0.5816326530612245,0.5816326530612245,0.5816326530612245,0.5816326530612245,0.5816326530612245,0.5816326530612245,0.5816326530612245,0.5816326530612245,0.5816326530612245,0.5816326530612245,0.5816326530612245,0.5816326530612245,0.5816326530612245,0.5816326530612245,0.5816326530612245,0.5816326530612245,0.5816326530612245,0.5816326530612245,0.5816326530612245,0.5816326530612245,0.5816326530612245,0.5816326530612245,0.5816326530612245,0.5816326530612245,0.5816326530612245,0.5816326530612245,0.5816326530612245,0.5816326530612245,0.5816326530612245,0.5816326530612245,0.5816326530612245,0.5816326530612245,0.5816326530612245,0.5816326530612245,0.5816326530612245,0.5816326530612245,0.5816326530612245,0.5816326530612245,0.5816326530612245,0.5816326530612245,0.5816326530612245,0.5816326530612245,0.5816326530612245,0.5816326530612245,0.5816326530612245,0.5816326530612245,0.5816326530612245,0.5816326530612245,0.5816326530612245,0.5816326530612245,0.5816326530612245,0.5816326530612245,0.5816326530612245,0.5816326530612245,0.5816326530612245,0.5816326530612245,0.5816326530612245,0.5816326530612245,0.5816326530612245,0.5816326530612245,0.5816326530612245,0.5816326530612245,0.5816326530612245,0.5816326530612245,0.5816326530612245,0.5816326530612245,0.5816326530612245,0.5816326530612245,0.5816326530612245,0.5816326530612245,0.5816326530612245,0.5816326530612245,0.5816326530612245,0.5816326530612245,0.5816326530612245,0.5816326530612245,0.5816326530612245,0.5816326530612245,0.5816326530612245,0.5816326530612245,0.5816326530612245,0.5816326530612245,0.5816326530612245,0.5816326530612245,0.5816326530612245,0.5816326530612245,0.5816326530612245,0.5816326530612245,0.5816326530612245,0.5816326530612245,0.5816326530612245,0.5816326530612245,0.5816326530612245,0.5816326530612245,0.5816326530612245,0.5816326530612245,0.5816326530612245,0.5816326530612245,0.5816326530612245,0.5816326530612245,0.5816326530612245,0.5816326530612245,0.5816326530612245,0.5816326530612245,0.5816326530612245,0.5816326530612245,0.5816326530612245,0.5816326530612245,0.5816326530612245,0.5816326530612245,0.5816326530612245,0.5816326530612245,0.5816326530612245,0.5816326530612245,0.5816326530612245,0.5816326530612245,0.5816326530612245,0.5816326530612245,0.5816326530612245,0.5816326530612245,0.5816326530612245,0.5816326530612245,0.5816326530612245,0.5816326530612245,0.5816326530612245,0.5816326530612245,0.5816326530612245,0.5816326530612245,0.5816326530612245,0.5816326530612245,0.5816326530612245,0.5816326530612245,0.5816326530612245,0.5816326530612245,0.5816326530612245,0.5816326530612245,0.5816326530612245,0.5816326530612245,0.5816326530612245,0.5816326530612245,0.5816326530612245,0.5816326530612245,0.5816326530612245,0.5816326530612245,0.5816326530612245,0.5816326530612245,0.5816326530612245,0.5816326530612245,0.5816326530612245,0.5816326530612245,0.5816326530612245,0.5816326530612245,0.5816326530612245,0.5816326530612245,0.5816326530612245,0.5816326530612245,0.5816326530612245,0.5816326530612245,0.5816326530612245,0.5816326530612245,0.5816326530612245,0.5816326530612245,0.5816326530612245,0.5816326530612245,0.5816326530612245,0.5816326530612245,0.5816326530612245,0.5816326530612245,0.5816326530612245,0.5816326530612245,0.5816326530612245,0.5816326530612245,0.5816326530612245,0.5816326530612245,0.5816326530612245,0.5816326530612245,0.5816326530612245,0.5816326530612245,0.5816326530612245,0.5816326530612245,0.5816326530612245,0.5816326530612245,0.5816326530612245,0.5816326530612245,0.5816326530612245,0.5816326530612245,0.5816326530612245,0.5816326530612245,0.5816326530612245,0.5816326530612245,0.5816326530612245,0.5816326530612245,0.5816326530612245,0.5816326530612245,0.5816326530612245,0.5816326530612245,0.5816326530612245,0.5816326530612245,0.5816326530612245,0.5816326530612245,0.5816326530612245,0.5816326530612245,0.5816326530612245,0.5816326530612245,0.5816326530612245,0.5816326530612245,0.5816326530612245,0.5816326530612245,0.5816326530612245,0.5816326530612245,0.5816326530612245,0.5816326530612245,0.5816326530612245,0.5816326530612245,0.5816326530612245,0.5816326530612245,0.5816326530612245,0.5816326530612245,0.5816326530612245,0.5816326530612245,0.5816326530612245,0.5816326530612245,0.5816326530612245,0.5816326530612245,0.5816326530612245,0.5816326530612245,0.5816326530612245,0.5816326530612245,0.5816326530612245,0.5816326530612245,0.5816326530612245,0.5816326530612245,0.5816326530612245,0.5816326530612245,0.5816326530612245,0.5816326530612245,0.5816326530612245,0.5816326530612245,0.5816326530612245,0.5816326530612245,0.5816326530612245,0.5816326530612245,0.5816326530612245,0.5816326530612245,0.5816326530612245,0.5816326530612245,0.5816326530612245,0.5816326530612245,0.5816326530612245,0.5816326530612245,0.5816326530612245,0.5816326530612245,0.5816326530612245,0.5816326530612245,0.5816326530612245,0.5816326530612245,0.5816326530612245,0.5816326530612245,0.5816326530612245,0.5816326530612245,0.5816326530612245,0.5816326530612245,0.5816326530612245,0.5816326530612245,0.5816326530612245,0.5816326530612245,0.5816326530612245,0.5816326530612245,0.5816326530612245,0.5816326530612245,0.5816326530612245,0.5816326530612245,0.5816326530612245,0.5816326530612245,0.5816326530612245,0.5816326530612245,0.5816326530612245,0.5816326530612245,0.5816326530612245,0.5816326530612245,0.5816326530612245,0.5816326530612245,0.5816326530612245,0.5816326530612245,0.5816326530612245,0.5816326530612245,0.5816326530612245,0.5816326530612245,0.5816326530612245,0.5816326530612245,0.5816326530612245,0.5816326530612245,0.5816326530612245,0.5816326530612245,0.5816326530612245,0.5816326530612245,0.5816326530612245,0.5816326530612245,0.5816326530612245,0.5816326530612245,0.5816326530612245,0.5816326530612245,0.5816326530612245,0.5816326530612245,0.5816326530612245,0.5816326530612245,0.5816326530612245,0.5816326530612245,0.5816326530612245,0.5816326530612245,0.5816326530612245,0.5816326530612245,0.5816326530612245,0.5816326530612245,0.5816326530612245,0.5816326530612245,0.5816326530612245,0.5816326530612245,0.5816326530612245,0.5816326530612245,0.5816326530612245,0.5816326530612245,0.5816326530612245,0.5816326530612245,0.5816326530612245,0.5816326530612245,0.5816326530612245,0.5816326530612245,0.5816326530612245,0.5816326530612245,0.5816326530612245,0.5816326530612245,0.5816326530612245,0.5816326530612245,0.5816326530612245,0.5816326530612245,0.5816326530612245,0.5816326530612245,0.5816326530612245,0.5816326530612245,0.5816326530612245,0.5816326530612245,0.5816326530612245,0.5782312925170068,0.5714285714285714,0.5578231292517006,0.54421768707483,0.5204081632653061,0.5034013605442177,0.4931972789115646,0.4897959183673469,0.48639455782312924,0.48299319727891155,0.48299319727891155,0.48299319727891155,0.47959183673469385,0.47619047619047616,0.47278911564625853,0.45918367346938777,0.43537414965986393,0.3979591836734694,0.35714285714285715,0.3231292517006803,0.2925170068027211,0.2789115646258503,0.2755102040816326,0.272108843537415,0.272108843537415,0.272108843537415,0.272108843537415,0.272108843537415,0.272108843537415,0.272108843537415,0.272108843537415,0.272108843537415,0.272108843537415,0.272108843537415,0.272108843537415,0.272108843537415,0.272108843537415,0.272108843537415,0.272108843537415,0.272108843537415,0.272108843537415,0.272108843537415,0.272108843537415,0.272108843537415,0.272108843537415,0.272108843537415,0.272108843537415,0.272108843537415,0.272108843537415,0.272108843537415,0.272108843537415,0.272108843537415,0.272108843537415,0.272108843537415,0.272108843537415,0.272108843537415,0.272108843537415,0.272108843537415,0.272108843537415,0.272108843537415,0.272108843537415,0.272108843537415,0.272108843537415,0.272108843537415,0.272108843537415,0.272108843537415,0.272108843537415,0.272108843537415,0.272108843537415,0.272108843537415,0.272108843537415,0.272108843537415,0.272108843537415,0.272108843537415,0.272108843537415,0.272108843537415,0.272108843537415,0.24489795918367346,0.22789115646258504,0.20748299319727892,0.20068027210884354,0.19387755102040816,0.19047619047619047,0.19047619047619047,0.1870748299319728,0.18027210884353742,0.17687074829931973,0.17687074829931973,0.17687074829931973,0.17687074829931973,0.18027210884353742,0.19727891156462585,0.23809523809523808,0.2653061224489796,0.282312925170068,0.2857142857142857,0.2891156462585034,0.2891156462585034,0.2891156462585034,0.2891156462585034,0.2891156462585034,0.2891156462585034,0.2891156462585034,0.2891156462585034,0.2891156462585034,0.2891156462585034,0.2891156462585034,0.2891156462585034,0.2891156462585034,0.2891156462585034,0.2891156462585034,0.2891156462585034,0.2891156462585034,0.2891156462585034,0.2891156462585034,0.2891156462585034,0.2891156462585034,0.2891156462585034,0.2891156462585034,0.2891156462585034,0.2891156462585034,0.2891156462585034,0.2891156462585034,0.2891156462585034,0.2891156462585034,0.2891156462585034,0.2891156462585034,0.2891156462585034,0.2891156462585034,0.2891156462585034,0.2891156462585034,0.2891156462585034,0.2891156462585034,0.2891156462585034,0.2891156462585034,0.2891156462585034,0.2891156462585034,0.2891156462585034,0.2891156462585034,0.2891156462585034,0.2891156462585034,0.2891156462585034,0.2891156462585034,0.2891156462585034,0.2891156462585034,0.2891156462585034,0.2891156462585034,0.2891156462585034,0.2891156462585034,0.2891156462585034,0.2891156462585034,0.2891156462585034,0.2891156462585034,0.2891156462585034,0.2891156462585034,0.2891156462585034,0.2891156462585034,0.2891156462585034,0.2891156462585034,0.2891156462585034,0.2891156462585034,0.2891156462585034,0.2891156462585034,0.2891156462585034,0.2891156462585034,0.2891156462585034,0.2891156462585034,0.2891156462585034,0.2891156462585034,0.2891156462585034,0.2891156462585034,0.2891156462585034,0.2891156462585034,0.2891156462585034,0.2891156462585034,0.2891156462585034,0.2891156462585034,0.2857142857142857,0.2857142857142857,0.2857142857142857,0.2857142857142857,0.2857142857142857,0.2857142857142857,0.2857142857142857,0.2857142857142857,0.2857142857142857,0.2857142857142857,0.2857142857142857,0.2857142857142857,0.2857142857142857,0.2857142857142857,0.2857142857142857,0.2857142857142857,0.2857142857142857,0.2857142857142857,0.2857142857142857,0.2857142857142857,0.2857142857142857,0.2857142857142857,0.2857142857142857,0.2857142857142857,0.2857142857142857,0.2857142857142857,0.2857142857142857,0.2857142857142857,0.2857142857142857,0.2857142857142857,0.2857142857142857,0.2857142857142857,0.2857142857142857,0.2857142857142857,0.2857142857142857,0.2857142857142857,0.2857142857142857,0.2857142857142857,0.2857142857142857,0.2857142857142857,0.2857142857142857,0.2857142857142857,0.2857142857142857,0.2857142857142857,0.2857142857142857,0.2857142857142857,0.2857142857142857,0.2857142857142857,0.2857142857142857,0.2857142857142857,0.2857142857142857,0.2857142857142857,0.2857142857142857,0.2857142857142857,0.2857142857142857,0.2857142857142857,0.2857142857142857,0.2857142857142857,0.2857142857142857,0.2857142857142857,0.2857142857142857,0.2857142857142857,0.2857142857142857,0.2857142857142857,0.2857142857142857,0.2857142857142857,0.2857142857142857,0.2857142857142857,0.2857142857142857,0.2857142857142857,0.2857142857142857,0.2857142857142857,0.2857142857142857,0.2857142857142857,0.2857142857142857,0.2857142857142857,0.2857142857142857,0.2857142857142857,0.2857142857142857,0.2857142857142857,0.2857142857142857,0.2857142857142857,0.2857142857142857,0.2857142857142857,0.2857142857142857,0.2857142857142857,0.2857142857142857,0.2857142857142857,0.2857142857142857,0.2857142857142857,0.2857142857142857,0.2857142857142857,0.2857142857142857,0.2857142857142857,0.2857142857142857,0.2857142857142857,0.2857142857142857,0.2857142857142857,0.2857142857142857,0.2857142857142857,0.2857142857142857,0.2857142857142857,0.2857142857142857,0.2857142857142857,0.2857142857142857,0.2857142857142857,0.2857142857142857,0.2857142857142857,0.2857142857142857,0.2857142857142857,0.2857142857142857,0.2857142857142857,0.2857142857142857,0.2857142857142857,0.2857142857142857,0.2857142857142857,0.2857142857142857,0.2857142857142857,0.2857142857142857,0.2857142857142857,0.2857142857142857,0.2857142857142857,0.2857142857142857,0.2857142857142857,0.2857142857142857,0.2857142857142857,0.2857142857142857,0.2857142857142857,0.2857142857142857,0.2857142857142857,0.2857142857142857,0.2857142857142857,0.2857142857142857,0.2857142857142857,0.2857142857142857,0.2857142857142857,0.2857142857142857,0.2857142857142857,0.2857142857142857,0.2857142857142857,0.2857142857142857,0.2857142857142857,0.2857142857142857,0.2857142857142857,0.2857142857142857,0.2857142857142857,0.2857142857142857,0.2857142857142857,0.2857142857142857,0.2857142857142857,0.2857142857142857,0.2857142857142857,0.2857142857142857,0.2857142857142857,0.2857142857142857,0.2857142857142857,0.2857142857142857,0.2857142857142857,0.2857142857142857,0.2857142857142857,0.2857142857142857,0.2857142857142857,0.2857142857142857,0.2857142857142857,0.2857142857142857,0.2857142857142857,0.2857142857142857,0.2857142857142857,0.2857142857142857,0.2857142857142857,0.2857142857142857,0.2857142857142857,0.2857142857142857,0.2857142857142857,0.2857142857142857,0.2857142857142857,0.2857142857142857,0.2857142857142857,0.2857142857142857,0.2857142857142857,0.2857142857142857,0.2857142857142857,0.2857142857142857,0.2857142857142857,0.2891156462585034,0.2891156462585034,0.2925170068027211,0.2925170068027211,0.2925170068027211,0.2925170068027211,0.2925170068027211,0.2925170068027211,0.2925170068027211,0.2925170068027211,0.2925170068027211,0.2925170068027211,0.2925170068027211,0.2925170068027211,0.2925170068027211,0.29591836734693877,0.29591836734693877,0.29591836734693877,0.29591836734693877,0.29591836734693877,0.29591836734693877,0.29591836734693877,0.29591836734693877,0.29591836734693877,0.29591836734693877,0.29591836734693877,0.29591836734693877,0.29591836734693877,0.29591836734693877,0.29591836734693877,0.29591836734693877,0.29591836734693877,0.29591836734693877,0.29591836734693877,0.29591836734693877,0.29591836734693877,0.29591836734693877,0.29591836734693877,0.29591836734693877,0.29591836734693877,0.29591836734693877,0.29591836734693877,0.29591836734693877,0.29591836734693877,0.29591836734693877,0.29591836734693877,0.29591836734693877,0.29591836734693877,0.29591836734693877,0.29591836734693877,0.29591836734693877,0.29591836734693877,0.29591836734693877,0.29591836734693877,0.29591836734693877,0.29591836734693877,0.29591836734693877,0.29591836734693877,0.29591836734693877,0.29591836734693877,0.29591836734693877,0.29591836734693877,0.29591836734693877,0.29591836734693877,0.29591836734693877,0.29591836734693877,0.29591836734693877,0.29591836734693877,0.29591836734693877,0.29591836734693877,0.29591836734693877,0.29591836734693877,0.29591836734693877,0.29591836734693877,0.29591836734693877,0.29591836734693877,0.29591836734693877,0.29591836734693877,0.29591836734693877,0.29591836734693877,0.29591836734693877,0.29591836734693877,0.29591836734693877,0.29591836734693877,0.29591836734693877,0.29591836734693877,0.29591836734693877,0.29591836734693877,0.29591836734693877,0.29591836734693877,0.29591836734693877,0.29591836734693877,0.29591836734693877,0.29591836734693877,0.29591836734693877,0.29591836734693877,0.29591836734693877,0.29591836734693877,0.29591836734693877,0.29591836734693877,0.29591836734693877,0.29591836734693877,0.29591836734693877,0.29591836734693877,0.29591836734693877,0.29591836734693877,0.29591836734693877,0.29591836734693877,0.29591836734693877,0.29591836734693877,0.29591836734693877,0.29591836734693877,0.29591836734693877,0.29591836734693877,0.29591836734693877,0.29591836734693877,0.29591836734693877,0.29591836734693877,0.29591836734693877,0.29591836734693877,0.29591836734693877,0.29591836734693877,0.29591836734693877,0.29591836734693877,0.29591836734693877,0.29591836734693877,0.29591836734693877,0.29591836734693877,0.29591836734693877,0.29591836734693877,0.29591836734693877,0.29591836734693877,0.29591836734693877,0.29591836734693877,0.29591836734693877,0.29591836734693877,0.29591836734693877,0.29591836734693877,0.29591836734693877,0.29591836734693877,0.29591836734693877,0.29591836734693877,0.29591836734693877,0.29591836734693877,0.29591836734693877,0.29591836734693877,0.29591836734693877,0.29591836734693877,0.29591836734693877,0.29591836734693877,0.29591836734693877,0.29591836734693877,0.29591836734693877,0.29591836734693877,0.29591836734693877,0.29591836734693877,0.29591836734693877,0.29591836734693877,0.29591836734693877,0.29591836734693877,0.29591836734693877,0.29591836734693877,0.29591836734693877,0.29591836734693877,0.29591836734693877,0.29591836734693877,0.29591836734693877,0.29591836734693877,0.29591836734693877,0.29591836734693877,0.29591836734693877,0.29931972789115646,0.29931972789115646,0.29931972789115646,0.2857142857142857,0.23469387755102042,0.17006802721088435,0.10884353741496598,0.07142857142857142,0.05442176870748299,0.05442176870748299,0.05442176870748299,0.05442176870748299,0.05782312925170068,0.061224489795918366,0.06802721088435375,0.06802721088435375,0.07482993197278912,0.0782312925170068,0.0782312925170068,0.0782312925170068,0.0782312925170068,0.0782312925170068,0.0782312925170068,0.0782312925170068,0.0782312925170068,0.0782312925170068,0.0782312925170068,0.06802721088435375,0.05442176870748299,0.04421768707482993,0.04081632653061224,0.04081632653061224,0.04081632653061224,0.04081632653061224,0.03741496598639456,0.03741496598639456,0.030612244897959183,0.027210884353741496,0.027210884353741496,0.027210884353741496,0.027210884353741496,0.027210884353741496,0.027210884353741496,0.027210884353741496,0.027210884353741496,0.027210884353741496,0.027210884353741496,0.027210884353741496,0.027210884353741496,0.027210884353741496,0.027210884353741496,0.027210884353741496,0.027210884353741496,0.027210884353741496,0.027210884353741496,0.027210884353741496,0.027210884353741496,0.027210884353741496,0.027210884353741496,0.027210884353741496,0.027210884353741496,0.027210884353741496,0.027210884353741496,0.027210884353741496,0.027210884353741496,0.027210884353741496,0.027210884353741496,0.027210884353741496,0.027210884353741496,0.027210884353741496,0.027210884353741496,0.027210884353741496,0.027210884353741496,0.027210884353741496,0.027210884353741496,0.027210884353741496,0.027210884353741496,0.027210884353741496,0.027210884353741496,0.027210884353741496,0.027210884353741496,0.027210884353741496,0.027210884353741496,0.027210884353741496,0.027210884353741496,0.027210884353741496,0.027210884353741496,0.027210884353741496,0.027210884353741496,0.027210884353741496,0.027210884353741496,0.027210884353741496,0.027210884353741496,0.027210884353741496,0.027210884353741496,0.027210884353741496,0.027210884353741496,0.027210884353741496,0.027210884353741496,0.027210884353741496,0.027210884353741496,0.027210884353741496,0.027210884353741496,0.027210884353741496,0.027210884353741496,0.027210884353741496,0.027210884353741496,0.027210884353741496,0.027210884353741496,0.027210884353741496,0.027210884353741496,0.027210884353741496,0.027210884353741496,0.027210884353741496,0.027210884353741496,0.027210884353741496,0.027210884353741496,0.027210884353741496,0.027210884353741496,0.027210884353741496,0.027210884353741496,0.027210884353741496,0.027210884353741496,0.027210884353741496,0.027210884353741496,0.027210884353741496,0.027210884353741496,0.027210884353741496,0.027210884353741496,0.027210884353741496,0.027210884353741496,0.027210884353741496,0.027210884353741496,0.027210884353741496,0.027210884353741496,0.027210884353741496,0.027210884353741496,0.027210884353741496,0.027210884353741496,0.027210884353741496,0.027210884353741496,0.027210884353741496,0.027210884353741496,0.027210884353741496,0.027210884353741496,0.027210884353741496,0.027210884353741496,0.027210884353741496,0.027210884353741496,0.027210884353741496,0.027210884353741496,0.027210884353741496,0.027210884353741496,0.027210884353741496,0.027210884353741496,0.027210884353741496,0.027210884353741496,0.027210884353741496,0.027210884353741496,0.027210884353741496,0.027210884353741496,0.027210884353741496,0.027210884353741496,0.027210884353741496,0.027210884353741496,0.027210884353741496,0.027210884353741496,0.027210884353741496,0.027210884353741496,0.027210884353741496,0.027210884353741496,0.027210884353741496,0.027210884353741496,0.027210884353741496,0.027210884353741496,0.027210884353741496,0.027210884353741496,0.027210884353741496,0.027210884353741496,0.027210884353741496,0.027210884353741496,0.027210884353741496,0.027210884353741496,0.027210884353741496,0.027210884353741496,0.027210884353741496,0.027210884353741496,0.027210884353741496,0.027210884353741496,0.027210884353741496,0.027210884353741496,0.027210884353741496,0.027210884353741496,0.027210884353741496,0.027210884353741496,0.027210884353741496,0.027210884353741496,0.027210884353741496,0.027210884353741496,0.027210884353741496,0.027210884353741496,0.027210884353741496,0.027210884353741496,0.027210884353741496,0.027210884353741496,0.027210884353741496,0.027210884353741496,0.027210884353741496,0.027210884353741496,0.027210884353741496,0.027210884353741496,0.027210884353741496,0.027210884353741496,0.027210884353741496,0.027210884353741496,0.027210884353741496,0.027210884353741496,0.027210884353741496,0.027210884353741496,0.027210884353741496,0.027210884353741496,0.027210884353741496,0.027210884353741496,0.027210884353741496,0.027210884353741496,0.027210884353741496,0.027210884353741496,0.027210884353741496,0.027210884353741496,0.027210884353741496,0.027210884353741496,0.027210884353741496,0.027210884353741496,0.027210884353741496,0.027210884353741496,0.027210884353741496,0.027210884353741496,0.027210884353741496,0.027210884353741496,0.027210884353741496,0.027210884353741496,0.027210884353741496,0.027210884353741496,0.027210884353741496,0.027210884353741496,0.027210884353741496,0.027210884353741496,0.027210884353741496,0.027210884353741496,0.027210884353741496,0.027210884353741496,0.027210884353741496,0.027210884353741496,0.027210884353741496,0.027210884353741496,0.027210884353741496,0.027210884353741496,0.027210884353741496,0.027210884353741496,0.027210884353741496,0.027210884353741496,0.027210884353741496,0.027210884353741496,0.027210884353741496,0.027210884353741496,0.027210884353741496,0.027210884353741496,0.027210884353741496,0.027210884353741496,0.027210884353741496,0.027210884353741496,0.027210884353741496,0.027210884353741496,0.027210884353741496,0.027210884353741496,0.027210884353741496,0.027210884353741496,0.027210884353741496,0.027210884353741496,0.027210884353741496,0.027210884353741496,0.027210884353741496,0.027210884353741496,0.027210884353741496,0.027210884353741496,0.027210884353741496,0.027210884353741496,0.030612244897959183,0.03741496598639456,0.04081632653061224,0.04081632653061224,0.04081632653061224,0.04081632653061224,0.04081632653061224,0.04081632653061224,0.04081632653061224,0.04081632653061224,0.04081632653061224,0.04081632653061224,0.04081632653061224,0.04081632653061224,0.04081632653061224,0.04081632653061224,0.04081632653061224,0.04081632653061224,0.04081632653061224,0.04081632653061224,0.04081632653061224,0.04081632653061224,0.04081632653061224,0.04081632653061224,0.04081632653061224,0.04081632653061224,0.04081632653061224,0.04081632653061224,0.04081632653061224,0.04081632653061224,0.04081632653061224,0.04081632653061224,0.04081632653061224,0.04081632653061224,0.04081632653061224,0.04081632653061224,0.04081632653061224,0.04081632653061224,0.04081632653061224,0.04081632653061224,0.04081632653061224,0.04081632653061224,0.04081632653061224,0.04081632653061224,0.04081632653061224,0.04081632653061224,0.04081632653061224,0.04081632653061224,0.04081632653061224,0.04081632653061224,0.04081632653061224,0.04081632653061224,0.04081632653061224,0.04081632653061224,0.04081632653061224,0.04081632653061224,0.04081632653061224,0.04081632653061224,0.04081632653061224,0.04081632653061224,0.04081632653061224,0.04081632653061224,0.04081632653061224,0.04081632653061224,0.04081632653061224,0.04081632653061224,0.04081632653061224,0.04081632653061224,0.04081632653061224,0.04081632653061224,0.04081632653061224,0.04081632653061224,0.04081632653061224,0.04081632653061224,0.04081632653061224,0.04081632653061224,0.04081632653061224,0.04081632653061224,0.04081632653061224,0.04081632653061224,0.04081632653061224,0.04081632653061224,0.04081632653061224,0.04081632653061224,0.04081632653061224,0.04081632653061224,0.04081632653061224,0.04081632653061224,0.04081632653061224,0.04081632653061224,0.04081632653061224,0.04081632653061224,0.04081632653061224,0.04081632653061224,0.061224489795918366,0.11224489795918367,0.272108843537415,0.4897959183673469,0.6938775510204082,0.8571428571428571,0.9217687074829932,0.9489795918367347,0.9523809523809523,0.9523809523809523,0.9523809523809523,0.9523809523809523,0.9591836734693877,0.9761904761904762,1.0204081632653061,1.1054421768707483,1.2312925170068028,1.4251700680272108,1.5680272108843538,1.6462585034013606,1.6666666666666667,1.6666666666666667,1.6666666666666667,1.6666666666666667,1.6666666666666667,1.6666666666666667,1.6666666666666667,1.6666666666666667,1.6666666666666667,1.6666666666666667,1.6666666666666667,1.6666666666666667,1.6666666666666667,1.6666666666666667,1.6666666666666667,1.6666666666666667,1.6666666666666667,1.6666666666666667,1.6666666666666667,1.6666666666666667,1.6666666666666667,1.6666666666666667,1.663265306122449,1.6598639455782314,1.6564625850340136,1.653061224489796,1.6462585034013606,1.6462585034013606,1.6394557823129252,1.6360544217687074,1.6258503401360545,1.6020408163265305,1.5510204081632653,1.4965986394557824,1.4387755102040816,1.3639455782312926,1.3333333333333333,1.3197278911564625,1.3129251700680271,1.3095238095238095,1.3061224489795917,1.3061224489795917,1.3061224489795917,1.3061224489795917,1.3061224489795917,1.3061224489795917,1.3061224489795917,1.3061224489795917,1.3061224489795917,1.3061224489795917,1.3061224489795917,1.3027210884353742,1.2993197278911566,1.2925170068027212,1.2925170068027212,1.2857142857142858,1.282312925170068,1.2755102040816326,1.2687074829931972,1.2653061224489797,1.2619047619047619,1.2585034013605443,1.2551020408163265,1.2551020408163265,1.2551020408163265,1.2551020408163265,1.2551020408163265,1.2448979591836735,1.2380952380952381,1.2380952380952381,1.227891156462585,1.217687074829932,1.2006802721088434,1.1802721088435375,1.163265306122449,1.1462585034013606,1.1462585034013606,1.1428571428571428,1.1428571428571428,1.1394557823129252,1.1394557823129252,1.1394557823129252,1.1394557823129252,1.1394557823129252,1.1394557823129252,1.1394557823129252,1.1428571428571428,1.1462585034013606,1.1462585034013606,1.1462585034013606,1.1462585034013606,1.129251700680272,1.1054421768707483,1.0374149659863945,0.9761904761904762,0.9047619047619048,0.8435374149659864,0.7891156462585034,0.7585034013605442,0.7380952380952381,0.7346938775510204,0.7346938775510204,0.7346938775510204,0.7346938775510204,0.7346938775510204,0.7346938775510204,0.7346938775510204,0.7619047619047619,0.8061224489795918,0.8707482993197279,0.9897959183673469,1.08843537414966,1.2006802721088434,1.282312925170068,1.3231292517006803,1.3299319727891157,1.3299319727891157,1.3197278911564625,1.316326530612245,1.3095238095238095,1.3095238095238095,1.3061224489795917,1.3061224489795917,1.3061224489795917,1.3061224489795917,1.3061224489795917,1.3061224489795917,1.3061224489795917,1.3061224489795917,1.3061224489795917,1.3061224489795917,1.3061224489795917,1.3061224489795917,1.3061224489795917,1.3061224489795917,1.3061224489795917,1.3061224489795917,1.3061224489795917,1.3061224489795917,1.3061224489795917,1.3061224489795917,1.3061224489795917,1.3061224489795917,1.3061224489795917,1.3061224489795917,1.3061224489795917,1.3061224489795917,1.3061224489795917,1.3061224489795917,1.3061224489795917,1.3061224489795917,1.3061224489795917,1.3061224489795917,1.3061224489795917,1.3061224489795917,1.3061224489795917,1.3061224489795917,1.3061224489795917,1.3061224489795917,1.3061224489795917,