[{"success":true,"trial_type":"fullscreen","trial_index":0,"time_elapsed":20291,"internal_node_id":"0.0-0.0","protocol_sum":"","subject_identifier":539,"subject_sum":[247,71,135,10,230,102,195,155,88,159,87,120,86,160,247,25,139,59,129,38,156,176,50,109,232,109,128,70,242,207,114,219],"subject_pair":269,"STUDY_ID":"66a3ed3c5d10d0e7d8a6b9da","PROLIFIC_PID":"6650c46dc4f3ab332602c04b","SESSION_ID":"66a4883c93689421fd9d9bf7","practice_instructions":1,"leaderboard_instructions":0,"bonus":0,"reveal_word":true,"self_rating":"3","confidence":"72"},{"view_history":"[{\"page_index\":0,\"viewing_time\":174819.40000000596}]","rt":174820.80000001192,"trial_type":"instructions","trial_index":1,"time_elapsed":195105,"internal_node_id":"0.0-1.0","protocol_sum":"","subject_identifier":539,"subject_sum":[247,71,135,10,230,102,195,155,88,159,87,120,86,160,247,25,139,59,129,38,156,176,50,109,232,109,128,70,242,207,114,219],"subject_pair":269,"STUDY_ID":"66a3ed3c5d10d0e7d8a6b9da","PROLIFIC_PID":"6650c46dc4f3ab332602c04b","SESSION_ID":"66a4883c93689421fd9d9bf7","practice_instructions":1,"leaderboard_instructions":0,"bonus":0,"reveal_word":true,"self_rating":"3","confidence":"72"},{"view_history":"[{\"page_index\":0,\"viewing_time\":67766.89999999106}]","rt":67767.29999999702,"trial_type":"instructions","trial_index":2,"time_elapsed":262870,"internal_node_id":"0.0-2.0-0.0","protocol_sum":"","subject_identifier":539,"subject_sum":[247,71,135,10,230,102,195,155,88,159,87,120,86,160,247,25,139,59,129,38,156,176,50,109,232,109,128,70,242,207,114,219],"subject_pair":269,"STUDY_ID":"66a3ed3c5d10d0e7d8a6b9da","PROLIFIC_PID":"6650c46dc4f3ab332602c04b","SESSION_ID":"66a4883c93689421fd9d9bf7","practice_instructions":1,"leaderboard_instructions":0,"bonus":0,"reveal_word":true,"self_rating":"3","confidence":"72"},{"rt":8246.29999999702,"responses":"{\"Q0\":\"... reveal the word with as <b>few letter guesses</b> as possible\"}","question_order":"[0]","trial_type":"survey-multi-choice","trial_index":3,"time_elapsed":271120,"internal_node_id":"0.0-2.0-1.0","protocol_sum":"","subject_identifier":539,"subject_sum":[247,71,135,10,230,102,195,155,88,159,87,120,86,160,247,25,139,59,129,38,156,176,50,109,232,109,128,70,242,207,114,219],"subject_pair":269,"correct":true,"test_part":"multichoice_nonpretend","STUDY_ID":"66a3ed3c5d10d0e7d8a6b9da","PROLIFIC_PID":"6650c46dc4f3ab332602c04b","SESSION_ID":"66a4883c93689421fd9d9bf7","practice_instructions":1,"leaderboard_instructions":0,"bonus":0,"reveal_word":true,"self_rating":"3","confidence":"72"},{"view_history":"[{\"page_index\":0,\"viewing_time\":1547.0999999940395}]","rt":1547.5,"trial_type":"instructions","trial_index":4,"time_elapsed":272670,"internal_node_id":"0.0-3.0","protocol_sum":"","subject_identifier":539,"subject_sum":[247,71,135,10,230,102,195,155,88,159,87,120,86,160,247,25,139,59,129,38,156,176,50,109,232,109,128,70,242,207,114,219],"subject_pair":269,"STUDY_ID":"66a3ed3c5d10d0e7d8a6b9da","PROLIFIC_PID":"6650c46dc4f3ab332602c04b","SESSION_ID":"66a4883c93689421fd9d9bf7","practice_instructions":1,"leaderboard_instructions":0,"bonus":0,"reveal_word":true,"self_rating":"3","confidence":"72"},{"word":"ZEBRA","click_log":{"letter":["","A","L","D","C","O","G","E","B","Z","R"],"t":[0,6073,23208.60000000894,26224.80000001192,27558.30000001192,28823.90000000596,33841.30000001192,39674.60000000894,44391.30000001192,46674.80000001192,49142.10000000894],"hit":[null,1,0,0,0,0,0,1,1,1,1],"asked":["","A","AL","ALD","ALDC","ALDCO","ALDCOG","ALDCOGE","ALDCOGEB","ALDCOGEBZ","ALDCOGEBZR"],"word_state":["_____","____A","____A","____A","____A","____A","____A","_E__A","_EB_A","ZEB_A","ZEBRA"]},"hover_log":{"letter":["?","?","?","?","?","?","?","?","?","?","?","?","?","?","?","?","?","?","?","?","?","?","?","?","?","?","?","?","?","?","?","?","?","?","?","?","?","?","?","?","?","?","?","?","?","?","?","?","?","?","?","?","?","?","?","?","?","?","?","?","?","?","?","?","?","?","?","?","?","?","?","?","?","?","?","?","?","?","?","?","?","?","?","?","?","?","?","?","?","?","?","?","?","?","?","?","?","?","?","?","?","?","?","?","?","?","?","?","?","?","?","?","?","?","?","?","?","?","?","?","?","?","?","?","?","?","?","?","?","?","?","?","?","?","?","?","?","?","?","?","?","?","?","?","?","?","?","K","K","K","K","K","K","K","K","K","K","K","K","K","K","K","K","K","K","K","K","K","K","K","K","K","K","K","K","K","K","K","K","K","K","K","K","K","K","K","K","K","K","K","K","K","K","K","K","K","K","K","K","K","K","K","K","K","?","L","L","M","?","?","?","?","?","?","?","?","?","?","?","?","?","?","?","?","?","?","?","?","?","Q","Q","Q","?","?","?","?","?","Q","Q","Q","Q","Q","Q","Q","Q","Q","Q","Q","Q","Q","Q","?","?","P","?","O","O","?","N","N","N","N","?","?","?","?","?","?","?","?","?","?","?","?","?","?","F","?","G","G","?","?","?","?","?","?","?","?","?","?","?","?","?","?","?","?","?","?","?","?","?","?","?","M","L","L","?","?","?","?","?","?","?","?","?","?","?","?","?","?","?","?","B","B","B","B","B","B","B","B","B","B","B","?","?","A","A","A","A","A","A","A","A","A","A","A","A","A","A","A","A","A","A","A","A","A","A","A","A","A","A","A","A","A","A","A","A","A","A","A","A","A","A","A","B","C","E","?","R","?","?","?","?","?","?","?","?","?","?","?","?","?","?","?","?","?","?","?","?","?","?","?","?","?","?","?","?","?","?","?","?","?","?","?","?","?","?","?","?","?","?","?","?","?","?","?","?","?","?","?","?","?","?","?","?","?","?","?","?","?","?","?","?","?","?","?","?","?","?","?","?","?","?","?","?","?","?","?","?","?","?","?","?","?","?","?","?","?","?","?","?","?","?","?","?","?","?","?","?","?","?","?","?","?","?","?","?","?","?","?","?","?","?","?","?","?","?","?","?","?","?","?","?","?","?","?","?","?","?","?","?","?","?","?","?","?","?","?","?","?","?","?","?","?","?","?","?","?","?","?","?","?","?","?","?","?","?","?","?","?","?","?","?","?","?","?","?","?","?","?","?","?","?","?","?","?","?","?","?","R","?","?","?","?","?","?","?","?","?","?","?","?","?","?","?","?","?","?","?","?","?","?","?","?","?","?","?","?","?","?","?","?","?","?","?","?","?","?","?","?","?","?","?","?","?","?","?","?","?","?","?","?","?","?","?","?","?","?","?","?","?","?","?","?","?","?","?","?","?","?","?","?","?","?","?","?","?","?","?","?","?","?","?","?","?","?","?","?","?","?","?","?","?","?","?","?","?","?","?","?","?","?","?","?","?","?","P","P","P","P","P","P","?","?","?","O","O","O","O","O","O","O","O","O","O","O","O","O","O","O","O","O","O","O","O","O","O","O","O","O","O","O","O","O","O","O","O","O","O","O","O","O","O","O","O","O","O","O","O","O","O","O","O","O","O","O","O","O","O","O","O","O","O","O","O","O","O","O","O","O","O","O","O","O","O","O","O","O","O","O","O","O","O","O","O","O","O","O","O","O","O","O","O","O","O","O","O","O","O","O","O","O","O","O","O","O","O","O","O","O","O","O","O","O","O","O","O","O","O","O","O","O","O","O","O","O","O","O","O","O","O","O","O","O","O","O","O","O","O","O","O","O","O","O","O","O","O","O","O","O","O","O","O","O","O","O","O","O","O","O","O","O","O","O","O","O","O","O","O","O","O","O","O","O","O","O","O","O","O","O","O","O","O","O","O","O","O","O","O","O","O","O","O","O","O","O","O","O","O","O","O","O","O","O","O","O","O","O","O","O","O","O","O","O","O","O","O","O","O","O","O","O","O","O","O","O","O","O","O","O","O","O","O","O","O","O","O","O","O","O","O","O","O","O","O","O","O","O","O","O","O","O","O","O","O","O","O","O","O","O","O","O","O","O","O","O","O","O","O","O","O","O","O","O","O","O","O","O","O","O","O","O","O","O","O","O","O","O","O","O","O","O","O","O","O","O","O","O","O","O","O","O","O","O","O","O","O","O","O","O","O","O","O","O","O","O","O","O","O","O","O","O","O","O","O","O","O","O","O","O","O","O","O","O","O","O","O","O","O","O","O","O","O","O","O","O","O","O","O","O","O","O","O","O","O","O","O","O","O","O","O","O","O","O","O","O","O","O","O","O","O","O","O","O","O","O","O","O","O","O","O","O","O","O","O","O","O","O","O","O","O","O","O","O","O","O","O","O","O","O","O","O","O","O","O","O","O","O","O","O","O","O","O","O","O","O","O","O","O","O","O","O","O","O","O","O","O","O","O","O","O","O","O","O","O","O","O","O","O","O","O","O","O","O","O","O","O","O","O","O","O","O","O","O","O","O","O","O","O","O","O","O","O","O","O","O","O","O","O","O","O","O","O","O","O","O","O","O","O","O","O","O","O","O","O","O","O","O","O","O","O","O","O","O","O","O","O","O","O","O","O","O","O","O","O","O","O","O","O","O","O","O","O","O","O","O","O","O","O","O","O","O","O","O","O","O","O","O","O","O","O","O","O","O","O","O","O","O","O","O","O","O","O","O","O","O","O","O","O","O","O","O","O","O","O","O","O","O","O","O","O","O","O","O","O","O","O","O","O","O","O","O","O","O","O","O","O","O","O","O","O","O","O","O","O","O","O","O","O","O","O","O","O","O","O","O","O","O","O","O","O","O","O","O","O","O","O","O","O","O","O","O","O","O","?","?","?","?","?","?","?","?","?","?","H","?","?","?","I","I","I","I","I","I","I","I","I","I","I","I","I","I","I","I","I","I","I","I","I","I","I","I","I","I","I","I","I","I","I","I","I","I","I","I","I","I","I","I","I","I","I","I","I","I","H","H","G","?","?","?","M","?","L","L","L","L","L","L","L","L","L","L","L","L","L","L","L","L","L","L","L","L","L","L","L","L","L","L","L","L","L","L","L","L","L","L","L","L","L","L","L","L","L","L","L","L","L","L","L","L","L","L","L","L","L","L","L","L","L","L","L","L","L","L","L","L","L","L","L","L","L","L","L","L","L","L","L","L","L","L","L","L","L","L","L","L","L","L","L","L","L","L","L","L","L","L","L","L","L","L","L","L","L","L","L","L","L","L","L","L","L","L","L","L","L","L","L","L","L","L","L","L","L","L","L","L","L","L","L","L","L","L","L","L","L","L","L","L","L","L","L","L","L","L","L","L","L","L","L","L","L","L","L","L","L","L","L","L","L","L","L","L","L","L","L","L","L","L","L","L","?","?","?","?","?","?","?","?","?","?","?","?","?","?","?","D","D","D","D","D","D","D","D","D","D","D","D","D","D","D","D","D","D","D","D","D","D","D","D","D","D","D","D","D","D","D","D","D","D","D","D","D","D","D","D","D","D","D","D","D","D","D","D","D","D","D","D","D","D","D","D","D","D","D","D","D","D","D","D","D","D","D","D","D","D","D","D","D","D","D","D","D","D","D","D","D","D","D","D","D","?","C","C","C","C","C","C","C","C","C","C","C","C","C","C","C","C","C","C","C","C","C","C","C","C","C","C","C","C","C","C","C","C","C","C","C","C","C","C","C","C","C","C","C","C","C","C","C","C","C","C","C","C","C","C","C","C","C","C","?","?","?","N","N","N","N","N","N","N","N","N","N","N","N","N","N","N","N","N","?","O","O","O","O","O","O","O","O","O","O","O","O","O","O","O","O","O","O","O","O","O","O","O","O","O","O","O","O","O","O","O","O","O","O","O","O","O","O","O","O","O","O","O","O","O","O","O","O","O","O","O","O","O","O","O","O","O","O","O","O","O","O","O","O","O","O","O","O","O","O","O","O","O","O","O","O","O","O","O","O","O","O","O","O","O","O","O","O","O","O","O","O","O","O","O","O","O","O","O","O","O","O","O","O","O","O","O","O","O","O","O","O","O","O","O","O","O","O","O","O","O","O","O","O","O","O","O","O","O","O","O","O","O","O","O","O","O","O","O","O","O","O","O","O","O","O","O","O","O","O","O","O","O","O","O","O","O","O","O","O","O","O","O","O","O","O","O","O","O","O","O","O","O","O","O","O","O","O","O","O","O","O","O","O","O","O","O","O","O","O","O","O","O","O","O","O","O","O","O","O","O","O","O","O","O","O","O","O","O","O","O","O","O","O","O","O","O","O","O","O","O","O","O","O","O","O","O","O","O","O","O","O","O","O","O","O","O","O","O","O","O","O","O","O","O","O","O","O","O","O","O","O","O","O","O","O","O","O","?","?","F","F","F","F","F","F","F","?","?","?","?","?","?","?","F","F","F","F","F","F","F","F","F","F","F","F","F","F","F","F","F","F","F","F","F","F","?","?","?","?","G","G","G","G","G","G","G","G","G","G","G","G","G","G","G","G","G","G","G","G","G","G","G","G","G","G","G","G","G","G","G","G","G","G","G","G","G","G","G","G","G","G","G","G","G","G","G","G","G","G","G","G","?","Z","?","?","?","?","?","?","?","?","?","?","?","?","?","?","?","?","?","?","?","?","?","?","?","?","?","?","?","?","?","?","?","?","?","?","?","?","?","?","?","?","?","?","?","?","?","?","?","?","?","?","?","?","?","?","?","?","?","?","?","?","?","?","?","?","?","?","?","?","?","?","?","?","?","?","?","?","?","?","?","?","?","?","?","?","?","?","?","?","?","?","?","?","?","?","?","?","?","X","W","?","?","?","?","?","?","?","?","?","?","?","?","?","?","?","?","?","?","?","?","?","?","?","?","?","?","?","?","?","?","?","?","?","?","?","?","?","?","?","?","?","?","?","?","?","?","?","?","?","?","?","?","?","?","?","?","?","?","?","?","?","?","?","?","?","?","?","?","?","?","?","?","?","?","?","?","?","?","?","?","Y","Y","Y","Y","Y","Y","Y","Y","Y","Y","Y","Y","Y","Y","Y","Y","Y","Y","Y","Y","Y","Y","Y","Y","Y","Y","Y","Y","Y","Y","Y","Y","Y","Y","?","?","?","P","P","?","?","?","?","?","?","?","F","F","F","F","F","F","F","F","F","F","F","F","F","F","F","F","F","F","F","F","F","F","F","F","F","F","F","F","F","F","F","F","F","F","F","F","F","F","F","F","F","F","F","F","F","F","F","F","F","F","F","F","F","F","F","F","F","F","F","F","F","F","F","?","?","?","E","E","E","E","E","E","E","E","E","E","E","E","E","E","E","E","E","E","E","E","E","E","E","E","E","E","E","E","E","E","E","E","E","E","E","E","E","E","E","E","E","E","E","E","E","E","E","E","E","E","E","E","E","E","E","E","E","E","E","E","E","E","E","E","E","E","E","E","E","?","?","P","?","?","Z","Z","Z","Z","Z","Z","Z","Z","Z","Z","Z","Z","Z","Z","Z","Z","Z","Z","Z","Z","Z","Z","Z","Z","Z","Z","Z","Z","Z","Z","Z","Z","Z","Z","Z","Z","Z","Z","Z","Z","Z","Z","Z","Z","Z","Z","Z","Z","Z","Z","Z","Z","Z","Z","Z","Z","Z","Z","Z","Z","Z","Z","Z","Z","Z","Z","Z","Z","Z","Z","Z","Z","Z","Z","Z","Z","Z","Z","Z","Z","Z","Z","Z","Z","Z","Z","Z","Z","Z","Z","Z","Z","Z","Z","Z","Z","Z","Z","Z","Z","Z","Z","Z","Z","Z","Z","Z","Z","Z","Z","Z","Z","Z","Z","Z","Z","Z","Z","Z","Z","Z","Z","Z","Z","Z","Z","Z","Z","Z","Z","Z","Z","Z","Z","Z","Z","Z","Z","Z","Z","Z","Z","Z","Z","Z","Z","Z","Z","Z","Z","Z","Z","Z","Z","Z","Z","Z","Z","Z","Z","Z","Z","Z","Z","Z","Z","Z","Z","Z","Z","Z","Z","Z","Z","Z","Z","?","Y","?","X","?","W","W","?","V","V","V","V","?","?","?","?","?","?","?","?","?","?","?","?","?","?","?","L","L","?","?","?","?","?","?","B","B","B","B","B","B","B","B","B","B","B","B","B","B","B","B","B","B","B","B","B","B","B","B","B","B","B","B","B","B","B","B","B","B","B","B","B","B","B","B","B","B","B","B","B","B","B","B","B","B","B","B","B","B","?","C","?","?","?","Y","Z","Z","Z","Z","Z","Z","Z","Z","Z","Z","Z","Z","Z","Z","Z","Z","Z","Z","Z","Z","Z","Z","Z","Z","Z","Z","Z","Z","Z","?","Y","Y","?","?","?","?","?","?","?","?","?","?","?","?","?","?","?","?","?","?","?","?","?","?","?","?","?","?","?","?","T","?","U","V","?","W","?","?","?","?","?","?","?","?","Y","Y","?","?","?","Z","Z","Z","Z","Z","Z","Z","Z","Z","Z","Z","Z","Z","Z","Z","Z","Z","Z","Z","Z","Z","Z","Z","Z","Z","Z","Z","Z","Z","Z","Z","Z","Z","Z","Z","Z","Z","Z","Z","Z","Z","Z","?","Y","Y","?","?","?","O","O","O","?","?","?","?","?","?","?","?","?","?","D","D","D","D","D","D","D","D","D","?","?","?","?","?","?","?","?","?","?","?","?","?","?","?","?","?","?","L","L","L","L","L","L","L","L","L","?","M","M","N","N","N","?","O","O","O","O","O","O","O","?","?","?","?","?","P","P","?","?","?","?","?","?","?","?","?","?","?","?","?","?","?","?","?","Q","Q","Q","Q","?","?","?","R","R","R","R","R","R","R","R","R","R","R","R","R","R","R","R","R","R","R","R","R","R","R","R","R","R","R","R","R","R","R","R","R","R","R","R","R","R","R","R","R","R","R","R","R","R","R","R","R","R","R","R","R","R","R","R","R","R","R","R","R","R","R","R","R","R","R","R","R","R","R","R","R","R","R","R","R","R","R","R","R","R","R","R","R","R","R","R","R","R","R","R","R","R","R","R","R","R","R","R","R","R","R","R","R","R","R","R","R","R","R","R","R","R","R","R","R","R","R","R","R","R","R","R","R","R","R","R","R","R","R","R","R","R","R","R","R","R","R","R","R","R","R","R"],"t":[52,56,77,276,294,310,327,343,360,377,393,410,427,444,461,477,494,511,529,544,561,578,595,611,628,645,661,678,695,711,728,744,760,778,795,811,828,845,861,878,895,911,928,944,961,978,995,1011,1028,1044,1061,1078,1094,1111,1128,1145,1160,1178,1195,1211,1227,1244,1261,1278,1295,1311,1328,1345,1361,1378,1395,1411,1428,1445,1461,1478,1495,1511,1528,1544,1561,1578,1594,1611,1627,1644,1661,1678,1695,1711,1728,1745,1760,1778,1794,1811,1828,1845,1861,1878,1895,1911,1928,1944,1961,1978,1995,2011,2028,2045,2061,2078,2095,2111,2128,2145,2161,2178,2194,2211,2228,2245,2261,2278,2294,2311,2327,2345,2362,2377,2395,2411,2428,2444,2461,2478,2494,2511,2528,2545,2560,2578,2600,2628,2645,2661,2678,2696,2711,2728,2744,2761,2778,2795,2811,2828,2844,2861,2878,2894,2912,2928,2945,2961,2978,2995,3011,3028,3044,3060,3078,3095,3111,3128,3145,3161,3178,3195,3211,3228,3244,3262,3277,3294,3311,3327,3345,3361,3378,3395,3411,3428,3445,3461,3478,3495,3511,3528,3545,3562,3578,3595,3611,3628,3645,3662,3678,3694,3711,3728,3745,3761,3778,3795,3812,3828,3845,3861,3878,3894,3912,3928,3945,3961,3978,3995,4011,4028,4045,4062,4076,4095,4111,4128,4144,4162,4178,4194,4211,4228,4245,4261,4278,4295,4311,4328,4344,4361,4378,4394,4411,4428,4445,4462,4477,4494,4511,4528,4544,4561,4578,4593,4611,4628,4645,4661,4678,4694,4711,4728,4745,4761,4778,4794,4812,4828,4844,4861,4878,4894,4912,4928,4944,4961,4977,4995,5011,5028,5044,5061,5078,5095,5111,5128,5145,5161,5178,5194,5211,5228,5244,5261,5278,5295,5311,5328,5344,5361,5377,5394,5411,5428,5445,5461,5478,5495,5512,5528,5544,5561,5578,5594,5611,5627,5644,5661,5677,5694,5711,5727,5744,5761,5778,5795,5812,5828,5845,5861,5877,5894,5911,5928,5945,5961,5978,5995,6012,6028,6045,6061,6079,6095,6113,6128,6145,6161,6178,6194,6212,6229,6245,6262,6278,6295,6312,6328,6345,6362,6379,6395,6412,6427,6445,6462,6478,6495,6511,6528,6545,6561,6578,6595,6612,6629,6645,6662,6678,6695,6712,6728,6745,6762,6779,6795,6812,6828,6845,6862,6878,6895,6912,6928,6945,6961,6978,6995,7012,7028,7045,7062,7078,7095,7112,7128,7145,7162,7178,7195,7212,7228,7245,7262,7277,7294,7312,7328,7345,7362,7378,7395,7411,7428,7445,7462,7478,7495,7512,7528,7544,7562,7578,7595,7612,7628,7645,7661,7678,7695,7712,7728,7745,7762,7778,7795,7812,7828,7844,7862,7878,7894,7911,7928,7945,7961,7978,7994,8012,8028,8045,8062,8078,8095,8112,8128,8145,8161,8178,8195,8212,8228,8245,8262,8278,8294,8312,8328,8345,8362,8378,8395,8412,8428,8445,8462,8479,8495,8512,8528,8545,8562,8578,8595,8612,8628,8645,8662,8678,8695,8711,8728,8743,8761,8777,8794,8811,8828,8845,8861,8878,8895,8911,8928,8945,8961,8978,8995,9012,9028,9045,9062,9078,9094,9112,9128,9144,9162,9178,9195,9212,9228,9245,9262,9278,9295,9312,9329,9345,9362,9378,9395,9412,9428,9444,9462,9478,9494,9511,9528,9545,9561,9578,9595,9611,9628,9644,9661,9678,9695,9711,9728,9745,9762,9778,9795,9812,9828,9845,9862,9878,9895,9912,9928,9945,9961,9978,9995,10012,10028,10045,10062,10078,10095,10112,10128,10145,10161,10178,10195,10212,10227,10244,10262,10278,10294,10312,10328,10345,10362,10378,10395,10412,10428,10445,10462,10478,10495,10512,10528,10545,10562,10578,10595,10612,10628,10645,10662,10678,10694,10711,10728,10744,10761,10778,10795,10811,10828,10845,10862,10878,10895,10911,10928,10945,10961,10978,10994,11011,11028,11044,11061,11078,11095,11111,11128,11145,11161,11178,11195,11212,11227,11244,11262,11278,11294,11312,11329,11344,11361,11378,11395,11411,11428,11444,11462,11478,11495,11511,11528,11544,11561,11578,11594,11611,11628,11645,11662,11677,11694,11712,11728,11744,11762,11778,11795,11812,11828,11844,11862,11878,11895,11912,11928,11945,11961,11977,11994,12011,12027,12044,12060,12077,12094,12110,12127,12144,12161,12177,12194,12210,12227,12244,12261,12277,12295,12311,12328,12345,12362,12378,12394,12412,12428,12445,12462,12478,12495,12512,12528,12545,12562,12578,12595,12612,12628,12645,12662,12678,12695,12712,12729,12744,12762,12779,12795,12812,12828,12845,12862,12878,12895,12912,12928,12945,12961,12978,12994,13011,13028,13044,13062,13078,13095,13112,13128,13145,13162,13178,13194,13212,13229,13245,13262,13278,13294,13312,13328,13345,13362,13379,13395,13412,13428,13444,13462,13479,13495,13512,13528,13545,13562,13578,13595,13612,13629,13645,13661,13678,13694,13712,13728,13745,13762,13778,13795,13811,13828,13845,13862,13878,13895,13912,13928,13945,13960,13978,13994,14012,14029,14045,14061,14079,14095,14111,14128,14145,14162,14178,14195,14212,14228,14245,14262,14278,14295,14311,14328,14345,14362,14379,14394,14411,14428,14445,14462,14478,14495,14512,14528,14544,14562,14578,14595,14612,14628,14645,14662,14678,14694,14712,14728,14745,14762,14778,14795,14812,14828,14845,14862,14878,14895,14912,14928,14944,14961,14978,14995,15012,15031,15044,15062,15078,15094,15111,15128,15145,15162,15179,15195,15212,15228,15245,15262,15278,15295,15312,15328,15344,15362,15378,15395,15412,15428,15445,15462,15477,15494,15512,15528,15545,15562,15578,15594,15611,15628,15645,15662,15679,15695,15712,15728,15744,15762,15779,15795,15812,15828,15845,15862,15879,15894,15912,15928,15944,15961,15978,15995,16012,16028,16045,16062,16078,16095,16112,16128,16145,16162,16178,16195,16212,16229,16245,16262,16278,16294,16312,16328,16345,16362,16379,16395,16412,16428,16445,16462,16478,16494,16512,16529,16545,16562,16579,16595,16612,16628,16645,16662,16678,16694,16712,16728,16744,16762,16778,16795,16812,16829,16845,16862,16878,16895,16912,16929,16945,16961,16978,16994,17012,17028,17045,17062,17078,17095,17112,17129,17145,17162,17178,17195,17212,17228,17245,17262,17278,17295,17312,17328,17345,17362,17378,17395,17412,17429,17445,17462,17478,17495,17512,17528,17544,17562,17578,17595,17612,17629,17645,17661,17678,17695,17712,17728,17745,17762,17779,17795,17812,17828,17845,17862,17878,17895,17912,17929,17944,17961,17978,17995,18011,18028,18045,18062,18079,18095,18112,18128,18145,18162,18178,18195,18212,18229,18245,18260,18278,18294,18311,18327,18344,18361,18377,18394,18411,18428,18445,18462,18478,18495,18512,18528,18545,18562,18579,18595,18611,18629,18645,18662,18679,18695,18712,18728,18744,18762,18778,18795,18812,18828,18845,18862,18878,18894,18912,18928,18945,18962,18978,18995,19011,19029,19045,19062,19079,19095,19112,19128,19145,19162,19179,19195,19212,19228,19245,19262,19279,19293,19311,19328,19345,19362,19378,19395,19412,19429,19444,19462,19479,19494,19512,19529,19545,19562,19578,19594,19612,19628,19644,19662,19679,19695,19712,19729,19744,19762,19779,19795,19812,19829,19845,19862,19878,19895,19912,19929,19944,19961,19979,19995,20012,20029,20045,20062,20079,20095,20112,20128,20145,20162,20179,20196,20211,20228,20245,20262,20278,20295,20312,20328,20344,20362,20378,20394,20412,20429,20445,20462,20478,20496,20512,20529,20544,20562,20578,20595,20612,20629,20644,20662,20679,20695,20712,20729,20745,20762,20778,20795,20812,20829,20844,20862,20879,20895,20912,20929,20945,20962,20979,20994,21012,21029,21046,21062,21079,21095,21112,21129,21145,21162,21179,21195,21212,21229,21245,21262,21279,21295,21312,21329,21345,21362,21379,21395,21412,21429,21445,21462,21479,21496,21512,21528,21545,21562,21579,21595,21612,21628,21645,21661,21678,21695,21712,21729,21745,21762,21778,21795,21812,21828,21845,21862,21879,21895,21912,21929,21945,21961,21978,21995,22011,22028,22045,22061,22079,22095,22112,22128,22146,22162,22178,22195,22212,22229,22244,22262,22279,22294,22312,22329,22345,22362,22379,22395,22412,22429,22445,22462,22479,22495,22512,22529,22544,22562,22579,22595,22612,22629,22646,22662,22679,22696,22712,22729,22745,22762,22779,22795,22812,22828,22845,22862,22878,22895,22912,22929,22945,22962,22978,22995,23012,23028,23045,23062,23080,23094,23111,23129,23145,23162,23179,23195,23212,23228,23245,23262,23279,23295,23312,23329,23345,23362,23379,23396,23411,23429,23445,23462,23479,23496,23513,23529,23545,23562,23579,23595,23612,23629,23645,23662,23679,23695,23712,23729,23745,23762,23779,23796,23812,23829,23844,23862,23879,23895,23913,23928,23945,23961,23979,23996,24012,24029,24045,24062,24079,24095,24113,24129,24145,24162,24179,24196,24212,24229,24245,24262,24279,24296,24311,24329,24345,24362,24379,24395,24412,24429,24446,24462,24479,24495,24512,24529,24545,24562,24579,24596,24612,24629,24645,24662,24679,24696,24712,24729,24746,24762,24779,24795,24812,24829,24846,24862,24879,24895,24912,24929,24945,24962,24979,24995,25012,25029,25045,25062,25079,25095,25112,25129,25145,25162,25179,25195,25211,25228,25245,25262,25279,25295,25312,25329,25345,25362,25379,25395,25412,25429,25445,25462,25479,25495,25512,25529,25545,25562,25578,25595,25612,25629,25645,25662,25678,25695,25711,25728,25746,25762,25778,25795,25812,25829,25845,25862,25878,25895,25911,25928,25945,25962,25978,25996,26012,26028,26045,26062,26079,26095,26112,26130,26144,26162,26178,26195,26212,26228,26245,26262,26279,26295,26312,26329,26345,26362,26379,26396,26412,26429,26446,26462,26479,26496,26512,26529,26546,26562,26579,26595,26612,26629,26645,26662,26679,26695,26712,26729,26745,26762,26779,26795,26812,26829,26845,26862,26878,26896,26912,26929,26946,26962,26979,26995,27012,27029,27045,27062,27079,27096,27112,27129,27145,27162,27178,27194,27212,27228,27246,27262,27278,27296,27312,27328,27345,27362,27379,27395,27412,27428,27446,27462,27478,27495,27512,27529,27545,27562,27579,27595,27612,27629,27645,27662,27679,27695,27712,27729,27745,27762,27779,27795,27812,27829,27845,27862,27879,27895,27912,27929,27945,27962,27979,27995,28012,28029,28045,28062,28079,28095,28112,28128,28145,28162,28178,28195,28212,28229,28245,28262,28279,28295,28312,28329,28345,28362,28379,28395,28412,28428,28445,28462,28479,28496,28512,28529,28545,28562,28579,28596,28612,28629,28645,28662,28679,28695,28712,28729,28745,28761,28778,28795,28812,28829,28844,28862,28879,28895,28912,28929,28946,28962,28979,28996,29012,29029,29046,29062,29079,29096,29112,29129,29145,29162,29179,29196,29212,29229,29246,29262,29279,29296,29312,29328,29346,29362,29379,29395,29412,29429,29445,29462,29478,29496,29512,29529,29546,29562,29579,29595,29612,29629,29645,29662,29678,29696,29712,29729,29745,29762,29779,29795,29812,29829,29845,29863,29879,29895,29912,29929,29945,29962,29979,29995,30012,30029,30046,30062,30079,30095,30112,30129,30145,30162,30178,30195,30212,30229,30245,30262,30279,30295,30313,30329,30345,30362,30379,30395,30413,30429,30445,30462,30479,30495,30512,30529,30546,30562,30579,30596,30612,30629,30646,30662,30679,30695,30712,30729,30746,30762,30779,30796,30812,30829,30846,30862,30879,30896,30912,30929,30946,30961,30979,30995,31012,31029,31045,31062,31079,31095,31112,31129,31145,31162,31179,31195,31212,31229,31246,31262,31279,31296,31312,31329,31346,31362,31379,31395,31412,31429,31445,31462,31479,31495,31512,31529,31545,31563,31579,31596,31612,31628,31645,31662,31679,31695,31713,31729,31746,31762,31779,31795,31812,31829,31845,31863,31879,31896,31912,31929,31945,31962,31979,31995,32012,32028,32045,32062,32079,32095,32112,32129,32145,32162,32179,32196,32211,32229,32246,32262,32279,32296,32312,32329,32345,32363,32379,32396,32411,32429,32445,32462,32479,32495,32512,32529,32545,32562,32579,32595,32612,32629,32645,32662,32679,32695,32712,32729,32746,32762,32779,32795,32812,32829,32845,32862,32879,32896,32912,32929,32946,32962,32979,32995,33013,33030,33045,33062,33079,33096,33112,33129,33145,33162,33179,33196,33213,33229,33245,33263,33279,33296,33312,33329,33346,33362,33379,33396,33412,33429,33446,33463,33479,33495,33512,33529,33545,33563,33578,33595,33612,33628,33646,33662,33679,33695,33712,33729,33745,33762,33779,33794,33812,33828,33845,33862,33879,33895,33912,33929,33946,33962,33979,33996,34013,34029,34046,34063,34080,34096,34113,34129,34146,34163,34179,34195,34213,34229,34246,34263,34279,34296,34313,34329,34346,34363,34379,34396,34413,34429,34446,34462,34479,34495,34512,34529,34545,34562,34579,34596,34613,34629,34646,34662,34679,34696,34712,34729,34746,34763,34778,34796,34812,34829,34846,34862,34879,34896,34912,34929,34946,34962,34979,34996,35012,35029,35050,35062,35079,35096,35112,35129,35146,35162,35179,35196,35213,35229,35246,35262,35279,35296,35312,35329,35346,35362,35379,35396,35412,35429,35446,35462,35479,35496,35513,35529,35546,35562,35579,35596,35612,35629,35645,35662,35679,35696,35713,35729,35746,35763,35779,35796,35812,35829,35846,35863,35879,35896,35913,35928,35945,35962,35979,35996,36013,36029,36045,36063,36079,36096,36112,36129,36146,36162,36179,36196,36212,36229,36246,36263,36279,36296,36313,36329,36346,36363,36379,36396,36413,36430,36445,36463,36479,36496,36512,36529,36546,36563,36579,36596,36613,36629,36645,36663,36679,36696,36712,36729,36746,36763,36779,36796,36813,36830,36846,36863,36879,36896,36913,36929,36946,36962,36979,36996,37013,37030,37046,37063,37079,37096,37113,37130,37146,37163,37179,37196,37213,37229,37246,37262,37279,37296,37313,37330,37346,37362,37379,37395,37412,37429,37445,37463,37479,37496,37512,37529,37546,37563,37579,37596,37612,37629,37646,37663,37679,37696,37713,37729,37746,37762,37780,37796,37813,37830,37845,37863,37879,37896,37912,37929,37946,37962,37979,37996,38013,38028,38046,38062,38079,38096,38112,38129,38145,38162,38179,38196,38212,38229,38246,38262,38279,38296,38313,38329,38346,38363,38379,38396,38413,38429,38446,38463,38479,38496,38512,38529,38546,38563,38579,38596,38613,38629,38646,38663,38679,38696,38713,38729,38746,38763,38780,38795,38812,38829,38846,38863,38879,38896,38913,38929,38946,38962,38979,38996,39013,39029,39046,39063,39079,39096,39113,39129,39146,39163,39179,39196,39212,39229,39246,39263,39279,39296,39312,39329,39346,39362,39379,39396,39412,39428,39445,39462,39479,39496,39512,39529,39545,39563,39579,39596,39613,39629,39645,39662,39679,39696,39713,39729,39746,39763,39779,39796,39813,39829,39846,39863,39879,39896,39913,39929,39946,39962,39979,39996,40013,40029,40046,40063,40079,40096,40113,40128,40146,40163,40180,40195,40212,40229,40246,40263,40279,40296,40313,40329,40346,40363,40379,40396,40413,40429,40446,40462,40479,40496,40512,40529,40546,40563,40579,40596,40613,40629,40646,40663,40680,40696,40713,40729,40745,40763,40779,40796,40813,40829,40846,40863,40879,40896,40913,40929,40945,40962,40979,40996,41013,41029,41045,41063,41079,41096,41112,41130,41146,41163,41180,41195,41213,41229,41246,41263,41280,41296,41313,41330,41346,41363,41379,41396,41413,41430,41446,41463,41480,41496,41513,41530,41546,41563,41580,41596,41612,41629,41646,41663,41679,41696,41713,41729,41746,41763,41779,41796,41813,41829,41846,41863,41879,41896,41912,41929,41946,41962,41979,41996,42013,42029,42046,42063,42079,42096,42113,42129,42146,42163,42180,42196,42213,42229,42246,42263,42279,42296,42313,42329,42347,42363,42378,42396,42413,42429,42446,42463,42479,42496,42513,42529,42546,42563,42579,42596,42612,42629,42646,42663,42679,42696,42712,42729,42746,42763,42779,42796,42813,42830,42846,42863,42879,42896,42913,42929,42946,42963,42979,42996,43012,43029,43046,43063,43079,43096,43113,43129,43146,43163,43180,43196,43213,43229,43246,43263,43280,43296,43313,43329,43346,43363,43379,43396,43413,43429,43446,43462,43478,43496,43512,43529,43546,43563,43580,43596,43612,43629,43646,43662,43679,43695,43712,43728,43745,43762,43778,43795,43812,43829,43846,43863,43880,43896,43913,43929,43946,43962,43979,43996,44013,44029,44047,44063,44080,44097,44113,44130,44146,44163,44179,44196,44212,44230,44245,44263,44280,44296,44312,44329,44346,44362,44379,44396,44412,44429,44446,44463,44479,44496,44513,44530,44547,44563,44579,44595,44613,44630,44646,44663,44680,44696,44713,44729,44746,44762,44780,44796,44813,44830,44846,44863,44879,44896,44913,44930,44946,44963,44980,44997,45012,45029,45046,45063,45079,45096,45113,45130,45146,45163,45180,45196,45213,45230,45246,45263,45280,45296,45313,45330,45346,45363,45380,45396,45413,45430,45446,45463,45480,45497,45512,45530,45546,45563,45579,45596,45613,45629,45646,45662,45680,45696,45713,45729,45746,45764,45779,45796,45812,45829,45846,45863,45879,45896,45912,45930,45946,45962,45979,45995,46012,46029,46045,46062,46079,46096,46112,46129,46146,46163,46180,46196,46213,46229,46247,46262,46280,46295,46313,46330,46346,46362,46380,46396,46412,46429,46446,46463,46480,46496,46513,46529,46547,46562,46579,46597,46612,46629,46646,46663,46679,46696,46713,46729,46746,46763,46780,46796,46813,46830,46846,46863,46880,46896,46913,46930,46947,46963,46980,46996,47013,47029,47046,47063,47079,47096,47112,47129,47145,47162,47179,47196,47212,47230,47246,47262,47279,47297,47313,47329,47346,47362,47380,47396,47412,47429,47447,47463,47478,47496,47513,47529,47546,47563,47580,47596,47612,47629,47646,47663,47680,47697,47713,47730,47746,47763,47779,47796,47813,47829,47846,47863,47880,47897,47913,47930,47946,47963,47979,47996,48013,48030,48046,48062,48079,48096,48113,48130,48146,48162,48180,48196,48212,48229,48246,48262,48279,48296,48312,48329,48346,48363,48380,48395,48412,48429,48446,48463,48480,48496,48513,48530,48547,48563,48580,48596,48613,48629,48646,48662,48679,48696,48713,48729,48746,48763,48780,48796,48813,48829,48846,48863,48880,48896,48913,48930,48945,48963,48979,48996,49013,49029,49047,49063,49080,49096,49113,49129,49151,49163,49179,49196,49213,49230,49246,49263,49280,49297,49313,49330,49347,49364,49380,49396,49413,49430,49447,49463,49480,49497,49513,49529,49547,49563,49580,49597,49613,49630,49647,49663,49680,49697,49712,49729,49746,49763,49780,49797,49813,49830,49847,49863,49880,49897,49913,49930,49947,49963,49980,49996,50013,50029,50047,50063,50080,50097,50113,50130,50147,50163,50180,50196,50213,50230,50247,50263,50280,50296,50313,50330,50347,50363,50380,50397,50413,50430,50447,50463,50480,50496,50513,50530,50546,50563,50580,50597,50613,50630,50646,50663,50680,50696,50713,50730,50747,50763,50780,50796,50813,50830,50846,50863,50880,50896,50913,50930,50947,50962,50980,50997,51014,51029,51046,51065,51079,51097,51113,51130,51149],"hit":[null],"x":[-1.8775510204081634,-1.8775510204081634,-1.8775510204081634,-1.8775510204081634,-1.8775510204081634,-1.8775510204081634,-1.8775510204081634,-1.8775510204081634,-1.8775510204081634,-1.8775510204081634,-1.8775510204081634,-1.8775510204081634,-1.8775510204081634,-1.8775510204081634,-1.8775510204081634,-1.8775510204081634,-1.8775510204081634,-1.8775510204081634,-1.8775510204081634,-1.8775510204081634,-1.8775510204081634,-1.8775510204081634,-1.8775510204081634,-1.8775510204081634,-1.8775510204081634,-1.8775510204081634,-1.8775510204081634,-1.8775510204081634,-1.8775510204081634,-1.8775510204081634,-1.8775510204081634,-1.8775510204081634,-1.8775510204081634,-1.8775510204081634,-1.8775510204081634,-1.8775510204081634,-1.8775510204081634,-1.8775510204081634,-1.8775510204081634,-1.8775510204081634,-1.8775510204081634,-1.8775510204081634,-1.8775510204081634,-1.8775510204081634,-1.8775510204081634,-1.8775510204081634,-1.8775510204081634,-1.8775510204081634,-1.8775510204081634,-1.8775510204081634,-1.8775510204081634,-1.8775510204081634,-1.8775510204081634,-1.8775510204081634,-1.8775510204081634,-1.8775510204081634,-1.8775510204081634,-1.8775510204081634,-1.8775510204081634,-1.8775510204081634,-1.8775510204081634,-1.8775510204081634,-1.8775510204081634,-1.8775510204081634,-1.8775510204081634,-1.8775510204081634,-1.8775510204081634,-1.8775510204081634,-1.8775510204081634,-1.8775510204081634,-1.8775510204081634,-1.8775510204081634,-1.8775510204081634,-1.8775510204081634,-1.8775510204081634,-1.8775510204081634,-1.8775510204081634,-1.8775510204081634,-1.8775510204081634,-1.8775510204081634,-1.8775510204081634,-1.8775510204081634,-1.8775510204081634,-1.8775510204081634,-1.8775510204081634,-1.8775510204081634,-1.8775510204081634,-1.8775510204081634,-1.8775510204081634,-1.8775510204081634,-1.8775510204081634,-1.8775510204081634,-1.8775510204081634,-1.8775510204081634,-1.8775510204081634,-1.8775510204081634,-1.8775510204081634,-1.8775510204081634,-1.8775510204081634,-1.8775510204081634,-1.8775510204081634,-1.8775510204081634,-1.8775510204081634,-1.8775510204081634,-1.8775510204081634,-1.8775510204081634,-1.8775510204081634,-1.8775510204081634,-1.8775510204081634,-1.8775510204081634,-1.8775510204081634,-1.8775510204081634,-1.8775510204081634,-1.8775510204081634,-1.8775510204081634,-1.8775510204081634,-1.8775510204081634,-1.8775510204081634,-1.8775510204081634,-1.8775510204081634,-1.8775510204081634,-1.8775510204081634,-1.8775510204081634,-1.8775510204081634,-1.8775510204081634,-1.8775510204081634,-1.8775510204081634,-1.8775510204081634,-1.8775510204081634,-1.8775510204081634,-1.8775510204081634,-1.8775510204081634,-1.8775510204081634,-1.8775510204081634,-1.8775510204081634,-1.8775510204081634,-1.8775510204081634,-1.8775510204081634,-1.8775510204081634,-1.8775510204081634,-1.8775510204081634,-1.8775510204081634,0.05102040816326531,0.07142857142857142,0.08163265306122448,0.08843537414965986,0.09863945578231292,0.11224489795918367,0.1292517006802721,0.13945578231292516,0.1564625850340136,0.16666666666666666,0.17006802721088435,0.17346938775510204,0.18027210884353742,0.18027210884353742,0.1836734693877551,0.1870748299319728,0.19047619047619047,0.19047619047619047,0.19387755102040816,0.19387755102040816,0.19387755102040816,0.19387755102040816,0.19387755102040816,0.19387755102040816,0.19387755102040816,0.19387755102040816,0.19387755102040816,0.19387755102040816,0.19387755102040816,0.19387755102040816,0.19387755102040816,0.19387755102040816,0.19387755102040816,0.19387755102040816,0.19387755102040816,0.19387755102040816,0.19387755102040816,0.19387755102040816,0.19387755102040816,0.19387755102040816,0.19387755102040816,0.19387755102040816,0.19387755102040816,0.19387755102040816,0.19387755102040816,0.19387755102040816,0.19387755102040816,0.19387755102040816,0.19387755102040816,0.19387755102040816,0.19387755102040816,0.19387755102040816,0.19387755102040816,0.19387755102040816,0.19387755102040816,0.19387755102040816,0.19387755102040816,0.19387755102040816,0.19387755102040816,0.19387755102040816,0.19387755102040816,0.19387755102040816,0.20408163265306123,0.2653061224489796,0.3435374149659864,0.4217687074829932,0.6428571428571429,0.8197278911564626,0.9387755102040817,1.0272108843537415,1.08843537414966,1.08843537414966,1.08843537414966,1.08843537414966,1.08843537414966,1.08843537414966,1.08843537414966,1.08843537414966,1.08843537414966,1.08843537414966,1.08843537414966,1.08843537414966,1.08843537414966,1.08843537414966,1.0850340136054422,1.0748299319727892,1.0612244897959184,1.0476190476190477,1.0408163265306123,1.034013605442177,1.030612244897959,1.0272108843537415,1.0238095238095237,1.0204081632653061,1.0136054421768708,1.010204081632653,1.010204081632653,1.010204081632653,1.010204081632653,1.010204081632653,1.010204081632653,1.010204081632653,1.010204081632653,1.010204081632653,1.010204081632653,1.010204081632653,1.010204081632653,1.010204081632653,0.9931972789115646,0.9795918367346939,0.95578231292517,0.8537414965986394,0.7789115646258503,0.7210884353741497,0.6836734693877551,0.6428571428571429,0.6156462585034014,0.5884353741496599,0.5748299319727891,0.5578231292517006,0.5408163265306123,0.5340136054421769,0.5238095238095238,0.5170068027210885,0.5136054421768708,0.5102040816326531,0.5068027210884354,0.5068027210884354,0.5068027210884354,0.5068027210884354,0.5068027210884354,0.5170068027210885,0.5612244897959183,0.6292517006802721,0.717687074829932,0.782312925170068,0.8503401360544217,0.8877551020408163,0.9183673469387755,0.9387755102040817,0.9421768707482994,0.9455782312925171,0.9455782312925171,0.9455782312925171,0.9455782312925171,0.9455782312925171,0.9455782312925171,0.9421768707482994,0.9421768707482994,0.9387755102040817,0.9387755102040817,0.935374149659864,0.9251700680272109,0.9149659863945578,0.8979591836734694,0.8775510204081632,0.8435374149659864,0.8061224489795918,0.7482993197278912,0.6836734693877551,0.5986394557823129,0.445578231292517,0.3435374149659864,0.24829931972789115,0.1598639455782313,0.09183673469387756,0.06802721088435375,0.05442176870748299,0.05102040816326531,0.05102040816326531,0.05102040816326531,0.05102040816326531,0.05442176870748299,0.061224489795918366,0.06462585034013606,0.07142857142857142,0.07482993197278912,0.08843537414965986,0.09863945578231292,0.1054421768707483,0.11224489795918367,0.11904761904761904,0.11904761904761904,0.12244897959183673,0.12244897959183673,0.12244897959183673,0.12244897959183673,0.11564625850340136,0.11224489795918367,0.1054421768707483,0.09523809523809523,0.0782312925170068,0.06462585034013606,0.05102040816326531,0.04081632653061224,0.030612244897959183,0.023809523809523808,0.017006802721088437,0.013605442176870748,0.01020408163265306,0.006802721088435374,0.006802721088435374,0.003401360544217687,0.003401360544217687,0.003401360544217687,0.003401360544217687,0.003401360544217687,0.003401360544217687,0.003401360544217687,0.003401360544217687,0.003401360544217687,0.003401360544217687,0.003401360544217687,0.003401360544217687,0.003401360544217687,0.003401360544217687,0.003401360544217687,0.003401360544217687,0.003401360544217687,0.003401360544217687,0.003401360544217687,0.003401360544217687,0.003401360544217687,0.003401360544217687,0.003401360544217687,0.003401360544217687,0.003401360544217687,0.003401360544217687,0.003401360544217687,0.003401360544217687,0.006802721088435374,0.05102040816326531,0.1326530612244898,0.2653061224489796,0.5986394557823129,0.8673469387755102,1.1768707482993197,1.3231292517006803,1.4251700680272108,1.4251700680272108,1.4251700680272108,1.4251700680272108,1.4251700680272108,1.4251700680272108,1.4251700680272108,1.4251700680272108,1.4251700680272108,1.4251700680272108,1.4251700680272108,1.4251700680272108,1.4251700680272108,1.4251700680272108,1.4251700680272108,1.4251700680272108,1.4251700680272108,1.4251700680272108,1.4251700680272108,1.4251700680272108,1.4251700680272108,1.4251700680272108,1.4251700680272108,1.4251700680272108,1.4251700680272108,1.4251700680272108,1.4251700680272108,1.4251700680272108,1.4251700680272108,1.4251700680272108,1.4251700680272108,1.4251700680272108,1.4251700680272108,1.4251700680272108,1.4251700680272108,1.4251700680272108,1.4251700680272108,1.4251700680272108,1.4251700680272108,1.4251700680272108,1.4251700680272108,1.4251700680272108,1.4251700680272108,1.4251700680272108,1.4251700680272108,1.4251700680272108,1.4251700680272108,1.4251700680272108,1.4251700680272108,1.4251700680272108,1.4251700680272108,1.4251700680272108,1.4251700680272108,1.4251700680272108,1.4251700680272108,1.4251700680272108,1.4251700680272108,1.4251700680272108,1.4251700680272108,1.4251700680272108,1.4251700680272108,1.4251700680272108,1.4251700680272108,1.4251700680272108,1.4251700680272108,1.4251700680272108,1.4251700680272108,1.4251700680272108,1.4251700680272108,1.4251700680272108,1.4251700680272108,1.4251700680272108,1.4251700680272108,1.4251700680272108,1.4251700680272108,1.4251700680272108,1.4251700680272108,1.4251700680272108,1.4251700680272108,1.4251700680272108,1.4251700680272108,1.4251700680272108,1.4251700680272108,1.4251700680272108,1.4251700680272108,1.4251700680272108,1.4251700680272108,1.4251700680272108,1.4251700680272108,1.4251700680272108,1.4251700680272108,1.4251700680272108,1.4251700680272108,1.4251700680272108,1.4251700680272108,1.4251700680272108,1.4251700680272108,1.4251700680272108,1.4251700680272108,1.4251700680272108,1.4251700680272108,1.4251700680272108,1.4251700680272108,1.4251700680272108,1.4251700680272108,1.4251700680272108,1.4251700680272108,1.4251700680272108,1.4251700680272108,1.4251700680272108,1.4251700680272108,1.4251700680272108,1.4251700680272108,1.4251700680272108,1.4251700680272108,1.4251700680272108,1.4251700680272108,1.4251700680272108,1.4251700680272108,1.4251700680272108,1.4251700680272108,1.4251700680272108,1.4251700680272108,1.4251700680272108,1.4251700680272108,1.4251700680272108,1.4251700680272108,1.4251700680272108,1.4251700680272108,1.4251700680272108,1.4251700680272108,1.4251700680272108,1.4251700680272108,1.4251700680272108,1.4251700680272108,1.4251700680272108,1.4251700680272108,1.4251700680272108,1.4251700680272108,1.4251700680272108,1.4251700680272108,1.4251700680272108,1.4251700680272108,1.4251700680272108,1.4251700680272108,1.4251700680272108,1.4251700680272108,1.4251700680272108,1.4251700680272108,1.4251700680272108,1.4251700680272108,1.4251700680272108,1.4251700680272108,1.4251700680272108,1.4251700680272108,1.4251700680272108,1.4251700680272108,1.4251700680272108,1.4251700680272108,1.4251700680272108,1.4251700680272108,1.4251700680272108,1.4251700680272108,1.4251700680272108,1.4251700680272108,1.4251700680272108,1.4251700680272108,1.4251700680272108,1.4251700680272108,1.4251700680272108,1.4251700680272108,1.4251700680272108,1.4251700680272108,1.4251700680272108,1.4183673469387754,1.3979591836734695,1.370748299319728,1.3095238095238095,1.227891156462585,1.1326530612244898,1.0680272108843538,0.9965986394557823,0.9319727891156463,0.8945578231292517,0.8945578231292517,0.8945578231292517,0.8945578231292517,0.8945578231292517,0.8945578231292517,0.8945578231292517,0.8945578231292517,0.8945578231292517,0.8945578231292517,0.8945578231292517,0.8945578231292517,0.8945578231292517,0.8945578231292517,0.8945578231292517,0.8945578231292517,0.8945578231292517,0.8945578231292517,0.8945578231292517,0.8945578231292517,0.8945578231292517,0.8945578231292517,0.8945578231292517,0.8945578231292517,0.8945578231292517,0.8945578231292517,0.8945578231292517,0.8945578231292517,0.8945578231292517,0.8945578231292517,0.8945578231292517,0.8945578231292517,0.8945578231292517,0.8945578231292517,0.8945578231292517,0.8945578231292517,0.8945578231292517,0.8945578231292517,0.8945578231292517,0.8945578231292517,0.8945578231292517,0.8945578231292517,0.8945578231292517,0.8945578231292517,0.8945578231292517,0.8945578231292517,0.8945578231292517,0.8945578231292517,0.8945578231292517,0.8945578231292517,0.8945578231292517,0.8945578231292517,0.8945578231292517,0.8945578231292517,0.8945578231292517,0.8945578231292517,0.8945578231292517,0.8945578231292517,0.8945578231292517,0.8945578231292517,0.8945578231292517,0.8945578231292517,0.8843537414965986,0.8707482993197279,0.8197278911564626,0.7721088435374149,0.7278911564625851,0.6836734693877551,0.6598639455782312,0.6428571428571429,0.6292517006802721,0.6258503401360545,0.6258503401360545,0.6224489795918368,0.6224489795918368,0.6224489795918368,0.6190476190476191,0.6190476190476191,0.6122448979591837,0.608843537414966,0.6020408163265306,0.5986394557823129,0.5986394557823129,0.5986394557823129,0.5986394557823129,0.5986394557823129,0.5986394557823129,0.6054421768707483,0.6190476190476191,0.6462585034013606,0.6904761904761905,0.7108843537414966,0.7278911564625851,0.7414965986394558,0.7482993197278912,0.7551020408163265,0.7551020408163265,0.7619047619047619,0.7687074829931972,0.7755102040816326,0.7857142857142857,0.7959183673469388,0.8027210884353742,0.8095238095238095,0.8095238095238095,0.8095238095238095,0.8095238095238095,0.8095238095238095,0.8027210884353742,0.7959183673469388,0.7857142857142857,0.7755102040816326,0.7653061224489796,0.7585034013605442,0.7482993197278912,0.7414965986394558,0.7346938775510204,0.7312925170068028,0.7278911564625851,0.7244897959183674,0.7244897959183674,0.7244897959183674,0.7244897959183674,0.7210884353741497,0.7210884353741497,0.717687074829932,0.717687074829932,0.717687074829932,0.717687074829932,0.717687074829932,0.717687074829932,0.717687074829932,0.717687074829932,0.717687074829932,0.717687074829932,0.717687074829932,0.717687074829932,0.717687074829932,0.717687074829932,0.717687074829932,0.717687074829932,0.717687074829932,0.717687074829932,0.717687074829932,0.717687074829932,0.717687074829932,0.717687074829932,0.717687074829932,0.717687074829932,0.717687074829932,0.717687074829932,0.717687074829932,0.717687074829932,0.717687074829932,0.717687074829932,0.717687074829932,0.717687074829932,0.717687074829932,0.717687074829932,0.717687074829932,0.717687074829932,0.717687074829932,0.717687074829932,0.717687074829932,0.717687074829932,0.717687074829932,0.717687074829932,0.717687074829932,0.717687074829932,0.717687074829932,0.717687074829932,0.717687074829932,0.717687074829932,0.717687074829932,0.717687074829932,0.717687074829932,0.717687074829932,0.717687074829932,0.717687074829932,0.717687074829932,0.717687074829932,0.717687074829932,0.717687074829932,0.717687074829932,0.717687074829932,0.717687074829932,0.717687074829932,0.717687074829932,0.717687074829932,0.717687074829932,0.717687074829932,0.717687074829932,0.717687074829932,0.717687074829932,0.717687074829932,0.717687074829932,0.717687074829932,0.717687074829932,0.717687074829932,0.717687074829932,0.717687074829932,0.717687074829932,0.717687074829932,0.717687074829932,0.717687074829932,0.717687074829932,0.717687074829932,0.717687074829932,0.717687074829932,0.717687074829932,0.717687074829932,0.717687074829932,0.717687074829932,0.717687074829932,0.717687074829932,0.717687074829932,0.717687074829932,0.717687074829932,0.717687074829932,0.717687074829932,0.717687074829932,0.717687074829932,0.717687074829932,0.717687074829932,0.717687074829932,0.717687074829932,0.717687074829932,0.717687074829932,0.717687074829932,0.717687074829932,0.717687074829932,0.717687074829932,0.717687074829932,0.717687074829932,0.717687074829932,0.717687074829932,0.717687074829932,0.717687074829932,0.717687074829932,0.717687074829932,0.717687074829932,0.717687074829932,0.717687074829932,0.717687074829932,0.717687074829932,0.717687074829932,0.717687074829932,0.717687074829932,0.717687074829932,0.717687074829932,0.717687074829932,0.717687074829932,0.717687074829932,0.717687074829932,0.717687074829932,0.717687074829932,0.717687074829932,0.717687074829932,0.717687074829932,0.717687074829932,0.717687074829932,0.717687074829932,0.717687074829932,0.717687074829932,0.717687074829932,0.717687074829932,0.717687074829932,0.717687074829932,0.717687074829932,0.717687074829932,0.7142857142857143,0.7108843537414966,0.7074829931972789,0.7074829931972789,0.7074829931972789,0.7074829931972789,0.7074829931972789,0.7074829931972789,0.7074829931972789,0.7074829931972789,0.7074829931972789,0.7074829931972789,0.7074829931972789,0.7074829931972789,0.7074829931972789,0.7074829931972789,0.7074829931972789,0.7074829931972789,0.7074829931972789,0.7074829931972789,0.7074829931972789,0.7074829931972789,0.7074829931972789,0.7074829931972789,0.7074829931972789,0.7074829931972789,0.7074829931972789,0.7074829931972789,0.7074829931972789,0.7074829931972789,0.7074829931972789,0.7074829931972789,0.7074829931972789,0.7074829931972789,0.7074829931972789,0.7074829931972789,0.7074829931972789,0.7074829931972789,0.7074829931972789,0.7074829931972789,0.7074829931972789,0.7074829931972789,0.7074829931972789,0.7074829931972789,0.7074829931972789,0.7074829931972789,0.7074829931972789,0.7074829931972789,0.7074829931972789,0.7074829931972789,0.7074829931972789,0.7074829931972789,0.7074829931972789,0.7074829931972789,0.7074829931972789,0.7074829931972789,0.7074829931972789,0.7074829931972789,0.7074829931972789,0.7074829931972789,0.7074829931972789,0.7074829931972789,0.7074829931972789,0.7074829931972789,0.7074829931972789,0.7074829931972789,0.7074829931972789,0.7074829931972789,0.7074829931972789,0.7074829931972789,0.7074829931972789,0.7074829931972789,0.7074829931972789,0.7074829931972789,0.7074829931972789,0.7074829931972789,0.7074829931972789,0.7074829931972789,0.7074829931972789,0.7074829931972789,0.7074829931972789,0.7074829931972789,0.7074829931972789,0.7074829931972789,0.7074829931972789,0.7074829931972789,0.7074829931972789,0.7074829931972789,0.7074829931972789,0.7074829931972789,0.7074829931972789,0.7074829931972789,0.7074829931972789,0.7074829931972789,0.7074829931972789,0.7074829931972789,0.7074829931972789,0.7074829931972789,0.7074829931972789,0.7074829931972789,0.7074829931972789,0.7074829931972789,0.7074829931972789,0.7074829931972789,0.7074829931972789,0.7074829931972789,0.7074829931972789,0.7074829931972789,0.7074829931972789,0.7074829931972789,0.7074829931972789,0.7074829931972789,0.7074829931972789,0.7074829931972789,0.7074829931972789,0.7074829931972789,0.7074829931972789,0.7074829931972789,0.7074829931972789,0.7074829931972789,0.7074829931972789,0.7074829931972789,0.7074829931972789,0.7074829931972789,0.7074829931972789,0.7074829931972789,0.7074829931972789,0.7074829931972789,0.7074829931972789,0.7074829931972789,0.7074829931972789,0.7074829931972789,0.7074829931972789,0.7074829931972789,0.7074829931972789,0.7074829931972789,0.7074829931972789,0.7074829931972789,0.7074829931972789,0.7074829931972789,0.7074829931972789,0.7074829931972789,0.7074829931972789,0.7074829931972789,0.7074829931972789,0.7074829931972789,0.7074829931972789,0.7074829931972789,0.7074829931972789,0.7074829931972789,0.7074829931972789,0.7074829931972789,0.7074829931972789,0.7074829931972789,0.7074829931972789,0.7074829931972789,0.7074829931972789,0.7074829931972789,0.7074829931972789,0.7074829931972789,0.7074829931972789,0.7074829931972789,0.7074829931972789,0.7074829931972789,0.7074829931972789,0.7074829931972789,0.7074829931972789,0.7074829931972789,0.7074829931972789,0.7074829931972789,0.7074829931972789,0.7074829931972789,0.7074829931972789,0.7074829931972789,0.7074829931972789,0.7074829931972789,0.7074829931972789,0.7074829931972789,0.7074829931972789,0.7074829931972789,0.7074829931972789,0.7074829931972789,0.7074829931972789,0.7074829931972789,0.7074829931972789,0.7074829931972789,0.7074829931972789,0.7074829931972789,0.7074829931972789,0.7074829931972789,0.7074829931972789,0.7074829931972789,0.7074829931972789,0.7074829931972789,0.7074829931972789,0.7074829931972789,0.7074829931972789,0.7074829931972789,0.7074829931972789,0.7074829931972789,0.7074829931972789,0.7074829931972789,0.7074829931972789,0.7074829931972789,0.7074829931972789,0.7074829931972789,0.7074829931972789,0.7074829931972789,0.7074829931972789,0.7074829931972789,0.7074829931972789,0.7074829931972789,0.7074829931972789,0.7074829931972789,0.7074829931972789,0.7074829931972789,0.7074829931972789,0.7074829931972789,0.7074829931972789,0.7074829931972789,0.7074829931972789,0.7074829931972789,0.7074829931972789,0.7074829931972789,0.7074829931972789,0.7074829931972789,0.7074829931972789,0.7074829931972789,0.7074829931972789,0.7074829931972789,0.7074829931972789,0.7074829931972789,0.7074829931972789,0.7074829931972789,0.7074829931972789,0.7074829931972789,0.7074829931972789,0.7074829931972789,0.7074829931972789,0.7074829931972789,0.7074829931972789,0.7074829931972789,0.7074829931972789,0.7074829931972789,0.7074829931972789,0.7074829931972789,0.7074829931972789,0.7074829931972789,0.7074829931972789,0.7074829931972789,0.7074829931972789,0.7074829931972789,0.7074829931972789,0.7074829931972789,0.7074829931972789,0.7074829931972789,0.7074829931972789,0.7074829931972789,0.7074829931972789,0.7074829931972789,0.7074829931972789,0.7074829931972789,0.7074829931972789,0.7074829931972789,0.7074829931972789,0.7074829931972789,0.7074829931972789,0.7074829931972789,0.7074829931972789,0.7074829931972789,0.7074829931972789,0.7074829931972789,0.7074829931972789,0.7074829931972789,0.7074829931972789,0.7074829931972789,0.7074829931972789,0.7074829931972789,0.7074829931972789,0.7074829931972789,0.7074829931972789,0.7074829931972789,0.7074829931972789,0.7074829931972789,0.7074829931972789,0.7074829931972789,0.7074829931972789,0.7074829931972789,0.7074829931972789,0.7074829931972789,0.7074829931972789,0.7074829931972789,0.7074829931972789,0.7074829931972789,0.7074829931972789,0.7074829931972789,0.7074829931972789,0.7074829931972789,0.7074829931972789,0.7074829931972789,0.7074829931972789,0.7074829931972789,0.7074829931972789,0.7074829931972789,0.7074829931972789,0.7074829931972789,0.7074829931972789,0.7074829931972789,0.7074829931972789,0.7074829931972789,0.7074829931972789,0.7074829931972789,0.7074829931972789,0.7074829931972789,0.7074829931972789,0.7074829931972789,0.7074829931972789,0.7074829931972789,0.7074829931972789,0.7074829931972789,0.7074829931972789,0.7074829931972789,0.7074829931972789,0.7074829931972789,0.7074829931972789,0.7074829931972789,0.7074829931972789,0.7074829931972789,0.7074829931972789,0.7074829931972789,0.7074829931972789,0.7074829931972789,0.7074829931972789,0.7074829931972789,0.7074829931972789,0.7074829931972789,0.7074829931972789,0.7074829931972789,0.7074829931972789,0.7074829931972789,0.7074829931972789,0.7074829931972789,0.7074829931972789,0.7074829931972789,0.7074829931972789,0.7074829931972789,0.7074829931972789,0.7074829931972789,0.7074829931972789,0.7074829931972789,0.7074829931972789,0.7074829931972789,0.7074829931972789,0.7074829931972789,0.7074829931972789,0.7074829931972789,0.7074829931972789,0.7074829931972789,0.7074829931972789,0.7074829931972789,0.7074829931972789,0.7074829931972789,0.7074829931972789,0.7074829931972789,0.7074829931972789,0.7074829931972789,0.7074829931972789,0.7074829931972789,0.7074829931972789,0.7074829931972789,0.7074829931972789,0.7074829931972789,0.7074829931972789,0.7074829931972789,0.7074829931972789,0.7074829931972789,0.7074829931972789,0.7074829931972789,0.7074829931972789,0.7074829931972789,0.7074829931972789,0.7074829931972789,0.7074829931972789,0.7074829931972789,0.7074829931972789,0.7074829931972789,0.7074829931972789,0.7074829931972789,0.7074829931972789,0.7074829931972789,0.7074829931972789,0.7074829931972789,0.7074829931972789,0.7074829931972789,0.7074829931972789,0.7074829931972789,0.7074829931972789,0.7074829931972789,0.7074829931972789,0.7074829931972789,0.7074829931972789,0.7074829931972789,0.7074829931972789,0.7074829931972789,0.7074829931972789,0.7074829931972789,0.7074829931972789,0.7074829931972789,0.7074829931972789,0.7074829931972789,0.7074829931972789,0.7074829931972789,0.7074829931972789,0.7074829931972789,0.7074829931972789,0.7074829931972789,0.7074829931972789,0.7074829931972789,0.7074829931972789,0.7074829931972789,0.7074829931972789,0.7074829931972789,0.7074829931972789,0.7074829931972789,0.7074829931972789,0.7074829931972789,0.7074829931972789,0.7074829931972789,0.7074829931972789,0.7074829931972789,0.7074829931972789,0.7074829931972789,0.7074829931972789,0.7074829931972789,0.7074829931972789,0.7074829931972789,0.7074829931972789,0.7074829931972789,0.7074829931972789,0.7074829931972789,0.7074829931972789,0.7074829931972789,0.7074829931972789,0.7074829931972789,0.7074829931972789,0.7074829931972789,0.7074829931972789,0.7074829931972789,0.7074829931972789,0.7142857142857143,0.7482993197278912,0.7585034013605442,0.8129251700680272,0.8503401360544217,0.8707482993197279,0.8945578231292517,0.9115646258503401,0.9285714285714286,0.9489795918367347,0.9693877551020408,1,1.034013605442177,1.054421768707483,1.0714285714285714,1.0850340136054422,1.08843537414966,1.0918367346938775,1.0918367346938775,1.0918367346938775,1.0918367346938775,1.098639455782313,1.1020408163265305,1.1088435374149659,1.1122448979591837,1.1122448979591837,1.1156462585034013,1.1156462585034013,1.1156462585034013,1.1156462585034013,1.1156462585034013,1.1156462585034013,1.1156462585034013,1.1156462585034013,1.1156462585034013,1.1156462585034013,1.1156462585034013,1.1156462585034013,1.1156462585034013,1.1156462585034013,1.1156462585034013,1.1156462585034013,1.1156462585034013,1.1156462585034013,1.1156462585034013,1.1156462585034013,1.1156462585034013,1.1156462585034013,1.1156462585034013,1.1156462585034013,1.1156462585034013,1.1156462585034013,1.1156462585034013,1.1156462585034013,1.1156462585034013,1.1156462585034013,1.1156462585034013,1.1156462585034013,1.1156462585034013,1.1156462585034013,1.1122448979591837,1.098639455782313,1.0578231292517006,0.9591836734693877,0.8673469387755102,0.7074829931972789,0.5748299319727891,0.4897959183673469,0.3945578231292517,0.35714285714285715,0.336734693877551,0.3231292517006803,0.3197278911564626,0.3163265306122449,0.30952380952380953,0.30272108843537415,0.2891156462585034,0.2789115646258503,0.2687074829931973,0.2619047619047619,0.25510204081632654,0.25510204081632654,0.25510204081632654,0.25170068027210885,0.25170068027210885,0.25170068027210885,0.25170068027210885,0.25170068027210885,0.25170068027210885,0.25170068027210885,0.25170068027210885,0.25170068027210885,0.25170068027210885,0.25170068027210885,0.25170068027210885,0.25170068027210885,0.25170068027210885,0.25170068027210885,0.25170068027210885,0.25170068027210885,0.25170068027210885,0.25170068027210885,0.25170068027210885,0.25170068027210885,0.25170068027210885,0.25170068027210885,0.25170068027210885,0.25170068027210885,0.25170068027210885,0.25170068027210885,0.25170068027210885,0.25170068027210885,0.25170068027210885,0.25170068027210885,0.25170068027210885,0.25170068027210885,0.25170068027210885,0.25170068027210885,0.25170068027210885,0.25170068027210885,0.25170068027210885,0.25170068027210885,0.25170068027210885,0.25170068027210885,0.25170068027210885,0.25170068027210885,0.25170068027210885,0.25170068027210885,0.25170068027210885,0.25170068027210885,0.25170068027210885,0.25170068027210885,0.25170068027210885,0.25170068027210885,0.25170068027210885,0.25170068027210885,0.25170068027210885,0.25170068027210885,0.25170068027210885,0.25170068027210885,0.25170068027210885,0.25170068027210885,0.25170068027210885,0.25170068027210885,0.25170068027210885,0.25170068027210885,0.25170068027210885,0.25170068027210885,0.25170068027210885,0.25170068027210885,0.25170068027210885,0.25170068027210885,0.25170068027210885,0.25170068027210885,0.25170068027210885,0.25170068027210885,0.25170068027210885,0.25170068027210885,0.25170068027210885,0.25170068027210885,0.25170068027210885,0.25170068027210885,0.25170068027210885,0.25170068027210885,0.25170068027210885,0.25170068027210885,0.25170068027210885,0.25170068027210885,0.25170068027210885,0.25170068027210885,0.25170068027210885,0.25170068027210885,0.25170068027210885,0.25170068027210885,0.25170068027210885,0.25170068027210885,0.25170068027210885,0.25170068027210885,0.25170068027210885,0.25170068027210885,0.25170068027210885,0.25170068027210885,0.25170068027210885,0.25170068027210885,0.25170068027210885,0.25170068027210885,0.25170068027210885,0.25170068027210885,0.25170068027210885,0.25170068027210885,0.25170068027210885,0.25170068027210885,0.25170068027210885,0.25170068027210885,0.25170068027210885,0.25170068027210885,0.25170068027210885,0.25170068027210885,0.25170068027210885,0.25170068027210885,0.25170068027210885,0.25170068027210885,0.25170068027210885,0.25170068027210885,0.25170068027210885,0.25170068027210885,0.25170068027210885,0.25170068027210885,0.25170068027210885,0.25170068027210885,0.25170068027210885,0.25170068027210885,0.25170068027210885,0.25170068027210885,0.25170068027210885,0.25170068027210885,0.25170068027210885,0.25170068027210885,0.25170068027210885,0.25170068027210885,0.25170068027210885,0.25170068027210885,0.25170068027210885,0.25170068027210885,0.25170068027210885,0.25170068027210885,0.25170068027210885,0.25170068027210885,0.25170068027210885,0.25170068027210885,0.25170068027210885,0.25170068027210885,0.25170068027210885,0.25170068027210885,0.2585034013605442,0.2687074829931973,0.2789115646258503,0.29591836734693877,0.3129251700680272,0.32653061224489793,0.336734693877551,0.3435374149659864,0.3469387755102041,0.35034013605442177,0.35374149659863946,0.36054421768707484,0.36394557823129253,0.3673469387755102,0.3707482993197279,0.3741496598639456,0.3741496598639456,0.37755102040816324,0.38095238095238093,0.3843537414965986,0.3843537414965986,0.3877551020408163,0.3877551020408163,0.391156462585034,0.391156462585034,0.391156462585034,0.3945578231292517,0.3945578231292517,0.3979591836734694,0.3979591836734694,0.3979591836734694,0.3979591836734694,0.3979591836734694,0.4013605442176871,0.4013605442176871,0.4013605442176871,0.4013605442176871,0.4013605442176871,0.4013605442176871,0.4013605442176871,0.4013605442176871,0.4013605442176871,0.4013605442176871,0.4013605442176871,0.4013605442176871,0.4013605442176871,0.4013605442176871,0.4013605442176871,0.4013605442176871,0.4013605442176871,0.4013605442176871,0.4013605442176871,0.4013605442176871,0.4013605442176871,0.4013605442176871,0.4013605442176871,0.4013605442176871,0.4013605442176871,0.4013605442176871,0.4013605442176871,0.4013605442176871,0.4013605442176871,0.4013605442176871,0.4013605442176871,0.4013605442176871,0.4013605442176871,0.4013605442176871,0.4013605442176871,0.4013605442176871,0.4013605442176871,0.4013605442176871,0.4013605442176871,0.4013605442176871,0.4013605442176871,0.4013605442176871,0.4013605442176871,0.4013605442176871,0.4013605442176871,0.4013605442176871,0.4013605442176871,0.4013605442176871,0.4013605442176871,0.4013605442176871,0.4013605442176871,0.4013605442176871,0.4013605442176871,0.4013605442176871,0.4013605442176871,0.4013605442176871,0.4013605442176871,0.4013605442176871,0.4013605442176871,0.4013605442176871,0.4013605442176871,0.4013605442176871,0.4013605442176871,0.4013605442176871,0.4013605442176871,0.4013605442176871,0.4013605442176871,0.4013605442176871,0.4013605442176871,0.3945578231292517,0.37755102040816324,0.35034013605442177,0.3333333333333333,0.3163265306122449,0.29931972789115646,0.2891156462585034,0.2857142857142857,0.2789115646258503,0.272108843537415,0.2687074829931973,0.2653061224489796,0.2619047619047619,0.2619047619047619,0.2619047619047619,0.2619047619047619,0.2619047619047619,0.2619047619047619,0.2619047619047619,0.2619047619047619,0.2619047619047619,0.2619047619047619,0.2619047619047619,0.2619047619047619,0.2619047619047619,0.2619047619047619,0.2619047619047619,0.2619047619047619,0.2619047619047619,0.2619047619047619,0.2619047619047619,0.2619047619047619,0.2619047619047619,0.2619047619047619,0.2619047619047619,0.2619047619047619,0.2619047619047619,0.2619047619047619,0.2619047619047619,0.2619047619047619,0.2619047619047619,0.2619047619047619,0.2619047619047619,0.2619047619047619,0.2619047619047619,0.2619047619047619,0.2619047619047619,0.2619047619047619,0.2619047619047619,0.2619047619047619,0.2619047619047619,0.2619047619047619,0.2619047619047619,0.2619047619047619,0.2619047619047619,0.2619047619047619,0.2619047619047619,0.2619047619047619,0.2687074829931973,0.2891156462585034,0.32653061224489793,0.3877551020408163,0.4489795918367347,0.4931972789115646,0.54421768707483,0.5748299319727891,0.6020408163265306,0.608843537414966,0.608843537414966,0.608843537414966,0.608843537414966,0.608843537414966,0.608843537414966,0.608843537414966,0.608843537414966,0.608843537414966,0.608843537414966,0.608843537414966,0.608843537414966,0.6156462585034014,0.6292517006802721,0.6462585034013606,0.673469387755102,0.6904761904761905,0.6972789115646258,0.7040816326530612,0.7074829931972789,0.7074829931972789,0.7108843537414966,0.7108843537414966,0.7108843537414966,0.7108843537414966,0.7108843537414966,0.7108843537414966,0.7108843537414966,0.7108843537414966,0.7108843537414966,0.7108843537414966,0.7108843537414966,0.7108843537414966,0.7108843537414966,0.7108843537414966,0.7108843537414966,0.7108843537414966,0.7108843537414966,0.7108843537414966,0.7108843537414966,0.7108843537414966,0.7108843537414966,0.7108843537414966,0.7108843537414966,0.7108843537414966,0.7108843537414966,0.7108843537414966,0.7108843537414966,0.7108843537414966,0.7108843537414966,0.7108843537414966,0.7108843537414966,0.7108843537414966,0.7108843537414966,0.7108843537414966,0.7108843537414966,0.7108843537414966,0.7108843537414966,0.7108843537414966,0.7108843537414966,0.7108843537414966,0.7108843537414966,0.7108843537414966,0.7108843537414966,0.7108843537414966,0.7108843537414966,0.7108843537414966,0.7108843537414966,0.7108843537414966,0.7108843537414966,0.7108843537414966,0.7108843537414966,0.7108843537414966,0.7108843537414966,0.7108843537414966,0.7108843537414966,0.7108843537414966,0.7108843537414966,0.7108843537414966,0.7108843537414966,0.7108843537414966,0.7108843537414966,0.7108843537414966,0.7108843537414966,0.7108843537414966,0.7108843537414966,0.7108843537414966,0.7108843537414966,0.7108843537414966,0.7108843537414966,0.7108843537414966,0.7108843537414966,0.7108843537414966,0.7108843537414966,0.7108843537414966,0.7108843537414966,0.7108843537414966,0.7108843537414966,0.7108843537414966,0.7108843537414966,0.7108843537414966,0.7108843537414966,0.7108843537414966,0.7108843537414966,0.7108843537414966,0.7108843537414966,0.7108843537414966,0.7108843537414966,0.7108843537414966,0.7108843537414966,0.7108843537414966,0.7108843537414966,0.7108843537414966,0.7108843537414966,0.7108843537414966,0.7108843537414966,0.7108843537414966,0.7108843537414966,0.7108843537414966,0.7108843537414966,0.7108843537414966,0.7108843537414966,0.7108843537414966,0.7108843537414966,0.7108843537414966,0.7108843537414966,0.7108843537414966,0.7108843537414966,0.7108843537414966,0.7108843537414966,0.7108843537414966,0.7108843537414966,0.7108843537414966,0.7108843537414966,0.7108843537414966,0.7108843537414966,0.7108843537414966,0.7108843537414966,0.7108843537414966,0.7108843537414966,0.7108843537414966,0.7108843537414966,0.7108843537414966,0.7108843537414966,0.7108843537414966,0.7108843537414966,0.7108843537414966,0.7108843537414966,0.7108843537414966,0.7108843537414966,0.7108843537414966,0.7108843537414966,0.7108843537414966,0.7108843537414966,0.7108843537414966,0.7108843537414966,0.7108843537414966,0.7108843537414966,0.7108843537414966,0.7108843537414966,0.7108843537414966,0.7108843537414966,0.7108843537414966,0.7108843537414966,0.7108843537414966,0.7108843537414966,0.7108843537414966,0.7108843537414966,0.7108843537414966,0.7108843537414966,0.7108843537414966,0.7108843537414966,0.7108843537414966,0.7108843537414966,0.7108843537414966,0.7108843537414966,0.7108843537414966,0.7108843537414966,0.7108843537414966,0.7108843537414966,0.7108843537414966,0.7108843537414966,0.7108843537414966,0.7108843537414966,0.7108843537414966,0.7108843537414966,0.7108843537414966,0.7108843537414966,0.7108843537414966,0.7108843537414966,0.7108843537414966,0.7108843537414966,0.7108843537414966,0.7108843537414966,0.7108843537414966,0.7108843537414966,0.7108843537414966,0.7108843537414966,0.7108843537414966,0.7108843537414966,0.7108843537414966,0.7108843537414966,0.7108843537414966,0.7108843537414966,0.7108843537414966,0.7108843537414966,0.7108843537414966,0.7108843537414966,0.7108843537414966,0.7108843537414966,0.7108843537414966,0.7108843537414966,0.7108843537414966,0.7108843537414966,0.7108843537414966,0.7108843537414966,0.7108843537414966,0.7108843537414966,0.7108843537414966,0.7108843537414966,0.7108843537414966,0.7108843537414966,0.7108843537414966,0.7108843537414966,0.7108843537414966,0.7108843537414966,0.7108843537414966,0.7108843537414966,0.7108843537414966,0.7108843537414966,0.7108843537414966,0.7108843537414966,0.7108843537414966,0.7108843537414966,0.7108843537414966,0.7108843537414966,0.7108843537414966,0.7108843537414966,0.7108843537414966,0.7108843537414966,0.7108843537414966,0.7108843537414966,0.7108843537414966,0.7108843537414966,0.7108843537414966,0.7108843537414966,0.7108843537414966,0.7108843537414966,0.7108843537414966,0.7108843537414966,0.7108843537414966,0.7108843537414966,0.7108843537414966,0.7108843537414966,0.7108843537414966,0.7108843537414966,0.7108843537414966,0.7108843537414966,0.7108843537414966,0.7108843537414966,0.7108843537414966,0.7108843537414966,0.7108843537414966,0.7108843537414966,0.7108843537414966,0.7108843537414966,0.7108843537414966,0.7108843537414966,0.7108843537414966,0.7108843537414966,0.7108843537414966,0.7108843537414966,0.6972789115646258,0.6904761904761905,0.6904761904761905,0.6904761904761905,0.6904761904761905,0.6904761904761905,0.6938775510204082,0.6938775510204082,0.7006802721088435,0.7074829931972789,0.7108843537414966,0.7142857142857143,0.717687074829932,0.717687074829932,0.717687074829932,0.717687074829932,0.717687074829932,0.717687074829932,0.7108843537414966,0.7074829931972789,0.7040816326530612,0.7040816326530612,0.7040816326530612,0.7040816326530612,0.7040816326530612,0.7040816326530612,0.7040816326530612,0.7040816326530612,0.7040816326530612,0.7040816326530612,0.7040816326530612,0.7040816326530612,0.7040816326530612,0.7040816326530612,0.7040816326530612,0.7040816326530612,0.7108843537414966,0.7312925170068028,0.7551020408163265,0.7721088435374149,0.782312925170068,0.7925170068027211,0.8027210884353742,0.8061224489795918,0.8061224489795918,0.8095238095238095,0.8095238095238095,0.8095238095238095,0.8129251700680272,0.8129251700680272,0.8163265306122449,0.8163265306122449,0.8197278911564626,0.8197278911564626,0.8197278911564626,0.8197278911564626,0.8197278911564626,0.8197278911564626,0.8197278911564626,0.8197278911564626,0.8197278911564626,0.8197278911564626,0.8197278911564626,0.8197278911564626,0.8197278911564626,0.8197278911564626,0.8197278911564626,0.8197278911564626,0.8197278911564626,0.8197278911564626,0.8197278911564626,0.8197278911564626,0.8197278911564626,0.8197278911564626,0.8197278911564626,0.8197278911564626,0.8197278911564626,0.8197278911564626,0.8197278911564626,0.8197278911564626,0.8197278911564626,0.8197278911564626,0.8197278911564626,0.8197278911564626,0.8197278911564626,0.8197278911564626,0.8197278911564626,0.8197278911564626,0.8197278911564626,0.8197278911564626,0.8197278911564626,0.8197278911564626,0.8197278911564626,0.8197278911564626,0.8197278911564626,0.8775510204081632,1.010204081632653,1.1326530612244898,1.1326530612244898,1.1326530612244898,1.1326530612244898,1.1326530612244898,1.1326530612244898,1.1326530612244898,1.1326530612244898,1.1326530612244898,1.1326530612244898,1.1326530612244898,1.1326530612244898,1.1326530612244898,1.1326530612244898,1.1326530612244898,1.1326530612244898,1.1326530612244898,1.1326530612244898,1.1326530612244898,1.1326530612244898,1.1326530612244898,1.1326530612244898,1.1326530612244898,1.1326530612244898,1.1326530612244898,1.1326530612244898,1.1326530612244898,1.1326530612244898,1.1326530612244898,1.1326530612244898,1.1326530612244898,1.1326530612244898,1.1326530612244898,1.1326530612244898,1.1326530612244898,1.1326530612244898,1.1326530612244898,1.1326530612244898,1.1326530612244898,1.1326530612244898,1.1326530612244898,1.1326530612244898,1.1326530612244898,1.1326530612244898,1.1326530612244898,1.1326530612244898,1.1326530612244898,1.1326530612244898,1.1326530612244898,1.1326530612244898,1.1326530612244898,1.1326530612244898,1.1326530612244898,1.1326530612244898,1.1326530612244898,1.1326530612244898,1.1326530612244898,1.1326530612244898,1.1326530612244898,1.1326530612244898,1.1326530612244898,1.1326530612244898,1.1326530612244898,1.1326530612244898,1.1326530612244898,1.1326530612244898,1.1326530612244898,1.1326530612244898,1.1326530612244898,1.1326530612244898,1.1326530612244898,1.1326530612244898,1.1326530612244898,1.1326530612244898,1.1326530612244898,1.1326530612244898,1.1326530612244898,1.1326530612244898,1.1326530612244898,1.1326530612244898,1.1326530612244898,1.1326530612244898,1.1326530612244898,1.1326530612244898,1.1326530612244898,1.1326530612244898,1.1326530612244898,1.1326530612244898,1.129251700680272,1.1122448979591837,1.0850340136054422,1.0612244897959184,1.0204081632653061,0.9795918367346939,0.9387755102040817,0.8741496598639455,0.7925170068027211,0.6802721088435374,0.5816326530612245,0.54421768707483,0.54421768707483,0.54421768707483,0.54421768707483,0.54421768707483,0.54421768707483,0.54421768707483,0.54421768707483,0.54421768707483,0.54421768707483,0.54421768707483,0.54421768707483,0.54421768707483,0.54421768707483,0.54421768707483,0.54421768707483,0.54421768707483,0.54421768707483,0.54421768707483,0.54421768707483,0.54421768707483,0.54421768707483,0.54421768707483,0.54421768707483,0.54421768707483,0.54421768707483,0.54421768707483,0.54421768707483,0.54421768707483,0.54421768707483,0.54421768707483,0.54421768707483,0.54421768707483,0.54421768707483,0.54421768707483,0.54421768707483,0.54421768707483,0.54421768707483,0.54421768707483,0.54421768707483,0.54421768707483,0.54421768707483,0.54421768707483,0.54421768707483,0.54421768707483,0.54421768707483,0.54421768707483,0.54421768707483,0.54421768707483,0.54421768707483,0.54421768707483,0.54421768707483,0.54421768707483,0.54421768707483,0.54421768707483,0.54421768707483,0.54421768707483,0.54421768707483,0.54421768707483,0.54421768707483,0.54421768707483,0.54421768707483,0.54421768707483,0.54421768707483,0.54421768707483,0.54421768707483,0.54421768707483,0.54421768707483,0.54421768707483,0.54421768707483,0.54421768707483,0.5544217687074829,0.5680272108843537,0.5884353741496599,0.6360544217687075,0.6836734693877551,0.7346938775510204,0.7755102040816326,0.7959183673469388,0.8163265306122449,0.8299319727891157,0.8333333333333334,0.8367346938775511,0.8367346938775511,0.8367346938775511,0.8367346938775511,0.8367346938775511,0.8367346938775511,0.8367346938775511,0.8367346938775511,0.8367346938775511,0.8367346938775511,0.8367346938775511,0.8367346938775511,0.8367346938775511,0.8367346938775511,0.8367346938775511,0.8367346938775511,0.8367346938775511,0.8367346938775511,0.8367346938775511,0.8367346938775511,0.8367346938775511,0.8367346938775511,0.8367346938775511,0.8367346938775511,0.8367346938775511,0.8367346938775511,0.8367346938775511,0.8367346938775511,0.8367346938775511,0.8367346938775511,0.8367346938775511,0.8367346938775511,0.8367346938775511,0.8333333333333334,0.8299319727891157,0.8231292517006803,0.8197278911564626,0.8129251700680272,0.8027210884353742,0.7959183673469388,0.7857142857142857,0.7755102040816326,0.7687074829931972,0.7619047619047619,0.7585034013605442,0.7551020408163265,0.7517006802721088,0.7448979591836735,0.7414965986394558,0.7414965986394558,0.7414965986394558,0.7414965986394558,0.7414965986394558,0.7414965986394558,0.7414965986394558,0.7414965986394558,0.7414965986394558,0.7414965986394558,0.7414965986394558,0.7414965986394558,0.7414965986394558,0.7414965986394558,0.7414965986394558,0.7414965986394558,0.7414965986394558,0.7414965986394558,0.7414965986394558,0.7414965986394558,0.7414965986394558,0.7414965986394558,0.7414965986394558,0.7414965986394558,0.7414965986394558,0.7414965986394558,0.7414965986394558,0.7414965986394558,0.7414965986394558,0.7414965986394558,0.7414965986394558,0.7414965986394558,0.7414965986394558,0.7414965986394558,0.7414965986394558,0.7414965986394558,0.7414965986394558,0.7414965986394558,0.7414965986394558,0.7414965986394558,0.7414965986394558,0.7414965986394558,0.7414965986394558,0.7414965986394558,0.7414965986394558,0.7414965986394558,0.7414965986394558,0.7414965986394558,0.7414965986394558,0.7414965986394558,0.7414965986394558,0.7414965986394558,0.7414965986394558,0.7346938775510204,0.7278911564625851,0.717687074829932,0.6972789115646258,0.6870748299319728,0.6700680272108843,0.6564625850340136,0.6428571428571429,0.6326530612244898,0.6190476190476191,0.6122448979591837,0.6020408163265306,0.5952380952380952,0.5884353741496599,0.5816326530612245,0.5782312925170068,0.5714285714285714,0.5680272108843537,0.5680272108843537,0.564625850340136,0.564625850340136,0.564625850340136,0.5612244897959183,0.5612244897959183,0.5612244897959183,0.5612244897959183,0.5612244897959183,0.5612244897959183,0.5612244897959183,0.5612244897959183,0.5612244897959183,0.5612244897959183,0.5612244897959183,0.5612244897959183,0.5612244897959183,0.5612244897959183,0.5612244897959183,0.5612244897959183,0.5612244897959183,0.5612244897959183,0.5612244897959183,0.5612244897959183,0.5612244897959183,0.5612244897959183,0.5612244897959183,0.5612244897959183,0.5612244897959183,0.5612244897959183,0.5612244897959183,0.5612244897959183,0.5612244897959183,0.5612244897959183,0.5612244897959183,0.5612244897959183,0.5612244897959183,0.5612244897959183,0.5612244897959183,0.5612244897959183,0.5612244897959183,0.5612244897959183,0.5612244897959183,0.5612244897959183,0.5612244897959183,0.5612244897959183,0.5612244897959183,0.5612244897959183,0.5612244897959183,0.5612244897959183,0.5612244897959183,0.5612244897959183,0.5612244897959183,0.5612244897959183,0.5612244897959183,0.5612244897959183,0.5612244897959183,0.5612244897959183,0.5816326530612245,0.608843537414966,0.6530612244897959,0.7210884353741497,0.8163265306122449,0.9183673469387755,0.9761904761904762,1.0034013605442176,1.0034013605442176,1.0034013605442176,1.0034013605442176,1.0034013605442176,1.0034013605442176,1.0034013605442176,1.0034013605442176,1.0034013605442176,1.0034013605442176,1.0034013605442176,1.0034013605442176,1.0034013605442176,1.0034013605442176,1.0034013605442176,1.0034013605442176,1.0034013605442176,1.0034013605442176,1.0034013605442176,1.0034013605442176,1.0034013605442176,1.0034013605442176,1.0034013605442176,1.0034013605442176,1.0034013605442176,1.0034013605442176,1.0034013605442176,1.0034013605442176,1.0034013605442176,1.0034013605442176,1.0034013605442176,1.0034013605442176,1.0034013605442176,1.0034013605442176,1.0034013605442176,1.0034013605442176,1.0034013605442176,1.0034013605442176,1.0034013605442176,1.0034013605442176,1.0034013605442176,1.0034013605442176,1.0034013605442176,1.0034013605442176,1.0034013605442176,1.0034013605442176,1.0034013605442176,1.0034013605442176,1.0034013605442176,1.0034013605442176,1.0034013605442176,1.0034013605442176,1.0034013605442176,1.0034013605442176,1.0034013605442176,1.0034013605442176,1.0034013605442176,1.0034013605442176,1.0034013605442176,1.0034013605442176,1.0034013605442176,1.0034013605442176,1.0034013605442176,1.0034013605442176,1.0034013605442176,1.0034013605442176,1.0034013605442176,1.0034013605442176,1.0034013605442176,1.0034013605442176,1.0034013605442176,1.0034013605442176,1.0034013605442176,1.0034013605442176,1.0034013605442176,1.0034013605442176,1.0034013605442176,1.0034013605442176,1.0034013605442176,1.0034013605442176,1.0034013605442176,1.0034013605442176,1.0034013605442176,1.0034013605442176,1.0034013605442176,1.0034013605442176,1.0034013605442176,1.0034013605442176,1.0034013605442176,1.0034013605442176,1.0034013605442176,1.0034013605442176,1.0034013605442176,1.0034013605442176,1.0034013605442176,1.0034013605442176,1.0034013605442176,1.0034013605442176,1.0034013605442176,1.0034013605442176,1.0034013605442176,1.0034013605442176,1.0034013605442176,1.0034013605442176,1.0034013605442176,1.0034013605442176,1.0034013605442176,1.0034013605442176,1.0034013605442176,1.0034013605442176,1.0034013605442176,1.0034013605442176,1.0034013605442176,1.0034013605442176,1.0034013605442176,1.0034013605442176,1.0034013605442176,1.0034013605442176,1.0034013605442176,1.0034013605442176,1.0034013605442176,1.0034013605442176,1.0034013605442176,1.0034013605442176,1.0034013605442176,1.0034013605442176,1.0034013605442176,1.0034013605442176,1.0034013605442176,1.0034013605442176,1.0034013605442176,1.0034013605442176,1.0034013605442176,1.0034013605442176,1.0034013605442176,1.0034013605442176,1.0034013605442176,1.0034013605442176,1.0034013605442176,1.0034013605442176,1.0034013605442176,1.0034013605442176,1.0034013605442176,1.0034013605442176,1.0034013605442176,1.0034013605442176,1.0034013605442176,1.0034013605442176,1.0034013605442176,1.0034013605442176,1.0034013605442176,1.0034013605442176,1.0034013605442176,1.0034013605442176,1.0034013605442176,1.0034013605442176,1.0034013605442176,1.0034013605442176,1.0034013605442176,1.0034013605442176,1.0034013605442176,1.0034013605442176,1.0034013605442176,1.0034013605442176,1.0034013605442176,1.0034013605442176,1.0034013605442176,1.0034013605442176,1.0034013605442176,1.0034013605442176,1.0034013605442176,1.0034013605442176,1.0034013605442176,1.0034013605442176,0.9931972789115646,0.9727891156462585,0.9455782312925171,0.8639455782312925,0.8027210884353742,0.7482993197278912,0.6564625850340136,0.6054421768707483,0.5510204081632653,0.5068027210884354,0.46938775510204084,0.4387755102040816,0.41836734693877553,0.3979591836734694,0.391156462585034,0.391156462585034,0.391156462585034,0.391156462585034,0.391156462585034,0.391156462585034,0.391156462585034,0.391156462585034,0.391156462585034,0.391156462585034,0.391156462585034,0.391156462585034,0.3843537414965986,0.36394557823129253,0.3469387755102041,0.30272108843537415,0.272108843537415,0.24489795918367346,0.22448979591836735,0.2108843537414966,0.20068027210884354,0.19047619047619047,0.1870748299319728,0.1836734693877551,0.18027210884353742,0.18027210884353742,0.17687074829931973,0.17346938775510204,0.17006802721088435,0.16666666666666666,0.16666666666666666,0.16326530612244897,0.16326530612244897,0.1598639455782313,0.1598639455782313,0.1598639455782313,0.1564625850340136,0.1564625850340136,0.1564625850340136,0.1564625850340136,0.1564625850340136,0.1564625850340136,0.1564625850340136,0.1564625850340136,0.1564625850340136,0.1564625850340136,0.1564625850340136,0.1564625850340136,0.1564625850340136,0.1564625850340136,0.1564625850340136,0.1564625850340136,0.1564625850340136,0.1564625850340136,0.1564625850340136,0.1564625850340136,0.1564625850340136,0.1564625850340136,0.1564625850340136,0.1564625850340136,0.1564625850340136,0.1564625850340136,0.1564625850340136,0.1564625850340136,0.1564625850340136,0.1564625850340136,0.1564625850340136,0.1564625850340136,0.1564625850340136,0.1564625850340136,0.1564625850340136,0.1564625850340136,0.1564625850340136,0.1564625850340136,0.1564625850340136,0.1564625850340136,0.17006802721088435,0.2108843537414966,0.2755102040816326,0.4931972789115646,0.6428571428571429,0.8061224489795918,0.8979591836734694,0.9421768707482994,0.9421768707482994,0.9421768707482994,0.9421768707482994,0.9421768707482994,0.9421768707482994,0.9421768707482994,0.9421768707482994,0.9421768707482994,0.9421768707482994,0.9421768707482994,0.9421768707482994,0.9421768707482994,0.9421768707482994,0.9421768707482994,0.9421768707482994,0.9421768707482994,0.9421768707482994,0.9421768707482994,0.9421768707482994,0.9421768707482994,0.9421768707482994,0.9421768707482994,0.9421768707482994,0.9421768707482994,0.9421768707482994,0.9421768707482994,0.9421768707482994,0.9421768707482994,0.9387755102040817,0.9013605442176871,0.8639455782312925,0.7789115646258503,0.6360544217687075,0.5272108843537415,0.40476190476190477,0.3231292517006803,0.2755102040816326,0.25170068027210885,0.23809523809523808,0.23469387755102042,0.23129251700680273,0.22789115646258504,0.22108843537414966,0.2108843537414966,0.19727891156462585,0.1836734693877551,0.17006802721088435,0.15306122448979592,0.14625850340136054,0.14285714285714285,0.13945578231292516,0.1360544217687075,0.1326530612244898,0.12585034013605442,0.11904761904761904,0.11564625850340136,0.11224489795918367,0.11224489795918367,0.11224489795918367,0.12585034013605442,0.20408163265306123,0.3299319727891156,0.41496598639455784,0.5204081632653061,0.5850340136054422,0.6598639455782312,0.7312925170068028,0.7687074829931972,0.8061224489795918,0.826530612244898,0.8367346938775511,0.8435374149659864,0.8503401360544217,0.8707482993197279,0.891156462585034,0.9115646258503401,0.9285714285714286,0.9421768707482994,0.9489795918367347,0.9523809523809523,0.9523809523809523,0.95578231292517,0.95578231292517,0.95578231292517,0.95578231292517,0.9591836734693877,0.9591836734693877,0.9591836734693877,0.9591836734693877,0.9591836734693877,0.9591836734693877,0.9591836734693877,0.9591836734693877,0.9591836734693877,0.9591836734693877,0.9591836734693877,0.9591836734693877,0.9591836734693877,0.9591836734693877,0.9591836734693877,0.9591836734693877,0.9591836734693877,0.9591836734693877,0.9591836734693877,0.9591836734693877,0.9591836734693877,0.9591836734693877,0.9591836734693877,0.9591836734693877,0.9591836734693877,0.9591836734693877,0.9591836734693877,0.9591836734693877,0.9591836734693877,0.9591836734693877,0.9591836734693877,0.9591836734693877,0.9591836734693877,0.95578231292517,0.9455782312925171,0.9217687074829932,0.8809523809523809,0.8401360544217688,0.7993197278911565,0.7619047619047619,0.7108843537414966,0.6904761904761905,0.6666666666666666,0.6564625850340136,0.6428571428571429,0.6326530612244898,0.6190476190476191,0.608843537414966,0.5918367346938775,0.5782312925170068,0.5612244897959183,0.5374149659863946,0.5136054421768708,0.47619047619047616,0.45918367346938777,0.4387755102040816,0.4217687074829932,0.41156462585034015,0.40476190476190477,0.3979591836734694,0.3979591836734694,0.3945578231292517,0.3877551020408163,0.38095238095238093,0.3707482993197279,0.36394557823129253,0.35714285714285715,0.35034013605442177,0.3435374149659864,0.3435374149659864,0.3401360544217687,0.3401360544217687,0.3401360544217687,0.3401360544217687,0.3401360544217687,0.3401360544217687,0.3401360544217687,0.3401360544217687,0.3401360544217687,0.3401360544217687,0.336734693877551,0.336734693877551,0.3333333333333333,0.3333333333333333,0.3333333333333333,0.3333333333333333,0.3333333333333333,0.3333333333333333,0.3333333333333333,0.3435374149659864,0.36054421768707484,0.391156462585034,0.4523809523809524,0.5374149659863946,0.5884353741496599,0.6190476190476191,0.6462585034013606,0.673469387755102,0.6904761904761905,0.7040816326530612,0.7210884353741497,0.7312925170068028,0.7380952380952381,0.7482993197278912,0.7551020408163265,0.7721088435374149,0.7925170068027211,0.8061224489795918,0.8333333333333334,0.8605442176870748,0.8877551020408163,0.9013605442176871,0.9183673469387755,0.9285714285714286,0.935374149659864,0.935374149659864,0.935374149659864,0.935374149659864,0.935374149659864,0.935374149659864,0.935374149659864,0.935374149659864,0.935374149659864,0.935374149659864,0.935374149659864,0.935374149659864,0.9387755102040817,0.9455782312925171,0.95578231292517,0.9761904761904762,0.9965986394557823,1.034013605442177,1.0578231292517006,1.0748299319727892,1.08843537414966,1.1020408163265305,1.1054421768707483,1.1088435374149659,1.1088435374149659,1.1122448979591837,1.1156462585034013,1.119047619047619,1.119047619047619,1.1224489795918366,1.1224489795918366,1.1258503401360545,1.1258503401360545,1.129251700680272,1.129251700680272,1.1326530612244898,1.1326530612244898,1.1326530612244898,1.1326530612244898,1.1326530612244898,1.1326530612244898,1.1326530612244898,1.1326530612244898,1.1326530612244898,1.1326530612244898,1.1326530612244898,1.1326530612244898,1.1326530612244898,1.1326530612244898,1.1326530612244898,1.1326530612244898,1.1326530612244898,1.1326530612244898,1.1326530612244898,1.1326530612244898,1.1326530612244898,1.1326530612244898,1.1326530612244898,1.1326530612244898,1.1326530612244898,1.1326530612244898,1.1326530612244898,1.1326530612244898,1.1326530612244898,1.1326530612244898,1.1326530612244898,1.1326530612244898,1.1326530612244898,1.1326530612244898,1.1326530612244898,1.1326530612244898,1.1326530612244898,1.1326530612244898,1.1326530612244898,1.1326530612244898,1.1326530612244898,1.1326530612244898,1.1326530612244898,1.1326530612244898,1.1326530612244898,1.1326530612244898,1.1326530612244898,1.1326530612244898,1.1326530612244898,1.1326530612244898,1.1326530612244898,1.1326530612244898,1.1326530612244898,1.1326530612244898,1.1326530612244898,1.1326530612244898,1.1326530612244898,1.1326530612244898,1.1326530612244898,1.1326530612244898,1.1326530612244898,1.1326530612244898,1.1326530612244898,1.1326530612244898,1.1326530612244898,1.1326530612244898,1.1326530612244898,1.1326530612244898,1.1326530612244898,1.1326530612244898,1.1326530612244898,1.1326530612244898,1.1326530612244898,1.1326530612244898,1.1326530612244898,1.1326530612244898,1.1326530612244898,1.1326530612244898,1.1326530612244898,1.1326530612244898,1.1326530612244898,1.1326530612244898,1.1326530612244898,1.1326530612244898,1.1326530612244898,1.1326530612244898,1.1326530612244898,1.1326530612244898,1.1326530612244898,1.1326530612244898,1.1326530612244898,1.1326530612244898,1.1326530612244898,1.1326530612244898,1.1326530612244898,1.1326530612244898,1.1326530612244898,1.1326530612244898,1.1326530612244898,1.1326530612244898,1.1326530612244898,1.1326530612244898,1.1326530612244898,1.1326530612244898,1.1326530612244898,1.1326530612244898,1.1326530612244898,1.1326530612244898,1.1326530612244898,1.1326530612244898,1.1326530612244898,1.1326530612244898,1.1326530612244898,1.1326530612244898,1.1326530612244898,1.1326530612244898,1.1326530612244898,1.1326530612244898,1.1326530612244898,1.1326530612244898,1.1326530612244898,1.1326530612244898,1.1326530612244898,1.1326530612244898,1.1326530612244898,1.1326530612244898,1.1326530612244898,1.1326530612244898,1.1326530612244898,1.1326530612244898],"y":[-3.134920634920635,-3.134920634920635,-3.134920634920635,-3.134920634920635,-3.134920634920635,-3.134920634920635,-3.134920634920635,-3.134920634920635,-3.134920634920635,-3.134920634920635,-3.134920634920635,-3.134920634920635,-3.134920634920635,-3.134920634920635,-3.134920634920635,-3.134920634920635,-3.134920634920635,-3.134920634920635,-3.134920634920635,-3.134920634920635,-3.134920634920635,-3.134920634920635,-3.134920634920635,-3.134920634920635,-3.134920634920635,-3.134920634920635,-3.134920634920635,-3.134920634920635,-3.134920634920635,-3.134920634920635,-3.134920634920635,-3.134920634920635,-3.134920634920635,-3.134920634920635,-3.134920634920635,-3.134920634920635,-3.134920634920635,-3.134920634920635,-3.134920634920635,-3.134920634920635,-3.134920634920635,-3.134920634920635,-3.134920634920635,-3.134920634920635,-3.134920634920635,-3.134920634920635,-3.134920634920635,-3.134920634920635,-3.134920634920635,-3.134920634920635,-3.134920634920635,-3.134920634920635,-3.134920634920635,-3.134920634920635,-3.134920634920635,-3.134920634920635,-3.134920634920635,-3.134920634920635,-3.134920634920635,-3.134920634920635,-3.134920634920635,-3.134920634920635,-3.134920634920635,-3.134920634920635,-3.134920634920635,-3.134920634920635,-3.134920634920635,-3.134920634920635,-3.134920634920635,-3.134920634920635,-3.134920634920635,-3.134920634920635,-3.134920634920635,-3.134920634920635,-3.134920634920635,-3.134920634920635,-3.134920634920635,-3.134920634920635,-3.134920634920635,-3.134920634920635,-3.134920634920635,-3.134920634920635,-3.134920634920635,-3.134920634920635,-3.134920634920635,-3.134920634920635,-3.134920634920635,-3.134920634920635,-3.134920634920635,-3.134920634920635,-3.134920634920635,-3.134920634920635,-3.134920634920635,-3.134920634920635,-3.134920634920635,-3.134920634920635,-3.134920634920635,-3.134920634920635,-3.134920634920635,-3.134920634920635,-3.134920634920635,-3.134920634920635,-3.134920634920635,-3.134920634920635,-3.134920634920635,-3.134920634920635,-3.134920634920635,-3.134920634920635,-3.134920634920635,-3.134920634920635,-3.134920634920635,-3.134920634920635,-3.134920634920635,-3.134920634920635,-3.134920634920635,-3.134920634920635,-3.134920634920635,-3.134920634920635,-3.134920634920635,-3.134920634920635,-3.134920634920635,-3.134920634920635,-3.134920634920635,-3.134920634920635,-3.134920634920635,-3.134920634920635,-3.134920634920635,-3.134920634920635,-3.134920634920635,-3.134920634920635,-3.134920634920635,-3.134920634920635,-3.134920634920635,-3.134920634920635,-3.134920634920635,-3.134920634920635,-3.134920634920635,-3.134920634920635,-3.134920634920635,-3.134920634920635,-3.134920634920635,-3.134920634920635,0.7650793650793649,0.7174603174603172,0.6888888888888887,0.6698412698412697,0.6412698412698411,0.603174603174603,0.5746031746031744,0.5460317460317459,0.5174603174603173,0.49841269841269825,0.47936507936507916,0.46984126984126967,0.4603174603174601,0.45079365079365064,0.45079365079365064,0.4412698412698411,0.4412698412698411,0.43174603174603154,0.43174603174603154,0.43174603174603154,0.43174603174603154,0.42222222222222205,0.42222222222222205,0.42222222222222205,0.42222222222222205,0.42222222222222205,0.42222222222222205,0.42222222222222205,0.42222222222222205,0.42222222222222205,0.42222222222222205,0.42222222222222205,0.42222222222222205,0.42222222222222205,0.42222222222222205,0.42222222222222205,0.42222222222222205,0.42222222222222205,0.42222222222222205,0.42222222222222205,0.42222222222222205,0.42222222222222205,0.42222222222222205,0.42222222222222205,0.42222222222222205,0.42222222222222205,0.42222222222222205,0.42222222222222205,0.42222222222222205,0.42222222222222205,0.42222222222222205,0.42222222222222205,0.42222222222222205,0.42222222222222205,0.42222222222222205,0.42222222222222205,0.42222222222222205,0.42222222222222205,0.42222222222222205,0.42222222222222205,0.42222222222222205,0.42222222222222205,0.42222222222222205,0.46984126984126967,0.5269841269841268,0.5841269841269839,0.6888888888888887,0.7269841269841268,0.7365079365079363,0.7365079365079363,0.7365079365079363,0.7365079365079363,0.7365079365079363,0.7365079365079363,0.7365079365079363,0.7365079365079363,0.7365079365079363,0.7365079365079363,0.7365079365079363,0.7365079365079363,0.7365079365079363,0.7365079365079363,0.7365079365079363,0.7269841269841268,0.6984126984126983,0.622222222222222,0.5460317460317459,0.46984126984126967,0.42222222222222205,0.37460317460317444,0.34603174603174586,0.3365079365079363,0.3365079365079363,0.3365079365079363,0.3365079365079363,0.3365079365079363,0.3365079365079363,0.3365079365079363,0.3365079365079363,0.3365079365079363,0.3365079365079363,0.3365079365079363,0.3365079365079363,0.3365079365079363,0.3365079365079363,0.3365079365079363,0.3365079365079363,0.3365079365079363,0.3365079365079363,0.3365079365079363,0.34603174603174586,0.3650793650793649,0.38412698412698393,0.3936507936507935,0.3936507936507935,0.3936507936507935,0.3936507936507935,0.3936507936507935,0.3936507936507935,0.37460317460317444,0.34603174603174586,0.3269841269841268,0.29841269841269824,0.26984126984126966,0.2507936507936506,0.24126984126984108,0.22222222222222204,0.22222222222222204,0.21269841269841253,0.21269841269841253,0.21269841269841253,0.203174603174603,0.18412698412698394,0.15555555555555536,0.13650793650793633,0.1269841269841268,0.1269841269841268,0.1269841269841268,0.1269841269841268,0.1269841269841268,0.1269841269841268,0.1269841269841268,0.1269841269841268,0.1269841269841268,0.1269841269841268,0.1269841269841268,0.13650793650793633,0.14603174603174585,0.14603174603174585,0.15555555555555536,0.15555555555555536,0.1650793650793649,0.1650793650793649,0.1650793650793649,0.1650793650793649,0.1650793650793649,0.1650793650793649,0.1650793650793649,0.1650793650793649,0.17460317460317443,0.24126984126984108,0.38412698412698393,0.49841269841269825,0.603174603174603,0.7079365079365078,0.7746031746031744,0.7936507936507935,0.803174603174603,0.803174603174603,0.803174603174603,0.803174603174603,0.803174603174603,0.7936507936507935,0.7746031746031744,0.7365079365079363,0.6793650793650792,0.5936507936507934,0.403174603174603,0.2793650793650792,0.19365079365079346,0.10793650793650776,0.06031746031746014,0.022222222222222043,0.003174603174602994,-0.00634920634920653,-0.015873015873016053,-0.015873015873016053,-0.025396825396825577,-0.025396825396825577,-0.0349206349206351,-0.0349206349206351,-0.04444444444444463,-0.04444444444444463,-0.04444444444444463,-0.04444444444444463,-0.04444444444444463,-0.0349206349206351,-0.0349206349206351,-0.025396825396825577,-0.025396825396825577,-0.025396825396825577,-0.025396825396825577,-0.025396825396825577,-0.025396825396825577,-0.025396825396825577,-0.025396825396825577,-0.025396825396825577,-0.025396825396825577,-0.025396825396825577,-0.025396825396825577,-0.025396825396825577,-0.025396825396825577,-0.025396825396825577,-0.025396825396825577,-0.025396825396825577,-0.025396825396825577,-0.025396825396825577,-0.025396825396825577,-0.025396825396825577,-0.025396825396825577,-0.025396825396825577,-0.025396825396825577,-0.025396825396825577,-0.025396825396825577,-0.025396825396825577,-0.025396825396825577,-0.025396825396825577,-0.025396825396825577,-0.025396825396825577,-0.025396825396825577,-0.025396825396825577,-0.025396825396825577,-0.025396825396825577,-0.025396825396825577,0.08888888888888871,0.2507936507936506,0.45079365079365064,0.5841269841269839,0.6888888888888887,0.6888888888888887,0.6888888888888887,0.6888888888888887,0.6888888888888887,0.6888888888888887,0.6888888888888887,0.6888888888888887,0.6888888888888887,0.6888888888888887,0.6888888888888887,0.6888888888888887,0.6888888888888887,0.6888888888888887,0.6888888888888887,0.6888888888888887,0.6888888888888887,0.6888888888888887,0.6888888888888887,0.6888888888888887,0.6888888888888887,0.6888888888888887,0.6888888888888887,0.6888888888888887,0.6888888888888887,0.6888888888888887,0.6888888888888887,0.6888888888888887,0.6888888888888887,0.6888888888888887,0.6888888888888887,0.6888888888888887,0.6888888888888887,0.6888888888888887,0.6888888888888887,0.6888888888888887,0.6888888888888887,0.6888888888888887,0.6888888888888887,0.6888888888888887,0.6888888888888887,0.6888888888888887,0.6888888888888887,0.68888