[{"success":true,"trial_type":"fullscreen","trial_index":0,"time_elapsed":10220,"internal_node_id":"0.0-0.0","protocol_sum":"","subject_identifier":424,"subject_sum":[250,43,122,240,168,17,185,172,222,96,42,172,183,142,54,56,232,80,109,254,173,95,230,195,66,91,16,181,38,249,75,221],"subject_pair":212,"STUDY_ID":"66a22c0758a3d5c9d26873c6","PROLIFIC_PID":"5a791168f49c9a0001f31061","SESSION_ID":"66a2b86800eb899e368b75ee","practice_instructions":1,"leaderboard_instructions":1,"bonus":0,"reveal_word":false,"self_rating":"6","confidence":"91"},{"view_history":"[{\"page_index\":0,\"viewing_time\":7892.29999999702}]","rt":7893.899999991059,"trial_type":"instructions","trial_index":1,"time_elapsed":18117,"internal_node_id":"0.0-1.0","protocol_sum":"","subject_identifier":424,"subject_sum":[250,43,122,240,168,17,185,172,222,96,42,172,183,142,54,56,232,80,109,254,173,95,230,195,66,91,16,181,38,249,75,221],"subject_pair":212,"STUDY_ID":"66a22c0758a3d5c9d26873c6","PROLIFIC_PID":"5a791168f49c9a0001f31061","SESSION_ID":"66a2b86800eb899e368b75ee","practice_instructions":1,"leaderboard_instructions":1,"bonus":0,"reveal_word":false,"self_rating":"6","confidence":"91"},{"view_history":"[{\"page_index\":0,\"viewing_time\":25082.09999999404}]","rt":25083,"trial_type":"instructions","trial_index":2,"time_elapsed":43201,"internal_node_id":"0.0-2.0-0.0","protocol_sum":"","subject_identifier":424,"subject_sum":[250,43,122,240,168,17,185,172,222,96,42,172,183,142,54,56,232,80,109,254,173,95,230,195,66,91,16,181,38,249,75,221],"subject_pair":212,"STUDY_ID":"66a22c0758a3d5c9d26873c6","PROLIFIC_PID":"5a791168f49c9a0001f31061","SESSION_ID":"66a2b86800eb899e368b75ee","practice_instructions":1,"leaderboard_instructions":1,"bonus":0,"reveal_word":false,"self_rating":"6","confidence":"91"},{"rt":14396.70000000298,"responses":"{\"Q0\":\"... reveal the word with as <b>few letter guesses</b> as possible\"}","question_order":"[0]","trial_type":"survey-multi-choice","trial_index":3,"time_elapsed":57602,"internal_node_id":"0.0-2.0-1.0","protocol_sum":"","subject_identifier":424,"subject_sum":[250,43,122,240,168,17,185,172,222,96,42,172,183,142,54,56,232,80,109,254,173,95,230,195,66,91,16,181,38,249,75,221],"subject_pair":212,"correct":true,"test_part":"multichoice_nonpretend","STUDY_ID":"66a22c0758a3d5c9d26873c6","PROLIFIC_PID":"5a791168f49c9a0001f31061","SESSION_ID":"66a2b86800eb899e368b75ee","practice_instructions":1,"leaderboard_instructions":1,"bonus":0,"reveal_word":false,"self_rating":"6","confidence":"91"},{"view_history":"[{\"page_index\":0,\"viewing_time\":2240.199999988079}]","rt":2240.3999999910593,"trial_type":"instructions","trial_index":4,"time_elapsed":59844,"internal_node_id":"0.0-3.0","protocol_sum":"","subject_identifier":424,"subject_sum":[250,43,122,240,168,17,185,172,222,96,42,172,183,142,54,56,232,80,109,254,173,95,230,195,66,91,16,181,38,249,75,221],"subject_pair":212,"STUDY_ID":"66a22c0758a3d5c9d26873c6","PROLIFIC_PID":"5a791168f49c9a0001f31061","SESSION_ID":"66a2b86800eb899e368b75ee","practice_instructions":1,"leaderboard_instructions":1,"bonus":0,"reveal_word":false,"self_rating":"6","confidence":"91"},{"word":"ZEBRA","click_log":{"letter":["","E","O","A","I","U","M","C","J","N","Q","P","Y","X","W","V","S","T","B","F","G","D","L","Z","R"],"t":[0,2863.7000000029802,6653.29999999702,10275.10000000894,13888,18306.10000000894,22380.40000000596,24803.90000000596,26403.10000000894,28422.90000000596,30236.20000000298,31795,34003.79999999702,35328.60000000894,36684,37739,39049.90000000596,40269.10000000894,44904.20000000298,47745.70000000298,48850.79999999702,51106.79999999702,52911.90000000596,58738.79999999702,60652.40000000596],"hit":[null,1,0,1,0,0,0,0,0,0,0,0,0,0,0,0,0,0,1,0,0,0,0,1,1],"asked":["","E","EO","EOA","EOAI","EOAIU","EOAIUM","EOAIUMC","EOAIUMCJ","EOAIUMCJN","EOAIUMCJNQ","EOAIUMCJNQP","EOAIUMCJNQPY","EOAIUMCJNQPYX","EOAIUMCJNQPYXW","EOAIUMCJNQPYXWV","EOAIUMCJNQPYXWVS","EOAIUMCJNQPYXWVST","EOAIUMCJNQPYXWVSTB","EOAIUMCJNQPYXWVSTBF","EOAIUMCJNQPYXWVSTBFG","EOAIUMCJNQPYXWVSTBFGD","EOAIUMCJNQPYXWVSTBFGDL","EOAIUMCJNQPYXWVSTBFGDLZ","EOAIUMCJNQPYXWVSTBFGDLZR"],"word_state":["_____","_E___","_E___","_E__A","_E__A","_E__A","_E__A","_E__A","_E__A","_E__A","_E__A","_E__A","_E__A","_E__A","_E__A","_E__A","_E__A","_E__A","_EB_A","_EB_A","_EB_A","_EB_A","_EB_A","ZEB_A","ZEBRA"]},"hover_log":{"letter":["?","?","?","?","?","?","?","?","?","?","?","?","?","?","?","?","?","?","?","?","?","?","?","?","?","?","?","?","?","?","?","?","?","?","?","?","?","?","?","?","?","?","?","?","?","?","?","?","?","?","?","?","?","?","?","?","?","?","?","?","?","?","?","?","?","?","?","J","J","J","?","?","?","?","?","?","?","?","?","?","?","?","?","?","?","?","?","?","?","?","?","?","?","?","?","?","C","C","C","C","?","D","D","D","D","D","D","D","?","?","E","E","E","E","E","E","E","E","E","E","E","E","E","E","E","E","E","E","E","E","E","E","E","E","E","E","E","E","E","E","E","E","E","E","E","E","E","E","E","E","E","E","E","E","E","E","E","E","E","E","E","E","E","E","E","E","E","E","E","E","E","E","E","E","E","E","E","E","E","E","E","E","E","E","E","E","E","E","E","E","E","E","E","E","E","E","E","E","E","E","E","E","E","E","E","E","E","E","E","E","E","E","E","E","E","E","E","E","E","E","E","E","E","E","E","E","E","E","E","E","E","E","E","E","E","E","E","E","E","E","E","E","E","E","E","E","E","E","E","E","E","E","E","E","E","E","E","E","E","E","E","E","E","E","E","E","E","E","E","E","E","E","E","E","E","E","E","E","E","E","E","E","E","E","E","E","E","E","E","E","E","E","E","E","E","E","E","E","E","E","E","E","E","E","E","E","E","E","E","E","E","E","E","E","E","E","E","E","E","E","E","E","E","E","E","E","E","E","E","E","E","E","E","E","?","?","?","?","?","?","?","?","?","?","?","?","?","?","?","?","?","?","?","?","?","?","?","?","?","O","O","O","O","O","O","O","O","O","O","O","O","O","O","O","O","O","O","O","O","O","O","O","O","O","O","O","O","O","O","O","O","O","O","O","O","O","O","O","O","O","O","O","O","O","O","O","O","O","O","O","O","O","O","O","O","O","O","O","O","O","O","O","O","O","O","O","O","O","O","O","O","O","O","O","O","O","O","O","O","O","O","O","O","O","O","O","O","O","O","O","O","O","O","O","O","O","O","O","O","O","O","O","O","O","O","O","O","O","O","O","O","O","O","O","O","N","N","N","?","M","M","M","?","L","L","L","L","L","L","L","L","L","L","L","L","L","L","L","L","L","L","L","L","L","L","L","L","L","L","L","L","L","L","L","L","L","L","L","L","L","L","L","L","L","L","L","L","L","?","?","?","?","?","B","B","B","B","B","B","B","B","B","B","B","B","B","?","?","?","?","?","?","?","?","?","?","?","?","?","?","?","?","?","?","?","?","?","?","?","?","?","?","?","?","?","A","A","A","A","A","A","A","A","A","A","A","A","A","A","A","A","A","A","A","A","A","A","A","A","A","A","A","A","A","A","A","A","A","A","A","A","A","A","A","A","A","A","A","A","A","A","A","A","A","A","A","A","A","A","A","A","A","A","A","A","A","A","A","A","A","A","A","A","A","A","A","A","A","A","A","A","A","A","A","A","A","A","A","A","A","A","A","A","?","B","B","B","B","B","?","C","C","C","C","C","C","C","C","C","C","C","C","C","C","C","C","C","C","C","C","C","C","C","C","C","C","C","C","C","C","C","C","C","C","C","C","C","C","C","C","C","C","C","C","C","C","C","C","C","C","C","C","C","C","C","C","C","C","C","?","?","?","D","D","D","D","D","D","D","D","D","D","D","D","D","D","D","D","D","D","D","D","D","D","D","D","D","?","E","F","F","G","G","?","H","H","H","H","H","H","H","H","H","H","H","H","H","H","H","H","H","H","H","?","?","?","?","?","?","?","?","?","?","?","?","?","?","?","I","I","I","I","I","I","I","I","I","I","I","I","I","I","I","I","I","I","I","I","I","I","I","I","I","I","I","I","I","I","I","I","I","I","I","I","I","I","I","I","I","I","I","I","I","I","I","I","I","I","I","I","I","I","I","I","I","I","I","I","I","I","I","I","I","I","I","I","I","I","I","?","?","?","?","?","?","?","?","?","?","?","P","P","P","P","P","P","P","P","P","P","P","P","P","P","P","P","P","P","P","P","P","P","P","P","P","P","P","P","P","P","P","?","?","?","?","?","?","?","?","?","?","?","?","?","?","?","?","?","?","?","?","?","?","?","?","?","?","?","?","?","?","?","?","?","?","?","?","?","?","?","?","?","?","?","?","?","?","?","?","?","?","?","?","?","?","?","?","?","?","?","?","?","?","?","?","?","?","?","?","?","?","?","?","?","?","?","?","?","?","?","?","?","?","?","?","?","?","?","?","?","?","?","?","?","?","?","?","?","?","?","?","?","?","?","?","?","?","?","?","?","?","?","?","?","?","?","?","?","?","?","?","?","?","?","?","?","?","?","?","?","?","?","?","?","?","?","?","?","?","?","?","?","?","?","?","?","U","U","U","U","U","U","U","U","U","U","U","U","U","U","U","U","U","U","U","U","U","U","U","U","U","U","U","U","U","U","U","U","U","U","U","U","U","U","U","U","U","U","U","U","U","U","U","U","U","U","U","U","U","U","U","U","U","U","U","U","U","U","U","U","U","U","U","U","U","U","U","U","U","U","U","U","U","U","U","U","U","U","U","U","U","U","U","U","U","U","U","U","U","U","U","U","U","U","U","U","U","U","U","U","U","U","U","U","U","U","U","U","U","U","U","U","U","U","U","U","U","U","U","U","U","U","U","U","U","U","U","U","U","U","U","U","U","U","U","U","U","U","U","U","U","U","U","U","U","U","U","U","U","U","U","U","U","U","U","U","U","U","U","U","U","U","U","U","U","U","U","U","U","U","U","U","U","U","U","U","U","U","U","U","U","U","U","U","U","U","U","U","U","U","U","U","U","U","U","U","U","U","U","U","U","U","U","U","U","U","U","U","U","U","U","U","U","U","U","U","U","U","U","U","U","U","U","U","U","U","U","U","U","?","?","?","?","?","?","?","?","?","?","M","M","M","M","M","M","M","M","M","M","M","M","M","M","M","M","M","M","M","M","M","M","M","M","M","M","M","M","M","M","M","M","M","M","M","M","M","M","M","M","M","M","M","M","M","M","M","M","M","M","M","M","M","M","M","M","M","M","M","M","M","M","M","M","M","M","M","M","M","M","M","M","M","M","M","M","M","M","M","M","M","M","M","M","M","M","M","M","M","M","M","M","M","M","M","?","?","N","N","N","N","N","N","N","N","N","N","N","N","N","N","N","N","N","N","N","N","N","?","M","M","M","?","?","?","?","?","C","C","C","C","C","C","C","C","C","C","C","C","C","C","C","C","C","C","C","C","C","C","C","C","C","C","C","C","C","C","C","C","C","C","C","C","C","C","C","C","C","C","C","C","C","C","C","C","C","C","C","C","C","C","C","C","C","C","C","C","C","C","C","C","C","C","C","C","C","C","C","C","C","C","C","C","C","C","C","C","C","C","C","C","C","C","C","C","C","C","C","C","C","C","C","C","C","C","C","C","C","C","?","?","?","?","?","?","?","?","?","?","?","?","?","?","?","?","?","?","J","J","J","J","J","J","J","J","J","J","J","J","J","J","J","J","J","J","J","J","J","J","J","J","J","J","J","J","J","J","J","J","J","J","J","J","J","J","J","J","J","J","J","J","J","J","J","J","J","J","J","J","J","J","J","J","J","J","J","J","J","J","J","J","J","J","J","J","J","J","J","J","J","J","J","J","K","K","K","K","K","K","?","L","L","L","L","L","L","L","L","L","L","L","L","L","L","L","L","L","L","L","L","L","L","L","L","?","M","M","M","M","?","?","N","N","N","N","N","N","N","N","N","N","N","N","N","N","N","N","N","N","N","N","N","N","N","N","N","N","N","N","N","N","N","N","N","N","N","N","N","N","N","N","N","N","N","N","N","N","N","N","N","N","N","N","N","N","N","N","N","N","N","N","N","N","N","N","N","N","N","N","N","N","N","N","N","N","N","N","N","N","N","?","O","O","O","?","?","P","P","P","P","P","P","P","P","P","P","P","P","P","P","P","P","P","P","P","P","P","P","P","P","P","P","P","P","P","P","P","P","?","?","Q","Q","Q","Q","Q","Q","Q","Q","Q","Q","Q","Q","Q","Q","Q","Q","Q","Q","Q","Q","Q","Q","Q","Q","Q","Q","Q","Q","Q","Q","Q","Q","Q","Q","Q","Q","Q","Q","Q","Q","Q","Q","Q","Q","Q","Q","Q","Q","Q","Q","Q","Q","Q","Q","Q","Q","Q","Q","Q","Q","Q","Q","Q","Q","Q","Q","Q","Q","Q","Q","Q","Q","Q","Q","Q","Q","Q","?","?","?","P","P","P","P","P","P","P","P","P","P","P","P","P","P","P","P","P","P","P","P","P","P","P","P","P","P","P","P","P","P","P","P","P","P","P","P","P","P","P","P","P","P","P","P","P","P","P","P","P","P","P","P","P","P","P","P","P","P","P","P","P","P","P","P","P","P","P","P","P","P","P","P","P","P","P","P","P","P","P","P","P","P","P","P","P","P","P","P","P","P","P","P","P","P","P","P","P","P","P","P","P","P","P","P","P","P","P","P","P","P","P","P","P","P","P","P","P","P","P","P","P","P","P","P","P","?","?","?","?","?","?","?","?","?","?","?","?","?","?","?","Y","Y","Y","Y","Y","Y","Y","Y","Y","Y","Y","Y","Y","Y","Y","Y","Y","Y","Y","Y","Y","Y","Y","Y","Y","Y","Y","Y","Y","Y","Y","Y","Y","Y","Y","Y","Y","Y","Y","Y","Y","Y","Y","Y","Y","Y","Y","Y","Y","Y","Y","Y","Y","Y","Y","Y","Y","Y","Y","Y","Y","Y","Y","Y","Y","Y","Y","Y","Y","Y","Y","Y","Y","Y","Y","Y","Y","Y","Y","Y","Y","Y","?","?","?","X","X","X","X","X","X","X","X","X","X","X","X","X","X","X","X","X","X","X","X","X","X","X","X","X","X","X","X","X","X","X","X","X","X","X","X","X","X","X","X","X","X","X","X","X","X","X","X","X","X","X","X","X","X","X","X","X","X","X","X","X","X","X","X","X","X","?","?","?","W","W","W","W","W","W","W","W","W","W","W","W","W","W","W","W","W","W","W","W","W","W","W","W","W","W","W","W","W","W","W","W","W","W","W","W","W","W","W","W","W","W","W","W","W","W","W","W","W","W","W","W","W","W","W","W","W","W","W","W","W","W","W","W","W","W","W","?","?","?","V","V","V","V","V","V","V","V","V","V","V","V","V","V","V","V","V","V","V","V","V","V","V","V","V","V","V","V","V","V","V","V","V","V","V","V","V","V","V","V","V","V","V","V","V","V","V","V","V","V","V","V","V","V","V","V","V","V","V","V","V","V","V","V","V","V","V","V","V","V","V","V","?","U","U","T","T","T","?","?","S","S","S","S","S","S","S","S","S","S","S","S","S","S","S","S","S","S","S","S","S","S","S","S","S","S","S","S","S","S","S","S","S","S","S","S","S","S","S","S","S","S","S","S","S","S","S","S","S","S","S","S","S","S","S","S","S","S","S","S","S","S","S","S","S","S","S","S","S","S","S","S","S","?","T","T","T","T","T","T","T","T","T","T","T","T","T","T","T","T","T","T","T","T","T","T","T","T","T","T","T","T","T","T","T","T","T","T","T","T","T","T","T","T","T","T","T","T","T","T","T","T","T","T","T","T","T","T","T","T","T","T","T","T","T","T","T","T","T","T","T","T","T","T","T","T","T","T","T","T","T","T","T","T","T","T","T","T","T","T","T","T","T","T","T","T","T","T","T","T","T","T","T","T","T","T","T","T","T","T","T","T","T","T","T","T","T","T","T","T","T","T","T","T","T","T","T","T","T","T","T","T","T","T","T","T","T","T","T","T","T","T","T","T","T","T","T","T","T","T","T","T","T","T","T","T","T","T","T","T","T","T","T","T","T","T","T","T","T","T","T","T","T","T","T","T","T","T","T","T","T","T","T","T","T","T","T","T","T","T","T","T","T","T","T","T","T","T","T","T","T","T","T","T","T","T","T","T","T","T","T","T","T","T","T","T","T","T","T","T","T","T","T","T","T","T","T","T","T","T","T","T","T","T","T","T","T","T","T","T","T","T","T","T","T","T","T","T","T","T","T","K","K","K","?","?","?","?","?","?","?","?","?","?","?","?","?","?","?","?","?","?","?","?","?","?","?","?","?","?","?","?","B","B","B","B","B","B","B","B","B","B","B","B","B","B","B","B","B","B","B","B","B","B","B","B","B","B","B","B","B","B","B","B","B","B","B","B","B","B","B","B","B","B","B","B","B","B","B","B","B","B","B","B","B","B","B","B","B","B","B","B","B","B","B","B","B","B","B","B","B","B","B","?","C","C","C","?","D","D","D","D","D","D","D","D","D","D","D","D","D","D","D","D","D","D","D","D","D","D","D","D","D","D","D","D","D","D","D","D","D","D","D","?","E","E","E","E","E","E","E","E","E","?","?","?","?","?","F","F","F","F","F","F","F","F","F","F","F","F","F","F","F","F","F","F","F","F","F","F","F","F","F","F","F","F","F","F","F","F","F","F","F","F","F","F","F","F","F","F","F","F","F","F","F","F","F","F","F","F","F","F","F","F","F","F","F","F","F","F","F","F","F","F","F","F","F","F","F","F","F","F","F","F","F","F","F","F","F","F","F","F","F","F","F","F","F","F","F","F","F","F","F","F","F","F","F","F","F","F","?","?","?","G","G","G","G","G","G","G","G","G","G","G","G","G","G","G","G","G","G","G","G","G","G","G","G","G","G","G","G","G","G","G","G","G","G","G","G","G","G","G","G","G","G","G","G","G","G","G","G","G","G","G","G","G","G","G","G","G","G","G","G","G","G","G","G","G","G","G","G","G","G","G","G","G","G","G","G","?","F","F","F","E","E","E","?","D","D","D","?","?","C","C","C","C","C","C","C","C","C","C","C","C","C","C","C","C","C","C","C","C","C","C","C","C","C","C","?","?","?","?","D","D","D","D","D","D","D","D","D","D","D","D","D","D","D","D","D","D","D","D","D","D","D","D","D","D","D","D","D","D","D","D","D","D","D","D","D","D","D","D","D","D","D","D","D","D","D","D","D","D","D","D","D","D","D","D","D","D","D","D","D","D","D","D","D","D","D","D","D","D","D","D","D","D","D","D","D","D","D","D","?","?","?","?","?","?","?","?","?","L","L","L","L","L","L","L","L","L","L","L","L","L","L","L","L","L","L","L","L","L","L","L","L","L","L","L","L","L","L","L","L","L","L","L","L","L","L","L","L","L","L","L","L","L","L","L","L","L","L","L","L","L","L","L","L","L","L","L","L","L","L","L","L","L","L","L","L","L","L","L","L","L","L","L","L","L","L","L","L","L","L","L","L","L","L","L","L","L","L","L","L","L","L","L","L","L","L","L","L","L","L","L","L","?","?","?","?","K","K","K","K","K","K","K","K","K","K","K","K","K","K","K","K","K","K","K","K","K","K","K","K","K","K","K","K","K","K","K","K","K","K","K","K","K","K","K","K","K","K","K","K","K","K","K","K","K","K","K","K","K","K","K","K","?","?","C","C","C","?","?","?","?","?","?","?","?","?","?","?","?","?","?","?","?","?","?","?","?","?","?","?","?","?","?","?","?","?","?","?","?","?","?","?","?","?","?","?","?","?","?","?","?","?","?","?","?","?","?","?","?","?","?","?","?","?","?","?","?","?","?","?","?","?","?","?","?","?","?","?","?","?","?","?","?","?","?","?","?","?","?","?","?","?","?","?","?","?","?","?","?","?","?","?","?","?","?","?","?","?","?","?","?","?","?","?","?","?","?","?","?","?","?","?","?","?","?","?","?","?","?","?","?","?","?","?","?","?","?","?","?","?","?","?","?","?","?","?","?","?","?","?","?","?","?","?","?","?","?","?","?","?","?","?","?","?","?","?","?","?","?","?","?","?","?","?","?","?","?","?","?","?","?","?","?","?","?","?","?","D","D","D","D","D","D","D","D","D","D","D","D","D","D","D","D","?","E","?","?","O","P","P","P","P","P","P","P","P","P","P","P","P","P","?","?","?","?","?","?","Z","Z","Z","Z","Z","Z","Z","Z","Z","Z","Z","Z","Z","Z","Z","Z","Z","Z","Z","Z","Z","Z","Z","Z","Z","Z","Z","Z","Z","Z","Z","Z","Z","Z","Z","Z","Z","Z","Z","Z","Z","Z","Z","Z","Z","Z","Z","Z","Z","Z","Z","Z","Z","Z","Z","?","?","P","P","P","P","?","?","?","?","?","?","?","?","?","?","?","?","?","?","?","?","?","?","?","?","?","?","?","?","?","?","?","?","?","?","?","?","?","?","?","?","?","?","?","O","O","O","O","O","O","O","O","O","O","O","?","P","?","Q","Q","Q","R","R","R","R","R","R","R","R","R","R","R","R","R","R","R","R","R","R","R","R","R","R","R","R","R","R","R","R","R","R","R","R","R","R","R","R","R","R","R","R","R","R","R","R","R","R","R","R","R","R","R","R","R","R","R","R","R","R","R","R","R","R","R","R","R","R","R","R","R","R","R","R","R","R","R","R","R","R","R","R","R","R","R","R","R","R","R","R","R","R","R","R","R","R","R","R","R","R","R","R","R","R","R","R","R","R","R","R","R","R","R","R","R","R","R","R","R","R","R","R","R","R","R","R","R","R","R","R","R","R","R","R","R","R","R","R","R","R","R","R","R","R","R","R","R","R","R"],"t":[47,55,66,82,99,115,133,149,166,183,198,216,231,248,265,282,299,316,332,348,365,382,398,415,432,448,465,481,498,515,532,548,565,582,598,615,631,648,665,681,698,715,731,749,765,782,798,815,831,848,865,881,898,915,931,948,965,982,998,1015,1032,1048,1065,1082,1099,1116,1132,1150,1166,1183,1199,1215,1232,1249,1266,1282,1299,1315,1332,1349,1366,1383,1399,1415,1432,1449,1465,1482,1498,1515,1532,1552,1565,1582,1599,1616,1632,1649,1666,1683,1700,1717,1732,1749,1766,1782,1798,1816,1832,1849,1866,1883,1899,1915,1932,1948,1966,1982,1999,2015,2031,2048,2064,2081,2098,2115,2131,2148,2165,2181,2198,2215,2231,2249,2265,2282,2298,2315,2331,2349,2365,2381,2398,2415,2431,2448,2465,2482,2498,2519,2532,2549,2565,2581,2598,2614,2631,2648,2665,2682,2698,2714,2731,2748,2770,2781,2799,2816,2832,2852,2866,2882,2898,2915,2931,2949,2965,2982,2998,3015,3032,3048,3065,3081,3098,3115,3132,3148,3165,3182,3198,3215,3231,3248,3264,3281,3298,3315,3331,3348,3364,3381,3398,3415,3431,3448,3465,3481,3498,3515,3532,3548,3565,3581,3598,3614,3632,3648,3665,3681,3698,3715,3732,3748,3764,3781,3798,3814,3831,3848,3865,3881,3898,3914,3931,3948,3965,3982,4003,4031,4047,4064,4080,4097,4115,4130,4147,4164,4181,4197,4214,4231,4247,4264,4281,4297,4315,4331,4348,4364,4381,4398,4415,4431,4448,4464,4481,4497,4514,4531,4548,4564,4581,4597,4614,4631,4648,4664,4681,4697,4715,4730,4747,4764,4780,4797,4814,4830,4848,4864,4881,4897,4914,4930,4947,4964,4981,4997,5014,5031,5048,5064,5081,5097,5114,5130,5147,5164,5181,5197,5214,5231,5247,5264,5281,5297,5314,5331,5347,5364,5381,5397,5420,5434,5448,5464,5482,5498,5514,5531,5548,5564,5582,5599,5615,5631,5648,5665,5682,5698,5715,5732,5748,5764,5781,5799,5815,5831,5848,5864,5881,5898,5915,5931,5948,5965,5981,5998,6015,6032,6048,6065,6081,6098,6115,6131,6147,6164,6181,6198,6214,6231,6248,6265,6281,6298,6315,6331,6348,6364,6381,6398,6414,6431,6448,6465,6481,6497,6514,6537,6547,6564,6581,6598,6614,6635,6647,6669,6681,6698,6715,6731,6748,6766,6781,6798,6814,6832,6851,6864,6881,6898,6914,6931,6948,6965,6981,6997,7014,7031,7048,7064,7082,7098,7115,7131,7147,7164,7182,7198,7214,7231,7247,7265,7281,7298,7315,7331,7348,7365,7381,7398,7415,7431,7447,7464,7481,7497,7515,7531,7547,7564,7581,7598,7614,7631,7648,7664,7681,7697,7714,7731,7748,7764,7781,7798,7814,7832,7847,7864,7881,7897,7914,7932,7948,7965,7981,7999,8014,8032,8049,8065,8081,8098,8115,8131,8148,8164,8181,8198,8214,8231,8247,8264,8282,8303,8315,8331,8347,8364,8381,8397,8414,8431,8447,8464,8481,8497,8514,8531,8547,8564,8581,8597,8614,8631,8647,8664,8681,8698,8714,8731,8748,8765,8781,8798,8815,8831,8848,8865,8881,8898,8915,8932,8948,8964,8981,8998,9014,9031,9048,9064,9081,9098,9115,9131,9148,9165,9181,9197,9214,9231,9247,9264,9280,9297,9314,9331,9347,9364,9380,9397,9415,9431,9448,9464,9481,9497,9514,9530,9547,9565,9581,9598,9615,9632,9647,9664,9680,9702,9718,9731,9747,9764,9780,9797,9815,9832,9847,9864,9882,9897,9914,9931,9948,9964,9981,9998,10014,10031,10047,10064,10081,10097,10114,10131,10148,10164,10182,10198,10214,10231,10247,10264,10281,10297,10314,10331,10347,10364,10381,10398,10415,10430,10447,10464,10480,10497,10514,10531,10548,10564,10580,10597,10614,10631,10647,10664,10681,10697,10714,10731,10747,10764,10781,10797,10814,10831,10847,10864,10881,10898,10914,10931,10947,10964,10982,10997,11014,11031,11047,11064,11081,11098,11115,11132,11149,11164,11181,11197,11214,11231,11248,11264,11281,11297,11314,11331,11347,11364,11380,11397,11414,11431,11447,11464,11481,11497,11514,11531,11548,11564,11580,11598,11614,11630,11647,11664,11680,11698,11714,11731,11747,11765,11781,11798,11814,11832,11847,11864,11880,11897,11914,11931,11947,11964,11982,11997,12014,12030,12048,12064,12080,12098,12115,12131,12147,12164,12182,12197,12214,12231,12248,12264,12281,12298,12314,12331,12347,12364,12381,12397,12414,12430,12447,12464,12480,12497,12514,12535,12550,12564,12581,12597,12614,12631,12647,12664,12681,12697,12714,12731,12747,12764,12781,12797,12814,12831,12847,12864,12881,12897,12913,12930,12947,12964,12980,12997,13013,13032,13048,13064,13081,13098,13114,13130,13147,13164,13181,13197,13214,13230,13247,13264,13280,13297,13313,13330,13348,13364,13380,13397,13414,13431,13447,13465,13481,13497,13514,13531,13547,13564,13580,13597,13614,13630,13647,13664,13680,13697,13713,13730,13747,13764,13781,13800,13814,13831,13847,13864,13880,13898,13914,13935,13964,13980,13996,14013,14030,14046,14063,14080,14096,14113,14130,14146,14163,14180,14196,14214,14230,14247,14263,14280,14296,14313,14330,14347,14363,14380,14397,14413,14430,14447,14463,14480,14497,14514,14530,14547,14564,14580,14597,14614,14630,14647,14664,14680,14697,14714,14730,14746,14764,14780,14796,14813,14830,14846,14863,14880,14896,14913,14930,14947,14963,14981,14997,15013,15031,15047,15064,15080,15097,15114,15130,15147,15163,15181,15197,15214,15231,15247,15264,15280,15297,15320,15335,15348,15364,15381,15397,15414,15431,15447,15464,15480,15497,15514,15530,15547,15564,15580,15597,15614,15631,15647,15665,15680,15697,15713,15730,15747,15763,15780,15797,15813,15830,15847,15863,15880,15896,15913,15930,15947,15963,15980,15996,16014,16030,16047,16063,16080,16097,16113,16130,16147,16163,16180,16197,16213,16230,16246,16264,16280,16297,16313,16330,16347,16363,16380,16397,16414,16430,16447,16463,16480,16497,16513,16530,16547,16563,16580,16597,16614,16630,16646,16663,16680,16696,16713,16731,16749,16763,16780,16796,16813,16830,16846,16863,16880,16896,16913,16930,16947,16963,16980,16997,17013,17030,17047,17064,17080,17097,17114,17131,17147,17164,17181,17197,17214,17231,17247,17264,17281,17297,17313,17331,17348,17363,17380,17397,17413,17430,17447,17463,17480,17497,17514,17530,17547,17564,17580,17597,17614,17630,17647,17664,17680,17697,17714,17731,17748,17763,17781,17797,17813,17831,17847,17863,17880,17897,17914,17930,17947,17963,17980,17996,18013,18030,18047,18064,18080,18096,18114,18131,18146,18163,18180,18199,18213,18230,18246,18263,18281,18297,18315,18330,18347,18363,18380,18396,18413,18430,18447,18463,18480,18497,18513,18530,18546,18564,18580,18597,18614,18630,18646,18663,18680,18696,18714,18730,18747,18763,18780,18796,18814,18830,18847,18863,18880,18896,18913,18930,18947,18963,18980,18997,19013,19030,19047,19063,19080,19096,19113,19130,19147,19163,19180,19196,19213,19230,19246,19263,19280,19296,19314,19330,19346,19364,19380,19397,19413,19430,19446,19463,19480,19497,19513,19530,19547,19570,19596,19612,19629,19646,19662,19679,19696,19713,19729,19746,19763,19779,19796,19813,19829,19846,19863,19879,19896,19913,19929,19946,19963,19979,19996,20013,20029,20046,20063,20079,20097,20113,20129,20146,20163,20180,20196,20212,20229,20246,20263,20279,20296,20313,20329,20346,20363,20379,20396,20414,20430,20446,20463,20479,20496,20513,20529,20546,20563,20580,20596,20613,20629,20646,20663,20679,20696,20713,20729,20746,20763,20779,20796,20812,20829,20846,20862,20879,20896,20912,20929,20946,20963,20979,20996,21012,21030,21047,21062,21079,21096,21112,21129,21146,21162,21179,21196,21213,21229,21246,21262,21279,21296,21313,21330,21346,21363,21379,21396,21413,21430,21447,21463,21480,21497,21512,21529,21546,21562,21579,21597,21613,21630,21646,21663,21679,21697,21713,21730,21747,21763,21780,21796,21813,21829,21846,21863,21880,21896,21913,21929,21946,21963,21979,21996,22012,22029,22046,22063,22079,22096,22113,22129,22146,22162,22179,22196,22212,22229,22246,22263,22288,22312,22329,22346,22362,22382,22396,22413,22429,22446,22463,22479,22496,22512,22529,22546,22562,22579,22596,22613,22630,22647,22663,22679,22696,22712,22729,22746,22762,22779,22796,22812,22829,22846,22863,22879,22896,22912,22929,22946,22963,22979,22996,23013,23029,23046,23062,23079,23096,23112,23129,23146,23163,23179,23196,23213,23229,23245,23263,23279,23296,23312,23329,23346,23363,23379,23396,23414,23429,23446,23462,23479,23496,23512,23529,23546,23563,23579,23596,23613,23629,23646,23662,23679,23697,23714,23730,23747,23763,23780,23797,23813,23829,23847,23864,23881,23897,23913,23929,23946,23963,23979,23996,24012,24030,24046,24063,24079,24096,24113,24129,24146,24163,24179,24196,24213,24229,24246,24264,24279,24296,24313,24329,24346,24362,24380,24397,24413,24430,24446,24462,24479,24496,24513,24529,24546,24563,24580,24596,24613,24630,24646,24663,24679,24699,24713,24729,24746,24763,24779,24800,24813,24829,24846,24863,24879,24896,24912,24929,24946,24963,24980,24996,25013,25029,25046,25063,25079,25096,25113,25132,25146,25162,25179,25196,25213,25229,25246,25263,25280,25296,25313,25330,25346,25362,25379,25396,25412,25429,25446,25463,25479,25496,25513,25531,25546,25563,25579,25596,25613,25630,25646,25663,25680,25696,25713,25730,25746,25763,25779,25796,25814,25830,25846,25863,25879,25896,25913,25929,25946,25962,25980,25996,26013,26029,26046,26063,26079,26096,26112,26129,26146,26162,26179,26196,26212,26229,26246,26262,26279,26296,26312,26329,26346,26363,26379,26395,26413,26430,26446,26463,26479,26496,26513,26529,26548,26563,26579,26596,26613,26629,26646,26663,26679,26696,26713,26729,26746,26763,26780,26796,26813,26829,26846,26863,26879,26896,26912,26929,26946,26962,26979,26997,27012,27030,27046,27062,27079,27096,27113,27129,27147,27163,27180,27196,27213,27229,27246,27263,27279,27296,27314,27329,27346,27363,27379,27396,27413,27430,27446,27462,27479,27495,27512,27529,27546,27562,27580,27596,27613,27630,27646,27663,27680,27696,27713,27731,27746,27763,27779,27797,27813,27830,27847,27863,27880,27896,27912,27930,27949,27963,27979,27996,28013,28029,28046,28062,28079,28096,28112,28129,28146,28163,28179,28196,28212,28229,28246,28262,28279,28301,28312,28329,28345,28363,28379,28396,28417,28430,28446,28463,28479,28496,28513,28530,28546,28563,28579,28596,28612,28629,28646,28662,28679,28696,28713,28729,28746,28762,28779,28796,28812,28829,28846,28862,28880,28896,28912,28929,28946,28963,28979,28996,29013,29029,29047,29063,29080,29097,29113,29129,29147,29164,29180,29197,29213,29230,29247,29263,29279,29296,29313,29329,29351,29368,29395,29412,29429,29445,29463,29478,29495,29512,29528,29546,29562,29579,29596,29613,29629,29646,29662,29678,29696,29712,29729,29745,29762,29779,29796,29812,29829,29846,29862,29878,29896,29912,29928,29946,29962,29979,29995,30012,30029,30045,30062,30079,30095,30112,30128,30146,30162,30179,30195,30212,30229,30245,30262,30279,30295,30312,30328,30346,30362,30378,30395,30412,30429,30445,30462,30479,30495,30512,30528,30545,30562,30579,30595,30612,30629,30645,30662,30679,30695,30712,30729,30745,30762,30779,30797,30814,30828,30845,30862,30878,30895,30912,30929,30945,30962,30979,30996,31012,31029,31046,31062,31079,31096,31112,31129,31146,31162,31179,31196,31212,31229,31246,31262,31279,31296,31312,31328,31345,31362,31378,31395,31412,31428,31445,31462,31479,31495,31512,31529,31545,31562,31579,31595,31612,31628,31645,31662,31678,31697,31712,31728,31745,31762,31779,31796,31812,31828,31845,31862,31878,31895,31911,31928,31945,31962,31978,31995,32012,32028,32045,32062,32079,32096,32113,32129,32146,32161,32178,32195,32212,32230,32245,32261,32278,32295,32311,32328,32345,32362,32378,32395,32413,32428,32445,32462,32478,32495,32512,32528,32545,32562,32578,32595,32612,32628,32645,32662,32678,32695,32712,32728,32745,32762,32778,32795,32812,32828,32845,32861,32878,32895,32912,32928,32945,32962,32978,32995,33012,33028,33045,33062,33078,33096,33112,33128,33146,33162,33179,33196,33212,33229,33245,33262,33278,33295,33312,33328,33345,33362,33378,33395,33413,33430,33445,33462,33479,33495,33512,33528,33545,33562,33579,33595,33616,33629,33645,33662,33679,33695,33712,33729,33745,33762,33779,33795,33812,33828,33845,33862,33878,33895,33912,33929,33945,33962,33979,33995,34012,34029,34045,34062,34078,34095,34112,34129,34145,34162,34178,34196,34212,34229,34245,34262,34279,34295,34312,34328,34345,34362,34378,34395,34412,34429,34445,34462,34478,34495,34512,34529,34546,34562,34578,34596,34612,34629,34645,34662,34679,34695,34713,34728,34745,34762,34779,34796,34812,34830,34847,34862,34880,34896,34912,34928,34946,34962,34979,34995,35014,35030,35045,35062,35078,35096,35112,35128,35145,35162,35179,35195,35212,35229,35245,35262,35279,35296,35312,35330,35345,35362,35378,35395,35412,35428,35445,35462,35478,35495,35512,35529,35545,35562,35578,35595,35612,35628,35645,35662,35679,35695,35712,35729,35745,35762,35779,35795,35812,35828,35845,35862,35879,35896,35912,35929,35945,35962,35979,35996,36012,36028,36046,36062,36079,36096,36112,36129,36146,36162,36178,36195,36212,36228,36245,36262,36278,36295,36311,36328,36345,36362,36378,36395,36412,36435,36446,36462,36479,36496,36513,36529,36546,36562,36579,36595,36612,36628,36645,36661,36679,36695,36712,36728,36745,36762,36778,36795,36812,36828,36845,36862,36879,36895,36912,36928,36945,36962,36979,36995,37012,37030,37046,37062,37078,37096,37112,37129,37146,37163,37179,37195,37212,37230,37246,37262,37279,37295,37312,37329,37346,37362,37379,37395,37412,37428,37445,37462,37479,37495,37512,37529,37545,37561,37578,37595,37611,37628,37645,37662,37683,37695,37712,37729,37746,37762,37778,37795,37812,37832,37845,37862,37879,37895,37912,37929,37946,37961,37978,37995,38012,38028,38045,38061,38078,38095,38112,38128,38145,38162,38178,38195,38211,38228,38245,38262,38278,38295,38312,38328,38346,38362,38378,38396,38413,38429,38446,38462,38478,38496,38512,38528,38545,38562,38578,38595,38612,38628,38644,38662,38678,38695,38711,38728,38744,38762,38778,38795,38812,38828,38845,38862,38878,38895,38911,38928,38945,38962,38978,38995,39012,39028,39045,39062,39078,39095,39112,39129,39145,39162,39179,39195,39212,39228,39250,39278,39294,39311,39328,39345,39361,39378,39394,39411,39428,39444,39461,39478,39494,39511,39528,39545,39561,39578,39595,39611,39627,39644,39662,39678,39694,39712,39729,39745,39762,39778,39795,39811,39828,39844,39861,39877,39894,39911,39928,39944,39961,39978,39994,40011,40028,40044,40061,40078,40094,40111,40129,40147,40161,40177,40194,40212,40228,40244,40262,40278,40294,40311,40328,40344,40361,40378,40394,40411,40428,40445,40461,40478,40495,40511,40528,40544,40561,40577,40595,40611,40627,40645,40661,40686,40711,40727,40745,40761,40778,40794,40811,40827,40844,40861,40878,40894,40911,40928,40944,40961,40978,40994,41011,41027,41044,41061,41077,41094,41111,41128,41144,41161,41178,41194,41211,41227,41244,41261,41278,41294,41311,41327,41344,41361,41377,41394,41411,41428,41444,41461,41478,41494,41511,41527,41544,41561,41578,41594,41611,41628,41644,41661,41678,41694,41711,41728,41745,41762,41778,41794,41810,41827,41844,41861,41878,41894,41911,41927,41944,41961,41978,41994,42011,42028,42044,42061,42077,42094,42111,42127,42144,42161,42179,42194,42211,42228,42244,42261,42278,42294,42311,42328,42344,42361,42378,42395,42411,42428,42445,42461,42478,42495,42511,42528,42545,42561,42578,42595,42611,42628,42645,42661,42678,42695,42711,42728,42745,42762,42778,42794,42811,42828,42844,42861,42877,42894,42911,42928,42944,42961,42978,42994,43011,43028,43044,43062,43078,43095,43111,43128,43145,43161,43178,43194,43211,43228,43244,43261,43278,43295,43311,43328,43345,43361,43378,43395,43412,43428,43445,43461,43478,43494,43511,43528,43544,43561,43578,43595,43612,43633,43645,43661,43678,43694,43711,43728,43745,43761,43778,43795,43811,43828,43845,43861,43878,43895,43912,43928,43945,43961,43978,43994,44012,44028,44045,44061,44078,44094,44113,44128,44144,44161,44178,44194,44212,44228,44244,44261,44278,44294,44311,44328,44345,44361,44379,44394,44412,44428,44444,44461,44478,44495,44512,44528,44545,44562,44578,44595,44611,44628,44644,44661,44677,44695,44711,44727,44745,44761,44778,44797,44811,44828,44844,44861,44878,44900,44911,44928,44944,44961,44978,44995,45011,45028,45045,45065,45078,45094,45111,45127,45145,45161,45177,45194,45211,45228,45245,45261,45278,45295,45311,45328,45344,45361,45377,45395,45411,45428,45445,45461,45478,45495,45511,45527,45544,45561,45578,45595,45612,45629,45645,45662,45678,45695,45711,45728,45745,45761,45778,45794,45811,45827,45844,45861,45878,45895,45911,45927,45944,45961,45978,45994,46011,46028,46044,46061,46078,46094,46112,46128,46145,46161,46178,46194,46212,46228,46244,46262,46278,46294,46311,46328,46344,46361,46378,46395,46411,46429,46448,46461,46478,46494,46511,46528,46544,46561,46577,46594,46611,46628,46644,46661,46678,46695,46711,46728,46745,46761,46778,46795,46811,46828,46844,46861,46877,46895,46911,46927,46944,46961,46978,46995,47011,47028,47044,47061,47077,47094,47111,47127,47144,47161,47178,47195,47211,47228,47244,47261,47278,47294,47311,47327,47344,47361,47377,47394,47411,47428,47444,47461,47477,47494,47511,47527,47544,47561,47577,47594,47611,47627,47644,47660,47678,47694,47711,47728,47748,47761,47778,47794,47812,47832,47850,47877,47893,47910,47927,47943,47960,47977,47994,48010,48027,48044,48060,48077,48094,48111,48127,48144,48161,48177,48194,48211,48227,48244,48261,48277,48294,48311,48328,48344,48361,48377,48394,48411,48427,48444,48460,48477,48494,48510,48527,48544,48561,48577,48594,48610,48627,48644,48660,48677,48694,48710,48728,48744,48761,48778,48794,48811,48827,48845,48860,48877,48894,48911,48927,48944,48960,48977,48994,49011,49027,49044,49061,49077,49094,49110,49127,49144,49160,49177,49194,49210,49227,49244,49260,49277,49294,49311,49327,49344,49361,49377,49394,49411,49427,49444,49461,49478,49494,49511,49528,49544,49561,49578,49594,49611,49628,49645,49661,49678,49694,49711,49727,49744,49761,49777,49794,49811,49827,49844,49861,49877,49894,49911,49927,49945,49960,49977,49994,50011,50027,50044,50061,50077,50093,50111,50127,50144,50161,50177,50194,50211,50228,50244,50261,50278,50294,50311,50328,50344,50361,50377,50394,50410,50428,50444,50460,50477,50494,50511,50527,50552,50568,50594,50610,50628,50644,50660,50677,50693,50710,50727,50743,50760,50776,50793,50810,50827,50843,50860,50877,50893,50910,50926,50943,50960,50977,50993,51010,51028,51043,51060,51077,51094,51112,51127,51144,51160,51177,51194,51211,51227,51245,51260,51277,51294,51310,51326,51343,51360,51377,51393,51410,51427,51444,51460,51477,51494,51510,51527,51544,51560,51578,51594,51610,51627,51644,51660,51677,51694,51711,51727,51744,51760,51777,51794,51811,51827,51844,51860,51877,51894,51910,51927,51945,51964,51977,51994,52011,52027,52045,52061,52077,52093,52110,52127,52144,52160,52177,52195,52211,52227,52244,52261,52277,52293,52310,52327,52343,52360,52377,52394,52411,52428,52443,52461,52478,52494,52511,52527,52543,52560,52577,52594,52610,52627,52644,52660,52678,52694,52710,52727,52744,52760,52779,52794,52810,52827,52844,52860,52877,52894,52914,52928,52944,52961,52977,52993,53010,53027,53043,53060,53077,53093,53110,53127,53144,53160,53177,53194,53210,53227,53243,53260,53277,53294,53310,53327,53344,53362,53377,53394,53410,53428,53444,53461,53477,53494,53511,53527,53544,53561,53578,53595,53611,53628,53644,53660,53677,53694,53710,53727,53744,53760,53777,53794,53810,53827,53844,53861,53877,53894,53911,53927,53944,53960,53977,53994,54011,54027,54044,54060,54078,54094,54110,54127,54144,54160,54177,54194,54211,54227,54243,54260,54277,54294,54310,54327,54343,54360,54377,54393,54411,54428,54444,54461,54477,54494,54511,54528,54544,54560,54577,54594,54611,54627,54644,54660,54677,54693,54710,54734,54748,54776,54793,54810,54826,54843,54860,54876,54893,54910,54927,54944,54960,54977,54993,55010,55027,55043,55060,55077,55094,55110,55127,55143,55160,55177,55193,55211,55226,55243,55261,55277,55293,55310,55327,55343,55363,55377,55393,55410,55426,55443,55460,55477,55493,55510,55526,55544,55559,55576,55593,55610,55626,55643,55660,55676,55693,55710,55726,55743,55760,55776,55793,55809,55826,55843,55860,55876,55893,55910,55926,55943,55960,55977,55993,56009,56026,56043,56060,56076,56094,56110,56126,56144,56161,56177,56193,56210,56227,56244,56260,56277,56293,56310,56327,56344,56360,56376,56393,56410,56426,56443,56460,56477,56493,56510,56527,56544,56560,56577,56594,56610,56627,56644,56661,56678,56693,56710,56727,56743,56760,56777,56793,56810,56826,56844,56860,56877,56893,56910,56927,56943,56960,56977,56993,57010,57027,57044,57060,57077,57093,57110,57127,57143,57160,57177,57193,57210,57227,57243,57260,57277,57293,57310,57327,57344,57360,57377,57393,57410,57427,57443,57460,57477,57493,57511,57535,57560,57576,57593,57610,57627,57643,57659,57676,57693,57709,57726,57743,57759,57777,57793,57809,57827,57844,57860,57877,57893,57910,57928,57944,57960,57976,57993,58009,58027,58043,58060,58076,58093,58109,58126,58144,58160,58177,58194,58210,58226,58243,58260,58277,58293,58310,58326,58343,58360,58376,58393,58410,58427,58443,58460,58476,58493,58509,58526,58543,58560,58576,58593,58609,58628,58643,58659,58676,58693,58710,58726,58743,58760,58776,58793,58810,58826,58842,58860,58876,58893,58909,58926,58949,58962,58977,58993,59010,59026,59043,59060,59076,59093,59109,59126,59144,59160,59178,59193,59210,59227,59244,59260,59276,59293,59311,59326,59343,59360,59376,59393,59410,59427,59443,59460,59476,59493,59510,59526,59543,59560,59577,59593,59610,59626,59644,59660,59677,59693,59710,59727,59744,59760,59777,59794,59810,59827,59844,59860,59877,59893,59910,59927,59943,59960,59976,59993,60010,60026,60043,60060,60077,60094,60110,60126,60144,60160,60176,60194,60210,60227,60243,60260,60276,60293,60311,60326,60343,60359,60376,60393,60410,60427,60443,60459,60476,60493,60510,60526,60543,60560,60577,60593,60610,60626,60648,60665,60677,60694,60710,60726,60743,60760,60777,60793,60810,60827,60843,60860,60876,60893,60909,60927,60943,60960,60976,60993,61009,61026,61043,61059,61077,61093,61109,61126,61143,61160,61177,61193,61210,61226,61243,61260,61276,61293,61310,61327,61343,61360,61376,61393,61410,61427,61443,61460,61476,61494,61510,61527,61543,61560,61576,61593,61609,61626,61646,61663,61692,61710,61726,61743,61759,61776,61792,61810,61826,61843,61860,61876,61893,61909,61926,61943,61960,61976,61993,62009,62026,62042,62059,62076,62093,62109,62126,62143,62160,62176,62193,62210,62226,62242,62260,62276,62292,62309,62326,62343,62359,62376,62393,62409,62426,62443,62460,62476,62493,62509,62526,62542,62559,62576,62593,62609,62626,62643,62660],"hit":[null],"x":[-1.751700680272109,-1.751700680272109,-1.751700680272109,-1.751700680272109,-1.751700680272109,-1.751700680272109,-1.751700680272109,-1.751700680272109,-1.751700680272109,-1.751700680272109,-1.751700680272109,-1.751700680272109,-1.751700680272109,-1.751700680272109,-1.751700680272109,-1.751700680272109,-1.751700680272109,-1.751700680272109,-1.751700680272109,-1.751700680272109,-1.751700680272109,-1.751700680272109,-1.751700680272109,-1.751700680272109,-1.751700680272109,-1.751700680272109,-1.751700680272109,-1.751700680272109,-1.751700680272109,-1.751700680272109,-1.751700680272109,-1.751700680272109,-1.751700680272109,-1.751700680272109,-1.751700680272109,-1.751700680272109,-1.751700680272109,-1.751700680272109,-1.751700680272109,-1.751700680272109,-1.751700680272109,-1.751700680272109,-1.751700680272109,-1.751700680272109,-1.751700680272109,-1.751700680272109,-1.751700680272109,-1.751700680272109,-1.751700680272109,-1.751700680272109,-1.751700680272109,-1.751700680272109,-1.751700680272109,-1.751700680272109,-1.751700680272109,-1.751700680272109,-1.751700680272109,-1.751700680272109,-1.751700680272109,-1.751700680272109,-1.751700680272109,-1.751700680272109,-1.751700680272109,-1.751700680272109,-1.751700680272109,-1.751700680272109,-1.751700680272109,-0.023809523809523808,0.01020408163265306,0.030612244897959183,0.05102040816326531,0.06462585034013606,0.07142857142857142,0.07482993197278912,0.08503401360544217,0.08843537414965986,0.09523809523809523,0.10204081632653061,0.10884353741496598,0.11224489795918367,0.11904761904761904,0.12244897959183673,0.1292517006802721,0.1326530612244898,0.13945578231292516,0.14965986394557823,0.1564625850340136,0.16326530612244897,0.17006802721088435,0.18027210884353742,0.19047619047619047,0.19727891156462585,0.2108843537414966,0.23129251700680273,0.24149659863945577,0.25170068027210885,0.2687074829931973,0.282312925170068,0.3231292517006803,0.336734693877551,0.35714285714285715,0.38095238095238093,0.391156462585034,0.4013605442176871,0.41156462585034015,0.43197278911564624,0.4523809523809524,0.46938775510204084,0.5,0.5068027210884354,0.5170068027210885,0.5272108843537415,0.54421768707483,0.5476190476190477,0.5544217687074829,0.5544217687074829,0.5544217687074829,0.5544217687074829,0.5578231292517006,0.5578231292517006,0.5578231292517006,0.5578231292517006,0.5578231292517006,0.5578231292517006,0.5578231292517006,0.5578231292517006,0.5578231292517006,0.5578231292517006,0.5578231292517006,0.5578231292517006,0.5578231292517006,0.5578231292517006,0.5578231292517006,0.5578231292517006,0.5578231292517006,0.5578231292517006,0.5578231292517006,0.5578231292517006,0.5578231292517006,0.5578231292517006,0.5578231292517006,0.5578231292517006,0.5578231292517006,0.5578231292517006,0.5578231292517006,0.5578231292517006,0.5578231292517006,0.5578231292517006,0.5578231292517006,0.5578231292517006,0.5578231292517006,0.5578231292517006,0.5578231292517006,0.5578231292517006,0.5578231292517006,0.5578231292517006,0.5578231292517006,0.5578231292517006,0.5578231292517006,0.5578231292517006,0.5578231292517006,0.5578231292517006,0.5578231292517006,0.5578231292517006,0.5578231292517006,0.5578231292517006,0.5578231292517006,0.5578231292517006,0.5578231292517006,0.5578231292517006,0.5578231292517006,0.5578231292517006,0.5578231292517006,0.5578231292517006,0.5578231292517006,0.5578231292517006,0.5578231292517006,0.5578231292517006,0.5578231292517006,0.5578231292517006,0.5578231292517006,0.5578231292517006,0.5578231292517006,0.5578231292517006,0.5578231292517006,0.5578231292517006,0.5578231292517006,0.5578231292517006,0.5578231292517006,0.5578231292517006,0.5578231292517006,0.5578231292517006,0.5578231292517006,0.5578231292517006,0.5578231292517006,0.5578231292517006,0.5578231292517006,0.5578231292517006,0.5578231292517006,0.5578231292517006,0.5578231292517006,0.5578231292517006,0.5578231292517006,0.5578231292517006,0.5578231292517006,0.5578231292517006,0.5578231292517006,0.5578231292517006,0.5578231292517006,0.5578231292517006,0.5578231292517006,0.5578231292517006,0.5578231292517006,0.5578231292517006,0.5578231292517006,0.5578231292517006,0.5578231292517006,0.5578231292517006,0.5578231292517006,0.5578231292517006,0.5578231292517006,0.5578231292517006,0.5578231292517006,0.5578231292517006,0.5578231292517006,0.5578231292517006,0.5578231292517006,0.5578231292517006,0.5578231292517006,0.5578231292517006,0.5578231292517006,0.5578231292517006,0.5578231292517006,0.5578231292517006,0.5578231292517006,0.5578231292517006,0.5578231292517006,0.5578231292517006,0.5578231292517006,0.5578231292517006,0.5578231292517006,0.5578231292517006,0.5578231292517006,0.5578231292517006,0.5578231292517006,0.5578231292517006,0.5578231292517006,0.5578231292517006,0.5578231292517006,0.5578231292517006,0.5578231292517006,0.5578231292517006,0.5578231292517006,0.5578231292517006,0.5578231292517006,0.5578231292517006,0.5578231292517006,0.5578231292517006,0.5578231292517006,0.5578231292517006,0.5578231292517006,0.5578231292517006,0.5578231292517006,0.5578231292517006,0.5578231292517006,0.5578231292517006,0.5578231292517006,0.5578231292517006,0.5578231292517006,0.5578231292517006,0.5578231292517006,0.5578231292517006,0.5578231292517006,0.5578231292517006,0.5578231292517006,0.5578231292517006,0.5578231292517006,0.5578231292517006,0.5578231292517006,0.5578231292517006,0.5578231292517006,0.5578231292517006,0.5578231292517006,0.5578231292517006,0.5578231292517006,0.5578231292517006,0.5578231292517006,0.5578231292517006,0.5578231292517006,0.5578231292517006,0.5578231292517006,0.5578231292517006,0.5578231292517006,0.5578231292517006,0.5578231292517006,0.5578231292517006,0.5578231292517006,0.5578231292517006,0.5578231292517006,0.5578231292517006,0.5578231292517006,0.5578231292517006,0.5578231292517006,0.5578231292517006,0.5578231292517006,0.5578231292517006,0.5578231292517006,0.5578231292517006,0.5578231292517006,0.5578231292517006,0.5578231292517006,0.5578231292517006,0.5578231292517006,0.5578231292517006,0.5578231292517006,0.5578231292517006,0.5578231292517006,0.5578231292517006,0.5578231292517006,0.5578231292517006,0.5578231292517006,0.5578231292517006,0.5578231292517006,0.5578231292517006,0.5578231292517006,0.5578231292517006,0.5578231292517006,0.5578231292517006,0.5578231292517006,0.5578231292517006,0.5612244897959183,0.564625850340136,0.5714285714285714,0.5884353741496599,0.5986394557823129,0.6054421768707483,0.6054421768707483,0.6156462585034014,0.6224489795918368,0.6292517006802721,0.6292517006802721,0.6326530612244898,0.6326530612244898,0.6326530612244898,0.6326530612244898,0.6326530612244898,0.6360544217687075,0.6360544217687075,0.6360544217687075,0.6360544217687075,0.6360544217687075,0.6360544217687075,0.6394557823129252,0.6428571428571429,0.6462585034013606,0.6530612244897959,0.6530612244897959,0.6564625850340136,0.6564625850340136,0.6666666666666666,0.673469387755102,0.6768707482993197,0.6836734693877551,0.6836734693877551,0.6870748299319728,0.6870748299319728,0.6870748299319728,0.6870748299319728,0.6870748299319728,0.6870748299319728,0.6870748299319728,0.6870748299319728,0.6870748299319728,0.6870748299319728,0.6870748299319728,0.6870748299319728,0.6870748299319728,0.6870748299319728,0.6870748299319728,0.6870748299319728,0.6870748299319728,0.6870748299319728,0.6870748299319728,0.6870748299319728,0.6870748299319728,0.6870748299319728,0.6870748299319728,0.6870748299319728,0.6870748299319728,0.6870748299319728,0.6870748299319728,0.6870748299319728,0.6870748299319728,0.6870748299319728,0.6870748299319728,0.6870748299319728,0.6870748299319728,0.6870748299319728,0.6870748299319728,0.6870748299319728,0.6870748299319728,0.6870748299319728,0.6870748299319728,0.6870748299319728,0.6870748299319728,0.6870748299319728,0.6870748299319728,0.6870748299319728,0.6870748299319728,0.6870748299319728,0.6870748299319728,0.6870748299319728,0.6870748299319728,0.6870748299319728,0.6870748299319728,0.6870748299319728,0.6870748299319728,0.6870748299319728,0.6870748299319728,0.6870748299319728,0.6870748299319728,0.6870748299319728,0.6870748299319728,0.6870748299319728,0.6870748299319728,0.6870748299319728,0.6870748299319728,0.6870748299319728,0.6870748299319728,0.6870748299319728,0.6870748299319728,0.6870748299319728,0.6870748299319728,0.6870748299319728,0.6870748299319728,0.6870748299319728,0.6870748299319728,0.6870748299319728,0.6870748299319728,0.6870748299319728,0.6870748299319728,0.6870748299319728,0.6870748299319728,0.6870748299319728,0.6870748299319728,0.6870748299319728,0.6870748299319728,0.6870748299319728,0.6870748299319728,0.6870748299319728,0.6870748299319728,0.6870748299319728,0.6870748299319728,0.6870748299319728,0.6870748299319728,0.6870748299319728,0.6870748299319728,0.6870748299319728,0.6870748299319728,0.6870748299319728,0.6870748299319728,0.6870748299319728,0.6870748299319728,0.6870748299319728,0.6870748299319728,0.6870748299319728,0.6870748299319728,0.6870748299319728,0.6870748299319728,0.6870748299319728,0.6870748299319728,0.6870748299319728,0.6836734693877551,0.6802721088435374,0.6700680272108843,0.6258503401360545,0.5918367346938775,0.5612244897959183,0.5068027210884354,0.46938775510204084,0.4387755102040816,0.40816326530612246,0.3469387755102041,0.3163265306122449,0.2755102040816326,0.2619047619047619,0.25170068027210885,0.25170068027210885,0.25170068027210885,0.25170068027210885,0.25170068027210885,0.25170068027210885,0.25170068027210885,0.25170068027210885,0.25170068027210885,0.25170068027210885,0.25170068027210885,0.25170068027210885,0.25170068027210885,0.25170068027210885,0.25170068027210885,0.25170068027210885,0.25170068027210885,0.25170068027210885,0.25170068027210885,0.25170068027210885,0.25170068027210885,0.25170068027210885,0.25170068027210885,0.25170068027210885,0.25170068027210885,0.25170068027210885,0.25170068027210885,0.25170068027210885,0.25170068027210885,0.25170068027210885,0.25170068027210885,0.25170068027210885,0.25170068027210885,0.25170068027210885,0.25170068027210885,0.25170068027210885,0.25170068027210885,0.25170068027210885,0.25170068027210885,0.25170068027210885,0.25170068027210885,0.24829931972789115,0.23469387755102042,0.22789115646258504,0.22108843537414966,0.21768707482993196,0.20408163265306123,0.19047619047619047,0.17006802721088435,0.1598639455782313,0.15306122448979592,0.13945578231292516,0.1326530612244898,0.1292517006802721,0.11904761904761904,0.10204081632653061,0.09863945578231292,0.09863945578231292,0.09183673469387756,0.08843537414965986,0.08163265306122448,0.08163265306122448,0.08163265306122448,0.08163265306122448,0.08163265306122448,0.08163265306122448,0.08163265306122448,0.08163265306122448,0.08163265306122448,0.08163265306122448,0.08163265306122448,0.08163265306122448,0.08163265306122448,0.08163265306122448,0.08163265306122448,0.08163265306122448,0.08163265306122448,0.08163265306122448,0.08163265306122448,0.08163265306122448,0.08163265306122448,0.08163265306122448,0.08163265306122448,0.08163265306122448,0.0782312925170068,0.07482993197278912,0.06462585034013606,0.06462585034013606,0.061224489795918366,0.05782312925170068,0.05782312925170068,0.05442176870748299,0.05442176870748299,0.05442176870748299,0.05442176870748299,0.05442176870748299,0.05442176870748299,0.05102040816326531,0.05102040816326531,0.047619047619047616,0.047619047619047616,0.04421768707482993,0.04421768707482993,0.04081632653061224,0.04081632653061224,0.03741496598639456,0.03741496598639456,0.03741496598639456,0.034013605442176874,0.034013605442176874,0.034013605442176874,0.034013605442176874,0.034013605442176874,0.034013605442176874,0.034013605442176874,0.034013605442176874,0.034013605442176874,0.034013605442176874,0.034013605442176874,0.034013605442176874,0.034013605442176874,0.034013605442176874,0.034013605442176874,0.034013605442176874,0.034013605442176874,0.034013605442176874,0.034013605442176874,0.034013605442176874,0.034013605442176874,0.034013605442176874,0.034013605442176874,0.034013605442176874,0.034013605442176874,0.034013605442176874,0.034013605442176874,0.034013605442176874,0.034013605442176874,0.034013605442176874,0.034013605442176874,0.034013605442176874,0.034013605442176874,0.034013605442176874,0.034013605442176874,0.034013605442176874,0.034013605442176874,0.034013605442176874,0.034013605442176874,0.034013605442176874,0.034013605442176874,0.034013605442176874,0.034013605442176874,0.034013605442176874,0.034013605442176874,0.034013605442176874,0.034013605442176874,0.034013605442176874,0.034013605442176874,0.034013605442176874,0.034013605442176874,0.034013605442176874,0.034013605442176874,0.034013605442176874,0.034013605442176874,0.034013605442176874,0.034013605442176874,0.034013605442176874,0.034013605442176874,0.034013605442176874,0.034013605442176874,0.034013605442176874,0.034013605442176874,0.034013605442176874,0.034013605442176874,0.034013605442176874,0.04081632653061224,0.04421768707482993,0.05442176870748299,0.06462585034013606,0.09183673469387756,0.1054421768707483,0.1292517006802721,0.17687074829931973,0.19387755102040816,0.2108843537414966,0.24829931972789115,0.2619047619047619,0.2619047619047619,0.2619047619047619,0.2619047619047619,0.2619047619047619,0.2619047619047619,0.2619047619047619,0.2619047619047619,0.2619047619047619,0.2619047619047619,0.2619047619047619,0.2619047619047619,0.2619047619047619,0.2619047619047619,0.2619047619047619,0.2619047619047619,0.2619047619047619,0.2619047619047619,0.2619047619047619,0.2619047619047619,0.2619047619047619,0.2619047619047619,0.2619047619047619,0.2619047619047619,0.2619047619047619,0.2619047619047619,0.2619047619047619,0.2619047619047619,0.2619047619047619,0.2619047619047619,0.2619047619047619,0.2619047619047619,0.2619047619047619,0.2619047619047619,0.2619047619047619,0.2619047619047619,0.2619047619047619,0.2687074829931973,0.2687074829931973,0.272108843537415,0.282312925170068,0.2857142857142857,0.2891156462585034,0.29591836734693877,0.29931972789115646,0.29931972789115646,0.30272108843537415,0.30272108843537415,0.30272108843537415,0.30612244897959184,0.30952380952380953,0.30952380952380953,0.30952380952380953,0.3129251700680272,0.3197278911564626,0.32653061224489793,0.3299319727891156,0.3401360544217687,0.3435374149659864,0.35714285714285715,0.36394557823129253,0.3741496598639456,0.38095238095238093,0.3877551020408163,0.391156462585034,0.3979591836734694,0.41156462585034015,0.4217687074829932,0.43537414965986393,0.43537414965986393,0.43537414965986393,0.43537414965986393,0.43537414965986393,0.43537414965986393,0.43537414965986393,0.43537414965986393,0.43537414965986393,0.43537414965986393,0.43537414965986393,0.43537414965986393,0.43537414965986393,0.43537414965986393,0.43537414965986393,0.43537414965986393,0.4421768707482993,0.46258503401360546,0.5102040816326531,0.6020408163265306,0.6598639455782312,0.7074829931972789,0.8299319727891157,0.8843537414965986,0.9285714285714286,0.9659863945578231,0.9659863945578231,0.9659863945578231,0.9659863945578231,0.9659863945578231,0.9659863945578231,0.9659863945578231,0.9659863945578231,0.9659863945578231,0.9659863945578231,0.9659863945578231,0.9659863945578231,0.9659863945578231,0.9659863945578231,0.9659863945578231,0.9693877551020408,0.9897959183673469,1.0136054421768708,1.030612244897959,1.0476190476190477,1.0714285714285714,1.0782312925170068,1.08843537414966,1.0918367346938775,1.0918367346938775,1.0952380952380953,1.0952380952380953,1.0952380952380953,1.098639455782313,1.098639455782313,1.098639455782313,1.098639455782313,1.098639455782313,1.098639455782313,1.1020408163265305,1.1054421768707483,1.1088435374149659,1.119047619047619,1.1258503401360545,1.1360544217687074,1.1360544217687074,1.1394557823129252,1.1428571428571428,1.1428571428571428,1.1428571428571428,1.1428571428571428,1.1428571428571428,1.1428571428571428,1.1428571428571428,1.1428571428571428,1.1428571428571428,1.1428571428571428,1.1428571428571428,1.1428571428571428,1.1428571428571428,1.1428571428571428,1.1428571428571428,1.1428571428571428,1.1428571428571428,1.1428571428571428,1.1428571428571428,1.1428571428571428,1.1428571428571428,1.1428571428571428,1.1428571428571428,1.1428571428571428,1.1428571428571428,1.1428571428571428,1.1428571428571428,1.1428571428571428,1.1428571428571428,1.1428571428571428,1.1428571428571428,1.1428571428571428,1.1428571428571428,1.1428571428571428,1.1428571428571428,1.1428571428571428,1.1428571428571428,1.1428571428571428,1.1428571428571428,1.1428571428571428,1.1428571428571428,1.1428571428571428,1.1428571428571428,1.1428571428571428,1.1428571428571428,1.1428571428571428,1.1428571428571428,1.1428571428571428,1.1428571428571428,1.1428571428571428,1.1428571428571428,1.1428571428571428,1.1428571428571428,1.1428571428571428,1.1428571428571428,1.1428571428571428,1.1428571428571428,1.1428571428571428,1.1428571428571428,1.1428571428571428,1.1428571428571428,1.1394557823129252,1.1088435374149659,1.0782312925170068,1.0578231292517006,1.0204081632653061,1.0034013605442176,0.9931972789115646,0.9591836734693877,0.9387755102040817,0.9217687074829932,0.9047619047619048,0.8979591836734694,0.8945578231292517,0.891156462585034,0.891156462585034,0.891156462585034,0.891156462585034,0.891156462585034,0.891156462585034,0.891156462585034,0.891156462585034,0.891156462585034,0.891156462585034,0.891156462585034,0.891156462585034,0.891156462585034,0.891156462585034,0.891156462585034,0.891156462585034,0.891156462585034,0.891156462585034,0.891156462585034,0.891156462585034,0.891156462585034,0.891156462585034,0.891156462585034,0.8877551020408163,0.8843537414965986,0.8809523809523809,0.8775510204081632,0.8775510204081632,0.8707482993197279,0.8673469387755102,0.8605442176870748,0.8571428571428571,0.8401360544217688,0.8333333333333334,0.826530612244898,0.8163265306122449,0.8095238095238095,0.8027210884353742,0.7857142857142857,0.782312925170068,0.7789115646258503,0.7653061224489796,0.7551020408163265,0.7414965986394558,0.7414965986394558,0.7414965986394558,0.7414965986394558,0.7414965986394558,0.7414965986394558,0.7414965986394558,0.7414965986394558,0.7414965986394558,0.7414965986394558,0.7414965986394558,0.7414965986394558,0.7414965986394558,0.7414965986394558,0.7414965986394558,0.7414965986394558,0.7414965986394558,0.7414965986394558,0.7414965986394558,0.7414965986394558,0.7414965986394558,0.7414965986394558,0.7414965986394558,0.7414965986394558,0.7414965986394558,0.7414965986394558,0.7414965986394558,0.7414965986394558,0.7414965986394558,0.7414965986394558,0.7414965986394558,0.7414965986394558,0.7414965986394558,0.7414965986394558,0.7414965986394558,0.7414965986394558,0.7414965986394558,0.7414965986394558,0.7414965986394558,0.7414965986394558,0.7414965986394558,0.7414965986394558,0.7414965986394558,0.7414965986394558,0.7414965986394558,0.7414965986394558,0.7414965986394558,0.7414965986394558,0.7414965986394558,0.7414965986394558,0.7414965986394558,0.7414965986394558,0.7414965986394558,0.7414965986394558,0.7414965986394558,0.7414965986394558,0.7414965986394558,0.7414965986394558,0.7414965986394558,0.7414965986394558,0.7414965986394558,0.7414965986394558,0.7414965986394558,0.7414965986394558,0.7414965986394558,0.7414965986394558,0.7414965986394558,0.7414965986394558,0.7414965986394558,0.7414965986394558,0.7414965986394558,0.7414965986394558,0.7414965986394558,0.7414965986394558,0.7414965986394558,0.7414965986394558,0.7414965986394558,0.7414965986394558,0.7414965986394558,0.7414965986394558,0.7414965986394558,0.7414965986394558,0.7414965986394558,0.7414965986394558,0.7414965986394558,0.7414965986394558,0.7414965986394558,0.7414965986394558,0.7414965986394558,0.7414965986394558,0.7414965986394558,0.7414965986394558,0.7414965986394558,0.7414965986394558,0.7414965986394558,0.7414965986394558,0.7414965986394558,0.7414965986394558,0.7380952380952381,0.7380952380952381,0.7346938775510204,0.7244897959183674,0.6666666666666666,0.6292517006802721,0.5918367346938775,0.5170068027210885,0.47619047619047616,0.4421768707482993,0.41156462585034015,0.3707482993197279,0.35374149659863946,0.3299319727891156,0.3197278911564626,0.30952380952380953,0.30612244897959184,0.30612244897959184,0.30272108843537415,0.30272108843537415,0.29931972789115646,0.29931972789115646,0.29931972789115646,0.29931972789115646,0.29931972789115646,0.29931972789115646,0.29931972789115646,0.29931972789115646,0.29931972789115646,0.29931972789115646,0.29931972789115646,0.29931972789115646,0.29931972789115646,0.29931972789115646,0.29931972789115646,0.29931972789115646,0.29931972789115646,0.29931972789115646,0.29591836734693877,0.2925170068027211,0.2891156462585034,0.282312925170068,0.282312925170068,0.2789115646258503,0.2789115646258503,0.2789115646258503,0.2789115646258503,0.2789115646258503,0.2789115646258503,0.2789115646258503,0.2789115646258503,0.2789115646258503,0.2789115646258503,0.2789115646258503,0.2789115646258503,0.2789115646258503,0.2789115646258503,0.2789115646258503,0.2789115646258503,0.2789115646258503,0.2789115646258503,0.2789115646258503,0.2789115646258503,0.2789115646258503,0.2789115646258503,0.2789115646258503,0.2789115646258503,0.2789115646258503,0.2789115646258503,0.2789115646258503,0.2789115646258503,0.2789115646258503,0.2789115646258503,0.2789115646258503,0.2789115646258503,0.2789115646258503,0.2789115646258503,0.2789115646258503,0.2789115646258503,0.2789115646258503,0.2789115646258503,0.2789115646258503,0.2789115646258503,0.2789115646258503,0.2789115646258503,0.2789115646258503,0.2789115646258503,0.2789115646258503,0.2789115646258503,0.2789115646258503,0.2789115646258503,0.2789115646258503,0.2789115646258503,0.2789115646258503,0.2789115646258503,0.2789115646258503,0.2789115646258503,0.2789115646258503,0.2789115646258503,0.2789115646258503,0.2789115646258503,0.2789115646258503,0.2789115646258503,0.2789115646258503,0.2789115646258503,0.2789115646258503,0.2789115646258503,0.2789115646258503,0.2789115646258503,0.2789115646258503,0.2789115646258503,0.2789115646258503,0.2789115646258503,0.2789115646258503,0.2789115646258503,0.2789115646258503,0.2789115646258503,0.2789115646258503,0.2789115646258503,0.2789115646258503,0.2789115646258503,0.2789115646258503,0.2789115646258503,0.2789115646258503,0.2789115646258503,0.2789115646258503,0.2789115646258503,0.2789115646258503,0.2789115646258503,0.2789115646258503,0.2789115646258503,0.2789115646258503,0.2789115646258503,0.2789115646258503,0.2789115646258503,0.2789115646258503,0.2789115646258503,0.2789115646258503,0.2789115646258503,0.2789115646258503,0.2789115646258503,0.2789115646258503,0.2789115646258503,0.2789115646258503,0.2789115646258503,0.2789115646258503,0.2789115646258503,0.2789115646258503,0.2789115646258503,0.2789115646258503,0.2789115646258503,0.2789115646258503,0.2789115646258503,0.2789115646258503,0.2789115646258503,0.2789115646258503,0.2789115646258503,0.2789115646258503,0.2789115646258503,0.2789115646258503,0.2789115646258503,0.2789115646258503,0.2789115646258503,0.2789115646258503,0.2789115646258503,0.2789115646258503,0.2789115646258503,0.2789115646258503,0.2789115646258503,0.2789115646258503,0.2789115646258503,0.2789115646258503,0.2789115646258503,0.2789115646258503,0.2789115646258503,0.2789115646258503,0.2789115646258503,0.2789115646258503,0.2789115646258503,0.2789115646258503,0.2789115646258503,0.2789115646258503,0.2789115646258503,0.2789115646258503,0.2789115646258503,0.2789115646258503,0.2789115646258503,0.2789115646258503,0.2789115646258503,0.2789115646258503,0.2789115646258503,0.2789115646258503,0.2789115646258503,0.2789115646258503,0.2789115646258503,0.2789115646258503,0.2789115646258503,0.2789115646258503,0.2789115646258503,0.2789115646258503,0.2789115646258503,0.2789115646258503,0.2789115646258503,0.2789115646258503,0.2789115646258503,0.2789115646258503,0.2789115646258503,0.2789115646258503,0.2789115646258503,0.2789115646258503,0.2789115646258503,0.2789115646258503,0.2789115646258503,0.2789115646258503,0.2789115646258503,0.2789115646258503,0.2789115646258503,0.2789115646258503,0.2789115646258503,0.2789115646258503,0.2789115646258503,0.2789115646258503,0.2789115646258503,0.2789115646258503,0.2789115646258503,0.2789115646258503,0.2789115646258503,0.2789115646258503,0.2789115646258503,0.2789115646258503,0.2789115646258503,0.2789115646258503,0.2789115646258503,0.2789115646258503,0.2789115646258503,0.2789115646258503,0.2789115646258503,0.2789115646258503,0.2789115646258503,0.2789115646258503,0.2789115646258503,0.2789115646258503,0.2789115646258503,0.2789115646258503,0.2789115646258503,0.2789115646258503,0.2789115646258503,0.2789115646258503,0.2789115646258503,0.2789115646258503,0.2789115646258503,0.2789115646258503,0.2789115646258503,0.2789115646258503,0.2789115646258503,0.2789115646258503,0.2789115646258503,0.2789115646258503,0.2789115646258503,0.2789115646258503,0.2789115646258503,0.2789115646258503,0.2789115646258503,0.2789115646258503,0.2789115646258503,0.2789115646258503,0.282312925170068,0.2857142857142857,0.30272108843537415,0.3129251700680272,0.3197278911564626,0.3299319727891156,0.3333333333333333,0.3401360544217687,0.3469387755102041,0.35374149659863946,0.3741496598639456,0.38095238095238093,0.3877551020408163,0.3945578231292517,0.4013605442176871,0.40476190476190477,0.40816326530612246,0.4217687074829932,0.42517006802721086,0.43197278911564624,0.43537414965986393,0.4387755102040816,0.4387755102040816,0.4421768707482993,0.4421768707482993,0.4421768707482993,0.4421768707482993,0.4421768707482993,0.4421768707482993,0.4421768707482993,0.4421768707482993,0.4421768707482993,0.4421768707482993,0.4421768707482993,0.4421768707482993,0.4421768707482993,0.4421768707482993,0.4421768707482993,0.4421768707482993,0.4421768707482993,0.4421768707482993,0.4421768707482993,0.4421768707482993,0.4421768707482993,0.4421768707482993,0.4421768707482993,0.4421768707482993,0.4421768707482993,0.4421768707482993,0.4421768707482993,0.4421768707482993,0.4421768707482993,0.4421768707482993,0.4421768707482993,0.4421768707482993,0.4421768707482993,0.4421768707482993,0.4421768707482993,0.4421768707482993,0.4421768707482993,0.4421768707482993,0.4421768707482993,0.4421768707482993,0.4421768707482993,0.4421768707482993,0.4421768707482993,0.4421768707482993,0.4421768707482993,0.4421768707482993,0.4421768707482993,0.4421768707482993,0.4421768707482993,0.4421768707482993,0.4421768707482993,0.4421768707482993,0.4421768707482993,0.4421768707482993,0.4421768707482993,0.4421768707482993,0.4421768707482993,0.4421768707482993,0.4421768707482993,0.4421768707482993,0.4421768707482993,0.4421768707482993,0.4421768707482993,0.4421768707482993,0.4421768707482993,0.4421768707482993,0.4421768707482993,0.4421768707482993,0.4421768707482993,0.4421768707482993,0.4421768707482993,0.4421768707482993,0.4421768707482993,0.4421768707482993,0.4421768707482993,0.4421768707482993,0.4421768707482993,0.4421768707482993,0.4421768707482993,0.4421768707482993,0.4421768707482993,0.4421768707482993,0.445578231292517,0.4523809523809524,0.4897959183673469,0.5102040816326531,0.5238095238095238,0.5238095238095238,0.5238095238095238,0.5238095238095238,0.5238095238095238,0.5238095238095238,0.5238095238095238,0.5238095238095238,0.5238095238095238,0.5238095238095238,0.5238095238095238,0.5238095238095238,0.5238095238095238,0.5238095238095238,0.5238095238095238,0.5238095238095238,0.5238095238095238,0.5238095238095238,0.5238095238095238,0.5238095238095238,0.5204081632653061,0.4965986394557823,0.47619047619047616,0.4523809523809524,0.40816326530612246,0.3877551020408163,0.3707482993197279,0.3401360544217687,0.32653061224489793,0.3197278911564626,0.30612244897959184,0.29931972789115646,0.29591836734693877,0.2925170068027211,0.2925170068027211,0.2925170068027211,0.2925170068027211,0.2925170068027211,0.2925170068027211,0.2925170068027211,0.2925170068027211,0.2925170068027211,0.2925170068027211,0.2925170068027211,0.2925170068027211,0.2925170068027211,0.2925170068027211,0.2925170068027211,0.2925170068027211,0.2925170068027211,0.2925170068027211,0.2925170068027211,0.2925170068027211,0.2925170068027211,0.2925170068027211,0.2925170068027211,0.2925170068027211,0.2925170068027211,0.2925170068027211,0.2925170068027211,0.2925170068027211,0.2925170068027211,0.2925170068027211,0.2925170068027211,0.2925170068027211,0.2925170068027211,0.2925170068027211,0.2925170068027211,0.2925170068027211,0.2925170068027211,0.2925170068027211,0.2925170068027211,0.2925170068027211,0.2925170068027211,0.2925170068027211,0.2925170068027211,0.2925170068027211,0.2925170068027211,0.2925170068027211,0.2925170068027211,0.2925170068027211,0.2925170068027211,0.2925170068027211,0.2925170068027211,0.2925170068027211,0.2925170068027211,0.2925170068027211,0.2925170068027211,0.2925170068027211,0.2925170068027211,0.2925170068027211,0.2925170068027211,0.2925170068027211,0.2925170068027211,0.2925170068027211,0.2925170068027211,0.2925170068027211,0.2925170068027211,0.2925170068027211,0.2925170068027211,0.2925170068027211,0.2925170068027211,0.2925170068027211,0.2925170068027211,0.2925170068027211,0.2925170068027211,0.2925170068027211,0.2925170068027211,0.2925170068027211,0.2925170068027211,0.2925170068027211,0.2925170068027211,0.2925170068027211,0.2925170068027211,0.2925170068027211,0.2925170068027211,0.2925170068027211,0.2925170068027211,0.2925170068027211,0.2925170068027211,0.2925170068027211,0.2925170068027211,0.2925170068027211,0.2925170068027211,0.2925170068027211,0.2925170068027211,0.2925170068027211,0.2925170068027211,0.2925170068027211,0.2891156462585034,0.282312925170068,0.25170068027210885,0.23129251700680273,0.20748299319727892,0.16666666666666666,0.14625850340136054,0.1360544217687075,0.11224489795918367,0.1054421768707483,0.09863945578231292,0.08843537414965986,0.08503401360544217,0.08503401360544217,0.08163265306122448,0.07482993197278912,0.07142857142857142,0.06802721088435375,0.061224489795918366,0.05442176870748299,0.05442176870748299,0.05102040816326531,0.05102040816326531,0.05102040816326531,0.05102040816326531,0.05102040816326531,0.05102040816326531,0.05102040816326531,0.047619047619047616,0.047619047619047616,0.047619047619047616,0.047619047619047616,0.047619047619047616,0.047619047619047616,0.047619047619047616,0.047619047619047616,0.047619047619047616,0.047619047619047616,0.047619047619047616,0.047619047619047616,0.047619047619047616,0.047619047619047616,0.047619047619047616,0.047619047619047616,0.047619047619047616,0.047619047619047616,0.047619047619047616,0.047619047619047616,0.047619047619047616,0.047619047619047616,0.047619047619047616,0.047619047619047616,0.047619047619047616,0.047619047619047616,0.047619047619047616,0.047619047619047616,0.047619047619047616,0.047619047619047616,0.047619047619047616,0.047619047619047616,0.047619047619047616,0.047619047619047616,0.047619047619047616,0.047619047619047616,0.047619047619047616,0.047619047619047616,0.047619047619047616,0.047619047619047616,0.047619047619047616,0.047619047619047616,0.047619047619047616,0.047619047619047616,0.047619047619047616,0.047619047619047616,0.047619047619047616,0.047619047619047616,0.047619047619047616,0.047619047619047616,0.047619047619047616,0.047619047619047616,0.047619047619047616,0.047619047619047616,0.047619047619047616,0.047619047619047616,0.047619047619047616,0.047619047619047616,0.047619047619047616,0.047619047619047616,0.047619047619047616,0.047619047619047616,0.047619047619047616,0.047619047619047616,0.047619047619047616,0.047619047619047616,0.047619047619047616,0.047619047619047616,0.05102040816326531,0.08843537414965986,0.11564625850340136,0.15306122448979592,0.16666666666666666,0.18027210884353742,0.19387755102040816,0.22108843537414966,0.23469387755102042,0.24489795918367346,0.2653061224489796,0.2755102040816326,0.2891156462585034,0.30272108843537415,0.30272108843537415,0.30272108843537415,0.30272108843537415,0.30272108843537415,0.30272108843537415,0.30272108843537415,0.30272108843537415,0.30272108843537415,0.30272108843537415,0.30272108843537415,0.30272108843537415,0.30272108843537415,0.30272108843537415,0.30272108843537415,0.30272108843537415,0.30272108843537415,0.30612244897959184,0.30952380952380953,0.35374149659863946,0.3877551020408163,0.41496598639455784,0.46258503401360546,0.47959183673469385,0.4931972789115646,0.5102040816326531,0.5306122448979592,0.5408163265306123,0.5476190476190477,0.5578231292517006,0.564625850340136,0.5714285714285714,0.5748299319727891,0.5782312925170068,0.5816326530612245,0.5816326530612245,0.5816326530612245,0.5850340136054422,0.5850340136054422,0.5850340136054422,0.5850340136054422,0.5850340136054422,0.5850340136054422,0.5850340136054422,0.5850340136054422,0.5850340136054422,0.5850340136054422,0.5850340136054422,0.5850340136054422,0.5850340136054422,0.5850340136054422,0.5850340136054422,0.5850340136054422,0.5850340136054422,0.5850340136054422,0.5850340136054422,0.5850340136054422,0.5850340136054422,0.5850340136054422,0.5850340136054422,0.5850340136054422,0.5850340136054422,0.5850340136054422,0.5850340136054422,0.5850340136054422,0.5850340136054422,0.5850340136054422,0.5850340136054422,0.5850340136054422,0.5850340136054422,0.5850340136054422,0.5850340136054422,0.5850340136054422,0.5850340136054422,0.5850340136054422,0.5850340136054422,0.5850340136054422,0.5850340136054422,0.5850340136054422,0.5850340136054422,0.5850340136054422,0.5850340136054422,0.5850340136054422,0.5850340136054422,0.5850340136054422,0.5850340136054422,0.5850340136054422,0.5850340136054422,0.5850340136054422,0.5850340136054422,0.5850340136054422,0.5850340136054422,0.5850340136054422,0.5850340136054422,0.5850340136054422,0.5850340136054422,0.5850340136054422,0.5850340136054422,0.5850340136054422,0.5850340136054422,0.5850340136054422,0.5850340136054422,0.5850340136054422,0.5850340136054422,0.6054421768707483,0.6326530612244898,0.6666666666666666,0.7244897959183674,0.7448979591836735,0.7653061224489796,0.782312925170068,0.8197278911564626,0.8367346938775511,0.8605442176870748,0.8707482993197279,0.8809523809523809,0.8945578231292517,0.8979591836734694,0.9013605442176871,0.9013605442176871,0.9047619047619048,0.9047619047619048,0.9047619047619048,0.9047619047619048,0.9047619047619048,0.9047619047619048,0.9047619047619048,0.9047619047619048,0.9047619047619048,0.9047619047619048,0.9047619047619048,0.9047619047619048,0.9047619047619048,0.9047619047619048,0.9047619047619048,0.9047619047619048,0.9047619047619048,0.9047619047619048,0.9047619047619048,0.9047619047619048,0.9047619047619048,0.9081632653061225,0.9081632653061225,0.9149659863945578,0.9319727891156463,0.9455782312925171,0.95578231292517,0.9727891156462585,0.9795918367346939,0.9829931972789115,0.9897959183673469,0.9931972789115646,0.9931972789115646,0.9931972789115646,0.9931972789115646,0.9931972789115646,0.9931972789115646,0.9931972789115646,0.9931972789115646,0.9931972789115646,0.9931972789115646,0.9931972789115646,0.9931972789115646,0.9931972789115646,0.9931972789115646,0.9931972789115646,0.9931972789115646,0.9931972789115646,0.9931972789115646,0.9931972789115646,0.9931972789115646,0.9931972789115646,0.9931972789115646,0.9931972789115646,0.9931972789115646,0.9931972789115646,0.9931972789115646,0.9931972789115646,0.9931972789115646,0.9931972789115646,0.9931972789115646,0.9931972789115646,0.9931972789115646,0.9931972789115646,0.9931972789115646,0.9931972789115646,0.9931972789115646,0.9931972789115646,0.9931972789115646,0.9931972789115646,0.9931972789115646,0.9931972789115646,0.9931972789115646,0.9931972789115646,0.9931972789115646,0.9931972789115646,0.9931972789115646,0.9931972789115646,0.9931972789115646,0.9931972789115646,0.9931972789115646,0.9931972789115646,0.9931972789115646,0.9931972789115646,0.9931972789115646,0.9931972789115646,0.9931972789115646,0.9931972789115646,0.9931972789115646,0.9931972789115646,0.9931972789115646,0.9931972789115646,0.9931972789115646,0.9931972789115646,0.9931972789115646,0.9931972789115646,0.9931972789115646,0.9931972789115646,0.9931972789115646,0.9863945578231292,0.9625850340136054,0.9489795918367347,0.9387755102040817,0.9217687074829932,0.9183673469387755,0.9149659863945578,0.9115646258503401,0.9081632653061225,0.9047619047619048,0.9013605442176871,0.8945578231292517,0.891156462585034,0.8809523809523809,0.8741496598639455,0.8673469387755102,0.8673469387755102,0.8571428571428571,0.8537414965986394,0.8503401360544217,0.8469387755102041,0.8469387755102041,0.8469387755102041,0.8469387755102041,0.8469387755102041,0.8469387755102041,0.8469387755102041,0.8469387755102041,0.8469387755102041,0.8469387755102041,0.8469387755102041,0.8469387755102041,0.8469387755102041,0.8469387755102041,0.8469387755102041,0.8469387755102041,0.8469387755102041,0.8469387755102041,0.8469387755102041,0.8469387755102041,0.8469387755102041,0.8469387755102041,0.8469387755102041,0.8469387755102041,0.8469387755102041,0.8469387755102041,0.8469387755102041,0.8469387755102041,0.8469387755102041,0.8469387755102041,0.8469387755102041,0.8469387755102041,0.8469387755102041,0.8469387755102041,0.8469387755102041,0.8469387755102041,0.8469387755102041,0.8469387755102041,0.8469387755102041,0.8469387755102041,0.8469387755102041,0.8469387755102041,0.8469387755102041,0.8469387755102041,0.8469387755102041,0.8469387755102041,0.8469387755102041,0.8469387755102041,0.8469387755102041,0.8469387755102041,0.8469387755102041,0.8469387755102041,0.8469387755102041,0.8469387755102041,0.8469387755102041,0.8469387755102041,0.8469387755102041,0.8469387755102041,0.8469387755102041,0.8469387755102041,0.8469387755102041,0.8469387755102041,0.8469387755102041,0.8469387755102041,0.8469387755102041,0.8469387755102041,0.8469387755102041,0.8469387755102041,0.8469387755102041,0.8469387755102041,0.8469387755102041,0.8469387755102041,0.8469387755102041,0.8469387755102041,0.8469387755102041,0.8469387755102041,0.8469387755102041,0.8469387755102041,0.8469387755102041,0.8469387755102041,0.8469387755102041,0.8469387755102041,0.8469387755102041,0.8469387755102041,0.8469387755102041,0.8469387755102041,0.8469387755102041,0.8469387755102041,0.8469387755102041,0.8469387755102041,0.8469387755102041,0.8469387755102041,0.8469387755102041,0.8469387755102041,0.8469387755102041,0.8469387755102041,0.8469387755102041,0.8469387755102041,0.8469387755102041,0.8469387755102041,0.8469387755102041,0.8469387755102041,0.8469387755102041,0.8469387755102041,0.8469387755102041,0.8469387755102041,0.8469387755102041,0.8435374149659864,0.8435374149659864,0.8401360544217688,0.8367346938775511,0.8333333333333334,0.8333333333333334,0.8333333333333334,0.8299319727891157,0.826530612244898,0.826530612244898,0.826530612244898,0.826530612244898,0.826530612244898,0.826530612244898,0.826530612244898,0.826530612244898,0.826530612244898,0.826530612244898,0.826530612244898,0.826530612244898,0.826530612244898,0.826530612244898,0.826530612244898,0.826530612244898,0.826530612244898,0.826530612244898,0.826530612244898,0.826530612244898,0.826530612244898,0.826530612244898,0.8299319727891157,0.8333333333333334,0.8333333333333334,0.8333333333333334,0.8367346938775511,0.8367346938775511,0.8367346938775511,0.8367346938775511,0.8367346938775511,0.8367346938775511,0.8367346938775511,0.8367346938775511,0.8367346938775511,0.8367346938775511,0.8367346938775511,0.8367346938775511,0.8367346938775511,0.8367346938775511,0.8367346938775511,0.8367346938775511,0.8367346938775511,0.8367346938775511,0.8367346938775511,0.8367346938775511,0.8367346938775511,0.8367346938775511,0.8367346938775511,0.8367346938775511,0.8367346938775511,0.8367346938775511,0.8367346938775511,0.8367346938775511,0.8367346938775511,0.8367346938775511,0.8367346938775511,0.8367346938775511,0.8367346938775511,0.8367346938775511,0.8367346938775511,0.8367346938775511,0.8367346938775511,0.8367346938775511,0.8367346938775511,0.8367346938775511,0.8367346938775511,0.8367346938775511,0.8367346938775511,0.8367346938775511,0.8367346938775511,0.8367346938775511,0.8367346938775511,0.8367346938775511,0.8367346938775511,0.8367346938775511,0.8367346938775511,0.8367346938775511,0.8367346938775511,0.8367346938775511,0.8367346938775511,0.8367346938775511,0.8367346938775511,0.8367346938775511,0.8367346938775511,0.8367346938775511,0.8367346938775511,0.8367346938775511,0.8367346938775511,0.8367346938775511,0.8333333333333334,0.826530612244898,0.8163265306122449,0.7959183673469388,0.7891156462585034,0.7789115646258503,0.7721088435374149,0.7687074829931972,0.7619047619047619,0.7551020408163265,0.7517006802721088,0.7517006802721088,0.7482993197278912,0.7482993197278912,0.7448979591836735,0.7448979591836735,0.7448979591836735,0.7448979591836735,0.7448979591836735,0.7448979591836735,0.7448979591836735,0.7448979591836735,0.7448979591836735,0.7448979591836735,0.7448979591836735,0.7448979591836735,0.7448979591836735,0.7448979591836735,0.7448979591836735,0.7448979591836735,0.7448979591836735,0.7448979591836735,0.7448979591836735,0.7448979591836735,0.7448979591836735,0.7448979591836735,0.7448979591836735,0.7448979591836735,0.7448979591836735,0.7448979591836735,0.7448979591836735,0.7448979591836735,0.7448979591836735,0.7448979591836735,0.7448979591836735,0.7448979591836735,0.7448979591836735,0.7448979591836735,0.7448979591836735,0.7448979591836735,0.7448979591836735,0.7448979591836735,0.7448979591836735,0.7448979591836735,0.7448979591836735,0.7448979591836735,0.7448979591836735,0.7448979591836735,0.7448979591836735,0.7448979591836735,0.7448979591836735,0.7448979591836735,0.7448979591836735,0.7448979591836735,0.7448979591836735,0.7414965986394558,0.7312925170068028,0.7210884353741497,0.7108843537414966,0.6904761904761905,0.6802721088435374,0.6700680272108843,0.6496598639455783,0.6428571428571429,0.6360544217687075,0.6258503401360545,0.6122448979591837,0.608843537414966,0.6020408163265306,0.5986394557823129,0.5952380952380952,0.5918367346938775,0.5918367346938775,0.5884353741496599,0.5850340136054422,0.5816326530612245,0.5782312925170068,0.5782312925170068,0.5782312925170068,0.5782312925170068,0.5782312925170068,0.5782312925170068,0.5782312925170068,0.5782312925170068,0.5782312925170068,0.5782312925170068,0.5782312925170068,0.5782312925170068,0.5782312925170068,0.5782312925170068,0.5782312925170068,0.5782312925170068,0.5782312925170068,0.5782312925170068,0.5782312925170068,0.5782312925170068,0.5782312925170068,0.5782312925170068,0.5782312925170068,0.5782312925170068,0.5782312925170068,0.5782312925170068,0.5782312925170068,0.5782312925170068,0.5782312925170068,0.5782312925170068,0.5782312925170068,0.5782312925170068,0.5782312925170068,0.5782312925170068,0.5782312925170068,0.5782312925170068,0.5782312925170068,0.5782312925170068,0.5782312925170068,0.5782312925170068,0.5782312925170068,0.5782312925170068,0.5782312925170068,0.5782312925170068,0.5782312925170068,0.5782312925170068,0.5782312925170068,0.5782312925170068,0.5782312925170068,0.5782312925170068,0.5782312925170068,0.5782312925170068,0.5748299319727891,0.5578231292517006,0.5476190476190477,0.5306122448979592,0.5102040816326531,0.5034013605442177,0.4965986394557823,0.48639455782312924,0.48299319727891155,0.47959183673469385,0.47619047619047616,0.47278911564625853,0.46938775510204084,0.46258503401360546,0.45918367346938777,0.4557823129251701,0.4489795918367347,0.445578231292517,0.4421768707482993,0.4387755102040816,0.43197278911564624,0.43197278911564624,0.43197278911564624,0.43197278911564624,0.43197278911564624,0.43197278911564624,0.43197278911564624,0.43197278911564624,0.43197278911564624,0.43197278911564624,0.43197278911564624,0.43197278911564624,0.43197278911564624,0.43197278911564624,0.43197278911564624,0.43197278911564624,0.43197278911564624,0.43197278911564624,0.43197278911564624,0.43197278911564624,0.43197278911564624,0.43197278911564624,0.43197278911564624,0.43197278911564624,0.43197278911564624,0.43197278911564624,0.43197278911564624,0.43197278911564624,0.43197278911564624,0.43197278911564624,0.43197278911564624,0.43197278911564624,0.43197278911564624,0.43197278911564624,0.43197278911564624,0.43197278911564624,0.43197278911564624,0.43197278911564624,0.43197278911564624,0.43197278911564624,0.43197278911564624,0.43197278911564624,0.43197278911564624,0.43197278911564624,0.43197278911564624,0.43197278911564624,0.43197278911564624,0.43197278911564624,0.43197278911564624,0.43197278911564624,0.43197278911564624,0.43197278911564624,0.43197278911564624,0.43197278911564624,0.43197278911564624,0.42857142857142855,0.42517006802721086,0.41496598639455784,0.4013605442176871,0.35374149659863946,0.3163265306122449,0.272108843537415,0.1870748299319728,0.14965986394557823,0.12244897959183673,0.08163265306122448,0.06462585034013606,0.05442176870748299,0.034013605442176874,0.034013605442176874,0.034013605442176874,0.034013605442176874,0.034013605442176874,0.034013605442176874,0.034013605442176874,0.034013605442176874,0.034013605442176874,0.034013605442176874,0.034013605442176874,0.034013605442176874,0.034013605442176874,0.034013605442176874,0.034013605442176874,0.034013605442176874,0.034013605442176874,0.034013605442176874,0.034013605442176874,0.034013605442176874,0.034013605442176874,0.034013605442176874,0.034013605442176874,0.034013605442176874,0.034013605442176874,0.034013605442176874,0.034013605442176874,0.034013605442176874,0.034013605442176874,0.034013605442176874,0.034013605442176874,0.034013605442176874,0.034013605442176874,0.034013605442176874,0.034013605442176874,0.034013605442176874,0.034013605442176874,0.034013605442176874,0.034013605442176874,0.034013605442176874,0.034013605442176874,0.034013605442176874,0.034013605442176874,0.034013605442176874,0.034013605442176874,0.034013605442176874,0.034013605442176874,0.034013605442176874,0.034013605442176874,0.034013605442176874,0.034013605442176874,0.034013605442176874,0.034013605442176874,0.034013605442176874,0.034013605442176874,0.034013605442176874,0.034013605442176874,0.034013605442176874,0.034013605442176874,0.034013605442176874,0.034013605442176874,0.034013605442176874,0.034013605442176874,0.034013605442176874,0.034013605442176874,0.034013605442176874,0.034013605442176874,0.034013605442176874,0.034013605442176874,0.04421768707482993,0.05102040816326531,0.05782312925170068,0.08163265306122448,0.09183673469387756,0.10204081632653061,0.11564625850340136,0.12244897959183673,0.1292517006802721,0.1360544217687075,0.13945578231292516,0.13945578231292516,0.14285714285714285,0.14285714285714285,0.14285714285714285,0.14285714285714285,0.14285714285714285,0.14285714285714285,0.14285714285714285,0.14285714285714285,0.14285714285714285,0.14285714285714285,0.14285714285714285,0.14285714285714285,0.14285714285714285,0.14285714285714285,0.14285714285714285,0.14285714285714285,0.14285714285714285,0.14285714285714285,0.14285714285714285,0.14285714285714285,0.14285714285714285,0.14285714285714285,0.14285714285714285,0.14285714285714285,0.14285714285714285,0.14285714285714285,0.14285714285714285,0.14285714285714285,0.14285714285714285,0.14285714285714285,0.14285714285714285,0.14285714285714285,0.14285714285714285,0.14285714285714285,0.14285714285714285,0.14285714285714285,0.14285714285714285,0.14285714285714285,0.14285714285714285,0.14285714285714285,0.14285714285714285,0.14285714285714285,0.14285714285714285,0.14285714285714285,0.14285714285714285,0.14285714285714285,0.14285714285714285,0.14285714285714285,0.14285714285714285,0.14285714285714285,0.14285714285714285,0.14285714285714285,0.14285714285714285,0.14285714285714285,0.14285714285714285,0.14285714285714285,0.14285714285714285,0.14285714285714285,0.14285714285714285,0.14285714285714285,0.14285714285714285,0.14285714285714285,0.14285714285714285,0.14285714285714285,0.14285714285714285,0.14285714285714285,0.14285714285714285,0.14285714285714285,0.14285714285714285,0.14285714285714285,0.14285714285714285,0.14285714285714285,0.14285714285714285,0.14285714285714285,0.14285714285714285,0.14285714285714285,0.14285714285714285,0.14285714285714285,0.14285714285714285,0.14285714285714285,0.14285714285714285,0.14285714285714285,0.14285714285714285,0.14285714285714285,0.14285714285714285,0.14285714285714285,0.14285714285714285,0.14285714285714285,0.14285714285714285,0.14285714285714285,0.14285714285714285,0.14285714285714285,0.14285714285714285,0.14285714285714285,0.14285714285714285,0.14285714285714285,0.14285714285714285,0.14285714285714285,0.14285714285714285,0.14285714285714285,0.14285714285714285,0.14285714285714285,0.14285714285714285,0.14285714285714285,0.14285714285714285,0.14285714285714285,0.14285714285714285,0.14285714285714285,0.14285714285714285,0.14285714285714285,0.14285714285714285,0.14285714285714285,0.14285714285714285,0.14285714285714285,0.14285714285714285,0.14285714285714285,0.14285714285714285,0.14285714285714285,0.14285714285714285,0.14285714285714285,0.14285714285714285,0.14285714285714285,0.14285714285714285,0.14285714285714285,0.14285714285714285,0.14285714285714285,0.14285714285714285,0.14285714285714285,0.14285714285714285,0.14285714285714285,0.14285714285714285,0.14285714285714285,0.14285714285714285,0.14285714285714285,0.14285714285714285,0.14285714285714285,0.14285714285714285,0.14285714285714285,0.14285714285714285,0.14285714285714285,0.14285714285714285,0.14285714285714285,0.14285714285714285,0.14285714285714285,0.14285714285714285,0.14285714285714285,0.14285714285714285,0.14285714285714285,0.14285714285714285,0.14285714285714285,0.14285714285714285,0.14285714285714285,0.14285714285714285,0.14285714285714285,0.14285714285714285,0.14285714285714285,0.14285714285714285,0.14285714285714285,0.14285714285714285,0.14285714285714285,0.14285714285714285,0.14285714285714285,0.14285714285714285,0.14285714285714285,0.14285714285714285,0.14285714285714285,0.14285714285714285,0.14285714285714285,0.14285714285714285,0.14285714285714285,0.14285714285714285,0.14285714285714285,0.14285714285714285,0.14285714285714285,0.14285714285714285,0.14285714285714285,0.14285714285714285,0.14285714285714285,0.14285714285714285,0.14285714285714285,0.14285714285714285,0.14285714285714285,0.14285714285714285,0.14285714285714285,0.14285714285714285,0.14285714285714285,0.14285714285714285,0.14285714285714285,0.14285714285714285,0.14285714285714285,0.14285714285714285,0.14285714285714285,0.14285714285714285,0.14285714285714285,0.14285714285714285,0.14285714285714285,0.14285714285714285,0.14285714285714285,0.14285714285714285,0.14285714285714285,0.14285714285714285,0.14285714285714285,0.14285714285714285,0.14285714285714285,0.14285714285714285,0.14285714285714285,0.14285714285714285,0.14285714285714285,0.14285714285714285,0.14285714285714285,0.14285714285714285,0.14285714285714285,0.14285714285714285,0.14285714285714285,0.14285714285714285,0.14285714285714285,0.14285714285714285,0.14285714285714285,0.14285714285714285,0.14285714285714285,0.14285714285714285,0.14285714285714285,0.14285714285714285,0.14285714285714285,0.14285714285714285,0.14285714285714285,0.14285714285714285,0.14285714285714285,0.14285714285714285,0.14285714285714285,0.14285714285714285,0.14285714285714285,0.14285714285714285,0.14285714285714285,0.14285714285714285,0.14285714285714285,0.14285714285714285,0.14285714285714285,0.14625850340136054,0.16666666666666666,0.17346938775510204,0.1836734693877551,0.1870748299319728,0.1870748299319728,0.19047619047619047,0.19047619047619047,0.19047619047619047,0.19047619047619047,0.19047619047619047,0.19387755102040816,0.19387755102040816,0.19387755102040816,0.19387755102040816,0.19387755102040816,0.19387755102040816,0.19387755102040816,0.19387755102040816,0.19387755102040816,0.19387755102040816,0.19387755102040816,0.19387755102040816,0.19387755102040816,0.19387755102040816,0.19387755102040816,0.19387755102040816,0.19387755102040816,0.19387755102040816,0.19387755102040816,0.19047619047619047,0.19047619047619047,0.18027210884353742,0.17687074829931973,0.17346938775510204,0.17006802721088435,0.17006802721088435,0.16666666666666666,0.16666666666666666,0.16326530612244897,0.16326530612244897,0.16326530612244897,0.16326530612244897,0.16326530612244897,0.16326530612244897,0.16326530612244897,0.16326530612244897,0.16326530612244897,0.16326530612244897,0.16326530612244897,0.16326530612244897,0.16326530612244897,0.16326530612244897,0.16326530612244897,0.16326530612244897,0.16326530612244897,0.16326530612244897,0.16326530612244897,0.16326530612244897,0.16326530612244897,0.16326530612244897,0.16326530612244897,0.16326530612244897,0.16326530612244897,0.16326530612244897,0.16326530612244897,0.16326530612244897,0.16326530612244897,0.16326530612244897,0.16326530612244897,0.16326530612244897,0.16326530612244897,0.16326530612244897,0.16326530612244897,0.16326530612244897,0.16326530612244897,0.16326530612244897,0.16326530612244897,0.16326530612244897,0.16326530612244897,0.16326530612244897,0.16326530612244897,0.16326530612244897,0.16326530612244897,0.16326530612244897,0.16326530612244897,0.16326530612244897,0.16326530612244897,0.16326530612244897,0.16326530612244897,0.16326530612244897,0.16326530612244897,0.16326530612244897,0.16326530612244897,0.16326530612244897,0.16326530612244897,0.16326530612244897,0.16326530612244897,0.16326530612244897,0.16326530612244897,0.16326530612244897,0.16326530612244897,0.1836734693877551,0.21768707482993196,0.2755102040816326,0.29931972789115646,0.3231292517006803,0.36394557823129253,0.3843537414965986,0.3945578231292517,0.40816326530612246,0.42517006802721086,0.43197278911564624,0.43197278911564624,0.43197278911564624,0.43197278911564624,0.43197278911564624,0.43197278911564624,0.43197278911564624,0.43197278911564624,0.43197278911564624,0.43197278911564624,0.43197278911564624,0.43197278911564624,0.43197278911564624,0.43197278911564624,0.43197278911564624,0.43197278911564624,0.43197278911564624,0.43197278911564624,0.43197278911564624,0.43197278911564624,0.43197278911564624,0.43197278911564624,0.43197278911564624,0.43197278911564624,0.43197278911564624,0.43197278911564624,0.43197278911564624,0.43537414965986393,0.4387755102040816,0.4489795918367347,0.46938775510204084,0.5136054421768708,0.5374149659863946,0.5510204081632653,0.5850340136054422,0.5952380952380952,0.6020408163265306,0.6156462585034014,0.6156462585034014,0.6224489795918368,0.6258503401360545,0.6292517006802721,0.6394557823129252,0.6428571428571429,0.6462585034013606,0.6496598639455783,0.6564625850340136,0.6564625850340136,0.6632653061224489,0.6632653061224489,0.6666666666666666,0.6666666666666666,0.6666666666666666,0.6666666666666666,0.6666666666666666,0.6666666666666666,0.6666666666666666,0.6666666666666666,0.6666666666666666,0.6700680272108843,0.6700680272108843,0.673469387755102,0.673469387755102,0.6768707482993197,0.6768707482993197,0.6802721088435374,0.6802721088435374,0.6802721088435374,0.6802721088435374,0.6836734693877551,0.6836734693877551,0.6836734693877551,0.6836734693877551,0.6836734693877551,0.6836734693877551,0.6836734693877551,0.6836734693877551,0.6836734693877551,0.6836734693877551,0.6836734693877551,0.6836734693877551,0.6836734693877551,0.6836734693877551,0.6836734693877551,0.6836734693877551,0.6836734693877551,0.6836734693877551,0.6836734693877551,0.6836734693877551,0.6836734693877551,0.6836734693877551,0.6836734693877551,0.6836734693877551,0.6836734693877551,0.6836734693877551,0.6836734693877551,0.6836734693877551,0.6836734693877551,0.6836734693877551,0.6836734693877551,0.6836734693877551,0.6836734693877551,0.6836734693877551,0.6836734693877551,0.6836734693877551,0.6836734693877551,0.6836734693877551,0.6836734693877551,0.6836734693877551,0.6836734693877551,0.6836734693877551,0.6836734693877551,0.6836734693877551,0.6836734693877551,0.6836734693877551,0.6836734693877551,0.6836734693877551,0.6836734693877551,0.6836734693877551,0.6836734693877551,0.6836734693877551,0.6836734693877551,0.6836734693877551,0.6836734693877551,0.6836734693877551,0.6836734693877551,0.6836734693877551,0.6836734693877551,0.6836734693877551,0.6836734693877551,0.6836734693877551,0.6836734693877551,0.6836734693877551,0.6836734693877551,0.6836734693877551,0.6836734693877551,0.6836734693877551,0.6836734693877551,0.6836734693877551,0.6836734693877551,0.6836734693877551,0.6904761904761905,0.6972789115646258,0.717687074829932,0.7278911564625851,0.7414965986394558,0.7619047619047619,0.7721088435374149,0.7789115646258503,0.7925170068027211,0.7959183673469388,0.8061224489795918,0.8163265306122449,0.8231292517006803,0.8299319727891157,0.8367346938775511,0.8435374149659864,0.8503401360544217,0.8503401360544217,0.8537414965986394,0.8537414965986394,0.8537414965986394,0.8537414965986394,0.8537414965986394,0.8537414965986394,0.8537414965986394,0.8537414965986394,0.8537414965986394,0.8537414965986394,0.8537414965986394,0.8537414965986394,0.8537414965986394,0.8537414965986394,0.8537414965986394,0.8537414965986394,0.8537414965986394,0.8537414965986394,0.8537414965986394,0.8537414965986394,0.8537414965986394,0.8537414965986394,0.8537414965986394,0.8537414965986394,0.8537414965986394,0.8537414965986394,0.8537414965986394,0.8537414965986394,0.8537414965986394,0.8537414965986394,0.8537414965986394,0.8537414965986394,0.8537414965986394,0.8537414965986394,0.8537414965986394,0.8537414965986394,0.8537414965986394,0.8537414965986394,0.8537414965986394,0.8537414965986394,0.8537414965986394,0.8537414965986394,0.8537414965986394,0.8537414965986394,0.8537414965986394,0.8537414965986394,0.8537414965986394,0.8537414965986394,0.8537414965986394,0.8537414965986394,0.8537414965986394,0.8537414965986394,0.8537414965986394,0.8537414965986394,0.8537414965986394,0.8537414965986394,0.8537414965986394,0.8537414965986394,0.8537414965986394,0.8537414965986394,0.8537414965986394,0.8537414965986394,0.8537414965986394,0.8537414965986394,0.8537414965986394,0.8537414965986394,0.8537414965986394,0.8435374149659864,0.7959183673469388,0.7551020408163265,0.7210884353741497,0.6836734693877551,0.6122448979591837,0.5748299319727891,0.5476190476190477,0.48639455782312924,0.45918367346938777,0.43197278911564624,0.40476190476190477,0.3673469387755102,0.35034013605442177,0.3435374149659864,0.3435374149659864,0.3435374149659864,0.3435374149659864,0.3435374149659864,0.3435374149659864,0.3435374149659864,0.3435374149659864,0.3435374149659864,0.3435374149659864,0.3435374149659864,0.3435374149659864,0.3435374149659864,0.3435374149659864,0.3435374149659864,0.3435374149659864,0.3435374149659864,0.3435374149659864,0.3435374149659864,0.3435374149659864,0.3435374149659864,0.3435374149659864,0.3435374149659864,0.3435374149659864,0.3435374149659864,0.3435374149659864,0.3469387755102041,0.35374149659863946,0.35714285714285715,0.3673469387755102,0.3707482993197279,0.3707482993197279,0.3741496598639456,0.3741496598639456,0.3741496598639456,0.37755102040816324,0.37755102040816324,0.38095238095238093,0.38095238095238093,0.38095238095238093,0.38095238095238093,0.38095238095238093,0.38095238095238093,0.38095238095238093,0.38095238095238093,0.38095238095238093,0.38095238095238093,0.38095238095238093,0.3843537414965986,0.3843537414965986,0.3877551020408163,0.3877551020408163,0.391156462585034,0.391156462585034,0.391156462585034,0.3945578231292517,0.3945578231292517,0.3979591836734694,0.3979591836734694,0.3979591836734694,0.3979591836734694,0.3979591836734694,0.3979591836734694,0.3979591836734694,0.3979