[{"success":true,"trial_type":"fullscreen","trial_index":0,"time_elapsed":6793,"internal_node_id":"0.0-0.0","protocol_sum":"","subject_identifier":220,"subject_sum":[155,219,42,246,121,146,4,162,153,198,3,153,75,142,64,14,75,31,214,37,239,219,116,6,108,200,105,254,228,44,157,243],"subject_pair":110,"STUDY_ID":"669eec2e4270c76bc184a38e","PROLIFIC_PID":"6674413950b63d47aa726af9","SESSION_ID":"669fc492226fef443bc75e08","practice_instructions":1,"leaderboard_instructions":0,"bonus":1,"reveal_word":false,"self_rating":"1","confidence":"89"},{"view_history":"[{\"page_index\":0,\"viewing_time\":9569}]","rt":9570.699999809265,"trial_type":"instructions","trial_index":1,"time_elapsed":16366,"internal_node_id":"0.0-1.0","protocol_sum":"","subject_identifier":220,"subject_sum":[155,219,42,246,121,146,4,162,153,198,3,153,75,142,64,14,75,31,214,37,239,219,116,6,108,200,105,254,228,44,157,243],"subject_pair":110,"STUDY_ID":"669eec2e4270c76bc184a38e","PROLIFIC_PID":"6674413950b63d47aa726af9","SESSION_ID":"669fc492226fef443bc75e08","practice_instructions":1,"leaderboard_instructions":0,"bonus":1,"reveal_word":false,"self_rating":"1","confidence":"89"},{"view_history":"[{\"page_index\":0,\"viewing_time\":60943.7999997139}]","rt":60944.09999990463,"trial_type":"instructions","trial_index":2,"time_elapsed":77310,"internal_node_id":"0.0-2.0-0.0","protocol_sum":"","subject_identifier":220,"subject_sum":[155,219,42,246,121,146,4,162,153,198,3,153,75,142,64,14,75,31,214,37,239,219,116,6,108,200,105,254,228,44,157,243],"subject_pair":110,"STUDY_ID":"669eec2e4270c76bc184a38e","PROLIFIC_PID":"6674413950b63d47aa726af9","SESSION_ID":"669fc492226fef443bc75e08","practice_instructions":1,"leaderboard_instructions":0,"bonus":1,"reveal_word":false,"self_rating":"1","confidence":"89"},{"rt":29615.300000190735,"responses":"{\"Q0\":\"... reveal the word with as <b>few letter guesses</b> as possible\"}","question_order":"[0]","trial_type":"survey-multi-choice","trial_index":3,"time_elapsed":106927,"internal_node_id":"0.0-2.0-1.0","protocol_sum":"","subject_identifier":220,"subject_sum":[155,219,42,246,121,146,4,162,153,198,3,153,75,142,64,14,75,31,214,37,239,219,116,6,108,200,105,254,228,44,157,243],"subject_pair":110,"correct":true,"test_part":"multichoice_nonpretend","STUDY_ID":"669eec2e4270c76bc184a38e","PROLIFIC_PID":"6674413950b63d47aa726af9","SESSION_ID":"669fc492226fef443bc75e08","practice_instructions":1,"leaderboard_instructions":0,"bonus":1,"reveal_word":false,"self_rating":"1","confidence":"89"},{"view_history":"[{\"page_index\":0,\"viewing_time\":5790.400000095367}]","rt":5790.700000286102,"trial_type":"instructions","trial_index":4,"time_elapsed":112721,"internal_node_id":"0.0-3.0","protocol_sum":"","subject_identifier":220,"subject_sum":[155,219,42,246,121,146,4,162,153,198,3,153,75,142,64,14,75,31,214,37,239,219,116,6,108,200,105,254,228,44,157,243],"subject_pair":110,"STUDY_ID":"669eec2e4270c76bc184a38e","PROLIFIC_PID":"6674413950b63d47aa726af9","SESSION_ID":"669fc492226fef443bc75e08","practice_instructions":1,"leaderboard_instructions":0,"bonus":1,"reveal_word":false,"self_rating":"1","confidence":"89"},{"word":"ZEBRA","click_log":{"letter":["","C","D","O","G","H","U","M","N","W","K","B","S","I","A","Z","E","R"],"t":[0,7138.699999809265,23078.299999713898,26741,31506.400000095367,64738.5,74673.7999997139,76780,78462.90000009537,81211.59999990463,84143.2999997139,85559,102100.40000009537,106081.09999990463,110628.59999990463,129835,132865.19999980927,148359.19999980927],"hit":[null,0,0,0,0,0,0,0,0,0,0,1,0,0,1,1,1,1],"asked":["","C","CD","CDO","CDOG","CDOGH","CDOGHU","CDOGHUM","CDOGHUMN","CDOGHUMNW","CDOGHUMNWK","CDOGHUMNWKB","CDOGHUMNWKBS","CDOGHUMNWKBSI","CDOGHUMNWKBSIA","CDOGHUMNWKBSIAZ","CDOGHUMNWKBSIAZE","CDOGHUMNWKBSIAZER"],"word_state":["_____","_____","_____","_____","_____","_____","_____","_____","_____","_____","_____","__B__","__B__","__B__","__B_A","Z_B_A","ZEB_A","ZEBRA"]},"hover_log":{"letter":["?","?","?","?","?","?","?","?","?","?","?","?","?","?","?","?","?","?","?","?","?","?","?","?","?","?","?","?","?","?","?","?","?","?","?","?","?","?","?","?","?","?","?","?","?","?","?","?","?","?","?","?","?","?","?","?","?","?","?","?","?","?","?","?","?","?","?","?","?","?","?","?","?","?","?","?","?","?","?","?","?","?","?","?","?","?","?","?","?","?","?","?","?","?","?","?","?","?","?","?","?","?","?","?","?","?","?","?","?","?","?","?","?","?","?","?","?","?","?","?","?","?","?","?","?","?","?","?","?","?","?","?","?","?","?","?","?","?","?","?","?","?","?","?","?","?","?","?","?","?","?","?","?","?","?","?","?","?","?","?","?","?","?","?","?","?","?","?","?","?","?","?","?","?","?","?","?","?","?","?","?","?","?","?","?","?","?","?","?","?","?","?","?","?","?","?","?","?","?","?","?","?","?","?","?","?","?","?","?","?","?","?","?","?","?","?","?","?","?","?","?","?","?","?","?","?","?","?","?","?","?","?","?","?","?","?","?","?","?","?","?","?","?","?","?","?","?","?","?","?","?","?","?","?","?","?","?","?","?","?","?","?","?","?","?","?","?","?","?","?","?","?","?","?","?","?","?","?","?","?","?","?","?","?","?","?","?","?","?","?","?","?","?","?","C","C","C","C","C","C","?","?","?","?","?","?","?","?","?","?","?","?","?","?","?","C","C","C","C","C","C","C","C","C","C","C","C","C","C","C","C","C","C","C","C","C","C","C","C","C","C","C","C","C","C","C","C","C","C","C","C","C","C","C","C","C","C","C","C","C","C","C","C","C","C","C","C","C","C","C","C","C","C","C","C","C","C","C","C","C","C","C","C","C","C","C","C","C","C","C","C","C","C","C","C","C","C","C","C","C","C","C","C","C","C","C","C","C","C","C","C","C","C","C","C","C","C","C","C","C","C","C","C","C","C","C","C","C","C","C","C","C","C","C","C","C","C","C","C","C","C","C","C","C","C","C","C","C","C","C","C","C","C","C","C","C","C","C","C","C","C","C","C","C","C","C","C","C","C","C","C","C","C","C","C","C","C","C","C","C","C","C","C","C","C","C","C","C","C","?","?","?","?","?","?","?","?","K","K","K","K","K","K","K","K","K","K","K","K","?","?","?","?","?","L","?","?","M","?","?","N","N","N","N","N","N","N","N","N","N","N","N","N","N","N","N","N","?","?","?","?","?","?","?","?","?","Y","Y","Y","Y","Y","Y","Y","?","?","?","?","?","?","?","?","?","?","?","?","?","?","?","?","?","?","?","?","?","?","?","?","?","?","?","?","?","?","?","?","?","?","?","?","?","?","?","?","?","?","?","?","?","?","?","?","?","?","?","?","?","?","?","?","?","?","?","?","?","X","X","X","X","X","X","X","X","X","X","X","X","X","X","X","X","X","?","?","?","?","?","?","?","?","?","?","?","?","?","?","?","?","?","?","?","?","P","P","P","?","?","Q","Q","Q","Q","Q","Q","Q","Q","Q","Q","Q","Q","Q","Q","Q","Q","Q","Q","Q","Q","Q","Q","Q","Q","Q","Q","Q","Q","Q","Q","Q","Q","Q","Q","Q","Q","Q","Q","Q","Q","Q","Q","Q","Q","Q","Q","Q","Q","Q","?","?","?","?","?","P","P","P","P","P","P","P","P","P","P","P","P","P","P","P","P","P","P","P","P","P","?","?","?","?","?","?","?","?","?","?","?","?","?","?","?","?","?","?","?","?","?","?","?","?","?","?","?","?","?","?","?","?","?","?","?","?","?","?","?","?","?","?","?","?","?","?","?","?","?","?","?","?","?","?","?","?","?","?","?","?","?","?","?","?","?","?","O","O","O","O","O","O","O","O","O","O","O","O","O","O","O","O","O","O","O","O","O","O","O","O","O","O","O","O","O","O","O","O","O","O","O","O","O","O","O","O","O","O","O","O","O","O","O","O","O","O","O","O","O","O","O","O","O","O","O","O","O","O","O","O","O","O","O","O","O","O","O","O","O","O","O","O","O","O","O","O","O","O","O","O","O","O","O","O","O","O","O","O","O","O","O","O","O","O","O","O","O","O","O","O","O","O","O","O","O","O","O","O","O","O","O","O","O","O","O","O","O","O","O","O","O","O","O","O","O","O","O","O","O","O","O","O","O","O","O","O","O","O","O","O","O","O","O","O","O","O","O","O","O","O","O","O","O","O","O","O","O","O","O","O","O","O","O","O","O","O","O","O","O","O","O","O","O","O","O","O","O","O","O","O","O","O","O","O","O","O","O","O","O","O","O","O","O","O","O","O","O","O","O","O","O","O","O","O","O","O","O","O","O","O","O","O","O","O","O","O","O","O","O","O","O","O","O","O","O","O","O","O","O","O","O","O","O","O","O","O","O","O","O","O","O","O","O","O","O","O","O","O","O","O","O","O","O","O","O","O","O","O","O","O","O","O","O","O","O","O","O","O","O","O","O","O","O","O","O","O","O","O","O","O","O","O","O","O","O","O","O","O","O","O","O","O","O","O","O","O","O","O","O","O","O","O","O","O","F","F","?","?","?","?","?","?","?","?","?","?","?","?","?","?","?","?","?","?","?","?","?","?","?","?","?","?","?","?","?","?","?","?","?","?","?","?","?","?","?","?","?","?","?","?","?","?","?","?","?","?","?","?","?","?","?","?","?","?","?","?","?","?","?","?","?","?","?","?","?","?","?","?","?","?","?","?","?","?","?","?","?","?","?","?","?","?","?","?","?","?","?","?","?","?","?","?","?","?","?","?","?","?","?","?","?","?","?","?","?","?","?","?","?","?","?","?","E","?","?","O","O","O","O","?","?","?","?","?","?","?","?","?","?","?","?","?","?","?","?","?","?","?","?","?","?","?","?","?","?","?","?","?","?","?","?","?","?","?","?","N","N","N","N","N","N","N","N","N","?","?","?","?","?","?","?","?","?","?","?","?","?","?","D","D","D","D","D","D","D","D","D","D","D","D","D","D","D","D","D","D","D","D","D","D","D","D","D","D","D","D","D","D","D","D","D","D","D","D","D","D","D","D","D","D","D","D","D","D","D","D","D","D","D","D","D","D","D","D","D","D","D","D","D","D","D","D","D","D","D","D","D","D","D","D","D","D","D","D","D","D","D","D","D","D","D","D","D","D","D","D","D","D","D","D","D","D","D","D","D","D","D","D","D","D","D","D","D","D","D","D","D","D","D","D","D","D","D","D","D","D","D","D","D","D","D","D","D","D","D","D","D","D","?","?","?","?","?","?","?","N","N","N","N","N","N","N","N","N","N","N","N","N","N","N","N","N","N","N","N","N","N","N","N","N","N","N","N","N","N","N","N","N","N","N","N","N","N","N","N","?","?","?","O","O","O","O","O","O","O","O","O","O","O","O","O","O","O","O","O","O","O","O","O","O","O","O","O","O","O","O","O","O","O","O","O","O","O","O","O","O","O","O","O","O","O","O","O","O","O","O","O","O","O","O","O","O","O","O","O","O","O","O","O","O","O","O","O","O","O","O","O","O","O","O","O","O","O","O","O","O","O","O","O","O","O","O","O","O","O","O","O","O","O","O","O","O","O","O","O","O","O","O","O","O","O","O","O","O","O","O","O","O","O","O","O","O","O","O","O","O","O","O","O","O","O","O","O","O","O","O","O","O","O","O","O","O","O","O","O","O","O","O","O","O","O","O","O","O","O","O","O","O","O","O","O","O","O","O","O","O","O","O","O","O","O","O","O","O","O","O","O","O","O","O","O","O","O","O","O","O","O","O","O","O","O","O","O","O","O","O","O","O","O","O","O","O","O","O","O","O","O","O","O","O","O","O","O","O","O","O","O","O","O","O","O","O","O","O","O","O","O","O","O","O","O","O","O","O","O","O","O","O","O","O","O","O","O","O","O","O","O","O","O","O","O","O","O","O","O","O","O","O","O","O","?","P","P","P","P","P","P","?","?","?","Q","Q","Q","Q","Q","Q","Q","Q","Q","Q","Q","Q","Q","Q","Q","Q","Q","Q","Q","Q","Q","Q","Q","Q","Q","Q","Q","Q","Q","Q","Q","Q","Q","Q","Q","Q","Q","Q","Q","Q","Q","Q","Q","Q","Q","Q","Q","Q","Q","Q","Q","Q","Q","Q","Q","Q","Q","Q","Q","Q","Q","?","P","P","?","?","?","?","?","?","?","?","?","?","?","?","?","?","?","?","?","?","?","?","?","?","?","?","?","?","?","?","?","?","?","O","O","O","?","?","?","?","?","?","?","?","?","?","?","?","?","?","G","G","G","G","G","G","G","G","G","G","G","G","G","G","G","G","G","G","G","G","G","G","G","G","G","G","G","G","G","G","G","G","G","G","G","G","G","G","G","G","G","G","G","G","G","G","G","G","G","G","G","G","G","G","G","G","G","G","G","G","G","G","G","G","G","G","G","G","G","G","G","G","G","G","G","G","G","G","G","G","G","G","G","G","G","G","G","G","G","G","G","G","G","G","G","G","G","G","G","G","G","G","G","G","G","G","G","G","G","G","G","G","G","G","G","G","G","G","G","G","G","G","G","G","G","G","G","G","G","G","G","G","G","G","G","G","G","G","G","G","G","G","G","G","G","G","G","G","G","G","G","G","G","G","G","G","G","G","G","G","G","G","G","G","G","G","G","G","G","G","G","G","G","G","G","G","G","G","G","G","G","G","G","G","G","G","G","G","G","G","G","G","G","G","G","G","G","G","G","G","G","G","G","G","G","G","G","G","G","G","G","G","G","G","G","G","G","G","G","G","G","G","G","G","G","G","G","G","G","G","G","G","G","G","G","G","G","G","G","G","G","G","G","G","G","G","G","G","G","G","G","G","G","G","?","O","?","?","?","?","?","?","?","?","?","?","?","?","?","?","?","?","?","?","?","?","?","?","?","?","?","?","?","V","V","V","V","V","V","V","V","V","V","V","V","V","V","V","V","V","V","V","V","V","V","V","V","V","V","V","V","V","V","V","V","V","V","V","V","V","V","V","V","V","V","?","W","W","?","?","?","?","?","?","?","?","?","?","?","?","?","?","?","?","?","?","?","?","?","?","?","?","?","?","?","?","?","?","?","?","?","?","?","?","?","?","?","?","?","?","?","?","?","?","?","?","?","?","?","?","?","?","?","?","?","?","?","?","?","?","?","?","?","?","?","?","?","?","?","?","?","?","?","?","?","?","?","?","?","?","?","?","?","?","?","?","?","?","?","?","?","?","?","?","?","?","?","?","?","?","?","?","?","?","?","?","?","?","?","?","?","?","?","?","?","?","?","?","?","?","?","?","?","?","?","?","?","?","?","?","?","?","?","?","?","?","?","?","?","?","?","?","?","?","?","?","?","?","?","?","?","?","?","?","?","?","?","?","?","?","?","?","?","?","?","?","?","?","?","?","?","?","?","?","?","?","?","?","?","?","?","?","?","?","?","?","?","?","?","?","?","?","?","?","?","?","?","?","?","?","?","?","?","?","?","?","?","N","?","M","M","?","?","L","L","L","L","L","L","L","L","L","L","L","L","L","L","L","L","L","L","L","L","L","L","L","L","L","L","L","L","L","?","?","?","?","?","?","?","?","?","?","?","B","B","B","B","B","B","B","B","B","B","B","B","B","B","B","B","B","B","B","B","B","B","B","B","B","B","B","B","B","B","B","B","B","B","B","B","B","B","B","B","B","B","B","B","B","B","B","B","B","B","B","B","B","B","B","B","B","B","B","B","B","B","B","B","B","B","B","B","B","B","B","B","B","B","B","B","B","B","B","B","B","B","B","B","B","B","B","B","B","B","B","B","B","B","B","B","B","B","B","B","B","B","B","B","B","B","B","B","B","?","K","?","U","U","U","U","U","U","U","U","U","U","?","?","?","?","?","?","?","?","?","?","?","?","?","?","?","?","?","?","?","?","?","?","?","?","?","?","?","?","?","?","?","?","?","?","?","?","?","?","?","?","?","?","?","?","?","?","?","?","?","?","?","?","?","?","?","?","?","?","?","?","?","?","?","?","?","?","?","?","?","?","?","?","?","?","?","?","?","?","?","?","?","?","?","?","?","?","?","?","?","?","?","?","?","?","?","?","?","?","?","?","?","?","?","?","?","?","?","?","?","?","?","?","?","?","?","?","?","?","?","?","?","?","?","?","?","?","?","?","?","?","?","?","?","?","?","?","?","?","?","?","?","?","?","?","?","?","?","?","?","?","?","?","?","?","?","?","?","?","?","?","?","?","?","?","?","?","?","?","?","?","?","?","?","?","?","?","?","?","?","?","?","?","?","?","?","?","?","?","?","?","?","?","?","?","?","?","?","?","?","?","?","?","?","?","?","?","?","?","?","?","?","?","?","?","?","?","?","?","?","?","?","?","?","?","?","?","?","?","?","?","?","?","?","?","?","?","?","?","?","?","?","?","?","?","?","?","?","?","?","?","?","?","?","?","?","?","?","?","?","?","?","?","?","?","?","?","?","?","?","?","?","?","?","?","?","?","?","?","?","?","?","?","?","?","?","?","?","?","?","?","?","?","?","?","?","?","?","?","?","?","?","?","?","?","?","?","?","?","?","?","?","?","?","?","?","?","?","?","?","?","?","?","?","?","?","?","?","?","?","?","?","?","?","?","?","?","?","?","?","?","?","?","?","?","?","?","?","?","?","?","?","?","?","?","?","?","?","?","?","?","?","?","?","?","?","?","?","?","?","?","?","?","?","?","?","?","?","?","?","?","?","?","?","?","?","?","?","?","?","?","?","?","?","?","?","?","?","?","?","?","?","?","?","?","?","?","?","?","?","?","?","?","?","?","?","?","?","?","?","?","?","?","?","?","?","?","?","?","?","?","?","?","?","?","?","?","?","?","?","?","?","?","?","?","?","?","?","?","?","?","?","?","?","?","?","?","?","?","?","?","?","?","?","?","?","?","?","?","?","?","?","?","?","?","?","?","?","?","?","?","?","?","?","?","?","?","?","?","?","?","?","?","?","?","?","?","?","?","?","?","?","?","?","?","?","?","?","?","?","?","?","?","?","?","?","?","?","?","?","?","?","?","?","?","?","?","?","?","?","?","?","?","?","?","?","?","?","?","?","?","?","?","?","?","?","?","?","?","?","?","?","?","?","?","?","?","?","?","?","?","?","?","?","Y","Y","Y","Y","Y","Y","Y","Y","Y","Y","Y","Y","Y","Y","Y","Y","Y","Y","Y","Y","Y","Y","Y","Y","Y","Y","Y","Y","Y","Y","Y","Y","Y","Y","?","?","?","?","?","?","X","X","X","X","X","X","X","X","X","X","X","X","X","X","X","X","X","X","X","X","X","X","X","X","X","X","X","X","X","X","X","X","X","X","X","X","X","X","X","X","X","X","X","X","X","X","X","X","X","X","X","X","X","X","X","X","X","X","X","X","X","X","X","X","X","X","X","X","X","X","X","X","X","X","X","X","X","X","X","X","X","X","X","X","X","X","X","X","X","X","X","X","X","X","X","X","X","X","X","X","X","X","X","X","X","X","X","X","X","X","X","X","X","X","X","X","X","X","X","X","X","X","X","X","X","X","X","X","X","X","X","X","X","X","X","X","X","X","X","X","X","X","X","X","X","X","X","X","X","X","X","X","X","X","X","X","X","X","X","X","X","X","X","X","X","X","X","X","X","X","X","X","X","X","X","X","X","X","X","X","X","X","X","X","X","X","X","X","X","?","?","W","W","W","W","W","W","W","W","W","W","W","W","W","W","W","W","W","W","W","W","W","W","W","W","W","W","W","W","W","W","W","W","W","W","W","W","W","W","W","W","W","W","W","W","W","W","W","W","W","W","W","W","W","W","W","W","W","W","W","W","W","W","W","W","W","W","W","W","W","W","W","W","W","W","W","W","W","W","W","W","W","W","W","W","W","W","W","W","W","W","W","W","W","W","W","W","W","W","W","W","W","W","W","W","W","W","W","W","W","W","W","W","W","W","W","W","W","W","W","W","W","W","W","W","W","W","W","W","W","W","W","W","W","X","?","Y","?","?","?","?","?","?","?","?","?","?","?","?","?","?","?","?","?","?","?","?","?","?","?","?","?","?","?","?","?","?","?","?","?","?","?","?","?","?","?","?","?","?","?","?","?","?","?","?","?","?","?","?","?","?","?","?","?","?","?","?","?","?","?","?","?","?","?","?","?","?","?","?","?","?","?","?","?","?","?","?","?","?","?","?","?","?","?","?","?","?","?","?","?","?","?","?","?","?","?","?","?","?","?","?","?","?","?","T","T","T","T","T","T","T","T","T","T","T","T","T","T","T","T","T","T","T","T","T","T","T","T","T","T","T","T","T","T","T","T","T","T","T","T","T","?","?","?","U","U","U","U","U","U","U","U","U","U","U","U","U","U","U","U","U","U","U","U","U","U","U","U","U","U","U","U","U","U","U","U","U","U","U","?","?","?","?","?","?","?","?","?","?","?","?","?","?","?","?","?","?","?","?","?","?","?","?","?","?","?","?","?","?","?","?","?","?","?","?","?","?","?","?","?","?","?","?","?","?","?","?","?","?","?","?","?","?","?","?","?","?","?","?","?","?","?","?","?","?","?","?","?","?","?","?","?","?","?","?","?","?","?","?","?","?","?","?","?","?","?","?","?","?","?","?","?","?","?","?","?","?","?","?","?","?","?","?","?","?","?","?","?","?","?","?","?","?","?","?","?","?","?","?","?","?","?","?","?","?","?","?","?","?","?","?","V","?","N","F","?","?","?","?","?","?","?","?","?","?","?","?","?","?","?","?","?","?","?","?","?","?","?","?","?","?","?","?","?","?","H","H","H","H","H","H","H","H","H","H","H","H","H","H","H","H","H","H","H","H","H","H","H","H","H","H","H","H","H","H","H","H","H","H","H","H","H","H","H","H","H","H","H","H","H","H","H","H","H","H","H","H","H","H","H","H","H","H","H","H","H","H","H","H","H","H","H","H","H","H","H","H","H","H","H","H","H","H","H","H","H","H","H","H","H","H","H","H","H","H","H","H","H","H","H","H","H","H","H","H","H","H","H","H","H","H","H","H","H","H","H","H","H","H","H","H","H","H","H","H","H","H","H","H","H","H","H","H","H","H","H","H","H","H","H","H","H","H","H","H","H","H","H","H","H","H","H","H","H","H","H","H","H","H","H","H","H","H","H","H","H","H","H","H","?","?","?","?","?","?","?","?","?","?","?","?","?","?","?","?","?","?","?","?","?","?","?","?","?","?","?","?","?","?","?","?","?","?","?","?","?","?","?","?","?","?","?","?","?","?","?","?","?","?","?","?","?","?","?","?","?","?","?","?","?","?","?","?","?","?","?","?","?","?","?","?","?","?","?","?","?","?","?","?","?","?","?","?","?","?","?","?","?","?","?","?","?","?","?","?","?","?","?","?","?","?","?","?","?","?","?","?","?","?","?","?","?","?","?","?","?","?","?","?","?","?","?","?","?","?","?","?","?","?","?","?","?","?","?","?","?","?","?","?","?","?","?","?","?","?","?","?","?","?","?","?","?","?","?","?","?","?","?","?","?","?","?","?","?","?","?","?","?","?","?","?","?","?","?","?","?","?","?","?","?","?","?","?","?","?","?","?","?","?","?","?","?","?","?","?","?","?","?","?","?","?","?","?","?","?","?","?","?","?","?","?","?","?","?","?","?","?","I","I","I","I","I","I","I","I","I","I","I","I","I","I","I","I","I","I","I","I","I","I","I","I","I","I","I","I","I","I","I","I","I","I","I","I","I","I","I","I","I","I","I","I","I","I","I","I","I","I","I","I","I","I","I","I","I","I","?","?","W","?","?","?","?","?","?","?","?","?","?","?","?","?","?","?","?","?","?","?","?","?","?","?","?","?","?","?","?","?","?","?","?","?","?","?","?","?","?","?","?","?","?","?","?","?","?","?","?","?","?","?","?","?","?","?","?","?","?","?","?","?","?","?","?","?","?","?","?","?","?","?","?","?","?","?","?","U","U","U","U","U","U","U","U","U","U","U","U","U","U","U","U","U","U","U","U","U","U","U","U","U","U","U","U","U","U","U","U","U","U","U","U","U","U","U","U","U","U","U","U","U","U","U","U","U","U","U","U","U","U","U","U","U","U","U","U","U","U","U","U","U","U","U","U","U","U","U","U","U","U","U","U","U","U","U","U","U","U","U","U","U","U","U","U","U","U","U","U","U","U","U","U","U","U","U","U","U","U","U","U","U","U","U","U","U","U","U","U","U","U","U","U","U","U","U","U","U","U","U","U","U","U","U","U","U","U","U","U","U","U","U","U","U","U","U","U","U","U","U","U","U","U","U","U","U","U","U","U","U","U","U","U","U","U","U","U","U","U","U","U","U","U","U","U","U","U","U","U","U","U","?","?","M","M","M","M","M","?","?","?","?","?","?","?","?","?","?","?","?","?","?","?","?","?","?","?","?","?","?","?","M","M","M","M","M","M","M","M","M","M","M","M","M","M","M","M","M","M","M","M","M","M","M","M","M","M","M","M","M","M","M","M","M","M","M","M","M","M","M","M","M","M","M","M","M","M","M","M","M","M","M","M","M","M","M","M","M","M","M","M","M","M","M","M","M","M","M","M","M","M","M","M","M","M","M","M","M","M","M","M","M","M","M","M","M","M","M","M","M","?","N","N","N","N","N","N","N","N","N","N","N","N","N","N","N","N","N","N","N","N","N","N","N","N","N","N","N","N","N","N","N","N","N","N","N","N","N","N","N","N","N","N","N","N","N","N","N","N","N","N","N","N","N","N","N","N","N","N","N","N","N","N","N","N","N","N","N","N","N","N","N","N","N","N","N","N","N","N","N","N","N","N","N","N","N","N","N","N","N","N","N","N","N","N","N","N","N","N","N","N","N","N","N","N","N","N","N","N","N","N","N","N","N","N","N","N","N","N","N","?","?","?","?","?","?","?","?","?","?","?","?","?","?","?","?","?","?","W","W","W","W","W","W","W","W","W","W","W","W","W","W","W","W","W","W","W","W","W","W","W","W","W","W","W","W","W","W","W","W","W","W","W","W","W","W","W","W","W","W","W","W","W","W","W","W","W","W","W","W","W","W","W","W","W","W","W","W","W","W","W","W","W","W","W","W","W","W","W","W","W","W","W","W","W","W","W","W","W","W","W","W","W","W","W","W","W","W","W","W","W","W","W","W","W","W","W","W","W","W","W","W","W","W","W","W","W","W","W","W","W","?","?","?","?","K","K","?","J","J","J","J","J","J","J","J","J","J","J","J","J","J","J","J","J","J","J","J","J","?","?","?","?","?","K","K","K","?","?","?","?","?","?","L","L","L","L","L","L","L","L","L","L","L","L","L","L","L","L","L","L","L","L","L","L","L","L","L","L","L","L","L","L","L","L","L","L","L","L","L","L","L","L","L","L","L","L","L","L","L","L","L","L","L","L","L","L","L","L","L","L","L","L","L","L","L","L","?","?","K","K","K","K","K","K","K","K","K","K","K","K","K","K","K","K","K","K","K","K","K","K","K","K","K","K","K","K","K","K","K","K","K","K","K","K","K","K","K","K","K","K","K","K","K","K","K","K","K","K","K","K","K","K","K","K","K","K","K","K","K","K","K","K","K","K","K","K","K","K","K","K","K","K","K","K","K","K","K","K","K","?","?","?","?","B","B","B","B","B","B","B","B","B","B","B","B","B","B","B","B","B","B","B","B","B","B","B","B","B","B","B","B","B","B","B","B","B","B","B","B","B","B","B","B","B","B","B","B","B","B","B","B","B","B","B","B","B","B","B","B","B","B","B","B","B","B","B","B","B","B","B","B","B","B","B","B","B","B","B","B","B","B","B","B","B","B","B","B","B","B","B","B","B","B","B","B","B","B","B","B","B","B","B","B","B","B","B","B","B","B","B","B","B","B","B","B","B","B","B","B","B","B","B","B","B","B","B","B","B","B","B","B","B","B","B","B","B","B","B","B","B","B","B","B","B","B","B","B","B","B","B","B","B","B","B","B","B","B","B","B","B","B","B","B","B","B","B","B","B","B","B","B","B","B","B","B","B","B","B","B","B","B","B","B","B","B","B","B","B","B","B","B","B","B","B","B","B","B","B","B","B","B","B","B","B","B","B","B","B","B","B","B","B","B","B","B","B","B","B","B","B","B","B","B","B","B","B","B","B","B","B","B","B","B","B","B","B","B","B","B","B","B","B","B","B","B","B","B","B","B","B","B","B","B","B","B","B","B","B","B","B","B","B","B","B","B","B","B","B","B","B","B","B","B","B","B","B","B","B","B","B","B","B","B","B","B","B","B","B","B","B","B","B","B","B","B","B","B","B","B","B","B","B","B","B","B","B","B","B","B","B","B","B","B","B","B","B","B","B","B","B","B","B","B","B","B","B","B","B","B","B","B","B","B","B","B","B","B","B","B","B","B","B","B","B","B","B","B","B","B","B","B","B","B","B","B","B","B","B","B","B","B","B","B","B","B","B","B","B","B","B","B","B","B","B","B","B","B","B","B","B","B","B","B","B","B","B","B","B","B","B","B","B","B","B","B","B","B","B","B","B","B","B","B","B","B","B","B","B","B","B","B","B","B","B","B","B","B","B","B","B","B","B","B","B","B","B","B","B","B","B","B","B","B","B","B","B","B","B","B","B","B","B","B","B","B","B","B","B","B","B","B","B","B","B","B","B","B","B","B","B","B","B","B","B","B","B","B","B","B","B","B","B","B","B","B","B","B","B","B","B","B","B","B","B","B","B","B","B","B","B","B","B","B","B","B","B","B","B","B","B","B","B","B","B","B","B","B","B","B","B","B","B","B","B","B","B","B","B","B","B","B","B","B","B","B","B","B","B","B","B","B","B","B","B","B","B","B","B","B","B","B","B","B","B","B","B","B","B","B","B","B","B","B","B","B","B","B","B","B","B","B","B","B","B","B","B","B","B","B","B","B","B","B","B","B","?","C","C","C","C","?","?","?","?","?","?","?","?","?","?","?","?","?","?","?","?","?","?","?","?","?","?","?","?","?","?","?","?","?","C","C","C","C","C","C","C","C","C","C","C","C","C","C","C","C","C","C","C","C","C","C","C","C","C","C","C","C","C","C","C","C","C","C","C","C","C","C","C","C","C","C","C","C","C","C","C","C","C","C","C","C","C","C","C","C","C","C","C","C","C","C","C","C","C","C","C","C","C","C","C","C","C","C","C","C","C","C","C","C","C","C","C","C","C","C","C","C","C","C","C","C","C","C","C","C","C","C","C","C","C","C","C","C","C","C","C","C","C","C","C","C","?","?","?","D","D","D","D","D","D","D","D","D","D","D","D","D","D","D","D","D","D","D","D","D","D","D","D","D","D","D","D","D","D","D","D","D","D","D","D","D","D","D","D","D","D","D","D","D","D","D","D","D","D","D","D","D","D","D","D","D","D","D","D","D","D","D","D","D","D","D","D","D","D","D","D","?","E","E","E","E","E","E","E","E","E","E","?","?","?","?","?","?","?","?","?","?","?","?","?","?","?","?","?","?","?","N","N","N","N","N","N","N","N","N","N","N","N","N","N","N","N","N","N","N","N","N","N","N","N","N","N","N","N","N","N","N","N","N","N","N","N","N","N","N","N","N","N","N","N","N","N","N","N","N","N","N","N","N","N","N","N","N","N","N","N","N","N","N","N","N","N","N","N","N","?","W","W","W","W","W","W","W","W","W","W","W","W","W","W","W","W","W","W","W","W","W","W","W","W","W","W","W","W","W","W","W","W","W","W","W","W","W","W","W","W","W","W","W","W","W","W","W","W","W","W","W","W","W","W","W","W","W","W","W","W","W","W","W","W","W","W","W","W","W","W","W","?","V","V","?","?","?","?","?","?","?","?","?","?","?","?","?","?","?","?","?","?","?","?","?","?","?","?","?","?","?","?","?","S","S","S","S","S","S","S","S","S","S","S","S","S","S","S","S","S","S","S","S","S","S","S","S","S","S","S","S","S","S","S","S","S","S","S","S","S","S","S","S","S","S","S","S","S","S","S","S","S","S","S","S","S","S","S","S","S","S","S","S","S","S","S","S","S","S","S","S","S","S","S","S","S","S","S","S","S","S","S","S","S","S","S","S","S","S","S","S","S","S","S","S","S","S","S","S","S","S","S","S","S","S","S","S","S","S","S","S","S","S","S","S","S","S","S","S","S","S","S","S","S","S","S","S","S","S","S","S","S","S","S","S","S","S","S","S","S","S","S","S","S","S","S","S","S","S","S","S","S","S","S","S","S","S","S","S","S","S","S","S","S","?","T","?","U","?","V","?","?","?","W","W","W","W","W","W","W","W","W","W","W","W","W","W","W","?","X","Y","Y","?","?","?","?","Q","Q","Q","Q","Q","Q","Q","Q","Q","Q","Q","Q","Q","?","R","R","R","?","?","?","?","?","?","?","?","?","?","?","?","?","?","?","?","?","?","?","?","?","?","?","?","?","?","?","I","I","I","I","I","I","I","I","I","I","I","I","I","I","I","I","I","I","I","I","I","I","I","I","I","I","I","I","I","I","I","I","I","I","I","I","I","I","I","I","I","I","I","I","I","I","I","I","I","I","I","I","I","I","I","I","I","I","I","I","I","I","I","I","I","I","I","I","I","I","I","I","I","I","I","I","I","I","I","I","I","I","I","I","I","I","I","I","I","I","I","I","I","I","I","I","I","I","I","I","I","I","I","I","I","I","I","I","I","I","I","I","I","I","I","I","I","I","I","I","I","I","?","?","?","?","?","?","R","R","R","R","R","R","R","R","R","R","R","R","R","R","R","R","R","R","R","R","R","R","R","R","?","?","?","?","?","Q","Q","Q","Q","Q","Q","Q","Q","Q","Q","Q","Q","Q","Q","Q","Q","Q","?","?","?","?","?","?","?","P","P","P","P","P","P","P","P","P","P","P","P","P","P","P","P","P","P","P","P","P","P","P","P","P","P","P","P","P","P","P","P","P","P","P","P","P","P","P","P","P","P","P","P","P","P","P","P","P","P","P","P","P","P","P","P","P","P","P","P","O","M","L","L","K","K","K","K","K","K","K","K","K","K","K","K","K","K","?","?","?","?","?","?","?","?","?","A","A","A","A","A","A","A","A","A","A","A","A","A","A","A","A","A","A","A","A","A","A","A","A","A","A","A","A","A","A","A","A","A","A","A","A","A","A","A","A","A","A","A","A","A","A","A","A","A","A","A","A","A","A","A","A","A","A","A","A","A","A","A","A","A","A","A","A","A","A","A","A","A","A","A","A","A","A","A","A","A","A","A","A","A","A","A","A","A","A","A","A","A","A","A","A","A","A","A","A","A","A","A","A","A","A","A","A","A","A","A","A","A","A","A","A","A","A","A","A","A","A","A","A","A","A","A","A","A","A","A","A","A","A","A","A","A","A","A","A","A","A","A","A","A","A","A","A","A","A","A","A","A","A","A","A","A","A","A","A","A","A","A","A","A","A","A","A","A","A","A","A","A","A","A","A","A","A","A","A","A","A","A","A","A","A","A","A","A","A","A","A","A","A","A","A","A","A","A","A","A","A","A","A","A","A","A","A","A","A","A","A","A","A","A","A","A","A","A","A","A","A","A","B","C","?","?","?","?","?","?","N","N","N","N","N","N","N","N","N","N","N","N","N","N","N","?","?","?","M","M","M","M","M","M","M","M","M","M","M","M","M","M","M","M","M","M","M","M","M","M","M","M","M","M","M","M","M","M","M","M","M","M","M","M","M","M","M","M","M","M","M","M","M","M","M","M","M","M","M","M","M","M","M","M","M","M","M","M","M","M","M","M","M","M","M","M","M","M","M","M","M","M","M","M","M","M","M","M","M","M","M","M","M","M","M","M","M","M","M","M","M","M","M","M","M","M","M","M","M","M","M","M","M","M","M","M","M","M","M","M","M","M","M","M","M","M","M","M","M","M","M","M","M","M","M","M","M","M","M","M","M","M","M","M","M","M","M","M","M","M","M","M","M","M","M","M","M","M","M","M","M","M","M","M","M","M","M","M","M","M","M","M","M","M","M","M","M","M","M","M","M","M","M","M","M","M","M","M","M","M","M","M","M","M","M","M","M","M","M","M","M","M","M","M","M","M","M","N","N","N","N","N","N","?","?","?","?","?","?","?","?","?","?","?","?","?","?","?","?","F","F","F","F","F","F","F","F","F","F","F","F","F","F","F","F","F","F","F","F","F","F","F","F","F","F","F","F","F","F","F","F","F","F","F","F","F","F","F","F","F","F","F","F","?","?","E","E","E","E","E","E","E","E","E","E","E","E","E","E","E","E","E","E","E","E","E","E","E","E","E","E","E","E","E","E","E","E","E","E","E","E","E","E","E","E","E","E","E","E","E","?","?","?","O","O","O","O","O","O","O","O","O","O","O","O","O","O","O","O","O","O","O","O","O","O","O","O","O","O","O","O","O","O","O","O","O","O","O","O","?","?","?","?","?","?","?","?","?","P","P","P","P","P","P","P","P","P","P","P","P","P","P","P","P","P","P","P","P","P","P","P","P","P","P","P","P","P","P","P","P","P","P","P","P","P","P","P","P","P","P","P","P","P","P","P","P","P","P","P","P","P","P","P","P","P","P","P","P","P","P","P","P","P","P","P","P","P","P","P","P","P","P","P","P","P","P","P","P","P","P","P","P","P","P","P","P","P","P","P","P","P","P","P","P","P","P","P","P","P","P","P","P","P","P","P","P","P","P","P","P","P","P","P","P","P","P","P","P","P","P","P","P","P","P","P","P","P","P","P","P","P","P","P","P","P","P","P","P","P","P","P","P","P","P","P","P","P","P","P","P","P","P","P","P","P","P","P","P","P","P","P","P","P","P","P","P","P","P","P","P","P","P","P","P","P","P","P","P","P","P","P","P","P","P","P","P","P","P","P","P","P","P","P","P","P","P","P","P","P","P","P","P","P","P","P","P","P","P","P","P","P","P","P","P","P","P","P","P","P","P","P","P","P","P","P","P","P","P","P","P","P","P","P","P","P","P","P","P","P","P","P","P","P","P","P","P","P","P","P","P","P","P","P","P","P","P","P","P","P","P","P","P","P","P","P","P","P","P","P","P","P","P","P","P","P","P","P","P","P","P","P","P","P","P","P","P","P","P","P","P","P","P","P","P","P","P","P","P","P","P","P","P","P","P","P","P","P","?","?","?","?","?","?","?","?","?","?","?","?","?","?","?","?","?","?","?","?","?","?","?","?","?","?","Y","Y","Y","Y","Y","Y","Y","Y","Y","Y","Y","Y","Y","Y","Y","Y","Y","Y","Y","Y","Y","Y","Y","Y","Y","Y","Y","Y","Y","Y","Y","Y","Y","Y","Y","Y","Y","Y","Y","Y","Y","Y","Y","Y","Y","Y","Y","Y","Y","Y","Y","Y","Y","Y","Y","Y","Y","Y","Y","Y","Y","Y","Y","Y","Y","Y","Y","Y","Y","Y","Y","Y","Y","Y","Y","Y","Y","Y","Y","Y","Y","Y","Y","Y","Y","Y","Y","Y","Y","Y","Y","Y","Y","Y","Y","Y","Y","Y","Y","Y","Y","Y","Y","Y","Y","Y","Y","Y","Y","Y","Y","Y","Y","Y","Y","Y","Y","Y","Y","Y","Y","Y","Y","Y","Y","Y","Y","Y","Y","Y","Y","Y","Y","Y","Y","Y","Y","Y","Y","Y","Y","Y","Y","Y","Y","Y","Y","Y","Y","Y","Y","Y","Y","Y","Y","Y","Y","Y","Y","Y","Y","Y","Y","Y","Y","Y","Y","Y","Y","Y","Y","Y","Y","Y","Y","Y","Y","Y","Y","Y","Y","Y","Y","Y","Y","Y","?","?","Z","Z","Z","Z","Z","Z","Z","Z","Z","Z","Z","Z","Z","Z","Z","Z","Z","Z","Z","Z","Z","Z","Z","Z","Z","Z","Z","Z","Z","Z","Z","Z","Z","Z","Z","Z","Z","Z","Z","Z","Z","Z","Z","Z","Z","Z","Z","Z","Z","Z","Z","Z","Z","Z","Z","Z","Z","Z","Z","Z","Z","Z","Z","Z","Z","Z","Z","Z","Z","Z","Z","Z","Z","Z","Z","Z","Z","Z","Z","Z","Z","Z","Z","Z","Z","Z","Z","Z","Z","Z","Z","Z","Z","Z","Z","Z","Z","Z","Z","Z","Z","Z","Z","Z","Z","Z","Z","Z","Z","Z","Z","Z","Z","Z","Z","Z","Z","Z","Z","Z","Z","Z","Z","Z","Z","Z","Z","Z","Z","Z","Z","Z","Z","Z","Z","Z","Z","Z","Z","Z","Z","Z","Z","Z","Z","Z","Z","Z","Z","Z","Z","Z","Z","Z","Z","Z","Z","Z","Z","Z","Z","Z","Z","Z","Z","Z","Z","Z","Z","Z","Z","Z","Z","Z","Z","Z","?","?","?","O","O","O","O","O","O","?","?","?","?","?","?","?","?","?","?","?","?","?","?","?","?","?","?","?","?","?","?","E","E","E","E","E","E","E","E","E","E","E","E","E","E","E","E","E","E","E","E","E","E","E","E","E","E","E","E","E","E","E","E","E","E","E","E","E","E","E","E","E","E","E","E","E","E","E","E","E","E","E","E","E","E","E","E","E","E","E","E","E","E","E","E","E","E","E","E","E","E","E","E","E","E","E","E","E","E","E","E","E","E","E","E","E","E","E","?","?","?","O","O","O","O","?","?","?","?","?","?","?","?","?","?","?","?","?","?","?","?","?","?","?","?","?","Y","Y","Y","Y","Y","Y","Y","Y","Y","Y","Y","Y","Y","Y","Y","Y","Y","Y","Y","Y","Y","Y","Y","Y","Y","Y","Y","Y","Y","Y","Y","Y","Y","Y","Y","Y","Y","Y","Y","Y","Y","Y","Y","Y","Y","Y","Y","Y","Y","Y","Y","Y","Y","Y","Y","Y","Y","Y","Y","Y","Y","Y","Y","Y","Y","Y","Y","Y","Y","Y","Y","Y","Y","Y","Y","Y","Y","Y","?","?","?","?","?","?","?","?","?","?","?","?","?","?","?","?","?","?","?","?","?","?","?","?","?","?","?","?","?","?","?","?","?","?","?","?","?","?","?","?","?","?","?","?","?","?","?","?","?","?","?","?","?","?","?","?","?","?","?","?","?","?","?","?","?","?","?","?","?","?","?","?","?","?","?","?","?","?","?","?","?","?","?","?","?","?","?","?","?","?","?","?","?","?","?","?","?","?","?","?","?","?","?","?","?","?","?","?","?","?","?","?","?","?","?","?","?","?","?","?","?","?","?","?","?","?","?","?","?","?","?","?","?","?","?","?","?","?","?","?","?","?","?","?","?","?","?","?","?","?","?","?","?","?","?","?","?","?","?","?","?","?","?","?","?","?","?","?","?","?","?","?","?","?","?","?","?","?","?","?","?","?","?","?","?","?","?","?","Y","Y","Y","Y","Y","Y","Y","Y","Y","Y","Y","Y","Y","Y","Y","Y","Y","Y","Y","Y","?","?","?","?","?","?","?","?","?","?","?","?","?","?","?","?","?","?","?","?","?","?","?","?","?","?","?","?","?","?","?","?","?","?","?","?","?","?","?","?","?","?","?","?","?","?","?","?","?","?","?","?","?","?","?","?","?","?","?","?","?","?","?","?","?","?","?","?","?","?","?","?","?","?","?","?","?","?","?","?","?","?","?","?","?","?","?","?","?","?","?","?","?","?","?","?","?","?","?","?","?","?","?","?","?","?","?","?","?","?","?","?","?","?","?","?","?","?","?","?","?","?","?","?","?","?","?","?","?","?","?","?","?","?","?","?","?","?","?","?","?","?","?","?","?","?","?","?","?","?","?","?","?","?","?","?","?","?","?","?","?","?","?","?","?","?","?","?","?","?","?","?","?","?","?","?","?","?","?","?","?","?","?","?","?","?","?","?","?","?","?","?","?","?","?","?","?","?","?","?","?","?","?","?","?","?","?","?","?","?","?","?","?","?","?","?","?","?","?","?","?","?","?","?","?","?","?","?","?","?","?","?","?","?","?","?","?","?","?","?","?","?","?","?","?","?","?","?","?","?","?","?","?","?","?","?","?","?","?","?","?","?","?","?","?","?","?","?","?","?","?","?","?","?","?","?","?","?","?","?","?","?","?","?","?","?","?","?","?","?","?","?","?","?","?","?","?","?","?","?","?","?","?","?","?","?","?","?","?","?","?","?","?","?","?","?","?","?","?","?","?","?","?","?","?","?","?","?","?","?","?","?","?","?","?","?","?","?","?","?","?","?","?","?","?","?","?","?","?","?","?","?","?","?","?","?","?","?","?","?","?","?","?","?","?","?","?","?","?","?","?","?","?","?","?","?","?","?","?","?","?","?","?","?","?","?","?","?","?","?","?","?","?","?","?","?","?","?","?","?","?","?","?","?","?","?","?","?","?","?","?","?","?","?","?","?","?","?","?","?","?","?","?","?","?","?","?","?","?","?","?","?","?","?","?","?","?","?","?","?","?","?","?","?","?","?","?","?","?","?","?","?","?","?","?","?","?","?","?","?","?","?","?","?","?","?","?","?","?","?","?","?","?","?","?","?","?","?","?","?","?","?","?","?","?","?","?","?","?","?","?","?","?","?","?","?","?","?","R","R","R","R","R","R","R","R","R","R","R","R","R","R","R","R","R","R","R","R","R","R","R","R","R","R","R","R","R","R","R","R","R","R","R","R","R","R","R","R","R","R","R","R","R","R","R","R","R","R","R","R","R","R","R","R","R","R","R","R","R","R","R","R","R","R","R","R","R","R","R","R","R","R","R","R","R","R","R","R","R","R","R","R","R","R","R","R","R","R","R","R","R","R","R","R","R","R","R","R","R","R","R","R","R","R","R","R","R","R","R","R","R","R","R","R","R","R","R","R","R","R","R","R","R","R","R","R","R","R","R","R","R","R","R","R","R","R","R","R","R","R","R","R","R","R","R","R","R","R","R","R","R","R","R","R","R","R","R","R","R","R","R","R","R","R","R","R","R","R","R","R","R","R","R","R","R","R","R","R","R","R","R","R","R","R","R","R","R","R","R","R","R"],"t":[36,47,71,87,104,123,140,156,173,190,205,223,239,256,272,290,307,324,341,356,373,389,406,422,439,456,472,488,506,522,539,555,572,588,605,622,638,655,672,689,705,722,739,756,772,789,805,822,838,855,872,888,905,922,938,955,972,988,1005,1022,1038,1056,1072,1089,1105,1122,1138,1155,1172,1188,1205,1222,1238,1258,1272,1288,1305,1322,1338,1355,1372,1388,1405,1421,1438,1456,1470,1486,1504,1521,1538,1555,1571,1588,1604,1621,1638,1654,1672,1689,1705,1721,1738,1755,1771,1787,1805,1821,1838,1854,1871,1887,1904,1921,1937,1954,1971,1987,2004,2021,2038,2054,2071,2088,2103,2119,2137,2154,2171,2187,2204,2221,2237,2257,2271,2287,2304,2321,2338,2354,2371,2388,2415,2436,2453,2469,2486,2503,2520,2536,2552,2569,2586,2603,2621,2638,2654,2672,2689,2706,2723,2741,2753,2770,2786,2803,2821,2838,2854,2871,2890,2905,2925,2936,2953,2969,2986,3005,3021,3038,3054,3071,3088,3104,3121,3138,3154,3171,3187,3204,3221,3237,3256,3271,3288,3305,3322,3337,3354,3370,3387,3404,3420,3437,3454,3471,3487,3504,3520,3535,3552,3569,3587,3603,3620,3637,3653,3670,3687,3704,3720,3737,3755,3771,3788,3804,3822,3838,3855,3869,3887,3903,3920,3936,3953,3969,3985,4002,4019,4036,4053,4069,4087,4103,4120,4136,4153,4169,4186,4203,4220,4237,4255,4270,4286,4302,4319,4336,4353,4369,4387,4401,4418,4435,4451,4470,4488,4503,4519,4536,4553,4570,4586,4603,4619,4636,4654,4671,4687,4703,4720,4738,4752,4768,4785,4802,4818,4835,4852,4868,4885,4902,4919,4935,4954,4969,4985,5002,5019,5035,5052,5068,5086,5103,5120,5136,5152,5170,5186,5202,5219,5236,5252,5269,5287,5303,5320,5336,5353,5370,5386,5404,5419,5435,5452,5469,5485,5502,5518,5534,5551,5568,5584,5603,5619,5635,5652,5669,5685,5702,5719,5736,5752,5768,5785,5802,5820,5835,5850,5867,5884,5901,5919,5935,5952,5968,5985,6002,6019,6035,6053,6068,6085,6103,6118,6135,6152,6168,6185,6202,6218,6235,6254,6268,6285,6302,6318,6335,6351,6368,6385,6402,6418,6435,6452,6468,6485,6502,6519,6535,6552,6568,6585,6602,6618,6635,6651,6668,6684,6701,6718,6735,6751,6768,6785,6802,6818,6835,6851,6868,6885,6901,6919,6938,6953,6969,6985,7002,7019,7036,7052,7069,7086,7102,7118,7136,7154,7171,7186,7203,7219,7235,7254,7268,7287,7300,7317,7334,7351,7369,7385,7402,7418,7435,7452,7469,7485,7502,7518,7537,7552,7568,7585,7602,7618,7635,7652,7668,7685,7702,7718,7735,7751,7768,7785,7802,7820,7835,7852,7868,7885,7902,7918,7935,7951,7968,7985,8001,8018,8034,8052,8068,8085,8101,8118,8135,8151,8168,8186,8202,8219,8236,8251,8268,8284,8301,8318,8334,8351,8367,8384,8400,8417,8434,8450,8467,8483,8503,8518,8534,8552,8568,8585,8601,8618,8635,8651,8669,8685,8704,8720,8736,8751,8767,8783,8800,8817,8834,8850,8867,8884,8900,8917,8934,8950,8967,8984,9003,9018,9035,9051,9068,9085,9102,9118,9135,9152,9168,9185,9201,9218,9234,9254,9268,9285,9302,9318,9334,9351,9368,9384,9401,9418,9435,9452,9468,9485,9501,9518,9536,9552,9568,9586,9601,9618,9634,9650,9666,9684,9700,9716,9733,9750,9769,9783,9800,9817,9833,9850,9866,9884,9900,9917,9933,9950,9967,9983,10000,10016,10033,10050,10067,10083,10099,10116,10132,10149,10164,10181,10198,10216,10233,10251,10266,10283,10299,10316,10333,10349,10365,10383,10399,10415,10432,10450,10466,10483,10500,10517,10534,10550,10567,10584,10598,10615,10632,10649,10666,10682,10699,10716,10732,10749,10766,10782,10799,10816,10833,10850,10867,10883,10901,10918,10933,10950,10967,10984,11000,11017,11032,11048,11064,11081,11097,11115,11131,11149,11166,11182,11199,11216,11232,11249,11266,11282,11299,11316,11332,11349,11366,11383,11399,11415,11432,11449,11466,11482,11499,11515,11532,11549,11566,11583,11600,11616,11631,11647,11664,11680,11698,11715,11733,11748,11766,11782,11799,11815,11832,11849,11865,11882,11900,11916,11932,11949,11966,11982,11998,12015,12032,12049,12065,12082,12099,12116,12133,12148,12165,12182,12199,12216,12232,12251,12266,12282,12299,12315,12333,12350,12365,12382,12399,12416,12433,12449,12465,12481,12498,12515,12531,12548,12565,12580,12597,12613,12630,12647,12664,12681,12698,12715,12731,12748,12765,12781,12798,12815,12831,12848,12864,12881,12898,12915,12931,12948,12965,12981,12998,13014,13031,13048,13064,13084,13098,13113,13130,13147,13164,13181,13197,13214,13231,13248,13264,13280,13297,13313,13331,13347,13363,13380,13398,13414,13430,13447,13465,13481,13497,13514,13531,13547,13564,13581,13598,13614,13631,13648,13665,13682,13698,13714,13731,13750,13763,13779,13796,13813,13832,13847,13864,13880,13897,13914,13930,13947,13966,13981,13997,14014,14031,14048,14064,14080,14097,14114,14130,14147,14164,14180,14197,14215,14230,14249,14264,14281,14297,14314,14331,14347,14364,14381,14397,14414,14430,14447,14465,14480,14497,14513,14530,14547,14565,14580,14595,14612,14629,14647,14664,14680,14697,14714,14730,14747,14763,14780,14797,14813,14830,14847,14864,14880,14897,14914,14930,14947,14963,14980,14997,15013,15030,15047,15063,15080,15097,15113,15130,15146,15163,15180,15197,15213,15230,15249,15263,15279,15295,15312,15329,15346,15362,15380,15396,15413,15430,15446,15463,15480,15497,15513,15530,15547,15563,15580,15596,15612,15628,15645,15662,15679,15697,15713,15730,15746,15763,15780,15796,15813,15829,15846,15863,15882,15895,15912,15928,15945,15962,15979,15996,16012,16032,16045,16061,16078,16095,16111,16129,16146,16163,16179,16196,16213,16230,16248,16262,16279,16296,16312,16329,16346,16362,16379,16396,16413,16429,16446,16462,16479,16496,16512,16529,16546,16562,16579,16596,16612,16629,16646,16663,16679,16695,16713,16730,16746,16762,16779,16796,16813,16829,16846,16863,16879,16895,16912,16929,16945,16962,16979,16995,17012,17029,17045,17062,17079,17095,17112,17129,17145,17162,17179,17196,17212,17229,17247,17261,17277,17294,17311,17328,17345,17362,17378,17395,17412,17429,17445,17462,17479,17497,17511,17527,17544,17560,17578,17595,17612,17628,17645,17661,17678,17695,17711,17728,17745,17761,17778,17795,17812,17828,17845,17862,17879,17895,17911,17928,17945,17962,17978,17995,18012,18028,18045,18062,18078,18095,18112,18128,18144,18161,18179,18195,18211,18228,18247,18262,18277,18293,18310,18327,18344,18360,18378,18394,18412,18428,18446,18464,18480,18494,18510,18527,18544,18560,18577,18593,18611,18628,18644,18661,18678,18694,18711,18728,18745,18761,18778,18794,18811,18828,18845,18862,18878,18895,18912,18929,18944,18961,18980,18994,19010,19027,19044,19060,19077,19094,19110,19127,19144,19160,19177,19194,19210,19227,19243,19260,19277,19294,19311,19328,19344,19361,19377,19394,19410,19427,19444,19461,19478,19494,19511,19527,19544,19561,19577,19595,19612,19628,19644,19661,19677,19694,19711,19727,19744,19761,19778,19795,19812,19828,19844,19861,19877,19893,19910,19927,19944,19960,19977,19994,20010,20028,20043,20059,20076,20094,20110,20127,20144,20161,20177,20193,20211,20227,20245,20260,20277,20294,20310,20327,20343,20360,20378,20395,20411,20430,20443,20460,20476,20493,20509,20526,20543,20559,20576,20594,20610,20627,20644,20660,20677,20693,20710,20727,20744,20760,20776,20794,20810,20827,20843,20860,20877,20893,20910,20927,20944,20960,20977,20995,21011,21028,21044,21061,21077,21095,21111,21128,21144,21161,21178,21195,21212,21227,21247,21261,21278,21296,21313,21327,21343,21359,21376,21392,21408,21425,21444,21460,21477,21493,21510,21527,21544,21560,21576,21593,21609,21626,21644,21660,21678,21693,21710,21726,21743,21760,21776,21793,21810,21826,21843,21859,21876,21893,21910,21925,21942,21959,21975,21992,22009,22026,22043,22059,22076,22092,22109,22127,22143,22159,22176,22193,22210,22226,22243,22259,22276,22292,22309,22326,22342,22359,22376,22393,22409,22426,22444,22460,22475,22492,22510,22526,22542,22559,22576,22592,22610,22626,22642,22659,22676,22692,22709,22725,22743,22759,22776,22792,22809,22826,22842,22859,22876,22892,22909,22925,22942,22959,22975,22992,23011,23025,23042,23059,23076,23095,23109,23126,23142,23160,23176,23191,23208,23225,23244,23259,23276,23292,23309,23326,23342,23358,23376,23392,23409,23425,23442,23459,23475,23492,23508,23525,23542,23559,23576,23592,23608,23625,23642,23659,23678,23693,23710,23725,23742,23758,23775,23792,23808,23825,23842,23858,23874,23892,23908,23925,23942,23958,23974,23990,24007,24024,24041,24058,24075,24093,24108,24124,24141,24158,24174,24191,24208,24224,24244,24260,24273,24290,24307,24323,24341,24358,24375,24392,24408,24425,24442,24459,24476,24492,24509,24525,24542,24558,24576,24592,24612,24627,24643,24659,24675,24692,24709,24726,24744,24759,24775,24793,24808,24825,24841,24858,24874,24891,24908,24924,24941,24958,24975,24991,25008,25024,25041,25057,25074,25091,25108,25124,25141,25158,25174,25191,25207,25225,25244,25258,25275,25292,25308,25324,25342,25358,25375,25392,25408,25424,25441,25457,25474,25492,25507,25524,25541,25558,25574,25591,25607,25624,25641,25657,25674,25691,25707,25724,25742,25757,25774,25791,25808,25824,25841,25857,25874,25890,25907,25924,25940,25957,25974,25990,26007,26024,26041,26057,26074,26092,26110,26138,26156,26173,26190,26207,26223,26242,26256,26273,26290,26307,26323,26340,26356,26373,26390,26407,26423,26440,26456,26473,26490,26506,26523,26540,26556,26573,26590,26606,26623,26640,26656,26673,26689,26706,26723,26740,26758,26773,26790,26807,26823,26840,26857,26874,26890,26907,26923,26940,26957,26973,26990,27006,27024,27040,27057,27073,27091,27107,27123,27140,27156,27173,27190,27206,27223,27242,27257,27274,27290,27306,27323,27340,27356,27373,27390,27406,27423,27440,27457,27475,27490,27504,27521,27538,27555,27573,27591,27607,27622,27638,27655,27673,27689,27706,27723,27740,27756,27773,27790,27806,27823,27840,27856,27873,27890,27906,27923,27939,27956,27973,27989,28006,28023,28039,28056,28072,28089,28106,28123,28139,28156,28173,28189,28206,28222,28240,28256,28273,28288,28305,28321,28338,28355,28372,28389,28406,28422,28439,28456,28473,28489,28506,28524,28539,28556,28572,28589,28606,28622,28639,28655,28672,28689,28706,28724,28741,28756,28775,28790,28807,28823,28840,28855,28871,28888,28905,28922,28938,28955,28972,28989,29005,29021,29039,29057,29071,29088,29104,29121,29139,29155,29172,29189,29206,29222,29239,29255,29272,29289,29305,29322,29339,29355,29372,29389,29405,29422,29439,29455,29472,29489,29505,29522,29538,29555,29572,29589,29605,29622,29639,29655,29672,29689,29705,29722,29739,29755,29772,29789,29805,29821,29839,29855,29872,29889,29906,29923,29940,29956,29974,29988,30004,30021,30038,30055,30071,30088,30105,30122,30138,30154,30172,30188,30204,30221,30238,30254,30270,30287,30303,30321,30338,30355,30371,30388,30404,30422,30438,30454,30471,30489,30505,30523,30537,30554,30570,30587,30604,30621,30638,30654,30671,30688,30704,30721,30738,30754,30772,30787,30804,30821,30837,30854,30870,30887,30904,30921,30938,30954,30971,30988,31005,31021,31037,31054,31071,31088,31104,31121,31137,31154,31171,31188,31204,31221,31237,31255,31270,31286,31302,31319,31336,31353,31371,31388,31404,31421,31437,31454,31471,31487,31505,31522,31538,31555,31571,31587,31604,31621,31637,31654,31671,31688,31705,31721,31737,31754,31771,31787,31804,31821,31837,31854,31870,31887,31904,31921,31937,31954,31970,31987,32006,32019,32036,32053,32070,32087,32104,32121,32137,32154,32170,32187,32204,32221,32237,32255,32270,32287,32304,32320,32337,32354,32371,32387,32404,32420,32437,32453,32470,32487,32503,32520,32537,32554,32570,32586,32603,32620,32637,32653,32670,32687,32704,32720,32737,32753,32771,32786,32802,32821,32837,32852,32869,32886,32902,32920,32937,32953,32970,32986,33003,33020,33037,33053,33070,33087,33103,33120,33136,33153,33170,33186,33203,33220,33236,33255,33270,33286,33303,33320,33336,33353,33369,33386,33403,33420,33436,33453,33470,33486,33504,33520,33535,33552,33569,33586,33603,33619,33636,33653,33669,33686,33703,33720,33736,33753,33769,33786,33803,33820,33836,33853,33869,33886,33903,33919,33936,33953,33969,33986,34003,34019,34036,34053,34069,34086,34103,34119,34136,34152,34169,34186,34203,34219,34236,34255,34269,34286,34303,34319,34336,34352,34369,34386,34402,34419,34436,34452,34469,34486,34502,34519,34536,34552,34569,34586,34603,34619,34635,34652,34669,34686,34702,34719,34736,34752,34769,34785,34802,34819,34835,34852,34869,34886,34902,34919,34935,34952,34969,34987,35002,35018,35035,35051,35068,35085,35101,35118,35135,35152,35169,35184,35201,35218,35235,35254,35268,35286,35302,35319,35336,35352,35369,35386,35402,35418,35436,35453,35469,35486,35502,35519,35535,35552,35568,35584,35600,35617,35634,35652,35668,35685,35702,35718,35735,35752,35769,35785,35802,35819,35835,35851,35868,35885,35902,35918,35935,35952,35968,35985,36002,36018,36035,36051,36068,36085,36101,36118,36135,36154,36169,36186,36203,36219,36235,36251,36268,36284,36301,36317,36334,36351,36367,36384,36401,36418,36436,36454,36467,36484,36500,36517,36534,36550,36567,36585,36601,36618,36635,36651,36668,36684,36702,36718,36734,36751,36768,36784,36801,36818,36834,36851,36867,36885,36901,36917,36934,36951,36968,36984,37001,37018,37034,37051,37068,37084,37101,37117,37134,37151,37167,37184,37201,37218,37234,37252,37268,37284,37301,37318,37334,37351,37367,37385,37401,37417,37434,37451,37468,37484,37501,37517,37534,37551,37568,37584,37602,37617,37634,37651,37667,37684,37701,37717,37734,37750,37767,37784,37800,37817,37834,37850,37867,37884,37902,37917,37936,37950,37966,37982,37999,38017,38034,38050,38067,38084,38101,38117,38134,38150,38167,38184,38200,38217,38233,38252,38267,38284,38300,38317,38334,38350,38367,38384,38400,38417,38433,38450,38467,38483,38500,38517,38534,38550,38567,38583,38600,38617,38634,38651,38667,38683,38700,38717,38733,38750,38767,38783,38800,38816,38834,38850,38866,38883,38900,38917,38933,38950,38966,38983,39000,39017,39033,39049,39067,39083,39100,39116,39133,39150,39166,39183,39200,39216,39233,39250,39266,39283,39300,39316,39333,39350,39366,39383,39400,39417,39433,39448,39465,39481,39499,39517,39533,39549,39566,39583,39600,39616,39632,39651,39667,39684,39701,39717,39734,39749,39764,39782,39799,39815,39832,39849,39866,39883,39899,39916,39934,39949,39966,39983,39999,40016,40033,40049,40066,40083,40099,40116,40132,40149,40166,40182,40200,40216,40232,40250,40267,40283,40300,40316,40333,40348,40365,40381,40398,40415,40431,40448,40465,40482,40498,40515,40532,40548,40565,40583,40600,40616,40633,40650,40665,40682,40698,40715,40732,40748,40766,40782,40799,40815,40832,40849,40867,40881,40898,40915,40931,40949,40965,40982,41000,41016,41033,41049,41065,41082,41099,41115,41132,41149,41166,41182,41198,41215,41232,41250,41265,41282,41299,41315,41332,41349,41365,41382,41398,41415,41432,41448,41467,41482,41498,41515,41532,41548,41565,41582,41598,41615,41632,41649,41665,41682,41698,41715,41732,41748,41765,41782,41798,41815,41832,41848,41865,41882,41898,41915,41931,41948,41965,41982,41998,42015,42032,42048,42065,42081,42098,42114,42132,42148,42165,42181,42198,42215,42231,42248,42264,42282,42299,42315,42333,42349,42364,42380,42397,42414,42430,42447,42464,42481,42497,42514,42530,42547,42564,42580,42597,42613,42631,42648,42664,42680,42697,42714,42731,42747,42764,42781,42798,42815,42831,42848,42864,42881,42897,42914,42931,42948,42966,42981,42998,43014,43031,43047,43064,43081,43097,43114,43131,43148,43164,43181,43198,43214,43231,43249,43264,43281,43298,43314,43331,43347,43364,43381,43397,43414,43431,43447,43464,43481,43497,43514,43530,43547,43564,43581,43597,43614,43631,43647,43664,43680,43697,43715,43730,43747,43766,43781,43797,43817,43829,43846,43863,43881,43897,43914,43931,43947,43964,43981,43997,44014,44031,44047,44064,44080,44097,44114,44131,44147,44164,44180,44198,44213,44230,44249,44264,44280,44297,44313,44330,44346,44365,44380,44397,44414,44430,44447,44464,44480,44497,44514,44530,44547,44564,44580,44597,44614,44630,44647,44663,44680,44697,44714,44730,44747,44763,44781,44797,44814,44830,44847,44863,44880,44897,44914,44930,44947,44963,44980,44997,45013,45030,45047,45063,45080,45098,45113,45130,45147,45163,45180,45196,45213,45230,45248,45263,45280,45298,45312,45328,45345,45363,45382,45397,45413,45430,45446,45463,45480,45496,45514,45529,45546,45563,45580,45597,45611,45628,45646,45663,45679,45696,45714,45729,45745,45761,45779,45796,45813,45829,45846,45863,45879,45896,45913,45929,45946,45963,45979,45996,46013,46029,46046,46063,46079,46096,46112,46129,46146,46162,46179,46196,46212,46229,46248,46263,46279,46296,46312,46329,46346,46363,46379,46396,46413,46429,46446,46462,46479,46496,46512,46529,46546,46562,46579,46596,46612,46629,46646,46662,46679,46696,46712,46729,46746,46762,46783,46810,46829,46846,46862,46879,46896,46912,46929,46945,46962,46979,46996,47013,47028,47045,47062,47079,47095,47112,47128,47145,47162,47178,47195,47212,47228,47247,47262,47278,47295,47312,47329,47345,47362,47378,47395,47412,47428,47445,47461,47478,47495,47511,47528,47545,47561,47579,47595,47611,47628,47645,47661,47678,47695,47711,47728,47744,47761,47778,47795,47811,47828,47845,47861,47878,47895,47911,47928,47944,47961,47978,47995,48011,48028,48045,48061,48078,48095,48111,48128,48144,48161,48178,48195,48212,48227,48243,48259,48276,48293,48310,48327,48344,48361,48378,48394,48411,48428,48444,48461,48477,48494,48511,48527,48544,48561,48577,48594,48611,48627,48644,48661,48677,48694,48711,48727,48744,48760,48777,48794,48811,48827,48844,48860,48877,48894,48910,48927,48944,48962,48976,48994,49012,49028,49046,49062,49078,49095,49112,49128,49145,49161,49178,49195,49211,49228,49247,49261,49278,49295,49311,49328,49344,49361,49378,49394,49411,49428,49444,49461,49478,49494,49511,49528,49544,49561,49578,49595,49611,49627,49644,49661,49678,49694,49712,49727,49742,49759,49776,49793,49810,49827,49844,49861,49877,49895,49911,49927,49944,49961,49977,49994,50011,50027,50044,50061,50077,50094,50111,50127,50142,50159,50175,50193,50208,50226,50241,50260,50275,50293,50309,50326,50342,50360,50376,50392,50410,50426,50442,50459,50475,50493,50509,50527,50542,50559,50576,50592,50608,50626,50642,50660,50675,50693,50708,50726,50742,50758,50775,50793,50809,50825,50843,50858,50875,50891,50910,50924,50942,50960,50975,50992,51008,51024,51042,51058,51075,51092,51109,51126,51143,51160,51181,51208,51225,51245,51260,51277,51294,51310,51328,51343,51360,51378,51395,51411,51429,51445,51460,51476,51493,51510,51527,51543,51560,51576,51593,51609,51626,51643,51659,51676,51693,51710,51726,51743,51760,51776,51793,51810,51827,51843,51860,51877,51893,51909,51925,51943,51959,51976,51992,52009,52026,52043,52060,52076,52093,52110,52126,52143,52160,52176,52193,52210,52226,52245,52260,52277,52293,52309,52326,52343,52359,52376,52393,52409,52426,52443,52460,52477,52494,52509,52526,52542,52559,52576,52592,52611,52625,52642,52658,52675,52693,52710,52725,52743,52760,52776,52793,52809,52826,52843,52859,52876,52892,52908,52925,52947,52959,52975,52992,53009,53025,53042,53059,53076,53093,53109,53125,53142,53159,53175,53193,53210,53225,53243,53259,53276,53292,53309,53326,53342,53359,53375,53394,53409,53425,53442,53459,53476,53492,53509,53525,53542,53559,53575,53592,53609,53625,53643,53658,53675,53692,53709,53725,53742,53759,53775,53791,53808,53825,53842,53858,53875,53892,53908,53925,53942,53958,53975,53992,54009,54025,54041,54058,54081,54106,54123,54141,54157,54173,54191,54208,54225,54241,54258,54275,54291,54308,54324,54341,54357,54374,54391,54408,54424,54440,54458,54476,54491,54509,54525,54541,54558,54575,54591,54608,54625,54642,54658,54675,54692,54708,54725,54741,54759,54775,54791,54808,54825,54841,54858,54875,54891,54908,54925,54942,54958,54975,54991,55008,55025,55041,55058,55075,55092,55108,55124,55142,55158,55175,55191,55208,55224,55243,55258,55274,55291,55308,55324,55342,55358,55374,55391,55408,55424,55441,55458,55475,55491,55508,55524,55541,55559,55574,55591,55608,55626,55642,55659,55676,55693,55709,55726,55742,55762,55781,55796,55812,55829,55845,55860,55876,55892,55908,55925,55942,55959,55975,55991,56008,56025,56042,56058,56075,56091,56106,56124,56140,56157,56173,56189,56207,56223,56241,56257,56273,56290,56307,56325,56342,56358,56375,56392,56409,56425,56441,56458,56475,56491,56508,56525,56541,56558,56575,56591,56608,56625,56641,56658,56674,56691,56708,56725,56741,56758,56775,56791,56808,56824,56841,56858,56874,56891,56908,56924,56941,56958,56975,56991,57008,57026,57040,57057,57073,57091,57107,57124,57141,57158,57175,57191,57208,57225,57241,57257,57274,57291,57307,57324,57341,57358,57374,57391,57408,57424,57440,57458,57474,57491,57507,57524,57541,57557,57574,57591,57608,57624,57641,57657,57674,57691,57707,57724,57741,57757,57774,57791,57807,57824,57840,57857,57874,57891,57908,57924,57940,57958,57974,57990,58008,58024,58041,58058,58074,58091,58107,58123,58140,58156,58173,58189,58207,58223,58239,58256,58273,58290,58307,58323,58340,58356,58372,58389,58406,58423,58439,58456,58473,58491,58505,58521,58538,58554,58572,58590,58606,58622,58639,58656,58672,58689,58706,58722,58739,58756,58772,58789,58808,58823,58839,58856,58872,58891,58907,58923,58938,58955,58972,58989,59005,59022,59039,59055,59071,59089,59105,59122,59138,59156,59171,59188,59205,59222,59239,59256,59272,59288,59305,59322,59338,59355,59372,59388,59405,59422,59438,59455,59472,59488,59505,59523,59539,59556,59573,59590,59606,59622,59639,59656,59671,59688,59705,59722,59738,59755,59772,59788,59805,59821,59838,59856,59871,59888,59904,59921,59938,59954,59971,59987,60004,60021,60038,60055,60073,60089,60105,60122,60138,60155,60172,60188,60205,60222,60238,60256,60272,60288,60305,60322,60338,60355,60372,60388,60405,60422,60440,60456,60471,60487,60504,60521,60537,60554,60571,60587,60604,60621,60637,60654,60671,60688,60705,60722,60738,60754,60772,60788,60805,60821,60838,60855,60871,60888,60905,60922,60938,60955,60972,60989,61005,61022,61039,61056,61071,61088,61104,61120,61137,61154,61171,61188,61204,61221,61237,61254,61271,61288,61304,61320,61336,61353,61374,61387,61405,61421,61438,61455,61472,61488,61505,61522,61538,61555,61572,61589,61605,61621,61638,61655,61671,61688,61704,61722,61738,61754,61771,61788,61805,61821,61838,61854,61871,61887,61904,61921,61938,61954,61971,61987,62004,62021,62037,62054,62070,62088,62104,62121,62137,62155,62171,62187,62204,62221,62237,62254,62270,62288,62304,62320,62338,62354,62370,62387,62404,62420,62437,62454,62471,62488,62504,62520,62537,62554,62570,62587,62604,62620,62637,62654,62670,62687,62704,62720,62737,62754,62772,62787,62803,62820,62838,62856,62869,62885,62902,62919,62937,62954,62971,62987,63003,63020,63037,63054,63070,63087,63104,63120,63136,63154,63170,63186,63203,63220,63237,63256,63271,63288,63304,63321,63336,63353,63369,63386,63403,63420,63435,63452,63469,63485,63502,63519,63537,63554,63570,63587,63603,63620,63637,63653,63670,63687,63703,63720,63737,63753,63770,63787,63804,63820,63837,63854,63870,63885,63902,63919,63936,63952,63969,63985,64002,64018,64035,64052,64069,64086,64103,64119,64136,64154,64169,64186,64203,64220,64236,64252,64269,64286,64302,64318,64334,64351,64368,64386,64403,64419,64436,64453,64469,64486,64502,64529,64552,64569,64585,64602,64619,64635,64652,64669,64685,64702,64718,64736,64753,64770,64786,64803,64819,64836,64852,64869,64886,64903,64919,64936,64953,64970,64986,65002,65019,65036,65052,65069,65086,65103,65119,65135,65152,65169,65185,65202,65219,65235,65254,65269,65285,65302,65319,65335,65352,65369,65385,65402,65419,65435,65452,65469,65485,65502,65519,65535,65552,65568,65585,65602,65619,65636,65652,65669,65685,65702,65718,65735,65752,65768,65785,65803,65817,65834,65850,65867,65884,65901,65918,65935,65952,65968,65985,66002,66018,66035,66052,66068,66085,66102,66118,66135,66152,66168,66185,66201,66218,66235,66251,66268,66285,66302,66318,66335,66351,66368,66385,66401,66418,66435,66451,66468,66485,66501,66518,66536,66553,66569,66585,66601,66618,66634,66651,66667,66685,66701,66717,66734,66752,66767,66784,66801,66817,66834,66851,66868,66885,66901,66918,66934,66951,66968,66984,67001,67017,67034,67051,67067,67084,67101,67117,67134,67151,67168,67184,67200,67217,67235,67253,67269,67283,67300,67316,67333,67351,67367,67384,67401,67418,67434,67451,67467,67484,67501,67517,67534,67551,67567,67584,67601,67617,67634,67651,67667,67684,67701,67717,67734,67752,67768,67784,67801,67817,67834,67851,67867,67886,67901,67916,67933,67950,67967,67984,68000,68017,68033,68051,68067,68083,68100,68117,68133,68150,68167,68184,68200,68217,68234,68252,68267,68284,68301,68317,68333,68350,68367,68383,68401,68418,68437,68450,68465,68482,68499,68515,68533,68550,68567,68584,68600,68617,68633,68650,68667,68683,68700,68716,68734,68754,68782,68799,68816,68833,68850,68866,68883,68899,68916,68933,68949,68966,68983,68999,69014,69031,69047,69065,69081,69098,69116,69133,69149,69166,69183,69199,69216,69233,69251,69266,69282,69300,69316,69332,69349,69366,69382,69399,69416,69432,69449,69466,69482,69499,69516,69532,69549,69566,69582,69599,69616,69632,69649,69666,69683,69699,69716,69733,69749,69765,69782,69799,69816,69832,69849,69866,69883,69899,69915,69932,69949,69965,69982,69999,70015,70032,70049,70066,70082,70099,70116,70132,70149,70165,70182,70199,70216,70232,70251,70267,70282,70298,70315,70331,70349,70366,70383,70399,70416,70433,70449,70466,70483,70499,70516,70532,70549,70566,70582,70599,70616,70632,70649,70665,70683,70699,70715,70732,70749,70765,70782,70799,70815,70832,70849,70866,70882,70898,70915,70933,70949,70965,70982,70999,71016,71032,71050,71066,71082,71099,71115,71132,71148,71165,71182,71199,71216,71233,71250,71264,71281,71298,71314,71331,71348,71364,71381,71398,71415,71432,71448,71465,71482,71499,71515,71532,71549,71565,71582,71599,71616,71632,71648,71665,71682,71698,71715,71734,71747,71764,71780,71797,71814,71831,71848,71865,71881,71898,71915,71932,71948,71965,71981,71998,72015,72032,72049,72065,72082,72098,72115,72131,72148,72164,72182,72198,72215,72231,72250,72265,72281,72299,72315,72332,72349,72365,72382,72399,72416,72431,72448,72464,72480,72498,72514,72531,72547,72564,72580,72598,72615,72631,72648,72666,72681,72698,72714,72731,72748,72764,72781,72798,72815,72831,72848,72864,72881,72901,72914,72931,72948,72964,72981,72997,73014,73032,73048,73064,73081,73097,73114,73131,73148,73164,73181,73198,73216,73229,73246,73263,73280,73296,73314,73331,73347,73364,73381,73397,73416,73432,73447,73464,73481,73498,73514,73530,73549,73564,73581,73597,73615,73631,73647,73664,73681,73697,73714,73730,73748,73764,73781,73799,73815,73831,73848,73865,73881,73897,73914,73931,73947,73964,73981,73997,74014,74030,74047,74064,74081,74097,74114,74130,74147,74163,74180,74197,74215,74230,74249,74264,74281,74297,74314,74330,74347,74363,74381,74397,74413,74430,74447,74470,74496,74511,74528,74545,74563,74580,74596,74613,74630,74646,74663,74683,74700,74728,74746,74763,74780,74796,74813,74830,74846,74863,74880,74896,74913,74930,74946,74963,74980,74996,75013,75029,75046,75063,75079,75096,75114,75130,75146,75165,75179,75196,75213,75229,75248,75263,75278,75295,75314,75330,75347,75363,75379,75396,75413,75430,75447,75465,75481,75498,75514,75532,75546,75562,75578,75595,75612,75629,75645,75662,75678,75695,75713,75730,75746,75763,75779,75796,75813,75830,75846,75862,75881,75897,75912,75929,75945,75962,75980,75996,76012,76029,76045,76062,76079,76095,76112,76128,76146,76163,76184,76210,76227,76244,76261,76278,76295,76312,76329,76345,76362,76381,76395,76412,76429,76446,76462,76478,76495,76512,76528,76545,76562,76579,76595,76612,76628,76645,76662,76678,76695,76712,76728,76745,76762,76779,76797,76812,76829,76845,76862,76879,76896,76912,76929,76944,76961,76978,76995,77012,77029,77045,77062,77079,77095,77112,77129,77145,77162,77179,77196,77212,77229,77248,77262,77279,77295,77312,77330,77345,77362,77378,77395,77412,77431,77446,77463,77480,77497,77513,77530,77546,77563,77579,77596,77613,77630,77647,77661,77678,77694,77710,77727,77745,77762,77778,77795,77812,77828,77845,77862,77878,77895,77911,77928,77945,77961,77979,77995,78011,78028,78045,78062,78078,78095,78111,78130,78145,78161,78178,78195,78212,78228,78248,78262,78278,78295,78311,78328,78345,78361,78378,78395,78412,78429,78446,78462,78480,78496,78511,78528,78544,78561,78578,78595,78611,78628,78644,78661,78678,78695,78711,78728,78744,78761,78778,78795,78811,78828,78845,78861,78878,78894,78911,78928,78944,78961,78977,78994,79011,79028,79044,79061,79077,79094,79111,79128,79144,79161,79180,79193,79210,79226,79243,79261,79278,79296,79312,79328,79345,79362,79379,79396,79411,79429,79446,79462,79479,79495,79512,79528,79545,79562,79578,79594,79611,79628,79645,79661,79679,79694,79711,79727,79745,79762,79778,79794,79811,79828,79844,79861,79878,79894,79910,79927,79945,79961,79977,79994,80009,80026,80042,80060,80077,80094,80111,80127,80144,80160,80177,80194,80210,80227,80244,80260,80277,80293,80310,80327,80343,80360,80377,80394,80410,80427,80444,80460,80477,80493,80510,80527,80543,80560,80577,80594,80610,80627,80645,80662,80675,80692,80708,80725,80743,80760,80776,80793,80810,80827,80844,80860,80877,80893,80910,80926,80943,80960,80976,80994,81010,81027,81043,81060,81076,81093,81110,81126,81143,81160,81176,81194,81211,81228,81243,81260,81276,81293,81310,81326,81343,81360,81376,81393,81410,81427,81444,81460,81476,81493,81510,81526,81543,81560,81576,81593,81609,81626,81643,81661,81677,81694,81709,81725,81742,81759,81776,81792,81808,81825,81841,81859,81876,81893,81909,81927,81943,81960,81976,81992,82009,82026,82043,82061,82077,82095,82111,82128,82141,82159,82175,82192,82208,82225,82242,82258,82275,82291,82308,82325,82342,82358,82375,82392,82409,82425,82442,82459,82476,82492,82510,82525,82543,82560,82575,82593,82608,82627,82643,82660,82675,82692,82710,82726,82742,82759,82776,82792,82808,82825,82842,82859,82875,82892,82909,82925,82941,82958,82975,82992,83009,83025,83042,83059,83075,83092,83108,83124,83140,83157,83174,83191,83209,83225,83242,83259,83275,83292,83308,83325,83342,83358,83376,83393,83410,83426,83444,83459,83476,83493,83511,83526,83543,83559,83579,83595,83608,83624,83642,83657,83673,83691,83708,83725,83742,83759,83775,83792,83808,83825,83843,83858,83875,83891,83908,83925,83942,83958,83975,83992,84008,84025,84041,84058,84075,84092,84108,84125,84142,84159,84175,84191,84208,84225,84245,84259,84273,84290,84307,84323,84341,84359,84375,84391,84408,84425,84441,84458,84475,84492,84508,84525,84541,84558,84575,84591,84608,84624,84641,84658,84674,84691,84709,84726,84742,84757,84774,84791,84807,84824,84840,84857,84874,84891,84907,84924,84940,84957,84973,84990,85008,85024,85042,85056,85073,85090,85106,85124,85141,85157,85174,85191,85207,85224,85244,85257,85274,85291,85307,85324,85342,85358,85374,85391,85407,85424,85442,85457,85474,85491,85508,85524,85541,85558,85584,85594,85606,85623,85640,85656,85673,85690,85707,85724,85741,85759,85775,85791,85807,85825,85841,85858,85874,85891,85908,85924,85941,85957,85974,85991,86008,86024,86041,86057,86074,86091,86107,86124,86141,86157,86174,86191,86207,86224,86242,86257,86274,86291,86307,86324,86341,86357,86374,86390,86407,86424,86440,86457,86474,86491,86509,86527,86556,86573,86591,86607,86623,86640,86657,86674,86690,86707,86723,86740,86757,86773,86790,86807,86823,86840,86857,86874,86890,86907,86923,86940,86957,86973,86990,87007,87023,87040,87057,87073,87090,87106,87123,87140,87157,87173,87190,87207,87223,87242,87256,87273,87291,87306,87323,87340,87357,87373,87390,87406,87423,87440,87457,87473,87490,87507,87523,87540,87556,87573,87590,87606,87624,87640,87656,87673,87690,87706,87723,87740,87757,87773,87789,87806,87823,87839,87857,87873,87889,87906,87923,87940,87956,87973,87989,88006,88023,88041,88054,88071,88088,88104,88121,88138,88154,88170,88188,88205,88222,88238,88256,88273,88289,88306,88323,88340,88356,88373,88389,88406,88422,88439,88456,88473,88489,88506,88523,88539,88556,88573,88589,88606,88622,88639,88656,88672,88689,88707,88722,88739,88756,88772,88789,88806,88822,88839,88855,88872,88889,88905,88922,88939,88955,88972,88989,89005,89022,89039,89055,89072,89089,89105,89122,89139,89155,89172,89189,89206,89222,89240,89256,89272,89289,89306,89322,89339,89355,89372,89389,89406,89422,89439,89455,89472,89489,89505,89524,89537,89554,89571,89588,89605,89622,89639,89655,89672,89688,89706,89722,89738,89755,89772,89788,89805,89823,89839,89854,89870,89887,89904,89921,89938,89955,89972,89988,90005,90021,90038,90055,90072,90089,90105,90122,90138,90155,90172,90188,90205,90221,90238,90257,90272,90288,90305,90322,90339,90355,90372,90388,90405,90422,90438,90455,90471,90488,90505,90521,90538,90555,90572,90588,90605,90621,90638,90654,90671,90688,90704,90720,90737,90754,90771,90788,90805,90821,90838,90855,90871,90888,90905,90921,90938,90954,90971,90988,91003,91019,91036,91053,91071,91088,91104,91121,91138,91154,91171,91188,91205,91221,91237,91256,91271,91287,91304,91321,91338,91354,91371,91387,91404,91421,91437,91454,91471,91487,91504,91521,91537,91554,91571,91587,91604,91621,91637,91654,91671,91687,91704,91720,91737,91755,91771,91787,91804,91821,91837,91854,91871,91887,91904,91921,91937,91954,91971,91987,92004,92020,92039,92053,92069,92086,92102,92120,92137,92154,92170,92187,92204,92220,92237,92256,92270,92287,92304,92320,92337,92354,92370,92387,92404,92421,92439,92452,92468,92486,92503,92520,92536,92553,92570,92586,92603,92620,92636,92653,92670,92686,92703,92720,92736,92755,92770,92786,92803,92820,92836,92853,92870,92886,92903,92919,92936,92953,92970,92986,93003,93019,93036,93053,93070,93086,93103,93119,93136,93153,93170,93186,93203,93219,93236,93255,93269,93286,93303,93319,93336,93353,93370,93386,93403,93419,93436,93454,93469,93486,93503,93519,93539,93552,93568,93585,93603,93621,93636,93653,93669,93686,93703,93720,93736,93753,93769,93786,93803,93819,93836,93852,93868,93885,93902,93918,93935,93953,93969,93986,94003,94019,94036,94053,94069,94087,94103,94119,94136,94153,94169,94186,94203,94219,94236,94254,94269,94286,94303,94319,94336,94352,94371,94387,94405,94421,94437,94454,94470,94487,94502,94518,94535,94552,94569,94585,94601,94618,94636,94652,94669,94686,94702,94719,94734,94751,94768,94785,94803,94819,94835,94852,94869,94885,94902,94919,94936,94954,94971,94984,95002,95018,95034,95051,95068,95085,95102,95119,95136,95151,95168,95185,95202,95218,95235,95253,95269,95286,95302,95319,95335,95352,95368,95386,95402,95419,95436,95452,95468,95485,95502,95524,95551,95568,95585,95601,95618,95636,95651,95668,95685,95702,95718,95735,95753,95769,95785,95802,95818,95835,95852,95868,95885,95902,95918,95935,95951,95968,95985,96002,96018,96035,96051,96069,96085,96102,96118,96135,96151,96168,96185,96202,96218,96235,96254,96268,96285,96301,96318,96335,96351,96368,96385,96403,96418,96434,96453,96466,96483,96500,96517,96533,96550,96567,96585,96601,96618,96635,96651,96668,96684,96701,96717,96734,96751,96768,96786,96803,96817,96833,96850,96867,96884,96900,96917,96934,96950,96967,96984,97001,97018,97034,97050,97066,97084,97101,97118,97135,97151,97170,97185,97201,97218,97234,97251,97268,97284,97301,97318,97335,97351,97367,97384,97400,97420,97434,97451,97468,97484,97501,97518,97534,97551,97567,97584,97601,97617,97634,97651,97668,97684,97701,97717,97734,97751,97767,97784,97801,97818,97834,97851,97867,97885,97899,97916,97932,97949,97967,97984,98001,98017,98033,98051,98069,98085,98102,98119,98133,98149,98166,98183,98199,98216,98233,98250,98267,98283,98300,98316,98334,98349,98366,98384,98400,98416,98433,98450,98467,98484,98500,98517,98533,98550,98566,98583,98600,98616,98633,98651,98666,98683,98700,98716,98733,98751,98766,98782,98799,98817,98833,98850,98866,98883,98901,98916,98933,98950,98966,98983,99000,99017,99033,99050,99067,99083,99100,99117,99133,99150,99166,99184,99201,99217,99233,99251,99266,99283,99300,99316,99334,99348,99365,99381,99398,99416,99433,99449,99466,99483,99499,99516,99533,99549,99566,99583,99599,99616,99633,99649,99665,99682,99700,99715,99733,99752,99767,99782,99798,99815,99832,99849,99865,99882,99898,99915,99933,99949,99965,99983,99999,100015,100032,100048,100065,100085,100100,100116,100133,100149,100166,100182,100199,100216,100233,100251,100266,100282,100299,100316,100333,100348,100364,100381,100398,100415,100432,100450,100466,100482,100499,100516,100532,100550,100566,100583,100599,100616,100633,100649,100665,100682,100699,100716,100732,100750,100765,100781,100797,100814,100832,100849,100865,100882,100899,100915,100933,100950,100966,100983,100998,101014,101031,101048,101064,101081,101098,101114,101132,101148,101164,101181,101198,101215,101231,101248,101265,101281,101298,101314,101331,101347,101364,101382,101398,101415,101431,101448,101465,101482,101498,101515,101531,101547,101564,101582,101598,101615,101632,101648,101665,101682,101699,101715,101732,101748,101765,101782,101798,101815,101831,101848,101865,101882,101899,101915,101931,101948,101965,101982,101998,102015,102032,102048,102065,102081,102098,102116,102132,102148,102165,102182,102198,102215,102231,102248,102263,102280,102298,102315,102331,102348,102365,102381,102398,102415,102431,102448,102465,102481,102498,102514,102531,102548,102564,102581,102598,102614,102631,102648,102664,102681,102698,102714,102731,102748,102765,102781,102798,102815,102831,102848,102864,102881,102898,102914,102931,102948,102964,102981,102998,103014,103031,103048,103064,103081,103098,103114,103131,103148,103164,103181,103197,103214,103231,103249,103264,103281,103297,103314,103331,103347,103364,103381,103397,103414,103431,103447,103464,103481,103498,103514,103531,103547,103564,103580,103597,103614,103631,103647,103666,103679,103696,103713,103729,103746,103763,103780,103797,103814,103830,103847,103864,103880,103897,103914,103930,103947,103964,103980,103997,104014,104031,104048,104062,104079,104096,104113,104130,104147,104164,104181,104198,104214,104231,104247,104264,104281,104296,104313,104329,104346,104362,104380,104397,104414,104431,104447,104463,104480,104497,104514,104530,104547,104564,104581,104598,104614,104631,104648,104663,104680,104696,104713,104730,104747,104763,104781,104796,104813,104830,104847,104863,104880,104898,104915,104932,104948,104964,104981,104997,105012,105028,105046,105062,105078,105095,105112,105129,105146,105163,105179,105196,105213,105230,105246,105263,105280,105296,105313,105330,105346,105364,105381,105398,105414,105431,105447,105466,105480,105497,105513,105530,105547,105564,105579,105595,105611,105628,105646,105663,105679,105697,105714,105729,105744,105761,105778,105795,105813,105829,105846,105863,105880,105896,105912,105929,105946,105963,105979,105996,106013,106029,106046,106062,106080,106096,106113,106129,106146,106162,106179,106196,106212,106229,106248,106263,106279,106296,106312,106329,106346,106362,106379,106396,106412,106429,106446,106462,106479,106497,106511,106527,106544,106562,106579,106595,106612,106628,106645,106662,106678,106695,106712,106729,106745,106762,106779,106795,106812,106828,106845,106862,106878,106895,106912,106929,106945,106961,106978,106995,107012,107028,107045,107062,107078,107095,107112,107128,107145,107162,107178,107195,107212,107228,107247,107262,107278,107295,107311,107328,107345,107361,107378,107395,107411,107429,107446,107463,107479,107496,107513,107529,107546,107563,107580,107594,107611,107628,107644,107662,107678,107694,107710,107728,107744,107761,107778,107795,107812,107829,107845,107862,107880,107896,107911,107927,107945,107961,107977,107994,108011,108027,108044,108060,108077,108094,108111,108127,108144,108161,108177,108194,108211,108229,108247,108263,108278,108295,108312,108328,108345,108362,108378,108395,108412,108429,108445,108462,108479,108495,108511,108530,108545,108561,108578,108595,108612,108629,108645,108661,108678,108694,108711,108728,108744,108761,108778,108794,108811,108827,108844,108861,108877,108894,108911,108928,108944,108961,108977,108994,109010,109027,109044,109061,109077,109094,109111,109127,109144,109160,109177,109194,109211,109227,109246,109261,109277,109294,109311,109327,109344,109360,109376,109393,109410,109427,109444,109461,109478,109495,109511,109527,109544,109560,109577,109593,109610,109626,109643,109660,109677,109693,109710,109727,109743,109760,109777,109793,109810,109826,109843,109860,109876,109894,109910,109927,109943,109960,109977,109994,110010,110026,110043,110060,110076,110094,110111,110127,110144,110161,110177,110194,110210,110227,110246,110260,110277,110294,110310,110327,110344,110360,110377,110393,110411,110428,110443,110460,110477,110494,110510,110527,110544,110560,110577,110594,110610,110627,110644,110661,110677,110694,110710,110727,110743,110760,110778,110792,110808,110825,110843,110860,110877,110893,110910,110927,110943,110960,110977,110993,111010,111027,111044,111060,111076,111093,111110,111127,111143,111160,111176,111193,111210,111226,111245,111260,111276,111293,111310,111326,111343,111360,111376,111393,111410,111426,111443,111460,111476,111493,111510,111526,111543,111559,111576,111593,111610,111626,111643,111659,111676,111693,111709,111726,111743,111759,111776,111793,111809,111826,111843,111859,111876,111893,111909,111926,111943,111959,111976,111993,112010,112026,112043,112059,112076,112093,112109,112126,112143,112160,112176,112194,112208,112225,112241,112258,112275,112293,112309,112326,112343,112359,112376,112393,112409,112426,112443,112459,112476,112493,112509,112526,112542,112560,112576,112592,112609,112626,112642,112659,112675,112692,112709,112725,112742,112759,112775,112792,112809,112825,112842,112859,112875,112893,112909,112925,112942,112958,112975,112992,113009,113025,113042,113058,113075,113093,113109,113125,113142,113159,113175,113192,113209,113226,113243,113258,113275,113292,113309,113326,113342,113359,113376,113392,113409,113426,113442,113459,113477,113492,113509,113525,113542,113559,113579,113592,113608,113624,113641,113657,113674,113691,113708,113725,113741,113758,113774,113791,113807,113824,113841,113858,113875,113891,113908,113925,113943,113961,113977,113993,114009,114025,114042,114058,114074,114091,114108,114125,114141,114158,114175,114191,114208,114225,114242,114258,114274,114291,114308,114325,114341,114358,114375,114391,114408,114425,114441,114458,114476,114491,114508,114524,114541,114558,114575,114591,114608,114625,114641,114658,114675,114691,114708,114724,114741,114758,114775,114791,114808,114825,114841,114858,114875,114891,114908,114924,114941,114958,114974,114993,115007,115023,115040,115056,115073,115091,115108,115124,115141,115157,115174,115191,115207,115225,115243,115258,115274,115291,115308,115324,115341,115359,115374,115390,115407,115424,115441,115457,115474,115491,115507,115524,115541,115558,115574,115591,115607,115624,115641,115658,115674,115691,115707,115724,115741,115759,115772,115789,115806,115822,115839,115856,115873,115889,115906,115923,115939,115956,115973,115989,116006,116022,116040,116057,116074,116090,116107,116124,116141,116157,116173,116189,116205,116222,116239,116256,116274,116290,116307,116323,116340,116357,116374,116390,116408,116422,116439,116455,116472,116490,116506,116523,116540,116558,116574,116589,116606,116622,116638,116655,116673,116690,116706,116724,116740,116757,116774,116790,116807,116823,116840,116857,116873,116890,116907,116923,116940,116956,116973,116990,117008,117024,117042,117058,117074,117091,117108,117124,117139,117156,117173,117190,117207,117223,117242,117256,117273,117290,117307,117323,117340,117358,117374,117389,117406,117423,117439,117456,117472,117489,117506,117522,117539,117556,117573,117589,117606,117623,117639,117655,117673,117689,117706,117723,117739,117756,117773,117789,117804,117822,117838,117855,117873,117889,117906,117923,117940,117957,117972,117989,118006,118022,118039,118055,118072,118089,118105,118122,118139,118155,118172,118189,118206,118222,118239,118256,118272,118290,118306,118324,118339,118357,118373,118389,118407,118424,118440,118457,118473,118488,118505,118522,118538,118555,118571,118588,118605,118621,118638,118655,118672,118689,118706,118722,118739,118756,118773,118789,118806,118823,118839,118856,118872,118889,118905,118922,118939,118956,118972,118989,119005,119022,119039,119055,119072,119089,119106,119122,119139,119155,119174,119188,119204,119221,119238,119255,119271,119288,119305,119321,119337,119355,119371,119388,119405,119422,119438,119455,119472,119489,119505,119522,119539,119555,119572,119589,119605,119622,119640,119655,119672,119689,119706,119723,119739,119755,119773,119788,119804,119821,119837,119854,119871,119888,119904,119921,119938,119955,119970,119987,120004,120021,120038,120055,120071,120088,120104,120121,120137,120154,120171,120188,120204,120221,120238,120254,120270,120287,120305,120321,120338,120354,120371,120388,120404,120421,120438,120454,120471,120488,120504,120521,120538,120555,120571,120589,120603,120620,120636,120653,120671,120687,120705,120721,120738,120754,120771,120787,120804,120821,120838,120854,120871,120888,120904,120921,120938,120954,120971,120987,121004,121021,121037,121055,121071,121088,121104,121121,121138,121154,121171,121188,121204,121221,121238,121254,121271,121287,121304,121321,121338,121354,121371,121388,121404,121421,121438,121454,121471,121489,121505,121520,121537,121554,121571,121587,121604,121621,121637,121654,121671,121687,121704,121720,121737,121754,121771,121787,121804,121820,121837,121854,121870,121887,121904,121920,121938,121954,121970,121987,122004,122021,122037,122053,122069,122086,122102,122120,122137,122154,122170,122187,122204,122220,122237,122254,122270,122287,122304,122320,122337,122353,122370,122387,122404,122420,122437,122453,122470,122487,122504,122520,122537,122554,122570,122587,122603,122620,122637,122653,122670,122687,122703,122720,122737,122754,122770,122787,122803,122820,122836,122853,122870,122887,122903,122920,122936,122953,122970,122986,123003,123020,123036,123053,123070,123086,123103,123120,123136,123153,123170,123186,123203,123220,123236,123255,123270,123286,123304,123320,123336,123353,123370,123386,123403,123422,123436,123452,123468,123485,123502,123518,123535,123552,123569,123586,123603,123620,123636,123652,123669,123686,123703,123720,123736,123753,123769,123786,123803,123819,123836,123853,123870,123886,123903,123919,123936,123953,123969,123986,124003,124019,124036,124053,124069,124086,124102,124119,124136,124152,124170,124186,124203,124219,124236,124255,124269,124287,124303,124319,124336,124353,124369,124386,124403,124419,124436,124452,124469,124485,124503,124519,124536,124552,124569,124586,124603,124619,124636,124652,124669,124687,124702,124719,124735,124752,124769,124786,124802,124819,124835,124853,124868,124884,124900,124917,124935,124952,124969,124987,125004,125020,125036,125054,125069,125085,125102,125118,125135,125151,125168,125185,125202,125218,125235,125252,125268,125284,125301,125318,125335,125351,125368,125384,125401,125418,125435,125451,125468,125485,125501,125518,125535,125552,125569,125585,125603,125619,125635,125651,125668,125685,125703,125718,125735,125751,125768,125785,125802,125818,125834,125851,125868,125884,125901,125918,125935,125952,125968,125985,126002,126018,126034,126052,126068,126085,126102,126118,126134,126151,126168,126185,126201,126218,126235,126254,126268,126283,126300,126317,126334,126351,126368,126385,126402,126418,126435,126451,126468,126484,126501,126518,126534,126551,126568,126585,126601,126618,126634,126651,126668,126684,126701,126718,126734,126751,126768,126784,126801,126818,126834,126851,126868,126885,126901,126917,126933,126950,126966,126983,127000,127017,127034,127051,127068,127085,127100,127117,127134,127151,127167,127184,127202,127217,127234,127251,127267,127282,127299,127316,127333,127350,127367,127384,127401,127417,127434,127451,127467,127483,127501,127517,127534,127550,127567,127584,127600,127617,127634,127651,127667,127686,127701,127717,127733,127750,127768,127783,127800,127817,127833,127850,127867,127884,127900,127917,127934,127951,127967,127984,128001,128017,128034,128050,128067,128083,128099,128115,128132,128148,128166,128184,128200,128217,128234,128251,128266,128282,128299,128316,128332,128350,128367,128384,128400,128417,128434,128450,128467,128483,128500,128517,128533,128551,128567,128583,128600,128617,128633,128650,128666,128684,128702,128716,128733,128750,128766,128783,128800,128817,128833,128851,128866,128883,128899,128916,128933,128950,128966,128983,128999,129016,129033,129049,129066,129083,129100,129116,129132,129149,129165,129182,129199,129216,129232,129248,129265,129281,129298,129316,129333,129349,129365,129383,129399,129416,129432,129449,129466,129482,129500,129516,129532,129549,129566,129582,129599,129618,129633,129649,129666,129682,129699,129716,129733,129749,129766,129782,129799,129816,129833,129850,129867,129883,129899,129916,129933,129949,129966,129982,129999,130015,130032,130049,130066,130082,130099,130116,130132,130149,130166,130182,130199,130215,130232,130250,130265,130282,130299,130316,130332,130349,130365,130382,130399,130416,130432,130449,130465,130482,130499,130515,130536,130548,130564,130581,130599,130616,130632,130649,130666,130682,130699,130716,130731,130748,130765,130781,130798,130815,130832,130848,130865,130882,130898,130915,130932,130948,130965,130982,130998,131015,131032,131048,131065,131082,131098,131115,131131,131148,131165,131182,131198,131215,131232,131250,131265,131281,131298,131315,131331,131348,131365,131382,131398,131415,131432,131448,131465,131481,131498,131515,131531,131548,131566,131581,131597,131614,131630,131647,131666,131684,131700,131717,131733,131750,131766,131782,131798,131815,131831,131848,131864,131881,131897,131914,131930,131947,131965,131981,131998,132016,132034,132049,132066,132083,132099,132115,132132,132148,132165,132182,132199,132215,132232,132251,132266,132282,132299,132315,132332,132348,132365,132382,132399,132415,132431,132447,132464,132481,132498,132514,132531,132547,132564,132581,132599,132614,132631,132648,132664,132681,132697,132714,132731,132747,132765,132781,132799,132814,132831,132847,132864,132882,132899,132914,132931,132947,132964,132981,132997,133014,133031,133047,133064,133081,133097,133114,133131,133147,133164,133181,133198,133213,133230,133247,133263,133279,133296,133314,133331,133347,133364,133381,133398,133414,133431,133447,133464,133481,133497,133514,133532,133547,133563,133580,133596,133613,133631,133648,133665,133681,133698,133713,133731,133747,133764,133780,133797,133813,133830,133847,133864,133880,133896,133914,133930,133946,133963,133979,133996,134013,134030,134047,134065,134082,134098,134115,134131,134148,134165,134181,134197,134214,134230,134247,134264,134279,134295,134312,134329,134347,134363,134380,134397,134413,134430,134447,134464,134480,134497,134514,134530,134549,134562,134579,134596,134612,134628,134646,134664,134680,134697,134714,134730,134747,134763,134780,134796,134814,134830,134847,134863,134881,134897,134913,134930,134947,134962,134979,134995,135012,135029,135045,135062,135080,135097,135114,135130,135147,135163,135180,135196,135213,135230,135248,135264,135279,135296,135313,135330,135347,135364,135381,135397,135415,135431,135447,135464,135480,135496,135513,135530,135546,135563,135580,135596,135613,135630,135646,135663,135679,135696,135713,135729,135746,135763,135780,135796,135813,135830,135845,135861,135878,135896,135914,135928,135944,135962,135978,135995,136012,136029,136046,136062,136079,136097,136112,136129,136145,136162,136179,136196,136212,136229,136247,136263,136279,136296,136312,136329,136346,136362,136379,136396,136412,136429,136446,136462,136479,136495,136512,136529,136545,136562,136579,136595,136612,136629,136646,136662,136678,136695,136712,136729,136745,136762,136779,136795,136812,136829,136846,136861,136878,136895,136912,136928,136945,136962,136978,136995,137012,137029,137045,137062,137078,137095,137112,137129,137145,137162,137178,137195,137215,137228,137244,137260,137277,137294,137310,137327,137344,137362,137379,137396,137412,137429,137445,137463,137479,137495,137511,137529,137545,137562,137578,137595,137612,137628,137645,137662,137678,137695,137712,137728,137746,137762,137779,137795,137812,137827,137844,137860,137877,137894,137912,137930,137945,137962,137978,137995,138011,138028,138044,138061,138078,138094,138111,138128,138144,138161,138178,138194,138212,138228,138246,138261,138278,138295,138311,138329,138345,138361,138378,138395,138411,138428,138444,138461,138478,138494,138513,138531,138544,138560,138577,138594,138610,138627,138644,138660,138677,138694,138711,138727,138743,138760,138777,138794,138810,138827,138843,138860,138877,138895,138911,138927,138944,138961,138978,138994,139011,139028,139044,139061,139078,139095,139111,139127,139146,139161,139178,139195,139212,139230,139248,139260,139276,139293,139310,139326,139343,139360,139376,139393,139410,139427,139444,139461,139477,139494,139510,139527,139543,139560,139577,139594,139610,139628,139644,139661,139677,139694,139711,139727,139744,139760,139778,139794,139810,139827,139844,139860,139879,139892,139909,139926,139942,139959,139976,139992,140009,140026,140044,140062,140078,140095,140111,140127,140144,140161,140177,140194,140211,140228,140247,140263,140277,140293,140309,140326,140342,140359,140376,140392,140409,140426,140442,140459,140476,140492,140510,140527,140544,140560,140577,140594,140610,140627,140643,140660,140677,140694,140710,140727,140744,140760,140777,140793,140810,140827,140844,140860,140877,140893,140910,140927,140943,140960,140977,140993,141010,141027,141043,141060,141077,141093,141110,141127,141143,141160,141176,141193,141211,141229,141242,141258,141275,141291,141311,141326,141343,141360,141376,141393,141410,141426,141443,141460,141476,141493,141510,141527,141543,141560,141576,141593,141610,141626,141643,141661,141676,141693,141710,141726,141743,141760,141777,141793,141809,141826,141843,141860,141876,141893,141910,141926,141943,141959,141976,141993,142009,142026,142043,142060,142076,142093,142109,142126,142143,142159,142176,142193,142209,142226,142242,142259,142276,142293,142309,142326,142343,142359,142376,142393,142409,142426,142442,142459,142476,142492,142509,142525,142542,142558,142575,142591,142607,142624,142641,142658,142674,142691,142709,142725,142742,142758,142775,142792,142808,142825,142842,142859,142875,142892,142908,142926,142942,142959,142976,142992,143009,143026,143042,143059,143075,143092,143109,143125,143142,143159,143175,143192,143209,143225,143243,143259,143274,143290,143308,143324,143341,143358,143372,143390,143408,143424,143441,143458,143474,143492,143507,143524,143541,143558,143574,143591,143608,143624,143641,143658,143674,143691,143708,143724,143741,143757,143774,143791,143807,143824,143841,143857,143874,143891,143908,143924,143940,143957,143974,143990,144007,144023,144041,144058,144074,144092,144108,144125,144141,144159,144175,144191,144208,144225,144242,144260,144274,144291,144307,144322,144338,144356,144373,144390,144407,144424,144440,144457,144475,144490,144508,144525,144542,144558,144575,144590,144607,144624,144641,144657,144674,144691,144707,144724,144741,144757,144774,144791,144807,144824,144841,144857,144874,144891,144907,144927,144941,144957,144974,144991,145007,145024,145041,145057,145074,145091,145107,145124,145141,145157,145174,145190,145207,145225,145241,145256,145272,145289,145306,145323,145341,145357,145374,145391,145408,145425,145439,145456,145472,145490,145506,145525,145540,145556,145574,145590,145607,145623,145640,145656,145672,145689,145705,145723,145741,145757,145776,145791,145808,145824,145840,145856,145873,145890,145906,145923,145941,145957,145974,145990,146007,146023,146040,146057,146073,146090,146107,146123,146140,146156,146173,146190,146206,146223,146242,146256,146273,146290,146307,146323,146340,146356,146373,146390,146407,146423,146440,146456,146473,146490,146506,146523,146540,146560,146572,146589,146606,146622,146639,146656,146672,146690,146707,146724,146741,146757,146774,146790,146807,146823,146840,146856,146874,146890,146907,146923,146939,146956,146972,146990,147007,147023,147040,147057,147073,147089,147106,147123,147141,147156,147173,147190,147206,147223,147239,147256,147273,147290,147306,147323,147340,147356,147372,147389,147406,147422,147438,147455,147472,147489,147506,147523,147540,147556,147573,147591,147607,147623,147642,147659,147675,147692,147707,147724,147740,147756,147773,147789,147806,147822,147840,147855,147872,147889,147905,147923,147939,147956,147973,147992,148006,148023,148040,148055,148072,148089,148105,148121,148138,148154,148171,148187,148204,148221,148238,148257,148272,148289,148306,148322,148339,148355,148372,148388,148404,148421,148438,148454,148472,148489,148506,148523,148539,148556,148573,148589,148607,148623,148638,148655,148671,148688,148705,148721,148738,148754,148772,148790,148806,148822,148839,148856,148872,148889,148906,148922,148937,148954,148971,148988,149005,149023,149039,149056,149072,149089,149104,149121,149138,149156,149171,149187,149204,149221,149237,149257,149272,149288,149305,149322,149338,149355,149372,149388,149405,149422,149438,149455,149472,149488,149505,149522,149539,149555,149572,149588,149605,149622,149638,149655,149672,149688,149705,149722,149738,149755,149772,149788,149805,149822,149838,149855,149872,149888,149905,149922,149938,149955,149971,149988,150005,150021,150039,150055,150071,150088,150105,150121,150138,150155,150171,150188,150205,150221,150238,150255,150271,150288,150305,150322,150338,150355,150375],"hit":[null],"x":[-2.0408163265306123,-2.0408163265306123,-2.0408163265306123,-2.0408163265306123,-2.0408163265306123,-2.0408163265306123,-2.0408163265306123,-2.0408163265306123,-2.0408163265306123,-2.0408163265306123,-2.0408163265306123,-2.0408163265306123,-2.0408163265306123,-2.0408163265306123,-2.0408163265306123,-2.0408163265306123,-2.0408163265306123,-2.0408163265306123,-2.0408163265306123,-2.0408163265306123,-2.0408163265306123,-2.0408163265306123,-2.0408163265306123,-2.0408163265306123,-2.0408163265306123,-2.0408163265306123,-2.0408163265306123,-2.0408163265306123,-2.0408163265306123,-2.0408163265306123,-2.0408163265306123,-2.0408163265306123,-2.0408163265306123,-2.0408163265306123,-2.0408163265306123,-2.0408163265306123,-2.0408163265306123,-2.0408163265306123,-2.0408163265306123,-2.0408163265306123,-2.0408163265306123,-2.0408163265306123,-2.0408163265306123,-2.0408163265306123,-2.0408163265306123,-2.0408163265306123,-2.0408163265306123,-2.0408163265306123,-2.0408163265306123,-2.0408163265306123,-2.0408163265306123,-2.0408163265306123,-2.0408163265306123,-2.0408163265306123,-2.0408163265306123,-2.0408163265306123,-2.0408163265306123,-2.0408163265306123,-2.0408163265306123,-2.0408163265306123,-2.0408163265306123,-2.0408163265306123,-2.0408163265306123,-2.0408163265306123,-2.0408163265306123,-2.0408163265306123,-2.0408163265306123,-2.0408163265306123,-2.0408163265306123,-2.0408163265306123,-2.0408163265306123,-2.0408163265306123,-2.0408163265306123,-2.0408163265306123,-2.0408163265306123,-2.0408163265306123,-2.0408163265306123,-2.0408163265306123,-2.0408163265306123,-2.0408163265306123,-2.0408163265306123,-2.0408163265306123,-2.0408163265306123,-2.0408163265306123,-2.0408163265306123,-2.0408163265306123,-2.0408163265306123,-2.0408163265306123,-2.0408163265306123,-2.0408163265306123,-2.0408163265306123,-2.0408163265306123,-2.0408163265306123,-2.0408163265306123,-2.0408163265306123,-2.0408163265306123,-2.0408163265306123,-2.0408163265306123,-2.0408163265306123,-2.0408163265306123,-2.0408163265306123,-2.0408163265306123,-2.0408163265306123,-2.0408163265306123,-2.0408163265306123,-2.0408163265306123,-2.0408163265306123,-2.0408163265306123,-2.0408163265306123,-2.0408163265306123,-2.0408163265306123,-2.0408163265306123,-2.0408163265306123,-2.0408163265306123,-2.0408163265306123,-2.0408163265306123,-2.0408163265306123,-2.0408163265306123,-2.0408163265306123,-2.0408163265306123,-2.0408163265306123,-2.0408163265306123,-2.0408163265306123,-2.0408163265306123,-2.0408163265306123,-2.0408163265306123,-2.0408163265306123,-2.0408163265306123,-2.0408163265306123,-2.0408163265306123,-2.0408163265306123,-2.0408163265306123,-2.0408163265306123,-2.0408163265306123,-2.0408163265306123,-2.0408163265306123,-2.0408163265306123,-2.0408163265306123,-2.0408163265306123,-2.0408163265306123,-2.0408163265306123,-2.0408163265306123,-0.5952380952380952,-0.5850340136054422,-0.5850340136054422,-0.5816326530612245,-0.5816326530612245,-0.5816326530612245,-0.5816326530612245,-0.5850340136054422,-0.5850340136054422,-0.5884353741496599,-0.5884353741496599,-0.5884353741496599,-0.5884353741496599,-0.5884353741496599,-0.5884353741496599,-0.5986394557823129,-0.608843537414966,-0.6156462585034014,-0.6224489795918368,-0.6258503401360545,-0.6258503401360545,-0.6326530612244898,-0.6326530612244898,-0.6326530612244898,-0.6326530612244898,-0.6326530612244898,-0.6326530612244898,-0.6326530612244898,-0.6326530612244898,-0.6326530612244898,-0.6326530612244898,-0.6326530612244898,-0.6326530612244898,-0.6326530