[{"success":true,"trial_type":"fullscreen","trial_index":0,"time_elapsed":3690,"internal_node_id":"0.0-0.0","protocol_sum":"","subject_identifier":336,"subject_sum":[128,195,205,64,250,53,249,8,139,135,65,189,139,230,21,61,224,95,102,28,254,235,70,37,255,191,95,74,108,60,2,196],"subject_pair":168,"STUDY_ID":"66a0b3911f23dfc7665bb169","PROLIFIC_PID":"65e235e4ac7b9bc14ae3e92e","SESSION_ID":"66a177c0c844619d91f6e0ee","practice_instructions":1,"leaderboard_instructions":1,"bonus":0,"reveal_word":false,"self_rating":"1","confidence":"88"},{"view_history":"[{\"page_index\":0,\"viewing_time\":3801}]","rt":3801,"trial_type":"instructions","trial_index":1,"time_elapsed":7493,"internal_node_id":"0.0-1.0","protocol_sum":"","subject_identifier":336,"subject_sum":[128,195,205,64,250,53,249,8,139,135,65,189,139,230,21,61,224,95,102,28,254,235,70,37,255,191,95,74,108,60,2,196],"subject_pair":168,"STUDY_ID":"66a0b3911f23dfc7665bb169","PROLIFIC_PID":"65e235e4ac7b9bc14ae3e92e","SESSION_ID":"66a177c0c844619d91f6e0ee","practice_instructions":1,"leaderboard_instructions":1,"bonus":0,"reveal_word":false,"self_rating":"1","confidence":"88"},{"view_history":"[{\"page_index\":0,\"viewing_time\":27439}]","rt":27439,"trial_type":"instructions","trial_index":2,"time_elapsed":34932,"internal_node_id":"0.0-2.0-0.0","protocol_sum":"","subject_identifier":336,"subject_sum":[128,195,205,64,250,53,249,8,139,135,65,189,139,230,21,61,224,95,102,28,254,235,70,37,255,191,95,74,108,60,2,196],"subject_pair":168,"STUDY_ID":"66a0b3911f23dfc7665bb169","PROLIFIC_PID":"65e235e4ac7b9bc14ae3e92e","SESSION_ID":"66a177c0c844619d91f6e0ee","practice_instructions":1,"leaderboard_instructions":1,"bonus":0,"reveal_word":false,"self_rating":"1","confidence":"88"},{"rt":6719,"responses":"{\"Q0\":\"... reveal the word with as <b>few letter guesses</b> as possible\"}","question_order":"[0]","trial_type":"survey-multi-choice","trial_index":3,"time_elapsed":41652,"internal_node_id":"0.0-2.0-1.0","protocol_sum":"","subject_identifier":336,"subject_sum":[128,195,205,64,250,53,249,8,139,135,65,189,139,230,21,61,224,95,102,28,254,235,70,37,255,191,95,74,108,60,2,196],"subject_pair":168,"correct":true,"test_part":"multichoice_nonpretend","STUDY_ID":"66a0b3911f23dfc7665bb169","PROLIFIC_PID":"65e235e4ac7b9bc14ae3e92e","SESSION_ID":"66a177c0c844619d91f6e0ee","practice_instructions":1,"leaderboard_instructions":1,"bonus":0,"reveal_word":false,"self_rating":"1","confidence":"88"},{"view_history":"[{\"page_index\":0,\"viewing_time\":1358}]","rt":1358,"trial_type":"instructions","trial_index":4,"time_elapsed":43011,"internal_node_id":"0.0-3.0","protocol_sum":"","subject_identifier":336,"subject_sum":[128,195,205,64,250,53,249,8,139,135,65,189,139,230,21,61,224,95,102,28,254,235,70,37,255,191,95,74,108,60,2,196],"subject_pair":168,"STUDY_ID":"66a0b3911f23dfc7665bb169","PROLIFIC_PID":"65e235e4ac7b9bc14ae3e92e","SESSION_ID":"66a177c0c844619d91f6e0ee","practice_instructions":1,"leaderboard_instructions":1,"bonus":0,"reveal_word":false,"self_rating":"1","confidence":"88"},{"word":"ZEBRA","click_log":{"letter":["","T","S","H","L","A","O","E","R","Z","B"],"t":[0,21615,25912,29752,36415,41455,57967,63216,85167,110624,112351],"hit":[null,0,0,0,0,1,0,1,1,1,1],"asked":["","T","TS","TSH","TSHL","TSHLA","TSHLAO","TSHLAOE","TSHLAOER","TSHLAOERZ","TSHLAOERZB"],"word_state":["_____","_____","_____","_____","_____","____A","____A","_E__A","_E_RA","ZE_RA","ZEBRA"]},"hover_log":{"letter":["?","?","?","?","?","?","?","?","?","?","?","?","?","?","?","?","?","?","?","?","?","?","?","?","?","?","?","?","?","?","?","?","?","?","?","?","?","A","A","?","?","?","?","?","?","?","?","?","?","?","?","?","?","?","?","?","?","?","?","?","?","?","?","?","?","?","?","?","?","?","?","?","?","?","?","?","?","?","?","?","?","?","?","?","?","?","?","?","?","?","?","?","?","?","?","?","?","?","?","D","D","D","?","?","?","?","?","?","?","?","?","?","?","?","?","?","?","?","?","?","?","?","?","?","?","?","?","?","?","?","?","?","?","?","?","?","?","?","?","?","?","?","?","?","?","?","?","?","?","?","?","?","?","?","?","?","?","?","?","?","?","?","?","?","?","?","?","?","?","?","?","?","?","?","?","?","?","?","?","?","?","?","?","?","?","?","?","?","?","?","?","?","?","?","?","?","?","?","?","?","?","D","?","?","?","?","?","?","?","?","?","?","?","?","?","?","?","?","?","?","?","?","?","?","?","?","?","?","?","?","?","?","?","?","?","?","?","?","?","?","?","?","?","?","?","?","?","?","?","?","?","?","?","?","?","?","?","?","?","?","?","?","?","?","?","?","?","?","?","?","?","?","?","?","?","?","?","?","?","?","?","?","?","?","?","?","?","?","?","?","?","?","?","?","?","?","?","?","?","?","?","?","?","?","?","?","?","?","?","?","?","?","?","?","?","?","?","?","?","?","?","?","?","?","?","?","?","?","?","?","?","?","?","?","?","?","?","?","?","?","?","?","?","?","?","?","?","?","?","?","?","?","?","?","?","?","?","?","?","?","?","?","?","?","?","?","?","?","?","?","?","?","?","?","?","?","?","?","?","?","?","?","?","?","?","?","?","?","?","?","?","?","?","?","?","?","?","?","?","?","?","?","?","?","?","?","?","?","?","?","?","?","?","?","?","?","?","?","?","?","?","?","?","?","?","?","?","?","?","?","?","?","?","?","?","?","?","?","?","?","?","?","?","?","?","?","?","?","?","?","?","?","?","?","?","?","?","?","?","?","?","?","?","?","?","?","?","?","?","?","?","?","?","?","?","?","?","?","?","?","?","?","?","?","?","?","?","?","?","?","?","?","?","?","?","?","?","?","?","?","?","?","?","?","?","?","?","?","?","?","?","?","?","?","?","?","?","?","?","?","?","?","?","?","?","?","?","?","?","?","?","?","?","?","?","?","?","?","?","?","?","?","?","?","?","?","?","?","?","?","?","?","?","?","?","?","?","?","?","?","?","?","?","?","?","?","?","?","?","?","?","?","?","?","?","?","?","?","?","?","?","?","?","?","?","?","?","?","?","?","?","?","?","?","?","?","?","?","?","?","?","?","?","?","?","?","?","?","?","?","?","?","?","?","?","?","?","?","?","?","?","?","?","?","?","?","?","?","?","?","?","?","?","?","?","?","?","?","?","?","?","?","?","?","?","?","?","?","?","?","?","?","?","?","?","?","?","?","?","?","?","?","?","?","?","?","?","?","?","?","?","?","?","?","?","?","?","?","?","?","?","?","?","?","?","?","?","?","?","?","?","?","?","?","?","?","?","?","?","?","?","?","?","?","?","?","?","?","?","?","?","?","?","?","?","?","?","?","?","?","?","?","?","?","?","?","?","?","?","?","?","?","?","?","?","?","?","?","?","?","?","?","?","?","?","?","?","?","?","?","?","?","?","?","?","?","?","?","?","?","?","?","?","?","?","?","?","?","?","?","?","?","?","?","?","?","?","?","?","?","?","?","?","?","?","?","?","?","?","?","?","?","?","?","?","?","?","?","?","?","?","?","?","?","?","?","?","?","?","?","?","?","?","?","?","?","?","?","?","?","?","?","?","?","?","?","?","?","?","?","?","?","?","?","?","?","?","?","?","?","?","?","?","?","?","?","?","?","?","?","?","?","?","?","?","?","?","?","?","?","?","?","?","?","?","?","?","?","?","?","?","?","?","?","?","?","?","?","?","?","?","?","?","?","?","?","?","?","?","?","?","?","?","?","?","?","?","?","?","?","?","?","?","?","?","?","?","?","?","?","?","?","?","?","?","?","?","?","?","?","?","?","?","?","?","?","?","?","?","?","?","?","?","?","?","?","?","?","?","?","?","?","?","?","?","?","?","?","?","?","?","?","?","?","?","?","?","?","?","?","?","?","?","?","?","?","?","?","?","?","?","?","?","?","?","?","?","?","?","?","?","?","?","?","?","?","?","?","?","?","?","?","?","?","?","?","?","?","?","?","?","?","?","?","?","?","?","?","?","?","?","?","?","?","?","?","?","?","?","?","?","?","?","?","?","?","?","?","?","?","?","?","?","?","?","?","?","?","?","?","?","?","?","?","?","?","?","?","?","?","?","?","?","?","?","?","?","?","?","?","?","?","?","?","?","?","?","?","?","?","?","?","?","?","?","?","?","?","?","?","?","?","?","?","?","?","?","?","?","?","?","?","?","?","?","?","?","?","?","?","?","?","?","?","?","?","?","?","?","?","?","?","?","?","?","?","?","?","?","?","?","?","?","?","?","?","?","?","?","?","?","?","?","?","?","?","?","?","?","?","?","?","?","?","?","?","?","?","?","?","?","?","?","?","?","?","?","?","?","?","?","?","?","?","?","?","?","?","?","?","?","?","?","?","?","?","?","?","?","?","?","?","?","?","?","?","?","?","?","?","?","?","?","?","?","?","?","?","?","?","?","?","?","?","?","?","?","?","?","?","?","?","?","?","?","?","?","?","?","?","?","?","?","?","?","?","?","G","F","F","?","?","M","?","?","?","?","?","?","?","?","?","?","?","?","?","?","?","T","T","T","T","?","?","?","?","?","?","?","?","?","?","?","?","?","?","?","T","T","T","T","T","T","T","T","T","T","T","T","T","T","T","T","T","T","T","T","T","T","T","T","T","T","T","T","T","T","T","T","T","T","T","T","T","T","T","T","T","T","T","T","T","T","T","T","T","T","T","T","T","T","T","T","T","T","T","T","T","T","T","T","T","T","T","?","?","?","?","?","?","?","?","?","?","?","?","K","K","K","K","K","K","K","K","K","K","K","K","K","K","K","K","K","K","K","K","K","K","K","K","K","K","K","K","K","K","K","K","K","K","K","K","K","K","K","K","K","K","K","K","K","K","K","K","K","K","K","K","K","K","K","K","K","K","K","K","K","K","K","K","K","K","K","K","K","K","K","K","K","K","K","K","K","K","K","K","K","K","K","K","K","K","K","K","K","K","K","K","K","K","K","K","?","?","?","?","?","?","L","L","L","L","L","L","L","L","?","M","M","M","M","M","M","M","M","M","M","M","?","?","?","?","?","?","?","?","?","?","?","?","?","?","?","?","?","?","?","?","?","?","?","?","?","?","?","?","?","?","L","L","?","M","?","?","?","N","N","N","N","?","M","?","?","?","?","S","S","S","S","S","S","S","S","S","S","S","S","S","S","S","S","S","S","S","S","S","S","S","S","S","S","S","S","S","S","S","S","S","S","S","S","S","S","S","S","S","S","S","S","S","S","S","S","S","S","S","S","S","S","S","S","S","S","S","S","S","S","S","S","S","S","S","S","S","S","S","S","S","S","S","S","S","S","S","S","S","S","S","S","S","S","S","S","S","S","S","S","S","S","S","S","S","S","S","S","S","S","S","S","S","S","S","S","S","S","S","S","S","S","S","S","S","S","S","S","S","S","S","S","S","S","S","S","S","S","S","S","S","S","S","S","S","S","S","S","S","S","S","S","S","S","S","S","S","S","S","S","S","S","S","S","S","S","S","S","S","S","S","S","S","?","?","?","?","?","?","?","?","?","?","?","?","?","?","?","?","?","?","L","L","?","?","M","M","M","?","?","N","N","N","N","N","N","N","N","N","N","N","N","N","N","N","N","N","N","N","N","N","?","?","?","?","?","?","F","F","F","?","?","G","G","G","G","G","G","G","G","G","?","?","?","?","?","?","?","?","H","H","H","H","H","H","H","H","H","H","H","H","H","H","H","H","H","H","H","H","H","H","H","H","H","H","H","H","H","H","H","H","H","H","H","H","H","H","H","H","H","H","H","H","H","H","H","H","H","H","H","H","H","H","H","H","H","H","H","H","H","H","H","H","H","H","H","H","H","H","H","H","H","H","H","H","H","H","H","H","H","H","H","H","H","H","H","H","H","H","H","H","H","H","H","H","H","H","H","H","H","H","H","H","H","H","H","H","H","H","H","H","H","H","H","H","H","H","H","H","H","H","H","H","H","H","H","H","H","H","H","H","H","H","H","H","H","H","H","H","H","H","H","H","H","H","H","H","H","H","H","H","H","H","H","H","H","H","H","H","H","H","H","H","H","H","H","H","H","H","H","H","H","H","H","H","H","H","H","H","H","H","H","H","H","H","H","H","H","H","H","H","H","H","H","H","H","H","H","H","H","H","H","H","H","H","H","H","H","H","H","H","H","H","H","H","H","H","H","H","H","H","H","H","H","H","H","H","H","H","H","H","H","H","H","H","H","H","H","H","H","H","H","H","H","H","H","H","H","H","H","H","H","H","H","H","H","H","H","H","H","H","H","H","H","H","H","H","H","H","H","H","H","H","H","H","H","H","H","H","H","H","H","H","H","H","H","H","H","H","H","H","H","H","H","H","H","H","H","H","H","H","H","H","H","H","H","H","H","H","H","H","H","H","H","H","H","H","H","H","H","H","H","H","H","H","H","H","H","H","H","H","H","H","H","H","H","H","H","H","?","?","?","?","?","?","?","?","?","?","?","?","?","?","?","?","?","?","?","?","?","?","?","?","?","?","I","I","I","I","I","I","I","I","I","I","I","I","I","I","I","?","H","?","O","N","N","M","M","M","M","M","M","M","?","?","?","?","?","?","?","L","L","L","L","L","L","L","L","L","L","L","L","L","L","L","L","L","L","L","L","L","L","L","L","L","L","L","L","L","L","L","L","L","L","L","L","L","L","L","L","L","L","L","L","L","L","L","L","L","L","L","L","L","L","L","L","L","L","L","L","L","L","L","L","L","L","L","L","L","L","L","L","L","L","L","L","L","L","L","L","L","L","L","L","L","L","L","L","L","L","L","L","L","L","L","L","L","L","L","L","L","L","L","L","L","L","L","L","L","L","L","L","L","L","L","L","L","L","L","L","L","L","L","L","L","L","L","L","L","L","L","L","L","L","L","L","L","L","L","L","L","L","L","L","L","L","L","L","L","L","L","L","L","L","L","L","L","L","L","L","L","L","L","L","L","L","L","L","L","L","L","L","L","L","L","L","L","L","L","L","L","L","L","L","L","L","L","L","L","L","L","L","L","L","L","L","L","L","L","L","L","L","L","L","L","L","L","L","L","L","L","L","L","L","L","L","L","L","L","L","L","L","L","L","L","L","L","L","L","L","L","L","L","L","L","L","L","L","K","K","?","?","?","?","?","?","?","?","A","A","A","A","A","A","A","A","A","A","A","A","A","A","A","A","A","A","A","A","A","A","A","A","A","A","A","A","A","A","A","A","A","A","A","A","A","A","A","A","A","A","A","A","A","A","A","A","A","A","A","A","A","A","A","A","A","A","A","A","A","A","A","A","A","A","A","A","A","A","A","A","A","A","A","A","A","A","A","A","A","A","A","A","A","A","A","A","A","A","A","A","A","A","A","A","A","A","A","A","A","A","A","A","A","A","A","A","A","A","A","A","A","A","A","A","A","A","A","A","A","A","A","A","A","A","A","A","A","A","A","A","A","A","A","A","A","A","A","A","A","A","A","A","A","A","A","A","A","A","A","A","A","A","A","A","A","A","A","A","A","A","A","A","A","A","A","A","A","A","A","A","A","A","A","A","A","A","A","A","A","A","A","A","A","A","A","A","A","A","A","A","A","A","A","A","A","A","A","A","A","A","A","A","A","A","A","A","A","A","A","A","A","A","A","A","A","A","A","A","A","A","A","A","A","A","A","A","A","A","A","A","A","A","A","A","A","A","A","A","A","A","A","A","A","A","A","A","A","A","A","A","A","A","A","A","A","A","A","A","A","A","A","A","A","A","A","A","A","A","A","A","A","A","A","A","A","A","A","A","A","A","A","A","A","A","A","A","A","A","A","A","A","A","A","A","A","A","A","A","A","A","A","A","A","A","A","A","A","A","A","A","A","A","A","A","A","A","A","A","A","A","A","A","A","A","A","A","A","A","A","A","A","A","A","A","A","A","A","A","A","A","A","A","A","A","A","A","A","A","A","A","A","A","A","A","A","A","A","A","A","A","A","A","A","A","A","A","A","A","A","A","A","A","A","A","A","A","A","A","A","A","A","A","A","A","A","A","A","A","A","A","A","A","A","A","A","A","A","A","A","A","A","A","A","A","A","A","A","A","A","A","A","A","A","A","A","A","A","A","A","A","A","A","A","A","A","A","A","A","A","A","A","A","A","A","A","A","A","A","A","A","A","A","A","A","A","A","A","A","A","A","A","A","A","A","A","A","A","A","A","A","A","A","A","A","A","A","A","A","A","A","A","A","A","A","A","A","A","A","A","A","A","A","A","A","A","A","A","A","A","A","A","A","A","A","A","A","A","A","A","A","A","A","A","A","A","A","A","A","A","A","A","A","A","A","A","A","A","A","A","A","A","A","A","A","A","A","A","A","A","A","A","A","A","A","A","A","A","A","A","A","A","A","A","A","A","A","A","A","A","A","A","A","A","A","A","A","A","A","A","A","A","A","A","A","A","A","A","A","A","A","A","A","A","A","A","A","A","A","A","A","A","A","A","A","A","A","A","A","A","A","A","A","A","A","A","A","A","A","A","A","A","A","A","A","A","A","A","A","A","A","A","A","A","A","A","A","A","A","A","A","A","A","A","A","A","A","A","A","A","A","A","A","A","A","A","A","A","A","A","A","A","A","A","A","A","A","A","A","A","A","A","A","A","A","A","A","A","A","A","A","A","A","A","A","A","A","A","A","A","A","A","A","A","A","A","A","A","A","A","A","A","A","A","A","A","A","A","A","A","A","A","A","A","A","A","A","A","A","A","A","A","A","A","A","A","A","A","A","A","A","A","A","A","A","A","A","A","A","A","A","A","A","A","A","A","A","A","A","A","A","A","A","A","A","A","A","A","A","A","A","A","A","A","A","A","A","A","A","A","A","A","A","A","A","A","A","A","?","B","B","?","?","?","?","?","?","?","?","?","?","?","?","?","?","?","?","?","?","?","?","?","?","?","?","?","?","C","?","?","M","M","M","M","M","M","M","M","M","M","M","M","M","M","M","M","M","M","M","M","M","M","M","M","M","M","M","M","M","M","M","M","M","M","M","M","M","M","M","M","M","M","M","M","M","M","M","M","M","M","M","M","M","M","M","M","M","M","M","M","M","M","M","M","M","M","M","M","M","M","M","M","M","M","M","M","M","M","M","M","M","M","M","M","M","M","M","M","M","M","M","M","M","M","M","M","M","M","M","M","M","M","M","M","M","M","M","M","M","M","M","M","M","M","M","M","M","?","?","?","?","?","?","?","?","?","?","?","?","?","?","?","?","?","?","?","?","?","?","?","?","?","?","?","?","?","?","?","?","?","?","?","O","O","O","O","?","?","N","N","N","N","N","?","?","?","?","M","M","M","M","?","?","?","L","L","L","L","L","L","L","L","L","L","L","L","L","L","L","L","L","L","L","L","L","L","L","L","L","L","L","L","L","L","L","L","L","L","L","L","L","L","L","L","L","L","L","M","M","N","N","N","N","N","N","N","N","N","N","N","N","N","N","N","N","?","O","O","O","O","O","O","O","O","O","O","O","O","O","O","O","O","O","O","O","O","O","O","O","O","O","O","O","O","O","O","O","O","O","O","O","O","O","O","O","O","O","O","O","O","O","O","O","O","O","O","O","O","O","O","O","O","O","O","O","O","O","O","O","O","O","O","O","O","O","O","O","O","O","O","O","O","O","O","O","O","O","O","O","O","O","O","O","O","O","O","O","O","O","O","O","O","O","O","O","O","O","O","O","O","O","O","O","O","O","O","O","O","O","O","O","O","O","O","O","O","O","O","O","O","O","O","O","O","O","O","O","O","O","O","O","O","O","O","O","O","O","O","O","O","O","O","O","O","O","O","O","O","O","O","O","O","O","O","O","O","O","O","O","O","O","O","O","O","O","O","O","O","O","O","O","O","O","O","O","O","O","O","O","O","O","O","O","O","O","O","O","O","O","O","O","O","O","O","O","O","O","O","O","O","O","O","O","O","O","O","O","O","O","O","O","O","O","O","O","O","O","O","O","O","O","O","O","O","O","O","O","O","O","O","O","O","O","O","O","O","O","O","O","O","O","O","O","O","O","O","O","O","O","O","O","O","O","O","O","O","O","O","O","O","O","O","O","O","O","O","O","O","O","O","O","O","O","O","O","O","O","O","O","O","O","O","O","O","O","O","O","O","O","O","O","O","O","O","O","O","O","O","O","O","?","?","?","?","?","?","?","?","?","?","?","?","?","?","?","?","?","?","E","E","E","E","E","E","E","E","E","E","E","E","E","E","E","E","E","E","E","E","E","E","E","E","E","E","E","E","E","E","E","E","E","E","E","E","E","E","E","E","E","E","E","E","E","E","E","E","E","E","E","E","E","E","E","E","E","E","E","E","E","E","E","E","E","E","E","E","E","E","E","E","E","E","E","E","E","E","E","E","E","E","E","E","E","E","E","E","E","E","E","E","E","E","E","E","E","E","E","E","E","E","E","E","E","E","E","E","E","E","E","E","E","E","E","E","E","E","E","E","E","E","E","E","E","E","E","E","E","E","E","E","E","E","E","E","E","E","E","E","E","E","E","E","E","E","E","E","E","E","E","E","E","E","E","E","E","E","E","E","E","E","E","E","E","E","E","E","E","E","E","E","E","E","E","E","E","E","E","E","E","E","E","E","E","E","E","E","E","E","E","E","E","E","E","E","E","E","E","E","E","E","E","E","E","E","E","E","E","E","E","E","E","E","E","E","E","E","E","E","E","E","E","E","E","E","E","E","E","E","E","E","E","E","E","E","E","E","E","E","E","E","E","E","E","E","E","E","E","E","E","E","E","E","E","E","E","E","E","E","E","E","E","E","E","E","E","E","E","E","E","E","E","E","E","E","E","E","E","E","E","E","E","E","E","E","E","E","E","E","E","E","E","E","E","E","E","E","E","E","E","E","E","E","E","E","E","E","E","E","E","E","E","E","E","E","E","E","E","E","E","E","E","E","E","E","E","E","E","E","E","E","E","E","E","E","E","E","E","E","E","E","E","E","E","E","E","E","E","E","E","E","E","E","E","E","E","E","E","E","E","E","E","E","E","E","E","E","E","E","E","E","E","E","E","E","E","E","E","E","E","E","E","E","E","E","E","E","E","E","E","E","E","E","E","E","E","E","E","E","E","E","E","E","E","E","E","E","E","E","E","E","E","E","E","E","E","E","E","E","E","E","E","E","E","E","E","E","E","E","E","E","E","E","E","E","E","E","E","E","E","E","E","E","E","E","E","E","E","E","E","E","E","E","E","E","E","E","E","E","E","E","E","E","E","E","E","E","E","E","E","E","E","E","E","E","E","E","E","E","E","E","E","E","E","E","E","E","E","E","E","E","E","E","E","E","E","E","E","E","E","E","E","E","E","E","E","E","E","E","E","E","E","E","E","E","E","E","E","E","E","E","E","E","E","E","E","E","E","E","E","E","E","E","E","E","E","E","E","E","E","E","E","E","E","E","E","E","E","E","E","E","E","E","E","E","E","E","E","E","E","E","E","E","E","E","E","E","E","E","E","E","E","E","E","E","E","E","E","E","E","E","E","E","E","E","E","E","E","E","E","E","E","E","E","E","E","E","E","E","E","E","E","E","E","E","E","E","E","E","E","E","E","E","E","E","E","E","E","E","E","E","E","E","E","E","E","E","E","E","E","E","E","E","E","E","E","E","E","E","E","E","E","E","E","E","E","E","E","E","E","E","E","E","E","E","E","E","E","E","E","E","E","E","E","E","E","E","E","E","E","E","E","E","E","E","E","E","E","E","E","E","E","E","E","E","E","E","E","E","E","E","E","E","E","E","E","E","E","E","E","E","E","E","E","E","E","E","E","E","E","E","E","E","E","E","E","E","E","E","E","E","E","E","E","E","E","E","E","E","E","E","E","E","E","E","E","E","E","E","E","E","E","E","E","E","E","E","E","E","E","E","E","E","E","E","E","E","E","E","E","E","E","E","E","E","E","E","E","E","E","E","E","E","E","E","E","E","E","E","E","E","E","E","E","E","E","E","E","E","E","E","E","E","E","E","E","E","E","E","E","E","E","E","E","E","E","E","E","E","E","E","E","E","E","E","E","E","E","E","E","E","E","E","E","E","E","E","E","E","E","E","E","E","E","E","E","E","E","E","E","E","E","E","E","E","E","E","E","E","E","E","E","E","E","E","E","E","E","E","E","E","E","E","E","E","E","E","E","E","E","E","E","E","E","E","E","E","E","E","E","E","E","E","E","E","E","E","E","E","E","E","E","E","E","E","E","E","E","E","E","E","E","E","E","E","E","E","E","E","E","E","E","E","E","E","E","E","E","E","E","E","E","E","E","E","E","E","E","E","E","E","E","E","E","E","E","E","E","E","E","E","E","E","E","E","E","E","E","E","E","E","E","E","E","E","E","E","E","E","E","E","E","E","E","E","E","E","E","E","E","E","E","E","E","E","E","E","E","E","E","E","E","E","E","E","E","E","E","E","E","E","E","E","E","E","E","E","E","E","E","E","E","E","E","E","E","E","E","E","E","E","E","E","E","E","E","E","E","E","E","E","E","E","E","E","E","E","E","E","E","E","E","E","E","E","E","E","E","E","E","E","E","E","E","E","E","E","E","E","E","E","E","E","E","E","E","E","E","E","E","E","E","E","E","E","E","E","E","E","E","E","E","E","E","E","E","E","E","E","E","E","E","E","E","E","E","E","E","E","E","E","E","E","E","E","E","E","E","E","E","E","E","E","E","E","E","E","E","E","E","E","E","E","E","E","E","E","E","E","E","E","E","E","?","?","?","?","?","?","?","?","N","N","N","N","N","?","?","?","?","?","?","?","?","X","X","X","X","X","X","X","X","X","X","X","X","X","X","X","X","X","X","X","?","Y","Y","Y","Y","Y","?","?","?","?","?","?","?","Q","Q","Q","Q","Q","Q","Q","Q","Q","Q","Q","Q","Q","Q","Q","Q","Q","Q","?","?","?","?","?","?","?","?","?","?","?","?","?","?","?","?","?","?","?","?","?","?","?","?","?","?","?","?","?","?","?","?","?","?","?","?","?","?","?","?","?","?","?","?","?","?","?","?","?","?","?","?","?","?","?","?","?","?","?","?","?","?","?","?","?","?","?","?","?","?","?","?","?","?","?","?","?","?","?","?","?","?","?","?","?","?","?","?","?","?","?","?","?","?","?","?","?","?","?","?","?","?","?","?","P","P","P","P","P","?","?","Q","Q","Q","Q","?","R","R","R","R","R","R","R","R","R","R","R","R","R","R","R","R","R","R","R","R","R","R","R","R","R","R","R","R","R","R","R","R","R","R","R","R","R","R","R","R","R","R","R","R","R","R","R","R","R","R","R","R","R","R","R","R","R","R","R","R","R","R","R","R","R","R","R","R","R","R","R","R","R","R","R","R","R","R","R","R","R","R","R","R","R","R","R","R","R","R","R","R","R","R","R","R","R","R","R","R","R","R","R","R","R","R","R","R","R","R","R","R","R","R","R","R","R","R","R","R","R","R","R","R","R","R","R","R","R","R","R","R","R","R","R","R","R","R","R","R","R","R","R","R","R","?","Q","Q","Q","Q","Q","Q","Q","Q","Q","Q","Q","Q","Q","Q","Q","Q","Q","Q","Q","Q","Q","?","?","?","?","P","P","P","P","?","O","O","O","?","?","?","?","?","?","?","?","?","?","?","?","?","?","?","?","?","?","?","?","?","?","?","?","?","?","?","?","?","?","?","?","?","?","?","?","?","?","?","?","?","?","?","?","?","?","?","?","?","?","?","?","?","?","?","?","?","?","?","?","?","?","?","?","?","?","?","?","?","?","?","?","?","?","?","?","?","?","?","?","?","?","?","?","?","?","?","?","?","?","?","?","?","?","?","?","?","?","?","?","?","?","?","?","?","?","?","?","?","?","?","?","?","?","?","?","?","?","?","?","?","?","?","?","?","?","?","?","?","?","?","?","?","?","?","?","?","?","?","?","?","?","?","?","?","?","?","?","?","?","?","?","?","?","?","N","N","?","?","?","?","?","?","?","?","?","?","?","E","E","E","E","E","E","E","E","E","E","E","?","?","?","?","?","?","?","?","?","?","?","?","?","?","?","?","?","?","?","?","?","?","?","?","?","?","?","?","?","?","?","?","?","?","?","?","?","?","?","?","?","?","?","?","?","?","?","?","?","?","?","?","?","?","?","?","?","?","?","?","?","?","?","?","?","?","?","?","?","?","?","?","?","?","?","?","?","?","?","?","?","?","?","?","?","?","?","?","?","?","?","?","?","?","?","?","?","?","?","?","?","?","?","?","?","?","?","?","?","?","?","?","?","?","?","?","?","?","?","?","?","?","?","?","?","?","?","?","?","?","?","?","?","?","?","?","?","?","?","?","?","?","?","?","?","?","?","?","?","?","?","?","?","?","?","?","?","?","?","?","?","?","?","?","?","?","?","?","?","?","?","?","?","?","?","?","?","?","?","?","?","?","?","?","?","?","?","?","?","?","?","?","?","?","?","?","?","?","?","?","?","?","?","?","?","?","?","?","?","?","?","?","?","?","?","?","?","?","?","?","?","?","?","?","?","?","?","?","?","?","?","?","?","?","?","?","?","?","?","?","?","?","?","?","?","?","?","?","?","?","?","?","?","?","?","?","?","?","?","?","?","?","?","?","?","?","?","?","?","?","?","?","?","?","?","?","?","?","?","?","?","?","?","?","?","?","?","?","?","?","?","?","?","?","?","?","?","?","?","?","?","?","?","?","?","?","?","?","?","?","?","?","?","?","?","?","?","?","?","?","?","?","?","?","?","?","?","?","?","?","?","?","?","?","?","?","?","?","?","?","?","?","?","?","?","?","?","?","?","?","?","?","?","?","?","?","?","?","?","?","?","?","?","?","?","?","?","?","?","?","?","?","?","?","?","?","?","?","?","?","?","?","?","?","?","?","?","?","?","?","?","?","?","?","?","?","?","?","?","?","?","?","?","?","?","?","?","?","?","?","?","?","?","?","?","?","?","?","?","?","?","?","?","?","?","?","?","?","?","?","?","?","?","?","?","?","?","?","?","?","?","?","?","?","?","?","?","?","?","?","?","?","?","?","?","?","?","?","?","?","?","?","?","?","?","?","?","?","?","?","?","?","?","?","?","?","?","?","?","?","?","?","?","?","?","?","?","?","?","?","?","?","?","?","?","?","?","?","?","?","?","?","?","?","?","?","?","?","?","?","?","?","?","?","?","?","?","?","?","?","?","?","?","?","?","?","?","?","?","?","?","?","?","?","?","?","?","?","?","?","?","?","?","?","?","?","?","?","?","?","?","?","?","?","?","?","?","?","?","?","?","?","?","?","?","?","?","?","?","?","?","?","?","?","?","?","?","?","?","?","?","?","?","?","?","?","?","?","?","?","?","?","?","?","?","?","?","?","?","?","?","?","?","?","?","?","?","?","?","?","?","?","?","?","?","?","?","?","?","?","?","?","?","?","?","?","?","?","?","?","?","?","?","?","?","?","?","?","?","?","?","?","?","?","?","?","?","?","?","?","?","?","?","?","?","?","?","?","?","?","?","?","?","?","?","?","?","?","?","?","?","?","?","?","?","?","?","?","?","?","?","?","?","?","?","?","?","?","?","?","?","?","?","?","?","?","?","?","?","?","?","?","?","?","?","?","?","?","?","?","?","?","?","?","?","?","?","?","?","?","?","?","?","?","?","?","?","?","?","?","?","?","?","?","?","?","?","?","?","?","?","?","?","?","?","?","?","?","?","?","?","?","?","?","?","?","?","?","?","?","?","?","?","?","?","?","?","?","?","?","?","?","?","?","?","?","?","?","?","?","?","?","?","?","?","?","?","?","?","?","?","?","?","?","?","?","?","?","?","?","?","?","?","?","?","?","?","?","?","?","?","?","?","?","?","?","?","?","?","?","?","?","?","?","?","?","?","?","?","?","?","?","?","?","?","?","?","?","?","?","?","?","?","?","?","?","?","?","?","?","?","?","?","?","?","?","?","?","?","?","?","?","?","?","?","?","?","?","?","?","?","?","?","?","?","?","?","?","?","?","?","?","?","?","?","?","?","?","?","?","?","?","?","?","?","?","?","?","?","?","?","?","?","?","?","?","?","?","?","?","?","?","?","?","?","?","?","?","?","?","?","?","?","?","?","?","?","?","?","?","?","?","?","?","?","?","?","?","?","?","?","?","?","?","?","?","?","?","?","?","?","?","?","?","?","?","?","?","?","?","?","?","?","?","?","?","?","?","?","?","?","?","?","?","?","?","?","?","?","?","?","?","?","?","?","?","?","?","?","?","?","?","?","?","?","?","?","?","?","?","?","?","?","?","?","?","?","?","?","?","?","?","?","?","?","?","?","?","?","?","?","?","?","?","?","?","?","?","?","?","?","?","?","?","?","?","?","?","?","?","?","?","?","?","?","?","?","?","?","?","?","?","?","?","?","?","?","?","?","?","?","?","?","?","?","?","?","?","?","?","?","?","?","?","?","?","?","?","?","?","?","?","?","?","?","?","?","?","?","?","?","?","?","?","?","?","?","?","?","?","?","?","?","?","?","?","?","?","?","?","?","?","?","?","?","?","?","?","?","?","E","?","?","?","V","V","V","V","V","V","V","V","V","V","V","V","V","?","U","U","U","U","U","U","U","U","U","U","?","?","V","W","X","Y","?","Z","?","?","?","?","?","?","?","?","?","?","?","?","?","Z","Z","Z","Z","Z","Z","Z","Z","Z","Z","Z","Z","Z","Z","Z","Z","Z","Z","Z","Z","Z","Z","Z","Z","Z","Z","Z","Z","Z","Z","Z","Z","Z","Z","Z","Z","Z","?","?","?","?","?","?","?","?","?","?","?","?","M","M","M","M","M","M","M","?","?","?","?","?","?","?","?","?","?","L","L","L","L","L","L","L","L","L","?","?","?","?","?","?","?","?","?","C","C","C","C","?","B","B","B","B","B","B","B","B","B","B","B","B","B","B","B","B","B","B","B","B","B","B","B","B","B","B","B","B","B","B","B","B","B","B","B","B","B","B","B","B","B","B","B","B","B","B","B","B","B","B","B","B","B","B","B","B","B","B","B","B","B","B","?","C","C","C","C","C","C","?","?","D","D","D","D","D","D","D","D","D","D","D","D","D","D","D","D","D","D","D","D","?","?","?","?","?","?","?","?","?","?","?","M","N","?","Y","?","?","?","?","?","?","?","?","?","?","?","?","?","?","?","?","?","?","?","?","?","?","?","?","?","?","?","?","?","?","?","?","?","?","?","?","?","?","?","?","?","?","?","?","?","?","?","?","?","?"],"t":[27,42,59,76,92,109,125,142,159,175,192,209,226,242,259,276,292,310,326,342,359,375,393,409,426,442,460,477,493,510,527,544,560,577,593,610,627,644,660,677,694,711,727,744,761,777,794,811,828,845,861,878,895,911,928,945,961,978,995,1011,1029,1045,1062,1078,1095,1111,1128,1146,1162,1179,1195,1213,1230,1245,1263,1279,1296,1312,1330,1346,1363,1379,1396,1413,1429,1446,1463,1479,1497,1513,1530,1547,1563,1581,1597,1614,1630,1647,1664,1681,1697,1714,1730,1747,1764,1781,1797,1814,1831,1848,1864,1881,1898,1914,1931,1948,1965,1982,1998,2015,2032,2048,2065,2082,2099,2115,2132,2148,2166,2182,2198,2216,2233,2249,2266,2283,2300,2316,2333,2350,2366,2383,2400,2416,2433,2449,2467,2483,2500,2516,2533,2550,2566,2584,2600,2617,2633,2651,2667,2684,2700,2718,2734,2750,2768,2784,2801,2817,2835,2852,2868,2885,2902,2918,2935,2952,2968,2985,3002,3018,3035,3052,3069,3086,3102,3119,3136,3152,3169,3186,3203,3219,3236,3252,3270,3286,3302,3319,3336,3353,3369,3386,3403,3420,3436,3453,3470,3487,3503,3520,3537,3554,3570,3587,3604,3621,3638,3654,3670,3687,3704,3721,3738,3755,3771,3788,3805,3822,3838,3855,3871,3888,3905,3922,3938,3955,3972,3989,4005,4021,4039,4055,4072,4089,4106,4122,4139,4156,4172,4189,4206,4223,4240,4256,4273,4289,4306,4323,4340,4357,4373,4390,4407,4424,4440,4457,4474,4491,4507,4524,4541,4557,4574,4591,4608,4624,4641,4658,4674,4691,4707,4725,4741,4758,4775,4792,4808,4825,4841,4859,4875,4891,4908,4925,4942,4958,4976,4992,5008,5026,5042,5059,5075,5092,5109,5126,5143,5159,5176,5193,5209,5227,5243,5259,5276,5293,5310,5327,5343,5360,5377,5393,5410,5426,5443,5460,5477,5493,5510,5527,5544,5560,5578,5594,5611,5627,5644,5661,5677,5695,5711,5728,5745,5761,5778,5795,5812,5828,5845,5861,5879,5895,5912,5928,5945,5962,5979,5996,6012,6029,6046,6062,6079,6096,6113,6129,6146,6163,6179,6196,6213,6229,6247,6263,6280,6297,6314,6330,6347,6363,6380,6397,6413,6430,6447,6464,6480,6498,6514,6531,6547,6564,6581,6598,6615,6631,6648,6665,6681,6698,6714,6731,6748,6765,6781,6798,6815,6831,6848,6865,6882,6899,6915,6931,6949,6966,6982,6999,7015,7033,7049,7067,7083,7099,7116,7133,7150,7166,7183,7199,7216,7233,7250,7267,7283,7300,7317,7333,7350,7367,7384,7400,7417,7434,7451,7467,7484,7501,7518,7534,7551,7568,7584,7601,7617,7635,7651,7668,7684,7702,7718,7735,7751,7768,7785,7801,7819,7835,7852,7868,7885,7902,7919,7935,7952,7969,7985,8002,8019,8036,8052,8069,8086,8103,8120,8137,8153,8170,8186,8203,8220,8236,8254,8270,8287,8304,8321,8337,8354,8370,8388,8404,8421,8437,8454,8470,8487,8504,8521,8538,8554,8572,8588,8605,8621,8638,8654,8671,8688,8705,8721,8738,8755,8771,8789,8805,8822,8838,8856,8872,8889,8905,8922,8939,8956,8972,8989,9006,9023,9039,9057,9073,9090,9106,9123,9140,9156,9173,9190,9207,9223,9240,9257,9273,9290,9307,9324,9340,9357,9374,9391,9408,9424,9441,9458,9475,9491,9508,9525,9542,9558,9575,9592,9608,9625,9641,9658,9675,9691,9709,9725,9742,9758,9775,9792,9809,9825,9842,9859,9876,9892,9909,9926,9942,9960,9976,9992,10009,10026,10042,10059,10076,10093,10110,10127,10143,10160,10176,10193,10210,10227,10244,10260,10277,10294,10311,10327,10344,10360,10377,10394,10410,10428,10444,10461,10478,10494,10511,10527,10545,10561,10579,10595,10611,10629,10646,10662,10678,10695,10712,10729,10746,10762,10779,10796,10813,10829,10845,10863,10879,10896,10912,10930,10946,10963,10979,10996,11013,11030,11046,11063,11080,11096,11114,11130,11147,11163,11181,11197,11213,11231,11247,11264,11280,11297,11314,11330,11347,11365,11381,11397,11414,11431,11448,11464,11481,11497,11515,11531,11548,11565,11581,11599,11615,11632,11649,11666,11682,11699,11715,11732,11749,11765,11783,11799,11816,11833,11850,11865,11882,11899,11916,11932,11949,11966,11983,12000,12016,12033,12050,12067,12083,12100,12117,12133,12150,12167,12183,12200,12218,12234,12251,12267,12284,12301,12317,12334,12351,12367,12384,12401,12418,12434,12451,12468,12485,12501,12518,12535,12552,12568,12586,12602,12619,12635,12652,12669,12686,12702,12719,12736,12753,12769,12786,12803,12820,12836,12853,12870,12886,12902,12920,12936,12953,12970,12986,13003,13020,13036,13054,13070,13086,13104,13120,13137,13153,13171,13187,13203,13222,13238,13254,13270,13287,13304,13321,13338,13355,13372,13388,13405,13422,13438,13455,13471,13489,13505,13522,13538,13555,13571,13589,13606,13622,13638,13655,13672,13689,13706,13722,13739,13756,13773,13789,13806,13823,13840,13856,13873,13890,13907,13923,13940,13956,13973,13990,14006,14024,14040,14057,14074,14090,14107,14124,14141,14157,14174,14190,14208,14224,14241,14257,14274,14291,14308,14324,14342,14358,14374,14392,14408,14425,14441,14458,14475,14492,14509,14526,14542,14558,14575,14592,14609,14626,14642,14659,14675,14692,14709,14726,14742,14759,14776,14793,14809,14826,14842,14860,14876,14893,14910,14927,14943,14960,14977,14993,15010,15027,15043,15060,15077,15094,15110,15127,15144,15161,15177,15194,15210,15228,15244,15261,15278,15294,15311,15328,15345,15361,15378,15395,15412,15428,15445,15461,15479,15495,15512,15529,15545,15562,15579,15596,15612,15629,15646,15663,15680,15696,15712,15729,15746,15762,15780,15796,15813,15829,15846,15863,15880,15896,15913,15930,15947,15963,15980,15997,16014,16030,16047,16064,16080,16097,16114,16130,16148,16165,16181,16198,16215,16231,16248,16265,16281,16298,16314,16332,16348,16365,16382,16398,16415,16432,16449,16466,16482,16498,16515,16532,16549,16565,16582,16599,16616,16632,16650,16666,16683,16699,16716,16733,16749,16767,16783,16800,16817,16833,16850,16866,16883,16900,16917,16933,16951,16967,16984,17000,17017,17034,17051,17068,17084,17101,17118,17134,17151,17167,17184,17201,17217,17235,17251,17268,17284,17301,17318,17335,17352,17368,17385,17403,17419,17435,17452,17468,17485,17502,17519,17535,17552,17569,17585,17602,17619,17636,17652,17669,17687,17703,17720,17737,17753,17770,17787,17803,17820,17836,17854,17870,17886,17903,17920,17937,17953,17970,17988,18004,18021,18037,18054,18071,18087,18104,18121,18138,18154,18172,18188,18205,18221,18238,18254,18272,18288,18305,18322,18339,18356,18372,18389,18405,18422,18439,18455,18472,18489,18506,18522,18539,18556,18573,18589,18606,18623,18639,18656,18673,18690,18706,18723,18740,18756,18773,18790,18807,18824,18840,18857,18874,18890,18907,18924,18941,18957,18974,18991,19008,19024,19041,19058,19074,19091,19108,19125,19141,19158,19175,19192,19208,19225,19241,19258,19275,19292,19308,19325,19342,19359,19376,19393,19409,19425,19443,19459,19476,19493,19509,19526,19542,19560,19576,19592,19609,19626,19642,19660,19676,19693,19710,19727,19744,19760,19776,19793,19810,19827,19844,19861,19877,19894,19911,19928,19944,19961,19978,19994,20011,20028,20045,20061,20078,20094,20112,20128,20144,20161,20178,20195,20211,20228,20245,20262,20279,20295,20312,20329,20345,20362,20379,20395,20413,20429,20446,20462,20480,20496,20512,20530,20546,20563,20580,20597,20613,20630,20646,20664,20680,20697,20713,20730,20746,20764,20780,20798,20814,20830,20848,20863,20880,20897,20915,20931,20947,20965,20981,20998,21014,21032,21048,21064,21081,21099,21115,21131,21148,21165,21182,21199,21215,21232,21249,21265,21282,21298,21316,21332,21349,21365,21383,21399,21416,21432,21449,21466,21483,21500,21516,21533,21550,21567,21583,21600,21617,21633,21650,21667,21684,21700,21717,21733,21750,21767,21784,21800,21818,21834,21850,21868,21884,21901,21917,21934,21951,21968,21985,22002,22019,22035,22052,22069,22085,22102,22119,22135,22152,22168,22186,22202,22219,22236,22253,22269,22286,22303,22319,22336,22353,22370,22386,22403,22420,22436,22453,22470,22486,22503,22520,22537,22554,22570,22587,22604,22620,22637,22654,22670,22687,22704,22720,22738,22754,22771,22788,22804,22821,22838,22854,22871,22887,22905,22921,22938,22955,22972,22988,23005,23022,23038,23055,23072,23088,23105,23121,23139,23155,23172,23188,23208,23222,23240,23256,23273,23289,23306,23323,23339,23356,23372,23390,23407,23422,23440,23456,23473,23489,23506,23523,23540,23557,23574,23590,23607,23624,23640,23657,23674,23691,23707,23724,23740,23758,23774,23791,23808,23824,23841,23858,23874,23891,23908,23925,23941,23959,23975,23992,24008,24025,24042,24058,24075,24092,24109,24126,24142,24159,24175,24192,24209,24225,24243,24260,24276,24293,24310,24326,24342,24359,24376,24393,24410,24426,24444,24460,24477,24494,24511,24526,24544,24560,24577,24593,24610,24627,24644,24660,24677,24694,24711,24727,24744,24761,24778,24794,24811,24827,24845,24861,24878,24895,24911,24928,24945,24961,24978,24996,25012,25029,25045,25062,25079,25096,25112,25129,25146,25162,25179,25196,25213,25229,25246,25263,25280,25296,25312,25329,25346,25363,25379,25396,25413,25430,25447,25464,25480,25497,25514,25530,25547,25564,25581,25597,25614,25630,25648,25664,25680,25697,25714,25731,25748,25764,25781,25798,25815,25831,25848,25865,25881,25898,25915,25931,25949,25965,25982,25999,26015,26032,26048,26065,26082,26099,26116,26132,26149,26166,26182,26200,26216,26233,26249,26266,26283,26300,26316,26333,26350,26366,26384,26399,26416,26433,26450,26467,26484,26501,26518,26534,26550,26567,26583,26601,26618,26634,26651,26668,26684,26701,26718,26734,26751,26768,26785,26801,26818,26835,26851,26868,26885,26901,26918,26935,26952,26968,26985,27002,27018,27035,27052,27069,27086,27102,27119,27136,27152,27169,27186,27202,27220,27236,27253,27270,27287,27303,27320,27336,27353,27371,27386,27403,27420,27437,27453,27470,27487,27503,27521,27537,27554,27571,27587,27604,27620,27638,27654,27671,27687,27704,27721,27737,27755,27771,27788,27805,27821,27838,27855,27872,27889,27905,27922,27938,27955,27972,27988,28006,28022,28039,28055,28072,28089,28105,28122,28139,28156,28173,28189,28206,28223,28239,28256,28273,28290,28306,28323,28340,28357,28373,28390,28407,28424,28440,28457,28473,28491,28507,28524,28540,28557,28574,28591,28607,28624,28641,28657,28675,28691,28708,28724,28741,28758,28774,28792,28808,28825,28842,28859,28875,28892,28909,28926,28942,28958,28975,28992,29009,29026,29043,29059,29076,29093,29110,29126,29143,29159,29177,29193,29210,29227,29243,29260,29277,29294,29310,29327,29343,29361,29377,29394,29411,29427,29444,29460,29477,29494,29511,29527,29545,29561,29577,29595,29611,29628,29644,29661,29678,29695,29712,29728,29744,29762,29778,29795,29812,29828,29845,29862,29878,29895,29912,29929,29946,29962,29979,29996,30012,30030,30046,30062,30079,30096,30113,30130,30146,30163,30179,30197,30213,30230,30246,30263,30280,30297,30313,30331,30347,30363,30381,30397,30414,30430,30447,30464,30481,30498,30514,30531,30548,30565,30581,30598,30615,30632,30648,30665,30682,30699,30715,30731,30748,30765,30782,30799,30815,30832,30849,30865,30883,30899,30916,30932,30949,30966,30982,30999,31016,31032,31049,31066,31083,31100,31116,31133,31150,31167,31183,31200,31217,31234,31250,31267,31284,31301,31317,31334,31351,31367,31384,31401,31417,31434,31450,31468,31484,31501,31518,31534,31551,31568,31585,31602,31618,31635,31651,31669,31685,31701,31718,31735,31752,31768,31786,31802,31819,31835,31853,31869,31886,31903,31919,31935,31952,31969,31986,32003,32019,32036,32053,32070,32086,32103,32120,32136,32153,32170,32187,32204,32220,32237,32254,32270,32287,32304,32320,32338,32354,32371,32388,32404,32421,32438,32454,32471,32488,32504,32521,32538,32555,32571,32588,32605,32622,32638,32655,32672,32688,32706,32722,32739,32755,32772,32789,32805,32822,32839,32856,32873,32889,32906,32923,32939,32956,32973,32990,33006,33023,33040,33057,33073,33090,33107,33123,33139,33157,33173,33190,33206,33224,33241,33257,33274,33291,33307,33324,33340,33357,33374,33391,33408,33425,33441,33458,33475,33491,33508,33524,33542,33558,33574,33591,33608,33625,33641,33658,33675,33692,33708,33725,33742,33759,33775,33792,33809,33825,33842,33859,33876,33893,33910,33926,33942,33959,33976,33993,34010,34027,34043,34060,34076,34094,34110,34127,34143,34160,34177,34193,34210,34227,34243,34260,34277,34294,34311,34327,34344,34361,34378,34394,34412,34428,34445,34461,34478,34495,34511,34528,34544,34561,34578,34594,34612,34629,34645,34662,34679,34695,34712,34729,34745,34762,34779,34796,34812,34829,34846,34862,34880,34896,34914,34930,34946,34963,34980,34996,35013,35030,35046,35063,35081,35097,35114,35131,35147,35163,35181,35197,35214,35231,35247,35264,35281,35298,35315,35331,35347,35364,35381,35398,35415,35431,35448,35465,35481,35499,35515,35531,35548,35565,35582,35598,35615,35632,35649,35665,35682,35699,35716,35732,35749,35766,35782,35800,35816,35833,35849,35867,35883,35900,35916,35934,35950,35966,35983,36000,36016,36033,36050,36067,36083,36101,36117,36134,36150,36168,36184,36200,36217,36234,36250,36267,36284,36301,36317,36334,36351,36368,36385,36401,36418,36435,36451,36468,36485,36502,36519,36535,36552,36568,36585,36602,36618,36635,36653,36669,36685,36702,36719,36735,36753,36769,36787,36803,36819,36837,36852,36869,36886,36903,36919,36936,36954,36970,36987,37004,37020,37036,37054,37071,37087,37104,37121,37138,37154,37171,37187,37204,37221,37238,37254,37271,37287,37304,37321,37338,37355,37371,37388,37405,37422,37438,37455,37472,37488,37505,37522,37538,37556,37572,37589,37605,37623,37639,37656,37672,37689,37706,37723,37740,37756,37773,37789,37807,37823,37840,37856,37873,37890,37906,37923,37940,37956,37973,37990,38007,38024,38040,38057,38073,38091,38107,38124,38141,38158,38174,38191,38208,38224,38241,38258,38274,38292,38308,38325,38342,38358,38374,38392,38408,38425,38442,38459,38475,38492,38508,38526,38542,38558,38576,38592,38609,38626,38643,38659,38676,38692,38710,38726,38742,38759,38776,38793,38810,38827,38843,38860,38877,38894,38910,38927,38943,38960,38977,38994,39011,39027,39044,39061,39077,39095,39111,39127,39144,39161,39178,39194,39211,39228,39245,39261,39278,39295,39312,39328,39345,39362,39378,39395,39412,39429,39445,39462,39479,39496,39512,39529,39546,39562,39579,39596,39613,39629,39646,39662,39679,39696,39713,39729,39746,39763,39780,39797,39813,39829,39846,39863,39880,39897,39914,39930,39947,39963,39981,39997,40014,40031,40047,40064,40081,40098,40114,40131,40148,40164,40182,40198,40214,40232,40248,40265,40282,40299,40315,40332,40348,40365,40382,40398,40416,40432,40448,40465,40482,40499,40516,40532,40549,40566,40583,40599,40616,40633,40649,40666,40683,40700,40716,40733,40750,40767,40783,40800,40817,40834,40850,40867,40884,40900,40917,40934,40950,40967,40984,41001,41018,41034,41051,41067,41084,41101,41118,41135,41152,41168,41184,41201,41218,41234,41252,41268,41285,41301,41318,41335,41352,41369,41386,41402,41419,41435,41452,41469,41486,41502,41519,41536,41553,41569,41586,41603,41620,41636,41653,41669,41687,41703,41720,41737,41753,41770,41787,41804,41820,41837,41853,41871,41888,41904,41921,41937,41954,41971,41987,42004,42021,42038,42055,42071,42088,42104,42122,42138,42154,42172,42188,42205,42222,42239,42255,42272,42288,42306,42322,42339,42355,42372,42389,42405,42422,42439,42456,42472,42490,42506,42523,42540,42556,42573,42589,42606,42623,42640,42657,42674,42690,42707,42723,42740,42757,42773,42790,42807,42824,42841,42858,42874,42891,42907,42924,42940,42957,42974,42991,43008,43024,43041,43058,43074,43091,43108,43124,43142,43158,43175,43192,43208,43225,43241,43258,43275,43292,43309,43325,43342,43359,43375,43393,43409,43426,43443,43459,43476,43492,43509,43526,43543,43559,43576,43593,43610,43627,43643,43660,43676,43694,43710,43727,43744,43761,43777,43794,43811,43827,43844,43861,43877,43894,43911,43927,43944,43961,43977,43994,44011,44028,44044,44062,44078,44095,44112,44128,44145,44161,44179,44195,44211,44229,44245,44262,44279,44295,44312,44329,44345,44362,44379,44396,44413,44429,44446,44463,44480,44496,44513,44529,44546,44563,44579,44596,44613,44630,44647,44663,44680,44697,44714,44731,44747,44763,44780,44797,44814,44830,44848,44864,44881,44898,44914,44931,44947,44964,44981,44997,45014,45031,45048,45065,45081,45098,45115,45132,45148,45165,45182,45198,45215,45232,45249,45266,45282,45299,45316,45333,45349,45366,45382,45400,45416,45433,45449,45466,45483,45499,45517,45533,45549,45567,45584,45600,45616,45633,45651,45667,45683,45701,45717,45734,45750,45768,45784,45800,45817,45834,45851,45868,45884,45901,45918,45934,45952,45968,45984,46002,46018,46035,46052,46068,46085,46101,46118,46135,46152,46169,46185,46202,46219,46236,46253,46270,46285,46302,46319,46336,46353,46369,46386,46403,46419,46437,46453,46470,46487,46503,46520,46537,46554,46570,46587,46603,46621,46637,46654,46670,46687,46703,46720,46737,46754,46771,46787,46804,46821,46838,46854,46871,46887,46905,46921,46938,46955,46971,46988,47005,47022,47038,47055,47071,47088,47105,47122,47139,47155,47173,47189,47205,47223,47239,47256,47273,47289,47306,47323,47339,47356,47373,47390,47406,47423,47439,47456,47474,47490,47507,47523,47540,47556,47573,47590,47607,47623,47641,47658,47674,47691,47707,47725,47741,47757,47775,47791,47808,47825,47841,47858,47875,47891,47908,47925,47941,47958,47975,47992,48009,48025,48041,48058,48075,48092,48108,48126,48142,48159,48175,48192,48209,48226,48243,48259,48276,48292,48310,48327,48344,48360,48377,48393,48410,48427,48444,48460,48477,48494,48510,48527,48543,48560,48577,48594,48610,48628,48644,48661,48677,48694,48711,48727,48744,48761,48777,48794,48811,48828,48844,48861,48878,48895,48912,48928,48945,48962,48978,48995,49012,49028,49046,49062,49079,49096,49112,49129,49146,49162,49179,49196,49213,49229,49246,49263,49280,49296,49313,49330,49347,49363,49380,49396,49413,49430,49447,49463,49481,49497,49514,49530,49547,49564,49581,49597,49614,49631,49647,49664,49681,49698,49715,49731,49748,49765,49781,49797,49815,49831,49848,49865,49882,49899,49915,49932,49949,49966,49982,49999,50015,50034,50049,50066,50082,50099,50116,50133,50149,50165,50182,50199,50216,50233,50249,50266,50282,50299,50316,50333,50350,50367,50384,50400,50416,50434,50450,50467,50483,50500,50517,50534,50551,50567,50584,50601,50617,50634,50651,50667,50685,50701,50718,50735,50752,50768,50784,50802,50818,50835,50851,50869,50885,50902,50918,50936,50952,50969,50986,51002,51019,51036,51053,51069,51086,51103,51119,51136,51153,51169,51186,51203,51220,51236,51253,51269,51287,51303,51320,51337,51354,51371,51387,51403,51421,51437,51453,51470,51487,51503,51521,51537,51554,51571,51588,51604,51621,51638,51655,51671,51688,51704,51722,51738,51755,51771,51788,51805,51821,51839,51855,51872,51889,51905,51922,51938,51956,51973,51989,52005,52022,52039,52057,52072,52090,52106,52123,52140,52157,52173,52189,52206,52223,52240,52257,52274,52290,52307,52323,52341,52357,52373,52390,52407,52424,52440,52457,52474,52490,52507,52524,52541,52557,52574,52592,52608,52624,52642,52658,52674,52691,52708,52725,52742,52758,52775,52792,52808,52825,52842,52858,52875,52892,52909,52926,52942,52960,52976,52992,53009,53026,53043,53059,53076,53092,53109,53126,53143,53160,53176,53193,53209,53227,53243,53260,53277,53294,53310,53327,53344,53360,53377,53394,53411,53427,53444,53461,53478,53494,53512,53528,53544,53561,53578,53595,53611,53628,53644,53662,53678,53695,53711,53728,53745,53762,53778,53796,53812,53828,53846,53862,53879,53896,53912,53929,53946,53962,53979,53996,54013,54029,54046,54062,54080,54096,54113,54129,54147,54163,54180,54196,54213,54230,54247,54264,54280,54297,54313,54330,54347,54364,54381,54397,54414,54431,54447,54464,54481,54497,54514,54531,54548,54565,54581,54598,54614,54632,54648,54664,54681,54698,54715,54732,54748,54765,54782,54799,54815,54832,54849,54866,54882,54899,54916,54933,54949,54966,54983,54999,55016,55033,55049,55066,55083,55100,55116,55133,55150,55167,55184,55200,55216,55233,55250,55267,55284,55301,55317,55334,55351,55368,55384,55401,55417,55434,55451,55468,55485,55502,55519,55535,55552,55568,55584,55602,55618,55635,55652,55669,55686,55702,55719,55736,55752,55769,55785,55802,55819,55836,55852,55869,55886,55903,55919,55936,55953,55969,55986,56002,56020,56036,56053,56070,56086,56103,56120,56137,56153,56170,56186,56204,56220,56237,56254,56271,56287,56304,56320,56337,56354,56371,56388,56404,56421,56438,56454,56471,56488,56504,56521,56538,56554,56572,56589,56605,56622,56639,56655,56672,56688,56705,56722,56739,56755,56773,56789,56806,56823,56839,56856,56873,56889,56906,56923,56940,56956,56973,56990,57006,57023,57040,57057,57074,57091,57107,57124,57140,57157,57174,57191,57207,57224,57241,57258,57274,57291,57307,57325,57341,57357,57375,57391,57408,57425,57442,57458,57475,57492,57508,57525,57542,57559,57575,57592,57608,57625,57642,57658,57676,57692,57709,57725,57742,57759,57775,57793,57809,57826,57843,57859,57876,57893,57909,57927,57943,57960,57977,57994,58010,58026,58043,58060,58076,58093,58110,58127,58144,58161,58177,58194,58210,58228,58244,58261,58278,58295,58311,58328,58344,58361,58378,58395,58412,58428,58445,58462,58478,58495,58511,58528,58545,58561,58579,58596,58612,58629,58646,58662,58679,58696,58712,58729,58746,58763,58779,58795,58813,58829,58846,58863,58880,58897,58913,58930,58947,58963,58980,58996,59013,59030,59047,59063,59081,59097,59114,59130,59148,59164,59181,59198,59214,59230,59247,59264,59281,59297,59314,59331,59348,59365,59381,59398,59415,59431,59448,59465,59482,59499,59516,59532,59549,59566,59581,59599,59615,59632,59649,59666,59682,59699,59715,59732,59749,59766,59783,59799,59816,59832,59850,59866,59883,59900,59916,59933,59950,59967,59984,60000,60016,60034,60050,60067,60083,60100,60117,60134,60151,60167,60184,60201,60217,60234,60251,60267,60285,60301,60318,60335,60351,60368,60385,60402,60418,60435,60451,60469,60485,60502,60519,60536,60552,60569,60586,60602,60619,60636,60653,60669,60686,60702,60719,60736,60753,60770,60786,60803,60820,60836,60853,60870,60886,60903,60920,60937,60954,60971,60987,61003,61020,61037,61053,61071,61087,61104,61121,61137,61155,61171,61188,61204,61221,61238,61255,61271,61288,61305,61321,61338,61355,61371,61389,61406,61422,61439,61455,61472,61489,61505,61523,61539,61555,61573,61589,61605,61622,61639,61656,61673,61690,61706,61723,61740,61757,61773,61789,61807,61824,61840,61856,61873,61890,61907,61923,61940,61957,61974,61990,62007,62024,62040,62057,62074,62091,62108,62124,62141,62158,62175,62191,62208,62225,62241,62258,62274,62292,62308,62325,62342,62358,62375,62392,62409,62426,62442,62458,62475,62492,62508,62525,62543,62559,62576,62592,62609,62626,62642,62659,62676,62693,62709,62727,62743,62760,62776,62793,62810,62827,62843,62860,62877,62894,62910,62927,62943,62960,62977,62994,63011,63027,63045,63061,63078,63094,63111,63127,63144,63162,63178,63195,63211,63229,63245,63261,63278,63295,63311,63328,63345,63362,63379,63395,63412,63429,63446,63462,63479,63496,63512,63529,63546,63562,63579,63596,63613,63629,63646,63663,63680,63696,63714,63730,63747,63763,63780,63797,63813,63830,63847,63864,63881,63897,63914,63930,63947,63964,63981,63997,64014,64031,64047,64065,64081,64098,64114,64131,64148,64165,64181,64198,64215,64232,64248,64265,64282,64299,64316,64331,64349,64365,64382,64398,64415,64432,64449,64466,64483,64500,64516,64533,64549,64566,64583,64599,64617,64633,64650,64667,64684,64700,64716,64733,64750,64767,64783,64801,64818,64834,64851,64868,64885,64901,64918,64934,64951,64968,64984,65001,65018,65034,65051,65068,65084,65101,65118,65135,65152,65168,65184,65202,65218,65235,65252,65269,65285,65302,65319,65336,65352,65369,65385,65403,65419,65436,65452,65469,65486,65503,65520,65536,65552,65570,65586,65603,65619,65636,65653,65670,65687,65703,65720,65737,65753,65770,65787,65804,65820,65837,65854,65871,65887,65904,65921,65937,65954,65970,65988,66005,66021,66038,66055,66072,66088,66105,66122,66139,66155,66172,66189,66206,66222,66238,66255,66272,66289,66305,66322,66339,66356,66372,66389,66406,66422,66439,66455,66473,66490,66506,66523,66540,66556,66573,66590,66606,66623,66640,66657,66673,66690,66707,66723,66740,66757,66774,66790,66807,66823,66841,66857,66874,66890,66908,66924,66941,66958,66974,66991,67007,67024,67041,67058,67075,67092,67108,67125,67141,67158,67175,67192,67209,67225,67242,67259,67276,67292,67309,67325,67342,67359,67376,67393,67409,67426,67443,67459,67476,67493,67510,67527,67543,67560,67577,67593,67610,67627,67644,67660,67677,67694,67711,67727,67744,67761,67777,67794,67811,67828,67844,67861,67878,67895,67911,67928,67944,67961,67978,67995,68012,68028,68045,68062,68078,68095,68112,68128,68145,68162,68179,68196,68212,68229,68245,68262,68279,68295,68313,68329,68346,68363,68379,68396,68413,68430,68446,68463,68480,68497,68514,68530,68547,68564,68580,68597,68614,68630,68647,68664,68680,68697,68714,68730,68747,68764,68781,68798,68814,68830,68848,68864,68881,68898,68914,68932,68948,68965,68981,68998,69015,69031,69048,69065,69082,69098,69115,69132,69148,69165,69182,69199,69215,69232,69249,69265,69283,69299,69316,69332,69349,69366,69383,69399,69416,69433,69450,69466,69483,69500,69517,69533,69551,69567,69584,69600,69616,69634,69650,69667,69684,69701,69717,69734,69751,69768,69784,69800,69818,69834,69851,69868,69885,69901,69919,69934,69951,69968,69985,70002,70019,70035,70051,70069,70085,70102,70119,70136,70152,70169,70186,70202,70219,70236,70252,70269,70286,70303,70320,70336,70353,70369,70386,70403,70420,70437,70453,70470,70487,70504,70520,70536,70553,70570,70587,70604,70620,70637,70654,70670,70687,70704,70720,70738,70754,70770,70787,70804,70821,70838,70855,70871,70888,70904,70922,70938,70955,70971,70989,71005,71022,71039,71055,71072,71089,71106,71122,71139,71156,71172,71189,71206,71223,71240,71256,71273,71290,71307,71323,71339,71356,71373,71390,71407,71424,71440,71456,71473,71491,71506,71524,71540,71557,71574,71590,71607,71624,71641,71657,71674,71691,71708,71724,71741,71758,71774,71792,71808,71824,71842,71859,71875,71891,71908,71925,71941,71958,71975,71992,72009,72025,72042,72058,72075,72092,72109,72125,72143,72159,72176,72193,72209,72226,72242,72259,72276,72293,72309,72326,72343,72360,72376,72394,72410,72426,72444,72460,72477,72493,72511,72527,72544,72560,72577,72594,72610,72627,72644,72660,72678,72694,72710,72728,72744,72761,72778,72795,72812,72828,72845,72861,72878,72895,72912,72929,72945,72962,72979,72995,73012,73028,73046,73062,73079,73096,73112,73129,73146,73163,73179,73196,73212,73229,73246,73263,73280,73296,73313,73329,73347,73363,73380,73397,73413,73430,73447,73464,73481,73497,73514,73530,73547,73564,73581,73598,73614,73631,73647,73665,73681,73698,73714,73731,73748,73765,73781,73798,73815,73832,73848,73865,73882,73898,73915,73932,73949,73966,73982,73999,74016,74033,74049,74066,74083,74100,74116,74133,74149,74166,74183,74199,74216,74233,74250,74267,74283,74299,74316,74333,74350,74366,74383,74400,74417,74434,74450,74467,74484,74501,74517,74534,74551,74567,74584,74601,74618,74634,74651,74668,74685,74701,74718,74735,74752,74769,74785,74801,74818,74835,74851,74868,74885,74902,74919,74936,74953,74969,74986,75002,75019,75036,75052,75069,75086,75103,75120,75137,75153,75169,75186,75203,75220,75236,75253,75270,75287,75304,75320,75337,75354,75371,75387,75404,75420,75437,75454,75470,75487,75504,75521,75537,75554,75572,75588,75605,75621,75638,75655,75672,75688,75705,75722,75739,75755,75772,75789,75805,75822,75839,75855,75872,75889,75905,75922,75939,75956,75973,75989,76006,76023,76040,76056,76072,76089,76106,76123,76140,76156,76173,76190,76206,76223,76240,76258,76273,76291,76307,76324,76340,76357,76374,76390,76407,76424,76441,76457,76474,76491,76507,76524,76541,76558,76574,76591,76608,76625,76642,76658,76675,76692,76708,76725,76741,76759,76775,76792,76809,76826,76842,76859,76876,76892,76909,76925,76942,76959,76976,76993,77009,77026,77043,77060,77076,77093,77109,77127,77144,77160,77176,77193,77210,77227,77244,77260,77277,77294,77311,77327,77344,77360,77378,77394,77410,77428,77444,77461,77478,77495,77511,77528,77544,77562,77578,77595,77612,77628,77645,77662,77679,77695,77712,77728,77746,77762,77779,77795,77813,77829,77845,77862,77879,77895,77913,77929,77946,77963,77979,77996,78013,78030,78046,78063,78079,78096,78113,78130,78146,78163,78181,78197,78213,78230,78247,78264,78280,78297,78314,78331,78347,78364,78381,78398,78414,78431,78447,78464,78481,78498,78514,78532,78548,78565,78581,78598,78615,78632,78649,78666,78682,78699,78715,78732,78748,78765,78782,78799,78816,78832,78850,78866,78883,78899,78916,78933,78949,78967,78983,79000,79017,79033,79049,79066,79083,79100,79117,79133,79150,79167,79183,79200,79217,79234,79251,79267,79284,79301,79317,79334,79350,79367,79385,79401,79418,79434,79451,79468,79484,79502,79518,79535,79551,79568,79585,79602,79619,79635,79652,79668,79686,79702,79718,79735,79752,79769,79786,79802,79819,79836,79852,79869,79886,79903,79919,79936,79953,79970,79986,80003,80020,80037,80053,80070,80087,80104,80120,80137,80154,80171,80187,80204,80221,80238,80254,80271,80287,80305,80321,80338,80354,80372,80388,80404,80421,80438,80455,80471,80488,80505,80522,80538,80555,80572,80589,80605,80622,80639,80655,80672,80689,80706,80722,80739,80756,80772,80789,80806,80823,80839,80856,80873,80889,80906,80923,80940,80956,80974,80990,81007,81023,81040,81057,81074,81091,81107,81124,81141,81157,81174,81191,81208,81224,81241,81258,81274,81291,81308,81325,81342,81358,81374,81391,81408,81425,81441,81458,81475,81492,81509,81526,81542,81558,81575,81592,81609,81626,81642,81659,81676,81693,81710,81726,81743,81759,81776,81793,81809,81826,81842,81859,81876,81893,81909,81926,81943,81960,81976,81994,82010,82027,82044,82060,82077,82094,82111,82128,82144,82160,82177,82194,82210,82227,82244,82261,82277,82295,82311,82328,82345,82361,82378,82395,82412,82428,82445,82461,82478,82495,82512,82529,82546,82562,82579,82595,82613,82629,82646,82662,82680,82696,82713,82729,82746,82763,82779,82796,82813,82830,82847,82863,82880,82897,82913,82930,82946,82964,82980,82997,83014,83030,83047,83063,83080,83097,83114,83131,83147,83164,83181,83198,83214,83231,83248,83264,83281,83298,83314,83331,83348,83365,83381,83398,83415,83432,83448,83465,83482,83499,83515,83532,83549,83566,83582,83599,83616,83632,83649,83665,83682,83700,83716,83733,83750,83766,83782,83799,83816,83833,83850,83866,83884,83900,83917,83934,83950,83967,83983,84000,84017,84034,84050,84067,84084,84100,84118,84134,84151,84167,84184,84201,84218,84235,84252,84268,84285,84302,84318,84335,84351,84368,84385,84401,84419,84435,84452,84469,84486,84502,84519,84536,84553,84569,84586,84603,84619,84636,84652,84670,84686,84703,84720,84737,84753,84769,84786,84803,84820,84837,84853,84870,84886,84904,84920,84937,84954,84970,84987,85004,85021,85037,85054,85070,85088,85104,85121,85137,85154,85171,85188,85204,85221,85238,85255,85271,85288,85305,85322,85339,85355,85372,85389,85405,85422,85439,85456,85472,85489,85506,85522,85539,85556,85572,85589,85606,85623,85640,85656,85673,85689,85706,85723,85739,85756,85773,85790,85806,85823,85840,85857,85873,85890,85907,85924,85941,85957,85974,85991,86008,86024,86041,86058,86075,86091,86107,86124,86141,86158,86174,86191,86208,86225,86241,86258,86275,86292,86308,86326,86342,86359,86375,86392,86409,86426,86443,86459,86475,86492,86509,86526,86543,86559,86576,86592,86609,86627,86643,86660,86676,86693,86709,86727,86743,86760,86776,86793,86810,86826,86844,86861,86877,86894,86911,86927,86944,86961,86978,86994,87011,87027,87044,87061,87078,87094,87111,87128,87145,87161,87178,87195,87212,87228,87245,87261,87279,87295,87312,87329,87345,87362,87379,87395,87412,87429,87446,87462,87479,87496,87513,87533,87547,87563,87580,87596,87613,87630,87647,87663,87680,87697,87713,87730,87747,87764,87780,87797,87814,87831,87847,87864,87881,87898,87914,87931,87948,87964,87981,87998,88014,88031,88048,88065,88082,88098,88115,88131,88148,88165,88181,88199,88215,88232,88249,88266,88282,88298,88315,88332,88348,88365,88382,88399,88416,88432,88450,88466,88483,88499,88516,88533,88549,88566,88583,88600,88616,88634,88650,88667,88684,88700,88717,88733,88750,88767,88783,88800,88818,88834,88851,88867,88885,88901,88917,88934,88951,88967,88985,89001,89018,89034,89051,89068,89085,89101,89118,89134,89152,89168,89185,89202,89218,89236,89252,89269,89285,89303,89319,89335,89352,89369,89386,89403,89420,89436,89453,89470,89486,89503,89520,89536,89553,89570,89587,89603,89620,89637,89653,89671,89687,89704,89720,89737,89753,89770,89787,89804,89821,89837,89854,89870,89888,89904,89921,89937,89955,89971,89988,90004,90021,90039,90055,90072,90088,90105,90122,90139,90155,90171,90189,90205,90222,90239,90255,90273,90289,90306,90323,90339,90356,90372,90390,90406,90423,90439,90457,90473,90490,90506,90523,90540,90556,90573,90590,90607,90623,90641,90657,90673,90691,90707,90724,90740,90757,90774,90791,90807,90824,90840,90858,90874,90891,90908,90925,90941,90958,90975,90991,91008,91025,91041,91058,91075,91092,91109,91125,91142,91159,91175,91192,91209,91225,91243,91259,91275,91292,91309,91325,91343,91359,91376,91393,91409,91426,91443,91459,91476,91493,91510,91526,91543,91560,91577,91594,91610,91627,91643,91660,91677,91694,91710,91727,91744,91761,91778,91794,91811,91828,91844,91861,91878,91895,91911,91928,91945,91962,91978,91995,92012,92029,92045,92061,92079,92095,92112,92129,92146,92162,92179,92195,92212,92229,92245,92263,92279,92296,92313,92330,92346,92362,92379,92396,92413,92429,92446,92463,92480,92497,92514,92530,92547,92564,92580,92597,92614,92631,92647,92664,92681,92697,92714,92731,92748,92764,92781,92797,92814,92831,92848,92864,92882,92898,92915,92931,92949,92965,92982,92998,93015,93031,93049,93065,93082,93099,93115,93132,93148,93166,93182,93199,93215,93232,93249,93266,93282,93299,93316,93332,93350,93366,93383,93400,93416,93433,93450,93466,93483,93500,93517,93533,93550,93567,93584,93601,93617,93634,93650,93668,93684,93701,93717,93735,93751,93768,93785,93801,93818,93835,93852,93868,93885,93902,93918,93935,93952,93968,93985,94002,94018,94036,94052,94069,94085,94102,94119,94136,94152,94169,94186,94202,94219,94236,94253,94269,94286,94303,94320,94336,94354,94369,94387,94404,94420,94437,94453,94471,94487,94504,94520,94538,94554,94571,94587,94604,94621,94637,94654,94671,94688,94704,94721,94737,94754,94771,94788,94804,94822,94838,94855,94871,94889,94905,94922,94939,94956,94972,94988,95005,95023,95038,95056,95072,95090,95106,95123,95139,95156,95172,95189,95206,95222,95239,95257,95273,95290,95307,95323,95340,95357,95374,95390,95407,95424,95440,95457,95474,95490,95507,95524,95541,95557,95574,95591,95608,95624,95641,95657,95674,95691,95707,95725,95741,95758,95775,95791,95808,95825,95842,95858,95875,95891,95909,95925,95942,95959,95976,95992,96009,96025,96042,96059,96076,96093,96109,96126,96143,96160,96176,96192,96209,96226,96243,96260,96276,96293,96310,96327,96343,96360,96376,96393,96410,96427,96444,96461,96478,96494,96510,96527,96544,96561,96577,96595,96612,96627,96645,96662,96677,96694,96711,96728,96745,96762,96778,96795,96812,96828,96845,96861,96879,96895,96912,96929,96945,96962,96979,96996,97012,97029,97046,97063,97079,97096,97113,97130,97146,97163,97180,97196,97213,97229,97247,97263,97280,97296,97313,97330,97347,97364,97381,97397,97413,97431,97447,97464,97481,97497,97514,97531,97548,97564,97581,97598,97614,97631,97648,97665,97681,97698,97715,97731,97748,97765,97782,97798,97815,97832,97849,97865,97882,97899,97915,97932,97949,97966,97982,97999,98015,98033,98049,98066,98083,98099,98116,98133,98150,98166,98183,98200,98217,98233,98250,98267,98283,98300,98317,98334,98351,98367,98384,98401,98418,98433,98451,98468,98484,98501,98518,98534,98550,98568,98585,98601,98618,98634,98652,98668,98685,98701,98718,98734,98752,98768,98785,98802,98818,98835,98852,98869,98885,98902,98919,98935,98953,98969,98986,99003,99020,99036,99053,99069,99086,99103,99120,99136,99153,99170,99186,99203,99220,99237,99253,99271,99287,99304,99320,99337,99353,99370,99387,99404,99421,99437,99454,99472,99488,99504,99521,99537,99554,99571,99587,99605,99622,99638,99655,99671,99689,99705,99722,99738,99756,99772,99789,99805,99822,99839,99856,99873,99889,99906,99923,99939,99955,99973,99989,100006,100023,100040,100057,100073,100090,100106,100124,100140,100157,100173,100190,100206,100223,100240,100257,100273,100290,100307,100324,100341,100357,100374,100390,100408,100424,100441,100457,100474,100492,100508,100525,100542,100558,100574,100591,100608,100624,100642,100658,100675,100692,100708,100725,100742,100759,100775,100792,100809,100825,100842,100859,100876,100892,100909,100926,100943,100959,100976,100993,101009,101026,101043,101060,101076,101093,101110,101126,101144,101160,101177,101193,101210,101226,101244,101260,101277,101294,101310,101327,101344,101361,101378,101394,101411,101428,101444,101461,101478,101495,101511,101528,101545,101562,101579,101595,101612,101629,101645,101662,101679,101695,101712,101729,101746,101763,101779,101796,101813,101829,101846,101863,101879,101896,101913,101930,101947,101963,101979,101997,102013,102029,102046,102064,102080,102097,102114,102130,102147,102163,102181,102197,102214,102230,102247,102264,102280,102298,102314,102331,102348,102365,102381,102397,102414,102431,102448,102465,102481,102498,102515,102532,102549,102565,102581,102598,102615,102631,102649,102665,102682,102699,102715,102733,102749,102766,102782,102799,102816,102833,102850,102866,102883,102900,102917,102933,102950,102966,102984,103000,103016,103033,103050,103066,103083,103100,103117,103133,103150,103167,103184,103201,103217,103234,103251,103268,103284,103301,103318,103334,103351,103368,103385,103401,103418,103435,103452,103468,103485,103502,103518,103535,103552,103569,103585,103602,103619,103636,103652,103669,103686,103702,103719,103736,103752,103769,103786,103803,103819,103836,103853,103870,103886,103903,103919,103936,103953,103970,103986,104004,104020,104037,104053,104070,104088,104103,104120,104137,104154,104170,104188,104204,104221,104237,104254,104271,104288,104305,104322,104338,104355,104372,104388,104405,104421,104438,104455,104471,104489,104505,104522,104538,104555,104572,104589,104605,104622,104639,104655,104673,104689,104706,104722,104739,104756,104772,104789,104807,104822,104840,104856,104873,104890,104906,104923,104940,104957,104974,104990,105007,105024,105040,105057,105074,105090,105107,105124,105141,105158,105175,105190,105208,105224,105241,105257,105275,105291,105308,105324,105342,105358,105375,105392,105409,105425,105441,105458,105475,105492,105509,105525,105542,105559,105576,105592,105609,105625,105642,105659,105676,105692,105709,105726,105743,105760,105776,105792,105809,105826,105843,105860,105876,105894,105910,105927,105943,105960,105976,105993,106010,106027,106044,106060,106077,106094,106111,106127,106144,106161,106177,106194,106211,106228,106245,106261,106278,106295,106312,106328,106344,106362,106378,106395,106412,106428,106445,106462,106479,106495,106512,106529,106545,106562,106578,106595,106612,106629,106646,106663,106679,106696,106712,106730,106746,106763,106779,106797,106813,106830,106847,106863,106880,106897,106913,106930,106947,106964,106981,106997,107014,107031,107047,107064,107081,107097,107114,107131,107148,107164,107181,107198,107214,107231,107248,107265,107281,107298,107315,107331,107348,107365,107382,107398,107415,107432,107449,107466,107482,107499,107516,107533,107549,107565,107582,107599,107616,107633,107649,107666,107683,107699,107716,107733,107750,107767,107783,107800,107817,107833,107850,107867,107883,107900,107917,107934,107950,107967,107984,108001,108018,108034,108051,108067,108084,108101,108118,108134,108151,108168,108185,108201,108218,108235,108251,108268,108285,108302,108318,108335,108352,108369,108385,108402,108419,108436,108452,108469,108486,108502,108519,108536,108552,108569,108586,108603,108620,108636,108653,108670,108686,108703,108719,108736,108753,108769,108787,108803,108820,108837,108854,108871,108886,108904,108921,108937,108954,108971,108988,109004,109021,109038,109054,109071,109087,109105,109121,109138,109154,109171,109189,109205,109222,109238,109255,109271,109288,109306,109322,109338,109356,109372,109388,109405,109422,109439,109456,109473,109489,109506,109523,109540,109556,109573,109589,109606,109623,109639,109656,109673,109690,109706,109724,109740,109757,109773,109790,109807,109823,109840,109857,109874,109890,109907,109923,109941,109957,109974,109991,110008,110024,110041,110058,110075,110092,110108,110125,110141,110158,110175,110192,110208,110225,110242,110258,110275,110292,110308,110325,110342,110359,110375,110392,110409,110425,110443,110459,110476,110492,110510,110526,110543,110560,110576,110593,110610,110627,110643,110660,110677,110694,110711,110727,110744,110760,110777,110794,110810,110827,110844,110860,110878,110895,110911,110928,110944,110961,110978,110994,111011,111028,111044,111061,111078,111095,111112,111129,111145,111162,111179,111196,111212,111229,111245,111262,111279,111295,111313,111329,111346,111363,111380,111396,111413,111429,111446,111463,111479,111497,111513,111530,111547,111563,111579,111597,111613,111630,111647,111663,111681,111697,111714,111731,111747,111763,111781,111798,111814,111830,111847,111864,111881,111898,111914,111931,111948,111965,111981,111997,112014,112031,112048,112065,112082,112099,112115,112131,112149,112165,112182,112199,112215,112232,112249,112265,112282,112299,112316,112332,112349,112366,112383,112400,112416,112432,112449,112466,112482,112499,112517,112534,112550,112567,112583,112600,112617,112633,112650,112667,112683,112700,112717,112733,112751,112767,112784,112801,112817,112834,112850,112867,112884,112901,112917,112935,112951,112968,112985,113002,113019,113035,113051,113068,113085,113101,113118,113135,113152,113169,113186,113202,113219,113236,113252,113269,113286,113303,113319,113336,113353,113370,113386,113403,113419,113437,113453,113470,113486,113503,113519,113536,113553,113570,113587,113603,113620,113637,113654,113670,113687,113703,113721,113738,113754,113771,113787,113804,113821,113838,113855,113871,113888,113905,113922,113938,113955,113972,113988,114005,114022,114038,114055,114071,114089,114106,114122,114139,114155,114172,114189,114205,114222,114239,114255,114273,114289,114306,114322,114339,114357],"hit":[null],"x":[-1.751700680272109,-1.751700680272109,-1.751700680272109,-1.751700680272109,-1.751700680272109,-1.751700680272109,-1.751700680272109,-1.751700680272109,-1.751700680272109,-1.751700680272109,-1.751700680272109,-1.751700680272109,-1.751700680272109,-1.751700680272109,-1.751700680272109,-1.751700680272109,-1.751700680272109,-1.751700680272109,-1.751700680272109,-1.751700680272109,-1.751700680272109,-1.751700680272109,-1.751700680272109,-1.751700680272109,-1.751700680272109,-1.751700680272109,-1.751700680272109,-1.751700680272109,-1.751700680272109,-1.751700680272109,-1.751700680272109,-1.751700680272109,-1.751700680272109,-1.751700680272109,-1.751700680272109,-1.751700680272109,-0.04421768707482993,-0.027210884353741496,-0.006802721088435374,0.006802721088435374,0.030612244897959183,0.05782312925170068,0.0782312925170068,0.11564625850340136,0.1326530612244898,0.14965986394557823,0.1598639455782313,0.17006802721088435,0.18027210884353742,0.1870748299319728,0.19047619047619047,0.19047619047619047,0.19047619047619047,0.19047619047619047,0.19047619047619047,0.19047619047619047,0.19047619047619047,0.19047619047619047,0.19047619047619047,0.19047619047619047,0.19047619047619047,0.19047619047619047,0.19047619047619047,0.19047619047619047,0.19047619047619047,0.19047619047619047,0.19047619047619047,0.19047619047619047,0.19047619047619047,0.19047619047619047,0.19047619047619047,0.19387755102040816,0.19727891156462585,0.19727891156462585,0.20408163265306123,0.20408163265306123,0.20748299319727892,0.20748299319727892,0.2108843537414966,0.2108843537414966,0.2108843537414966,0.2108843537414966,0.2108843537414966,0.2108843537414966,0.2108843537414966,0.22448979591836735,0.2755102040816326,0.3401360544217687,0.36394557823129253,0.3741496598639456,0.3741496598639456,0.38095238095238093,0.38095238095238093,0.38095238095238093,0.38095238095238093,0.38095238095238093,0.38095238095238093,0.38095238095238093,0.37755102040816324,0.37755102040816324,0.37755102040816324,0.3741496598639456,0.3673469387755102,0.3673469387755102,0.36054421768707484,0.36054421768707484,0.35714285714285715,0.35714285714285715,0.35714285714285715,0.35714285714285715,0.35714285714285715,0.35714285714285715,0.35714285714285715,0.35714285714285715,0.35714285714285715,0.35714285714285715,0.35714285714285715,0.35714285714285715,0.35714285714285715,0.35714285714285715,0.35714285714285715,0.35714285714285715,0.35714285714285715,0.35714285714285715,0.35714285714285715,0.35714285714285715,0.35714285714285715,0.35714285714285715,0.35714285714285715,0.35714285714285715,0.35714285714285715,0.35714285714285715,0.35714285714285715,0.35714285714285715,0.35714285714285715,0.35714285714285715,0.35714285714285715,0.35714285714285715,0.35714285714285715,0.35714285714285715,0.35714285714285715,0.35714285714285715,0.35714285714285715,0.35714285714285715,0.35714285714285715,0.35714285714285715,0.35714285714285715,0.35714285714285715,0.35714285714285715,0.35714285714285715,0.35714285714285715,0.35714285714285715,0.35714285714285715,0.35714285714285715,0.35714285714285715,0.35714285714285715,0.35714285714285715,0.35714285714285715,0.35714285714285715,0.35714285714285715,0.35714285714285715,0.35714285714285715,0.35714285714285715,0.35714285714285715,0.35714285714285715,0.35714285714285715,0.35714285714285715,0.35714285714285715,0.35714285714285715,0.35714285714285715,0.35714285714285715,0.35714285714285715,0.35714285714285715,0.35714285714285715,0.35714285714285715,0.35714285714285715,0.35714285714285715,0.35714285714285715,0.35714285714285715,0.35714285714285715,0.35714285714285715,0.35714285714285715,0.35714285714285715,0.35714285714285715,0.35714285714285715,0.35714285714285715,0.35714285714285715,0.35714285714285715,0.35714285714285715,0.35714285714285715,0.35714285714285715,0.35714285714285715,0.35714285714285715,0.35714285714285715,0.35714285714285715,0.35714285714285715,0.35714285714285715,0.35714285714285715,0.35714285714285715,0.36054421768707484,0.37755102040816324,0.3979591836734694,0.42857142857142855,0.46938775510204084,0.5136054421768708,0.5578231292517006,0.6020408163265306,0.6394557823129252,0.6632653061224489,0.6700680272108843,0.6700680272108843,0.6700680272108843,0.6700680272108843,0.6700680272108843,0.6700680272108843,0.6700680272108843,0.6700680272108843,0.6700680272108843,0.6700680272108843,0.6700680272108843,0.6700680272108843,0.6700680272108843,0.6700680272108843,0.6700680272108843,0.6700680272108843,0.6700680272108843,0.6700680272108843,0.6700680272108843,0.6700680272108843,0.6700680272108843,0.6700680272108843,0.6700680272108843,0.6700680272108843,0.6700680272108843,0.6700680272108843,0.6700680272108843,0.6700680272108843,0.6700680272108843,0.6700680272108843,0.6700680272108843,0.6700680272108843,0.6700680272108843,0.6700680272108843,0.6700680272108843,0.6700680272108843,0.6700680272108843,0.6700680272108843,0.6700680272108843,0.6700680272108843,0.6700680272108843,0.6700680272108843,0.6700680272108843,0.6700680272108843,0.6700680272108843,0.6700680272108843,0.6700680272108843,0.6700680272108843,0.6700680272108843,0.6700680272108843,0.6700680272108843,0.6700680272108843,0.6700680272108843,0.6700680272108843,0.6700680272108843,0.6700680272108843,0.6700680272108843,0.6700680272108843,0.6700680272108843,0.6700680272108843,0.6700680272108843,0.6700680272108843,0.6700680272108843,0.6700680272108843,0.6700680272108843,0.6700680272108843,0.6700680272108843,0.6700680272108843,0.6700680272108843,0.6700680272108843,0.6700680272108843,0.6700680272108843,0.6700680272108843,0.6700680272108843,0.6700680272108843,0.6700680272108843,0.6700680272108843,0.6700680272108843,0.6700680272108843,0.6700680272108843,0.6700680272108843,0.6700680272108843,0.6700680272108843,0.6700680272108843,0.6700680272108843,0.6700680272108843,0.6700680272108843,0.6700680272108843,0.6700680272108843,0.6700680272108843,0.6700680272108843,0.6700680272108843,0.6700680272108843,0.6700680272108843,0.6700680272108843,0.6700680272108843,0.6700680272108843,0.6700680272108843,0.6700680272108843,0.6700680272108843,0.6700680272108843,0.6700680272108843,0.6700680272108843,0.6700680272108843,0.6700680272108843,0.6700680272108843,0.6700680272108843,0.6700680272108843,0.6700680272108843,0.6700680272108843,0.6700680272108843,0.6700680272108843,0.6700680272108843,0.6700680272108843,0.6700680272108843,0.6700680272108843,0.6700680272108843,0.6700680272108843,0.6700680272108843,0.6700680272108843,0.6700680272108843,0.6700680272108843,0.6700680272108843,0.6700680272108843,0.6700680272108843,0.6700680272108843,0.6700680272108843,0.6700680272108843,0.6700680272108843,0.6700680272108843,0.6700680272108843,0.6700680272108843,0.6700680272108843,0.6700680272108843,0.6700680272108843,0.6700680272108843,0.6700680272108843,0.6700680272108843,0.6700680272108843,0.6700680272108843,0.6700680272108843,0.6700680272108843,0.6700680272108843,0.6700680272108843,0.6700680272108843,0.6700680272108843,0.6700680272108843,0.6700680272108843,0.6700680272108843,0.6700680272108843,0.6700680272108843,0.6700680272108843,0.6700680272108843,0.6700680272108843,0.6700680272108843,0.6700680272108843,0.6700680272108843,0.6700680272108843,0.6700680272108843,0.6700680272108843,0.6700680272108843,0.6700680272108843,0.6700680272108843,0.6700680272108843,0.6700680272108843,0.6700680272108843,0.6700680272108843,0.6700680272108843,0.6700680272108843,0.6700680272108843,0.6700680272108843,0.6700680272108843,0.6700680272108843,0.6700680272108843,0.6700680272108843,0.6700680272108843,0.6700680272108843,0.6700680272108843,0.6700680272108843,0.6700680272108843,0.6700680272108843,0.6700680272108843,0.6700680272108843,0.6700680272108843,0.6700680272108843,0.6700680272108843,0.6700680272108843,0.6700680272108843,0.6700680272108843,0.6700680272108843,0.6700680272108843,0.6700680272108843,0.6700680272108843,0.6700680272108843,0.6700680272108843,0.6700680272108843,0.6700680272108843,0.6700680272108843,0.6700680272108843,0.6700680272108843,0.6700680272108843,0.6700680272108843,0.6700680272108843,0.6700680272108843,0.6700680272108843,0.6700680272108843,0.6700680272108843,0.6700680272108843,0.6700680272108843,0.6700680272108843,0.6700680272108843,0.6700680272108843,0.6700680272108843,0.6700680272108843,0.6700680272108843,0.6700680272108843,0.6700680272108843,0.6700680272108843,0.6700680272108843,0.6700680272108843,0.6700680272108843,0.6700680272108843,0.6700680272108843,0.6700680272108843,0.6700680272108843,0.6700680272108843,0.6700680272108843,0.6700680272108843,0.6700680272108843,0.6700680272108843,0.6700680272108843,0.6700680272108843,0.6700680272108843,0.6700680272108843,0.6700680272108843,0.6700680272108843,0.6700680272108843,0.6700680272108843,0.6700680272108843,0.6700680272108843,0.6700680272108843,0.6700680272108843,0.6700680272108843,0.6700680272108843,0.6700680272108843,0.6700680272108843,0.6700680272108843,0.6700680272108843,0.6700680272108843,0.6700680272108843,0.6700680272108843,0.6700680272108843,0.6700680272108843,0.6700680272108843,0.6700680272108843,0.6700680272108843,0.6700680272108843,0.6700680272108843,0.6700680272108843,0.6700680272108843,0.6700680272108843,0.6700680272108843,0.6700680272108843,0.6700680272108843,0.6700680272108843,0.6700680272108843,0.6700680272108843,0.6700680272108843,0.6700680272108843,0.6700680272108843,0.6700680272108843,0.6700680272108843,0.6700680272108843,0.6700680272108843,0.6700680272108843,0.6700680272108843,0.6700680272108843,0.6700680272108843,0.6700680272108843,0.6700680272108843,0.6700680272108843,0.6700680272108843,0.6700680272108843,0.6700680272108843,0.6700680272108843,0.6700680272108843,0.6700680272108843,0.6700680272108843,0.6700680272108843,0.6700680272108843,0.6700680272108843,0.6700680272108843,0.6700680272108843,0.6700680272108843,0.6700680272108843,0.6700680272108843,0.6700680272108843,0.6700680272108843,0.6700680272108843,0.6700680272108843,0.6700680272108843,0.6700680272108843,0.6700680272108843,0.6700680272108843,0.6700680272108843,0.6700680272108843,0.6700680272108843,0.6700680272108843,0.6700680272108843,0.6700680272108843,0.6700680272108843,0.6700680272108843,0.6700680272108843,0.6700680272108843,0.6700680272108843,0.6700680272108843,0.6700680272108843,0.6700680272108843,0.6700680272108843,0.6700680272108843,0.6700680272108843,0.6700680272108843,0.6700680272108843,0.6700680272108843,0.6700680272108843,0.6700680272108843,0.6700680272108843,0.6700680272108843,0.6700680272108843,0.6700680272108843,0.6700680272108843,0.6700680272108843,0.6700680272108843,0.6700680272108843,0.6700680272108843,0.6700680272108843,0.6700680272108843,0.6700680272108843,0.6700680272108843,0.6700680272108843,0.6700680272108843,0.6700680272108843,0.6700680272108843,0.6700680272108843,0.6700680272108843,0.6700680272108843,0.6700680272108843,0.6700680272108843,0.6700680272108843,0.6700680272108843,0.6700680272108843,0.6700680272108843,0.6700680272108843,0.6700680272108843,0.6700680272108843,0.6700680272108843,0.6700680272108843,0.6700680272108843,0.6700680272108843,0.6700680272108843,0.6700680272108843,0.6700680272108843,0.6700680272108843,0.6700680272108843,0.6700680272108843,0.6700680272108843,0.6700680272108843,0.6700680272108843,0.6700680272108843,0.6700680272108843,0.6700680272108843,0.6700680272108843,0.6700680272108843,0.6700680272108843,0.6700680272108843,0.6700680272108843,0.6700680272108843,0.6700680272108843,0.6700680272108843,0.6700680272108843,0.6700680272108843,0.6700680272108843,0.6700680272108843,0.6700680272108843,0.6700680272108843,0.6700680272108843,0.6700680272108843,0.6700680272108843,0.6700680272108843,0.6700680272108843,0.6700680272108843,0.6700680272108843,0.6700680272108843,0.6700680272108843,0.6700680272108843,0.6700680272108843,0.6700680272108843,0.6700680272108843,0.6700680272108843,0.6700680272108843,0.6700680272108843,0.6700680272108843,0.6700680272108843,0.6700680272108843,0.6700680272108843,0.6700680272108843,0.6700680272108843,0.6700680272108843,0.6700680272108843,0.6700680272108843,0.6700680272108843,0.6700680272108843,0.6700680272108843,0.6700680272108843,0.6700680272108843,0.6700680272108843,0.6700680272108843,0.6700680272108843,0.6700680272108843,0.6700680272108843,0.6700680272108843,0.6700680272108843,0.6700680272108843,0.6700680272108843,0.6700680272108843,0.6700680272108843,0.6700680272108843,0.6700680272108843,0.6700680272108843,0.6700680272108843,0.6700680272108843,0.6700680272108843,0.6700680272108843,0.6700680272108843,0.6700680272108843,0.6700680272108843,0.6700680272108843,0.6700680272108843,0.6700680272108843,0.6700680272108843,0.6700680272108843,0.6700680272108843,0.6700680272108843,0.6700680272108843,0.6700680272108843,0.6700680272108843,0.6700680272108843,0.6700680272108843,0.6700680272108843,0.6700680272108843,0.6700680272108843,0.6700680272108843,0.6700680272108843,0.6700680272108843,0.6700680272108843,0.6700680272108843,0.6700680272108843,0.6700680272108843,0.6700680272108843,0.6700680272108843,0.6700680272108843,0.6700680272108843,0.6700680272108843,0.6700680272108843,0.6700680272108843,0.6700680272108843,0.6700680272108843,0.6700680272108843,0.6700680272108843,0.6700680272108843,0.6700680272108843,0.6700680272108843,0.6700680272108843,0.6700680272108843,0.6700680272108843,0.6700680272108843,0.6700680272108843,0.6700680272108843,0.6700680272108843,0.6700680272108843,0.6700680272108843,0.6700680272108843,0.6700680272108843,0.6700680272108843,0.6700680272108843,0.6700680272108843,0.6700680272108843,0.6700680272108843,0.6700680272108843,0.6700680272108843,0.6700680272108843,0.6700680272108843,0.6700680272108843,0.6700680272108843,0.6700680272108843,0.6700680272108843,0.6700680272108843,0.6700680272108843,0.6700680272108843,0.6700680272108843,0.6700680272108843,0.6700680272108843,0.6700680272108843,0.6700680272108843,0.6700680272108843,0.6700680272108843,0.6700680272108843,0.6700680272108843,0.6700680272108843,0.6700680272108843,0.6700680272108843,0.6700680272108843,0.6700680272108843,0.6700680272108843,0.6700680272108843,0.6700680272108843,0.6700680272108843,0.6700680272108843,0.6700680272108843,0.6700680272108843,0.6700680272108843,0.6700680272108843,0.6700680272108843,0.6700680272108843,0.6700680272108843,0.6700680272108843,0.6700680272108843,0.6700680272108843,0.6700680272108843,0.6700680272108843,0.6700680272108843,0.6700680272108843,0.6700680272108843,0.6700680272108843,0.6700680272108843,0.6700680272108843,0.6700680272108843,0.6700680272108843,0.6700680272108843,0.6700680272108843,0.6700680272108843,0.6700680272108843,0.6700680272108843,0.6700680272108843,0.6700680272108843,0.6700680272108843,0.6700680272108843,0.6700680272108843,0.6700680272108843,0.6700680272108843,0.6700680272108843,0.6700680272108843,0.6700680272108843,0.6700680272108843,0.6700680272108843,0.6700680272108843,0.6700680272108843,0.6700680272108843,0.6700680272108843,0.6700680272108843,0.6700680272108843,0.6700680272108843,0.6700680272108843,0.6700680272108843,0.6700680272108843,0.6700680272108843,0.6700680272108843,0.6700680272108843,0.6700680272108843,0.6700680272108843,0.6700680272108843,0.6700680272108843,0.6700680272108843,0.6700680272108843,0.6700680272108843,0.6700680272108843,0.6700680272108843,0.6700680272108843,0.6700680272108843,0.6700680272108843,0.6700680272108843,0.6700680272108843,0.6700680272108843,0.6700680272108843,0.6700680272108843,0.6700680272108843,0.6700680272108843,0.6700680272108843,0.6700680272108843,0.6700680272108843,0.6700680272108843,0.6700680272108843,0.6700680272108843,0.6700680272108843,0.6700680272108843,0.6700680272108843,0.6700680272108843,0.6700680272108843,0.6700680272108843,0.6700680272108843,0.6700680272108843,0.6700680272108843,0.6700680272108843,0.6700680272108843,0.6700680272108843,0.6700680272108843,0.6700680272108843,0.6700680272108843,0.6700680272108843,0.6700680272108843,0.6700680272108843,0.6700680272108843,0.6700680272108843,0.6700680272108843,0.6700680272108843,0.6700680272108843,0.6700680272108843,0.6700680272108843,0.6700680272108843,0.6700680272108843,0.6700680272108843,0.6700680272108843,0.6700680272108843,0.6700680272108843,0.6700680272108843,0.6700680272108843,0.6700680272108843,0.6700680272108843,0.6700680272108843,0.6700680272108843,0.6700680272108843,0.6700680272108843,0.6700680272108843,0.6700680272108843,0.6700680272108843,0.6700680272108843,0.6700680272108843,0.6700680272108843,0.6700680272108843,0.6700680272108843,0.6700680272108843,0.6700680272108843,0.6700680272108843,0.6700680272108843,0.6700680272108843,0.6700680272108843,0.6700680272108843,0.6700680272108843,0.6700680272108843,0.6700680272108843,0.6700680272108843,0.6700680272108843,0.6700680272108843,0.6700680272108843,0.6700680272108843,0.6700680272108843,0.6700680272108843,0.6700680272108843,0.6700680272108843,0.6700680272108843,0.6700680272108843,0.6700680272108843,0.6700680272108843,0.6700680272108843,0.6700680272108843,0.6700680272108843,0.6700680272108843,0.6700680272108843,0.6700680272108843,0.6700680272108843,0.6700680272108843,0.6700680272108843,0.6700680272108843,0.6700680272108843,0.6700680272108843,0.6700680272108843,0.6700680272108843,0.6700680272108843,0.6700680272108843,0.6700680272108843,0.6700680272108843,0.6700680272108843,0.6700680272108843,0.6700680272108843,0.6700680272108843,0.6700680272108843,0.6700680272108843,0.6700680272108843,0.6700680272108843,0.6700680272108843,0.6700680272108843,0.6700680272108843,0.6700680272108843,0.6700680272108843,0.6700680272108843,0.6700680272108843,0.6700680272108843,0.6700680272108843,0.6700680272108843,0.6700680272108843,0.6700680272108843,0.6700680272108843,0.6700680272108843,0.6700680272108843,0.6700680272108843,0.6700680272108843,0.6700680272108843,0.6700680272108843,0.6700680272108843,0.6700680272108843,0.6700680272108843,0.6700680272108843,0.6700680272108843,0.6700680272108843,0.6700680272108843,0.6700680272108843,0.6700680272108843,0.6700680272108843,0.6700680272108843,0.6700680272108843,0.6700680272108843,0.6700680272108843,0.6700680272108843,0.6700680272108843,0.6700680272108843,0.6700680272108843,0.6700680272108843,0.6700680272108843,0.6700680272108843,0.6700680272108843,0.6700680272108843,0.6700680272108843,0.6700680272108843,0.6700680272108843,0.6700680272108843,0.6700680272108843,0.6700680272108843,0.6700680272108843,0.6700680272108843,0.6700680272108843,0.6700680272108843,0.6700680272108843,0.6700680272108843,0.6700680272108843,0.6700680272108843,0.6700680272108843,0.6700680272108843,0.6700680272108843,0.6700680272108843,0.6700680272108843,0.6700680272108843,0.6700680272108843,0.6700680272108843,0.6700680272108843,0.6700680272108843,0.6700680272108843,0.6700680272108843,0.6700680272108843,0.6700680272108843,0.6700680272108843,0.6700680272108843,0.6700680272108843,0.6700680272108843,0.6700680272108843,0.6700680272108843,0.6700680272108843,0.6700680272108843,0.6700680272108843,0.6700680272108843,0.6700680272108843,0.6700680272108843,0.6700680272108843,0.6700680272108843,0.6700680272108843,0.6700680272108843,0.6700680272108843,0.6700680272108843,0.6700680272108843,0.6700680272108843,0.6700680272108843,0.6700680272108843,0.6700680272108843,0.6700680272108843,0.6700680272108843,0.6700680272108843,0.6700680272108843,0.6700680272108843,0.6700680272108843,0.6700680272108843,0.6700680272108843,0.6700680272108843,0.6700680272108843,0.6700680272108843,0.6700680272108843,0.6700680272108843,0.6700680272108843,0.6700680272108843,0.6700680272108843,0.6700680272108843,0.6700680272108843,0.6700680272108843,0.6700680272108843,0.6700680272108843,0.6700680272108843,0.6700680272108843,0.6700680272108843,0.6700680272108843,0.6700680272108843,0.6700680272108843,0.6700680272108843,0.6700680272108843,0.6700680272108843,0.6700680272108843,0.6700680272108843,0.6700680272108843,0.6700680272108843,0.6700680272108843,0.6700680272108843,0.6700680272108843,0.6700680272108843,0.6700680272108843,0.6700680272108843,0.6700680272108843,0.6700680272108843,0.6700680272108843,0.6700680272108843,0.6700680272108843,0.6700680272108843,0.6700680272108843,0.6700680272108843,0.6700680272108843,0.6700680272108843,0.6700680272108843,0.6700680272108843,0.6700680272108843,0.6700680272108843,0.6700680272108843,0.6700680272108843,0.6700680272108843,0.6700680272108843,0.6700680272108843,0.6700680272108843,0.6700680272108843,0.6700680272108843,0.6700680272108843,0.6700680272108843,0.6700680272108843,0.6700680272108843,0.6700680272108843,0.6700680272108843,0.6700680272108843,0.6700680272108843,0.6700680272108843,0.6700680272108843,0.6700680272108843,0.6700680272108843,0.6700680272108843,0.6700680272108843,0.6700680272108843,0.6700680272108843,0.6700680272108843,0.6700680272108843,0.6700680272108843,0.6700680272108843,0.6700680272108843,0.6700680272108843,0.6700680272108843,0.6700680272108843,0.6700680272108843,0.6700680272108843,0.6700680272108843,0.6700680272108843,0.6700680272108843,0.6700680272108843,0.6700680272108843,0.6700680272108843,0.6700680272108843,0.6700680272108843,0.6700680272108843,0.6700680272108843,0.6700680272108843,0.6700680272108843,0.6700680272108843,0.6700680272108843,0.6700680272108843,0.6700680272108843,0.6700680272108843,0.6700680272108843,0.6700680272108843,0.6700680272108843,0.6700680272108843,0.6700680272108843,0.6700680272108843,0.6700680272108843,0.6700680272108843,0.6700680272108843,0.6700680272108843,0.6700680272108843,0.6700680272108843,0.6700680272108843,0.6700680272108843,0.6700680272108843,0.6700680272108843,0.6700680272108843,0.6700680272108843,0.6700680272108843,0.6700680272108843,0.6700680272108843,0.6700680272108843,0.6700680272108843,0.6700680272108843,0.6700680272108843,0.6700680272108843,0.6700680272108843,0.6700680272108843,0.6700680272108843,0.6700680272108843,0.6700680272108843,0.6700680272108843,0.6700680272108843,0.6700680272108843,0.6700680272108843,0.6700680272108843,0.6700680272108843,0.6700680272108843,0.6700680272108843,0.6700680272108843,0.6700680272108843,0.6700680272108843,0.6700680272108843,0.6700680272108843,0.6700680272108843,0.6700680272108843,0.6700680272108843,0.6700680272108843,0.6700680272108843,0.6700680272108843,0.6700680272108843,0.6700680272108843,0.6700680272108843,0.6700680272108843,0.6700680272108843,0.6700680272108843,0.6700680272108843,0.6700680272108843,0.6700680272108843,0.6700680272108843,0.6700680272108843,0.6700680272108843,0.6700680272108843,0.6700680272108843,0.6700680272108843,0.6700680272108843,0.6700680272108843,0.6700680272108843,0.6700680272108843,0.6700680272108843,0.6700680272108843,0.6700680272108843,0.6700680272108843,0.6700680272108843,0.6700680272108843,0.6700680272108843,0.6700680272108843,0.6700680272108843,0.6700680272108843,0.6700680272108843,0.6700680272108843,0.6700680272108843,0.6700680272108843,0.6700680272108843,0.6700680272108843,0.6700680272108843,0.6700680272108843,0.6700680272108843,0.6700680272108843,0.6700680272108843,0.6700680272108843,0.6700680272108843,0.6700680272108843,0.6700680272108843,0.6700680272108843,0.6700680272108843,0.6700680272108843,0.6700680272108843,0.6700680272108843,0.6700680272108843,0.6700680272108843,0.6700680272108843,0.6700680272108843,0.6700680272108843,0.6700680272108843,0.6700680272108843,0.6700680272108843,0.6700680272108843,0.6700680272108843,0.6700680272108843,0.6700680272108843,0.6700680272108843,0.6700680272108843,0.6700680272108843,0.673469387755102,0.7074829931972789,0.7687074829931972,0.7891156462585034,0.7925170068027211,0.8027210884353742,0.8027210884353742,0.8027210884353742,0.8027210884353742,0.8095238095238095,0.8095238095238095,0.8231292517006803,0.8673469387755102,0.9285714285714286,0.9319727891156463,0.9217687074829932,0.8877551020408163,0.8401360544217688,0.7687074829931972,0.6802721088435374,0.5884353741496599,0.48299319727891155,0.3945578231292517,0.3333333333333333,0.2891156462585034,0.2619047619047619,0.2585034013605442,0.25510204081632654,0.25510204081632654,0.25510204081632654,0.25510204081632654,0.25510204081632654,0.24489795918367346,0.22789115646258504,0.21428571428571427,0.2108843537414966,0.19727891156462585,0.1836734693877551,0.17006802721088435,0.1598639455782313,0.15306122448979592,0.15306122448979592,0.10204081632653061,0.0782312925170068,0.05442176870748299,0.03741496598639456,0.034013605442176874,0.034013605442176874,0.034013605442176874,0.034013605442176874,0.034013605442176874,0.034013605442176874,0.034013605442176874,0.034013605442176874,0.04081632653061224,0.05782312925170068,0.07482993197278912,0.08843537414965986,0.11224489795918367,0.11564625850340136,0.11564625850340136,0.11564625850340136,0.11564625850340136,0.11564625850340136,0.11564625850340136,0.11564625850340136,0.11564625850340136,0.11564625850340136,0.11564625850340136,0.11564625850340136,0.11904761904761904,0.11904761904761904,0.11904761904761904,0.12244897959183673,0.12244897959183673,0.12244897959183673,0.12244897959183673,0.12244897959183673,0.12244897959183673,0.12244897959183673,0.12244897959183673,0.12244897959183673,0.12244897959183673,0.12244897959183673,0.12244897959183673,0.12244897959183673,0.12244897959183673,0.12244897959183673,0.12244897959183673,0.12244897959183673,0.12244897959183673,0.12244897959183673,0.12244897959183673,0.12244897959183673,0.12244897959183673,0.12244897959183673,0.12244897959183673,0.12244897959183673,0.12244897959183673,0.12244897959183673,0.12244897959183673,0.12244897959183673,0.12244897959183673,0.12244897959183673,0.12244897959183673,0.12244897959183673,0.12244897959183673,0.12244897959183673,0.12244897959183673,0.12244897959183673,0.12244897959183673,0.12244897959183673,0.12244897959183673,0.12244897959183673,0.12244897959183673,0.12244897959183673,0.12244897959183673,0.12244897959183673,0.1292517006802721,0.1326530612244898,0.1360544217687075,0.14285714285714285,0.14625850340136054,0.14965986394557823,0.1564625850340136,0.1564625850340136,0.1564625850340136,0.1564625850340136,0.1564625850340136,0.1564625850340136,0.1564625850340136,0.1564625850340136,0.1564625850340136,0.1564625850340136,0.1564625850340136,0.1564625850340136,0.1564625850340136,0.1564625850340136,0.1564625850340136,0.1564625850340136,0.1564625850340136,0.1564625850340136,0.1564625850340136,0.1564625850340136,0.1564625850340136,0.1564625850340136,0.1564625850340136,0.1564625850340136,0.1564625850340136,0.1564625850340136,0.1564625850340136,0.1564625850340136,0.1564625850340136,0.1564625850340136,0.1564625850340136,0.1564625850340136,0.1564625850340136,0.1564625850340136,0.1564625850340136,0.1564625850340136,0.1564625850340136,0.1564625850340136,0.1564625850340136,0.1564625850340136,0.1564625850340136,0.1564625850340136,0.1564625850340136,0.1564625850340136,0.1564625850340136,0.1564625850340136,0.1564625850340136,0.1564625850340136,0.1564625850340136,0.1564625850340136,0.1564625850340136,0.1564625850340136,0.1564625850340136,0.1564625850340136,0.1564625850340136,0.1564625850340136,0.1564625850340136,0.1564625850340136,0.1564625850340136,0.1564625850340136,0.1564625850340136,0.1564625850340136,0.1564625850340136,0.1564625850340136,0.1564625850340136,0.1564625850340136,0.1564625850340136,0.1564625850340136,0.1564625850340136,0.1564625850340136,0.1564625850340136,0.1564625850340136,0.1564625850340136,0.1564625850340136,0.1564625850340136,0.1564625850340136,0.1564625850340136,0.1564625850340136,0.1564625850340136,0.1564625850340136,0.1564625850340136,0.1564625850340136,0.1564625850340136,0.1564625850340136,0.1564625850340136,0.1564625850340136,0.1564625850340136,0.1564625850340136,0.1564625850340136,0.1564625850340136,0.1564625850340136,0.1564625850340136,0.1564625850340136,0.1564625850340136,0.1564625850340136,0.1564625850340136,0.1564625850340136,0.1564625850340136,0.1564625850340136,0.1564625850340136,0.1564625850340136,0.1598639455782313,0.17006802721088435,0.18027210884353742,0.1870748299319728,0.19047619047619047,0.19727891156462585,0.19727891156462585,0.20408163265306123,0.20748299319727892,0.21428571428571427,0.21768707482993196,0.22448979591836735,0.22789115646258504,0.23469387755102042,0.24149659863945577,0.24829931972789115,0.25510204081632654,0.2619047619047619,0.272108843537415,0.2925170068027211,0.3333333333333333,0.3707482993