[{"success":true,"trial_type":"fullscreen","trial_index":0,"time_elapsed":6442,"internal_node_id":"0.0-0.0","protocol_sum":"","subject_identifier":129,"subject_sum":[166,139,65,44,66,130,85,95,21,84,108,246,225,252,66,137,59,126,7,242,113,85,124,235,2,24,33,9,141,214,108,27],"subject_pair":64,"STUDY_ID":"669a702db1122fc5150a13ce","PROLIFIC_PID":"66799662d6513151e840c6af","SESSION_ID":"669b258b1c3e5baa7ed8fb14","practice_instructions":1,"leaderboard_instructions":0,"bonus":0,"reveal_word":true,"self_rating":"3","confidence":"100"},{"view_history":"[{\"page_index\":0,\"viewing_time\":4306.300000011921}]","rt":4306.5,"trial_type":"instructions","trial_index":1,"time_elapsed":10749,"internal_node_id":"0.0-1.0","protocol_sum":"","subject_identifier":129,"subject_sum":[166,139,65,44,66,130,85,95,21,84,108,246,225,252,66,137,59,126,7,242,113,85,124,235,2,24,33,9,141,214,108,27],"subject_pair":64,"STUDY_ID":"669a702db1122fc5150a13ce","PROLIFIC_PID":"66799662d6513151e840c6af","SESSION_ID":"669b258b1c3e5baa7ed8fb14","practice_instructions":1,"leaderboard_instructions":0,"bonus":0,"reveal_word":true,"self_rating":"3","confidence":"100"},{"view_history":"[{\"page_index\":0,\"viewing_time\":12889.5}]","rt":12889.60000000894,"trial_type":"instructions","trial_index":2,"time_elapsed":23639,"internal_node_id":"0.0-2.0-0.0","protocol_sum":"","subject_identifier":129,"subject_sum":[166,139,65,44,66,130,85,95,21,84,108,246,225,252,66,137,59,126,7,242,113,85,124,235,2,24,33,9,141,214,108,27],"subject_pair":64,"STUDY_ID":"669a702db1122fc5150a13ce","PROLIFIC_PID":"66799662d6513151e840c6af","SESSION_ID":"669b258b1c3e5baa7ed8fb14","practice_instructions":1,"leaderboard_instructions":0,"bonus":0,"reveal_word":true,"self_rating":"3","confidence":"100"},{"rt":7255.5,"responses":"{\"Q0\":\"... reveal the word with as <b>few letter guesses</b> as possible\"}","question_order":"[0]","trial_type":"survey-multi-choice","trial_index":3,"time_elapsed":30895,"internal_node_id":"0.0-2.0-1.0","protocol_sum":"","subject_identifier":129,"subject_sum":[166,139,65,44,66,130,85,95,21,84,108,246,225,252,66,137,59,126,7,242,113,85,124,235,2,24,33,9,141,214,108,27],"subject_pair":64,"correct":true,"test_part":"multichoice_nonpretend","STUDY_ID":"669a702db1122fc5150a13ce","PROLIFIC_PID":"66799662d6513151e840c6af","SESSION_ID":"669b258b1c3e5baa7ed8fb14","practice_instructions":1,"leaderboard_instructions":0,"bonus":0,"reveal_word":true,"self_rating":"3","confidence":"100"},{"view_history":"[{\"page_index\":0,\"viewing_time\":1289.2000000029802}]","rt":1289.4000000059605,"trial_type":"instructions","trial_index":4,"time_elapsed":32185,"internal_node_id":"0.0-3.0","protocol_sum":"","subject_identifier":129,"subject_sum":[166,139,65,44,66,130,85,95,21,84,108,246,225,252,66,137,59,126,7,242,113,85,124,235,2,24,33,9,141,214,108,27],"subject_pair":64,"STUDY_ID":"669a702db1122fc5150a13ce","PROLIFIC_PID":"66799662d6513151e840c6af","SESSION_ID":"669b258b1c3e5baa7ed8fb14","practice_instructions":1,"leaderboard_instructions":0,"bonus":0,"reveal_word":true,"self_rating":"3","confidence":"100"},{"word":"ZEBRA","click_log":{"letter":["","A","K","L","M","O","N","P","C","D","E","Z","B","R"],"t":[0,2498.5,9521.20000000298,11865.29999999702,13247.29999999702,14454.40000000596,15159.20000000298,16015.29999999702,20991.29999999702,22170.29999999702,22970.29999999702,28029.29999999702,29278.59999999404,30242],"hit":[null,1,0,0,0,0,0,0,0,0,1,1,1,1],"asked":["","A","AK","AKL","AKLM","AKLMO","AKLMON","AKLMONP","AKLMONPC","AKLMONPCD","AKLMONPCDE","AKLMONPCDEZ","AKLMONPCDEZB","AKLMONPCDEZBR"],"word_state":["_____","____A","____A","____A","____A","____A","____A","____A","____A","____A","_E__A","ZE__A","ZEB_A","ZEBRA"]},"hover_log":{"letter":["?","?","?","?","?","?","?","?","?","?","?","?","T","T","T","U","U","?","V","V","?","W","W","W","?","?","?","?","?","?","?","?","?","?","?","?","?","?","?","?","?","?","?","?","?","?","?","?","?","?","?","?","?","?","?","?","?","?","?","?","?","?","?","?","?","?","?","?","?","?","?","?","?","?","?","?","?","?","?","?","?","?","?","?","?","?","?","?","?","?","?","?","?","M","?","L","?","?","?","?","?","?","?","?","B","B","B","?","?","?","?","?","?","?","?","?","?","?","?","?","A","A","A","A","A","A","A","A","A","A","A","A","A","A","A","A","A","A","A","A","A","A","A","A","A","A","A","A","A","A","A","A","A","A","A","A","A","A","A","A","A","A","A","A","A","A","A","?","?","B","B","B","?","?","C","C","?","?","?","?","D","D","D","D","?","?","?","?","?","?","?","?","?","?","?","?","?","?","?","?","?","?","?","?","?","?","?","?","?","?","?","?","?","?","?","?","?","?","?","?","?","?","?","?","?","?","?","?","N","N","N","N","N","N","N","N","N","N","N","N","N","N","N","N","N","N","N","N","N","N","N","N","N","N","N","N","N","N","N","N","N","N","N","N","N","N","N","N","?","?","?","?","?","?","?","?","?","?","?","?","?","?","?","?","?","?","E","E","E","E","E","E","E","E","E","E","E","E","E","E","E","E","E","E","E","E","E","E","E","E","E","E","E","E","E","E","E","E","E","E","?","?","?","?","?","?","?","?","?","?","?","?","?","?","?","?","?","?","?","?","?","?","?","?","?","?","?","?","?","?","?","?","?","?","?","?","?","?","?","?","?","?","?","?","?","?","?","?","?","?","?","?","?","?","?","?","?","E","?","N","N","?","?","?","?","?","?","?","?","?","?","?","?","?","?","?","?","?","?","?","?","?","?","?","?","?","?","?","?","?","?","?","?","?","N","N","N","N","?","?","?","?","O","O","O","O","O","O","O","O","O","O","O","O","O","O","O","O","O","O","O","O","?","?","P","P","P","P","P","P","P","P","P","P","P","P","P","P","P","P","P","P","P","P","P","P","P","P","P","P","P","P","P","P","P","P","P","P","P","P","P","P","P","P","P","P","P","P","P","P","P","P","P","P","P","P","P","P","P","P","P","P","P","P","P","P","P","P","P","P","?","?","?","?","?","?","?","?","?","?","?","?","?","?","?","?","?","?","?","?","?","O","O","O","O","O","?","N","N","N","N","?","M","M","M","L","L","L","K","K","K","K","K","K","K","K","K","K","K","K","K","K","K","K","K","K","K","K","K","K","K","K","K","K","K","K","K","K","K","K","K","K","K","K","K","K","K","K","K","K","K","K","K","K","K","K","K","K","K","K","K","?","L","L","?","M","M","M","M","?","?","?","?","?","?","?","?","?","?","?","?","?","?","?","?","?","?","?","?","?","?","?","?","?","?","?","?","?","?","?","?","?","?","?","?","?","?","?","?","?","?","?","?","?","?","?","?","?","?","?","?","?","?","?","?","?","?","?","?","?","?","?","M","M","M","M","M","M","M","M","M","?","?","?","L","L","L","L","L","L","L","L","L","L","L","L","L","L","L","L","L","L","L","L","L","L","L","L","L","L","L","L","L","L","L","L","L","L","L","L","L","L","L","L","L","L","L","?","M","M","M","?","N","N","?","?","?","?","?","?","O","O","O","O","O","O","O","O","O","O","O","O","O","O","O","O","O","O","O","O","O","?","?","?","N","N","N","N","N","N","N","N","N","N","?","?","M","M","M","M","M","M","M","M","M","M","M","M","M","M","M","M","M","M","M","M","M","M","M","M","M","M","M","?","?","N","N","N","N","N","?","?","?","?","?","?","?","?","?","?","?","?","?","?","?","?","?","?","?","?","O","O","O","O","O","O","O","O","O","O","O","O","O","O","O","O","O","O","O","O","O","O","O","O","O","O","O","O","O","O","O","O","O","O","O","O","O","O","O","O","O","O","O","O","O","O","O","O","O","O","O","O","O","O","O","?","?","N","N","N","N","N","N","N","N","N","N","N","N","N","N","N","N","N","N","N","N","N","N","N","N","N","N","N","N","N","N","N","N","N","N","N","N","N","N","N","N","N","N","N","N","N","N","N","N","?","O","O","?","P","P","P","P","P","P","P","P","P","P","P","P","P","P","P","P","P","P","P","P","P","P","P","P","P","P","P","P","P","P","P","P","P","P","P","P","P","P","P","P","P","P","P","P","P","P","P","P","P","P","P","P","P","P","P","P","P","P","P","P","P","P","P","P","P","P","P","P","P","P","P","P","P","P","P","P","P","P","P","P","P","P","P","P","P","P","P","P","P","P","P","P","P","P","P","P","P","P","P","P","P","P","P","P","P","P","P","P","P","P","P","P","P","P","P","P","P","P","P","P","P","P","P","P","P","P","P","?","?","?","X","X","X","X","?","?","W","W","W","W","W","W","W","W","W","W","?","?","?","?","V","V","V","V","V","V","V","V","?","?","?","U","U","U","U","U","U","U","U","U","U","U","U","?","?","V","V","V","V","V","V","V","V","V","V","V","?","U","U","U","U","U","U","U","U","U","U","U","U","?","?","?","T","T","T","T","T","T","T","T","T","T","T","?","?","?","S","S","S","S","S","S","S","S","S","S","S","S","S","S","S","S","S","S","S","S","S","S","S","S","S","S","?","?","?","K","K","K","K","?","?","?","?","?","?","?","?","?","?","?","?","?","?","?","?","?","?","B","B","B","B","B","B","B","B","B","B","B","B","B","B","B","B","?","C","C","C","C","C","C","C","C","C","C","C","C","C","C","C","C","C","C","C","C","C","C","C","C","C","C","C","C","C","C","C","C","C","C","C","C","C","C","C","C","C","C","C","C","C","C","C","?","?","?","?","?","?","?","?","?","?","?","?","?","?","?","?","E","E","E","E","E","E","E","E","E","E","E","E","E","E","E","E","E","E","E","E","E","E","E","E","?","?","D","D","D","D","D","D","D","D","D","D","D","D","D","D","D","D","D","D","D","D","D","D","D","D","D","D","D","D","?","?","?","?","?","?","?","?","?","?","?","?","?","?","?","?","?","?","?","?","?","?","E","E","E","E","E","E","E","E","E","E","E","E","E","E","E","E","E","E","E","E","E","E","E","E","E","?","?","?","?","?","?","?","?","?","?","?","?","?","?","?","?","?","?","?","?","?","?","?","?","?","?","?","?","?","?","?","?","?","G","?","?","?","?","?","?","?","?","?","?","?","?","?","?","?","?","?","?","?","?","?","?","?","?","?","?","?","?","?","?","?","?","?","?","?","?","?","?","?","?","?","?","?","?","?","?","?","?","?","?","?","?","?","?","?","?","?","?","?","?","?","?","?","?","?","?","?","?","?","?","?","?","?","?","?","?","?","?","?","?","?","?","?","?","?","?","?","?","?","?","?","?","?","?","?","?","?","?","?","?","?","?","?","?","?","?","?","?","?","?","?","?","?","?","?","?","?","?","?","?","?","?","?","F","F","F","F","F","F","F","F","F","F","F","F","F","F","F","F","F","F","F","F","F","F","F","F","F","F","F","F","F","F","F","F","F","F","F","F","F","F","F","F","F","F","F","F","F","F","F","F","F","F","F","F","F","F","F","F","F","F","F","F","F","F","F","?","?","?","?","O","O","?","?","?","?","?","W","W","?","?","V","V","V","V","V","V","V","V","V","V","V","W","W","X","X","Y","Y","Y","Y","?","?","?","?","?","?","?","?","?","?","?","?","?","?","Z","Z","Z","Z","Z","Z","Z","Z","Z","Z","Z","Z","Z","Z","Z","Z","Z","Z","Z","Z","Z","Z","Z","Z","Z","Z","Z","Z","Z","Z","Z","Z","Z","Z","?","?","?","?","?","?","P","P","P","?","O","O","?","?","?","N","?","?","M","M","M","M","M","M","M","M","M","M","M","M","M","M","M","M","?","L","?","?","?","?","?","?","?","?","?","B","B","B","B","B","B","B","B","B","B","B","B","B","B","B","B","B","B","B","B","B","B","B","B","B","?","?","?","K","?","?","?","L","L","L","L","?","M","N","?","O","P","?","Q","Q","?","?","?","?","?","?","?","?","?","R","R","R","R","R","R","R","R","R","R","R","R","R","R","R","R","R","R","R","R","R","R","R","R","R","R","R","R","R","R","R","R","R","R","R","R","R","R","R","R","R","R","R","R","R","R","R","R","R","R","R","R","R","R","R","R","?","?","?","?","Z","Z","?","Y","Y","?","?","?","?","?","?","?","?","?","?","?","?","?","?","?","?","?","?","?","?","?","?","?","?","?","?","?","?","?","?","?","?","?","?","?","?","?","?","?","?","?","?","?","?","?","?","?","?","?","?","?","?","?","?","?","?","?","?","?","?","?","?","?","?","?","?","?","?","?","?","?","?","?","?","?","?","?","?","?","?"],"t":[27,40,58,75,87,104,122,139,157,176,193,205,223,240,258,275,293,305,322,340,357,376,394,407,423,440,457,475,492,506,523,540,557,575,593,608,623,639,657,674,692,710,722,739,758,775,792,810,822,839,857,874,892,909,923,938,957,974,991,1009,1028,1045,1059,1074,1093,1110,1129,1143,1157,1175,1191,1209,1222,1238,1257,1273,1293,1308,1323,1344,1358,1376,1395,1409,1427,1443,1459,1477,1493,1508,1523,1539,1559,1578,1593,1608,1623,1640,1657,1676,1692,1709,1723,1744,1758,1777,1792,1811,1823,1836,1858,1877,1894,1912,1927,1941,1959,1977,1992,2010,2028,2045,2059,2077,2092,2110,2129,2144,2158,2177,2194,2210,2228,2245,2259,2276,2293,2310,2327,2341,2356,2374,2391,2410,2427,2445,2459,2474,2491,2509,2527,2539,2557,2574,2592,2610,2627,2644,2662,2677,2691,2709,2726,2744,2761,2773,2791,2809,2826,2844,2862,2880,2893,2909,2926,2943,2961,2979,2993,3009,3026,3043,3060,3079,3091,3109,3126,3143,3161,3178,3197,3209,3225,3243,3260,3278,3296,3308,3325,3344,3361,3379,3393,3408,3426,3443,3461,3479,3497,3510,3526,3542,3561,3578,3595,3608,3625,3644,3661,3678,3696,3711,3726,3743,3761,3779,3797,3809,3825,3844,3861,3878,3890,3908,3926,3944,3962,3978,3996,4008,4027,4044,4061,4078,4097,4111,4126,4145,4161,4179,4196,4208,4227,4243,4261,4278,4292,4308,4326,4344,4361,4379,4397,4410,4426,4444,4462,4479,4497,4509,4527,4544,4561,4578,4597,4609,4627,4644,4661,4678,4697,4714,4729,4744,4762,4779,4797,4814,4826,4845,4861,4878,4897,4915,4928,4944,4961,4979,4997,5015,5026,5043,5061,5078,5097,5114,5126,5144,5162,5180,5197,5213,5228,5244,5261,5279,5297,5314,5326,5343,5361,5378,5397,5413,5426,5443,5461,5479,5497,5513,5526,5544,5561,5580,5597,5614,5627,5643,5661,5679,5697,5715,5732,5744,5762,5778,5797,5814,5831,5844,5861,5878,5897,5915,5932,5944,5961,5978,5996,6014,6031,6044,6061,6078,6097,6114,6131,6144,6160,6180,6197,6215,6232,6244,6260,6279,6296,6313,6331,6349,6361,6379,6396,6414,6432,6448,6460,6479,6497,6514,6532,6548,6562,6578,6596,6614,6631,6648,6667,6678,6696,6713,6731,6748,6768,6781,6795,6814,6831,6848,6867,6879,6896,6913,6933,6948,6967,6979,6996,7013,7030,7048,7066,7078,7097,7114,7131,7148,7167,7180,7197,7215,7230,7248,7267,7279,7297,7313,7330,7348,7366,7379,7395,7415,7430,7448,7467,7479,7496,7514,7532,7548,7567,7579,7595,7615,7630,7648,7666,7678,7696,7714,7730,7748,7767,7781,7795,7813,7831,7848,7867,7884,7899,7913,7930,7948,7965,7984,7998,8013,8032,8049,8065,8083,8096,8112,8131,8148,8167,8185,8199,8213,8230,8248,8267,8283,8295,8313,8330,8348,8366,8384,8401,8413,8430,8448,8467,8484,8501,8513,8531,8548,8566,8584,8600,8614,8631,8649,8666,8683,8700,8718,8731,8748,8765,8783,8800,8819,8832,8848,8865,8884,8901,8918,8930,8949,8966,8983,9000,9018,9030,9048,9065,9083,9101,9119,9133,9148,9166,9184,9201,9218,9230,9248,9266,9283,9300,9319,9333,9347,9366,9383,9401,9421,9433,9448,9465,9483,9500,9518,9531,9547,9565,9583,9600,9618,9630,9648,9666,9684,9700,9718,9730,9748,9766,9783,9800,9818,9830,9848,9865,9883,9900,9918,9930,9947,9966,9983,10000,10019,10037,10050,10065,10083,10100,10118,10135,10147,10166,10183,10201,10218,10235,10247,10265,10283,10300,10318,10335,10353,10368,10383,10399,10418,10437,10453,10465,10483,10501,10518,10536,10553,10568,10583,10601,10619,10635,10653,10668,10683,10699,10718,10735,10754,10770,10784,10800,10817,10835,10853,10871,10883,10900,10918,10935,10953,10970,10982,11001,11018,11036,11053,11070,11083,11100,11117,11136,11153,11171,11184,11200,11218,11236,11253,11270,11282,11300,11317,11334,11353,11370,11385,11399,11418,11436,11452,11470,11482,11500,11517,11536,11553,11570,11582,11599,11617,11634,11652,11670,11682,11699,11717,11736,11753,11770,11785,11802,11819,11837,11853,11870,11886,11901,11917,11935,11952,11970,11988,12002,12017,12035,12052,12070,12087,12099,12117,12135,12153,12170,12188,12200,12218,12235,12252,12269,12289,12303,12318,12335,12353,12370,12387,12405,12417,12434,12452,12469,12488,12506,12517,12535,12552,12570,12587,12605,12617,12634,12652,12670,12687,12706,12720,12734,12753,12770,12788,12805,12818,12835,12852,12869,12887,12905,12917,12935,12952,12970,12988,13005,13023,13034,13052,13069,13087,13104,13122,13134,13154,13169,13187,13205,13222,13237,13252,13269,13287,13304,13322,13334,13351,13370,13387,13405,13422,13434,13452,13469,13487,13506,13524,13538,13554,13569,13587,13604,13623,13638,13653,13669,13688,13704,13722,13734,13751,13770,13787,13805,13823,13837,13852,13870,13887,13905,13923,13937,13952,13969,13987,14004,14022,14039,14051,14069,14087,14104,14122,14140,14153,14169,14187,14205,14222,14239,14253,14269,14287,14304,14322,14339,14358,14372,14387,14405,14423,14439,14457,14469,14487,14505,14522,14539,14557,14569,14586,14604,14622,14639,14657,14669,14686,14704,14721,14739,14757,14772,14787,14805,14823,14839,14858,14872,14887,14904,14921,14939,14957,14972,14986,15004,15022,15039,15057,15071,15086,15105,15122,15139,15157,15169,15188,15206,15222,15240,15257,15275,15287,15304,15321,15339,15357,15374,15386,15405,15422,15439,15457,15474,15486,15504,15522,15539,15557,15575,15590,15604,15622,15640,15657,15674,15686,15705,15722,15739,15757,15774,15786,15804,15822,15839,15857,15874,15886,15904,15921,15939,15956,15974,15991,16005,16022,16039,16057,16074,16091,16105,16121,16138,16156,16175,16192,16203,16224,16239,16257,16275,16292,16307,16322,16339,16357,16375,16391,16410,16423,16439,16456,16474,16491,16510,16524,16539,16557,16574,16591,16609,16624,16639,16656,16674,16692,16709,16721,16739,16756,16774,16791,16809,16821,16838,16857,16875,16892,16909,16921,16939,16956,16974,16992,17009,17024,17039,17057,17074,17091,17109,17124,17139,17156,17173,17191,17209,17222,17239,17256,17274,17291,17309,17322,17339,17356,17374,17392,17409,17420,17438,17457,17474,17492,17509,17527,17539,17557,17574,17592,17609,17627,17639,17657,17674,17691,17708,17727,17742,17757,17774,17792,17809,17826,17839,17856,17873,17891,17908,17927,17939,17956,17975,17991,18008,18026,18045,18058,18074,18091,18109,18126,18144,18158,18173,18191,18208,18227,18245,18259,18273,18291,18308,18327,18343,18361,18373,18391,18408,18427,18443,18462,18477,18491,18508,18527,18545,18562,18576,18591,18608,18627,18644,18661,18673,18691,18708,18726,18744,18762,18776,18791,18808,18827,18844,18862,18874,18891,18908,18925,18943,18963,18977,18992,19009,19027,19046,19062,19077,19092,19108,19126,19143,19161,19174,19190,19209,19227,19244,19262,19274,19291,19308,19327,19344,19362,19374,19390,19409,19427,19444,19461,19476,19490,19508,19525,19544,19562,19576,19590,19609,19625,19644,19661,19678,19692,19709,19726,19744,19762,19778,19791,19809,19829,19843,19860,19878,19890,19908,19926,19943,19960,19978,19996,20008,20026,20046,20061,20078,20096,20108,20125,20143,20160,20178,20197,20210,20226,20243,20262,20279,20295,20309,20325,20343,20360,20378,20396,20411,20426,20444,20460,20478,20496,20514,20529,20543,20561,20578,20595,20613,20625,20644,20661,20679,20697,20713,20725,20742,20760,20778,20797,20813,20826,20843,20860,20878,20898,20913,20927,20943,20960,20978,20996,21014,21026,21042,21060,21078,21096,21113,21125,21143,21161,21178,21195,21213,21228,21243,21261,21278,21299,21314,21328,21343,21360,21378,21395,21414,21428,21443,21460,21478,21497,21514,21527,21543,21560,21578,21595,21616,21634,21646,21660,21678,21696,21713,21730,21744,21760,21778,21795,21816,21831,21843,21861,21879,21896,21913,21930,21944,21960,21978,21995,22016,22031,22048,22063,22078,22098,22112,22130,22148,22163,22177,22195,22216,22231,22248,22261,22278,22295,22313,22330,22349,22362,22378,22396,22416,22430,22448,22463,22481,22498,22516,22535,22552,22565,22587,22604,22615,22630,22648,22665,22677,22694,22713,22731,22748,22765,22780,22795,22813,22830,22848,22865,22880,22894,22912,22930,22948,22965,22977,22995,23013,23030,23048,23066,23081,23096,23113,23130,23147,23166,23177,23194,23212,23230,23248,23265,23277,23295,23312,23331,23348,23367,23381,23396,23413,23430,23447,23466,23477,23495,23512,23531,23548,23565,23577,23595,23612,23630,23647,23665,23683,23695,23713,23729,23747,23765,23783,23798,23813,23830,23847,23865,23883,23895,23913,23929,23948,23965,23983,24000,24014,24030,24047,24064,24082,24101,24113,24129,24147,24165,24183,24200,24212,24229,24247,24265,24282,24300,24315,24330,24347,24366,24383,24400,24414,24429,24448,24465,24482,24500,24512,24529,24548,24564,24582,24599,24613,24629,24647,24665,24682,24701,24716,24730,24747,24764,24782,24800,24812,24829,24847,24866,24883,24899,24912,24930,24947,24965,24982,25000,25018,25033,25048,25065,25082,25099,25117,25131,25147,25165,25183,25200,25218,25232,25246,25265,25282,25300,25318,25332,25347,25365,25382,25400,25417,25429,25447,25465,25482,25499,25517,25529,25547,25564,25581,25599,25617,25629,25647,25664,25681,25700,25717,25735,25747,25764,25782,25799,25818,25835,25847,25864,25882,25899,25917,25935,25950,25964,25982,25999,26017,26034,26052,26065,26082,26099,26117,26136,26152,26167,26182,26200,26221,26236,26252,26264,26283,26300,26317,26335,26353,26367,26383,26399,26417,26434,26452,26466,26483,26499,26517,26535,26552,26564,26582,26600,26617,26635,26652,26664,26681,26699,26717,26736,26752,26766,26782,26799,26817,26835,26852,26864,26881,26899,26917,26935,26953,26966,26981,27000,27017,27034,27051,27066,27081,27100,27117,27134,27152,27169,27181,27199,27217,27234,27251,27269,27282,27300,27318,27336,27352,27370,27381,27399,27417,27434,27451,27469,27481,27498,27516,27534,27552,27569,27581,27599,27616,27634,27651,27669,27687,27702,27716,27734,27751,27769,27787,27798,27817,27834,27852,27869,27887,27902,27916,27935,27952,27969,27987,28004,28016,28035,28052,28069,28087,28104,28116,28134,28152,28168,28187,28205,28220,28234,28252,28269,28287,28304,28317,28334,28351,28369,28387,28404,28416,28434,28452,28469,28487,28505,28517,28534,28552,28569,28586,28605,28618,28638,28654,28669,28687,28704,28716,28734,28753,28769,28787,28804,28820,28835,28851,28870,28887,28904,28920,28934,28952,28969,28987,29004,29016,29033,29051,29069,29086,29104,29117,29133,29151,29168,29187,29205,29218,29233,29252,29268,29287,29304,29317,29336,29351,29369,29386,29404,29421,29434,29451,29469,29487,29503,29521,29533,29551,29569,29587,29604,29622,29637,29651,29668,29686,29705,29722,29739,29754,29769,29786,29803,29821,29839,29854,29869,29887,29904,29921,29939,29951,29969,29986,30003,30021,30039,30054,30069,30087,30104,30121,30140,30158,30171,30186,30203,30223,30239,30257,30269,30287,30303,30323,30338,30357,30372,30386,30403,30422,30439,30457,30469,30486,30503,30521,30538,30557,30571,30586,30604,30622,30639,30656,30668,30686,30703,30721,30739,30756,30769,30786,30804,30820,30838,30856,30868,30886,30903,30920,30938,30957,30969,30986,31003,31021,31038,31057,31071,31085,31103,31120,31138,31156,31168,31186,31203,31220,31239,31256,31268,31286,31303,31322,31339,31357,31374,31390,31405,31420,31438,31457,31473,31486,31504,31522,31538,31556,31573,31588,31604,31621,31638,31657,31674,31692,31705,31721,31738,31756,31773,31791,31803,31820,31838,31856,31874,31891,31903,31921,31938,31956,31974,31992,32006,32021,32039,32057,32074,32091,32103,32123,32138,32157,32174,32190,32203,32220,32238,32256],"hit":[null],"x":[-2.6258503401360542,-2.6258503401360542,-2.6258503401360542,-2.6258503401360542,-2.6258503401360542,-2.6258503401360542,-2.6258503401360542,-2.6258503401360542,0.03231292517006803,0.04251700680272109,0.05952380952380952,0.07312925170068027,0.10714285714285714,0.14795918367346939,0.1989795918367347,0.2568027210884354,0.31802721088435376,0.358843537414966,0.4098639455782313,0.467687074829932,0.5153061224489796,0.5425170068027211,0.5595238095238095,0.5663265306122449,0.5697278911564626,0.5731292517006803,0.5731292517006803,0.5663265306122449,0.5663265306122449,0.5663265306122449,0.5663265306122449,0.5663265306122449,0.5663265306122449,0.5663265306122449,0.5663265306122449,0.5663265306122449,0.5663265306122449,0.5663265306122449,0.5663265306122449,0.5663265306122449,0.5663265306122449,0.5629251700680272,0.5629251700680272,0.5629251700680272,0.5629251700680272,0.5629251700680272,0.5629251700680272,0.5629251700680272,0.5629251700680272,0.5629251700680272,0.5629251700680272,0.5629251700680272,0.5629251700680272,0.5629251700680272,0.5629251700680272,0.5629251700680272,0.5629251700680272,0.5629251700680272,0.5629251700680272,0.5629251700680272,0.5629251700680272,0.5629251700680272,0.5629251700680272,0.5629251700680272,0.5629251700680272,0.5629251700680272,0.5629251700680272,0.5629251700680272,0.5629251700680272,0.5629251700680272,0.5629251700680272,0.5629251700680272,0.5629251700680272,0.5629251700680272,0.5629251700680272,0.5629251700680272,0.5629251700680272,0.5629251700680272,0.5629251700680272,0.5629251700680272,0.5663265306122449,0.5697278911564626,0.5697278911564626,0.5697278911564626,0.5697278911564626,0.5697278911564626,0.5697278911564626,0.5697278911564626,0.5629251700680272,0.5561224489795918,0.5391156462585034,0.5187074829931972,0.477891156462585,0.4166666666666667,0.3554421768707483,0.304421768707483,0.2568027210884354,0.2227891156462585,0.1921768707482993,0.17517006802721088,0.1683673469387755,0.1683673469387755,0.1683673469387755,0.1649659863945578,0.15816326530612246,0.1377551020408163,0.12414965986394558,0.11054421768707483,0.10714285714285714,0.10034013605442177,0.09693877551020408,0.0935374149659864,0.08673469387755102,0.07993197278911565,0.07312925170068027,0.0663265306122449,0.06292517006802721,0.05952380952380952,0.05612244897959184,0.05612244897959184,0.05612244897959184,0.05272108843537415,0.05272108843537415,0.04931972789115646,0.04931972789115646,0.04931972789115646,0.04931972789115646,0.04931972789115646,0.04931972789115646,0.04931972789115646,0.04931972789115646,0.04591836734693878,0.0391156462585034,0.03231292517006803,0.025510204081632654,0.025510204081632654,0.025510204081632654,0.025510204081632654,0.025510204081632654,0.025510204081632654,0.025510204081632654,0.025510204081632654,0.025510204081632654,0.025510204081632654,0.025510204081632654,0.025510204081632654,0.025510204081632654,0.025510204081632654,0.025510204081632654,0.025510204081632654,0.025510204081632654,0.025510204081632654,0.025510204081632654,0.025510204081632654,0.025510204081632654,0.025510204081632654,0.025510204081632654,0.025510204081632654,0.025510204081632654,0.025510204081632654,0.025510204081632654,0.025510204081632654,0.03231292517006803,0.03571428571428571,0.04251700680272109,0.04591836734693878,0.05612244897959184,0.06972789115646258,0.08673469387755102,0.11054421768707483,0.13435374149659865,0.1717687074829932,0.20238095238095238,0.23299319727891157,0.26700680272108845,0.304421768707483,0.33503401360544216,0.3622448979591837,0.3792517006802721,0.39965986394557823,0.4166666666666667,0.4336734693877551,0.45068027210884354,0.4642857142857143,0.4710884353741497,0.477891156462585,0.4812925170068027,0.4846938775510204,0.4846938775510204,0.4846938775510204,0.4846938775510204,0.4846938775510204,0.4846938775510204,0.4846938775510204,0.4846938775510204,0.4846938775510204,0.4846938775510204,0.4880952380952381,0.4914965986394558,0.49489795918367346,0.49489795918367346,0.49489795918367346,0.49489795918367346,0.49489795918367346,0.49489795918367346,0.49489795918367346,0.49489795918367346,0.49829931972789115,0.5017006802721088,0.5085034013605442,0.5153061224489796,0.5187074829931972,0.5221088435374149,0.5221088435374149,0.5255102040816326,0.5289115646258503,0.5357142857142857,0.5425170068027211,0.5425170068027211,0.5425170068027211,0.5459183673469388,0.5459183673469388,0.5459183673469388,0.5459183673469388,0.5493197278911565,0.5561224489795918,0.5595238095238095,0.5663265306122449,0.5697278911564626,0.5799319727891157,0.5901360544217688,0.5969387755102041,0.6037414965986394,0.6105442176870748,0.6207482993197279,0.6241496598639455,0.6275510204081632,0.6275510204081632,0.6275510204081632,0.6275510204081632,0.6275510204081632,0.6275510204081632,0.6275510204081632,0.6275510204081632,0.6275510204081632,0.6275510204081632,0.6275510204081632,0.6275510204081632,0.6275510204081632,0.6275510204081632,0.6275510204081632,0.6275510204081632,0.6275510204081632,0.6275510204081632,0.6275510204081632,0.6275510204081632,0.6275510204081632,0.6275510204081632,0.6275510204081632,0.6275510204081632,0.6275510204081632,0.6207482993197279,0.6105442176870748,0.6003401360544217,0.5969387755102041,0.5969387755102041,0.5935374149659864,0.5935374149659864,0.5935374149659864,0.5935374149659864,0.5901360544217688,0.5901360544217688,0.5901360544217688,0.5901360544217688,0.5901360544217688,0.5901360544217688,0.5901360544217688,0.5901360544217688,0.5901360544217688,0.5901360544217688,0.5901360544217688,0.5901360544217688,0.5901360544217688,0.5901360544217688,0.5901360544217688,0.5833333333333334,0.5799319727891157,0.576530612244898,0.576530612244898,0.576530612244898,0.576530612244898,0.576530612244898,0.576530612244898,0.576530612244898,0.576530612244898,0.576530612244898,0.576530612244898,0.576530612244898,0.576530612244898,0.576530612244898,0.576530612244898,0.576530612244898,0.576530612244898,0.576530612244898,0.576530612244898,0.576530612244898,0.576530612244898,0.576530612244898,0.576530612244898,0.576530612244898,0.576530612244898,0.576530612244898,0.576530612244898,0.576530612244898,0.576530612244898,0.576530612244898,0.576530612244898,0.5731292517006803,0.5697278911564626,0.5595238095238095,0.5493197278911565,0.5357142857142857,0.5187074829931972,0.5051020408163265,0.4914965986394558,0.4642857142857143,0.44047619047619047,0.42346938775510207,0.413265306122449,0.4098639455782313,0.4030612244897959,0.39625850340136054,0.38605442176870747,0.3758503401360544,0.3656462585034014,0.3622448979591837,0.358843537414966,0.358843537414966,0.358843537414966,0.358843537414966,0.358843537414966,0.3554421768707483,0.34183673469387754,0.3282312925170068,0.2976190476190476,0.27380952380952384,0.2465986394557823,0.22959183673469388,0.21258503401360543,0.20918367346938777,0.20578231292517007,0.20578231292517007,0.20578231292517007,0.20578231292517007,0.20578231292517007,0.20578231292517007,0.20578231292517007,0.20578231292517007,0.20578231292517007,0.20578231292517007,0.21258503401360543,0.2227891156462585,0.25,0.28401360544217685,0.33163265306122447,0.37244897959183676,0.39965986394557823,0.413265306122449,0.4268707482993197,0.44727891156462585,0.467687074829932,0.49489795918367346,0.5153061224489796,0.5289115646258503,0.5493197278911565,0.5697278911564626,0.5935374149659864,0.6071428571428571,0.6139455782312925,0.6105442176870748,0.6037414965986394,0.5969387755102041,0.5901360544217688,0.5867346938775511,0.5867346938775511,0.5867346938775511,0.5867346938775511,0.5867346938775511,0.5867346938775511,0.5867346938775511,0.5867346938775511,0.5867346938775511,0.5867346938775511,0.5867346938775511,0.5867346938775511,0.5867346938775511,0.5867346938775511,0.5867346938775511,0.5901360544217688,0.5935374149659864,0.5969387755102041,0.5969387755102041,0.5969387755102041,0.5969387755102041,0.5969387755102041,0.5969387755102041,0.5969387755102041,0.5969387755102041,0.5969387755102041,0.5969387755102041,0.5969387755102041,0.5969387755102041,0.5969387755102041,0.6003401360544217,0.6071428571428571,0.6105442176870748,0.6207482993197279,0.6275510204081632,0.6445578231292517,0.6581632653061225,0.6683673469387755,0.6785714285714286,0.6887755102040817,0.6955782312925171,0.7023809523809523,0.70578231292517,0.7091836734693877,0.7091836734693877,0.7091836734693877,0.7091836734693877,0.7091836734693877,0.7091836734693877,0.7091836734693877,0.7091836734693877,0.7091836734693877,0.7091836734693877,0.7091836734693877,0.7091836734693877,0.7125850340136054,0.7193877551020408,0.7397959183673469,0.7534013605442177,0.7772108843537415,0.8010204081632653,0.814625850340136,0.8214285714285714,0.8282312925170068,0.8282312925170068,0.8316326530612245,0.8316326530612245,0.8316326530612245,0.8316326530612245,0.8316326530612245,0.8316326530612245,0.8316326530612245,0.8316326530612245,0.8316326530612245,0.8316326530612245,0.8316326530612245,0.8316326530612245,0.8316326530612245,0.8316326530612245,0.8316326530612245,0.8316326530612245,0.8316326530612245,0.8316326530612245,0.8282312925170068,0.8282312925170068,0.8282312925170068,0.8282312925170068,0.8282312925170068,0.8282312925170068,0.8282312925170068,0.8282312925170068,0.8282312925170068,0.8282312925170068,0.8282312925170068,0.8282312925170068,0.8282312925170068,0.8282312925170068,0.8282312925170068,0.8282312925170068,0.8282312925170068,0.8282312925170068,0.8282312925170068,0.8282312925170068,0.8282312925170068,0.8282312925170068,0.8282312925170068,0.8282312925170068,0.8282312925170068,0.8282312925170068,0.8282312925170068,0.8282312925170068,0.8282312925170068,0.8282312925170068,0.8282312925170068,0.8282312925170068,0.8282312925170068,0.8282312925170068,0.8248299319727891,0.8214285714285714,0.8180272108843537,0.8180272108843537,0.814625850340136,0.814625850340136,0.814625850340136,0.814625850340136,0.814625850340136,0.814625850340136,0.814625850340136,0.814625850340136,0.814625850340136,0.814625850340136,0.814625850340136,0.814625850340136,0.814625850340136,0.814625850340136,0.814625850340136,0.814625850340136,0.814625850340136,0.814625850340136,0.814625850340136,0.814625850340136,0.814625850340136,0.814625850340136,0.814625850340136,0.8078231292517006,0.8010204081632653,0.79421768707483,0.7840136054421769,0.7670068027210885,0.7465986394557823,0.7227891156462585,0.70578231292517,0.6683673469387755,0.6275510204081632,0.5935374149659864,0.5629251700680272,0.5391156462585034,0.5255102040816326,0.5017006802721088,0.4744897959183674,0.4302721088435374,0.3758503401360544,0.31462585034013607,0.27380952380952384,0.23299319727891157,0.195578231292517,0.16156462585034015,0.14795918367346939,0.141156462585034,0.141156462585034,0.141156462585034,0.141156462585034,0.141156462585034,0.141156462585034,0.141156462585034,0.141156462585034,0.141156462585034,0.141156462585034,0.141156462585034,0.141156462585034,0.141156462585034,0.141156462585034,0.141156462585034,0.141156462585034,0.141156462585034,0.141156462585034,0.141156462585034,0.141156462585034,0.141156462585034,0.141156462585034,0.141156462585034,0.141156462585034,0.141156462585034,0.141156462585034,0.141156462585034,0.141156462585034,0.141156462585034,0.141156462585034,0.141156462585034,0.141156462585034,0.141156462585034,0.141156462585034,0.141156462585034,0.141156462585034,0.141156462585034,0.141156462585034,0.141156462585034,0.141156462585034,0.141156462585034,0.141156462585034,0.141156462585034,0.141156462585034,0.141156462585034,0.141156462585034,0.141156462585034,0.141156462585034,0.15476190476190477,0.17517006802721088,0.20238095238095238,0.2465986394557823,0.304421768707483,0.3656462585034014,0.4166666666666667,0.45068027210884354,0.4642857142857143,0.4744897959183674,0.477891156462585,0.477891156462585,0.477891156462585,0.477891156462585,0.477891156462585,0.4812925170068027,0.4846938775510204,0.4880952380952381,0.49489795918367346,0.49829931972789115,0.5051020408163265,0.5051020408163265,0.5085034013605442,0.5085034013605442,0.5119047619047619,0.5119047619047619,0.5119047619047619,0.5187074829931972,0.5221088435374149,0.5221088435374149,0.5255102040816326,0.5289115646258503,0.5289115646258503,0.532312925170068,0.532312925170068,0.532312925170068,0.5357142857142857,0.5357142857142857,0.5391156462585034,0.5391156462585034,0.5459183673469388,0.5459183673469388,0.5493197278911565,0.5493197278911565,0.5493197278911565,0.5493197278911565,0.5493197278911565,0.5493197278911565,0.5493197278911565,0.5493197278911565,0.5493197278911565,0.5493197278911565,0.5493197278911565,0.5493197278911565,0.5493197278911565,0.5493197278911565,0.5493197278911565,0.5493197278911565,0.5493197278911565,0.5459183673469388,0.5391156462585034,0.5357142857142857,0.5289115646258503,0.5289115646258503,0.5255102040816326,0.5221088435374149,0.5153061224489796,0.5085034013605442,0.5017006802721088,0.49489795918367346,0.4914965986394558,0.4880952380952381,0.477891156462585,0.467687074829932,0.4574829931972789,0.44727891156462585,0.4370748299319728,0.42346938775510207,0.4098639455782313,0.39965986394557823,0.38605442176870747,0.3758503401360544,0.36904761904761907,0.3622448979591837,0.3520408163265306,0.34183673469387754,0.33503401360544216,0.32482993197278914,0.31462585034013607,0.3010204081632653,0.29081632653061223,0.29081632653061223,0.29081632653061223,0.29081632653061223,0.29081632653061223,0.29081632653061223,0.29081632653061223,0.29081632653061223,0.29081632653061223,0.29081632653061223,0.29081632653061223,0.29081632653061223,0.29081632653061223,0.29081632653061223,0.29081632653061223,0.29081632653061223,0.29081632653061223,0.29081632653061223,0.29081632653061223,0.29081632653061223,0.29081632653061223,0.29081632653061223,0.29081632653061223,0.29081632653061223,0.29081632653061223,0.29081632653061223,0.29081632653061223,0.29081632653061223,0.29081632653061223,0.29081632653061223,0.29081632653061223,0.29081632653061223,0.29081632653061223,0.2976190476190476,0.3010204081632653,0.3078231292517007,0.31802721088435376,0.33503401360544216,0.358843537414966,0.39285714285714285,0.44047619047619047,0.4710884353741497,0.5221088435374149,0.5697278911564626,0.6071428571428571,0.6377551020408163,0.6649659863945578,0.6751700680272109,0.6819727891156463,0.6819727891156463,0.6819727891156463,0.685374149659864,0.685374149659864,0.685374149659864,0.685374149659864,0.6887755102040817,0.6887755102040817,0.6887755102040817,0.6887755102040817,0.6887755102040817,0.6887755102040817,0.6887755102040817,0.6887755102040817,0.6887755102040817,0.6887755102040817,0.6887755102040817,0.6887755102040817,0.6887755102040817,0.6887755102040817,0.6887755102040817,0.685374149659864,0.6751700680272109,0.6683673469387755,0.6581632653061225,0.641156462585034,0.6173469387755102,0.5935374149659864,0.576530612244898,0.5663265306122449,0.5595238095238095,0.5595238095238095,0.5561224489795918,0.5493197278911565,0.5357142857142857,0.5289115646258503,0.5119047619047619,0.4914965986394558,0.4744897959183674,0.4608843537414966,0.45408163265306123,0.45408163265306123,0.45408163265306123,0.45408163265306123,0.45408163265306123,0.45408163265306123,0.45408163265306123,0.45408163265306123,0.45408163265306123,0.45408163265306123,0.45408163265306123,0.45408163265306123,0.45408163265306123,0.45408163265306123,0.45408163265306123,0.45408163265306123,0.45408163265306123,0.45408163265306123,0.45408163265306123,0.45408163265306123,0.4574829931972789,0.4608843537414966,0.4642857142857143,0.4642857142857143,0.4744897959183674,0.4880952380952381,0.49829931972789115,0.5187074829931972,0.5391156462585034,0.5561224489795918,0.5731292517006803,0.5901360544217688,0.5969387755102041,0.5969387755102041,0.5969387755102041,0.6037414965986394,0.6105442176870748,0.6139455782312925,0.6207482993197279,0.6241496598639455,0.6275510204081632,0.6309523809523809,0.6343537414965986,0.6377551020408163,0.641156462585034,0.641156462585034,0.6445578231292517,0.6445578231292517,0.6479591836734694,0.6513605442176871,0.6513605442176871,0.6547619047619048,0.6581632653061225,0.6615646258503401,0.6683673469387755,0.6751700680272109,0.6819727891156463,0.6887755102040817,0.7023809523809523,0.7091836734693877,0.7125850340136054,0.7125850340136054,0.7125850340136054,0.7125850340136054,0.7125850340136054,0.7125850340136054,0.7125850340136054,0.7125850340136054,0.7125850340136054,0.7125850340136054,0.7125850340136054,0.7125850340136054,0.7125850340136054,0.7125850340136054,0.7125850340136054,0.7125850340136054,0.7125850340136054,0.7125850340136054,0.7125850340136054,0.7125850340136054,0.7125850340136054,0.7125850340136054,0.7125850340136054,0.7125850340136054,0.7125850340136054,0.7125850340136054,0.7125850340136054,0.7125850340136054,0.7125850340136054,0.7125850340136054,0.7125850340136054,0.7125850340136054,0.7125850340136054,0.7125850340136054,0.7125850340136054,0.7125850340136054,0.7125850340136054,0.7125850340136054,0.7125850340136054,0.7125850340136054,0.7125850340136054,0.7125850340136054,0.7091836734693877,0.7023809523809523,0.6921768707482994,0.6819727891156463,0.6717687074829932,0.6547619047619048,0.6309523809523809,0.6071428571428571,0.5901360544217688,0.576530612244898,0.5697278911564626,0.5629251700680272,0.5629251700680272,0.5629251700680272,0.5629251700680272,0.5629251700680272,0.5629251700680272,0.5629251700680272,0.5629251700680272,0.5629251700680272,0.5629251700680272,0.5629251700680272,0.5629251700680272,0.5629251700680272,0.5629251700680272,0.5629251700680272,0.5629251700680272,0.5629251700680272,0.5629251700680272,0.5629251700680272,0.5629251700680272,0.5629251700680272,0.5629251700680272,0.5629251700680272,0.5629251700680272,0.5629251700680272,0.5629251700680272,0.5629251700680272,0.5629251700680272,0.5629251700680272,0.5629251700680272,0.5629251700680272,0.5629251700680272,0.5629251700680272,0.5629251700680272,0.5629251700680272,0.5629251700680272,0.5629251700680272,0.5629251700680272,0.5629251700680272,0.5629251700680272,0.5629251700680272,0.5663265306122449,0.576530612244898,0.6003401360544217,0.641156462585034,0.685374149659864,0.7363945578231292,0.7908163265306123,0.8282312925170068,0.858843537414966,0.8690476190476191,0.8690476190476191,0.8690476190476191,0.8690476190476191,0.8690476190476191,0.8690476190476191,0.8690476190476191,0.8690476190476191,0.8690476190476191,0.8690476190476191,0.8690476190476191,0.8690476190476191,0.8690476190476191,0.8690476190476191,0.8690476190476191,0.8690476190476191,0.8690476190476191,0.8690476190476191,0.8690476190476191,0.8690476190476191,0.8690476190476191,0.8690476190476191,0.8690476190476191,0.8690476190476191,0.8690476190476191,0.8690476190476191,0.8690476190476191,0.8690476190476191,0.8690476190476191,0.8690476190476191,0.8690476190476191,0.8690476190476191,0.8690476190476191,0.8690476190476191,0.8690476190476191,0.8690476190476191,0.8690476190476191,0.8690476190476191,0.8690476190476191,0.8690476190476191,0.8690476190476191,0.8690476190476191,0.8690476190476191,0.8690476190476191,0.8690476190476191,0.8690476190476191,0.8690476190476191,0.8690476190476191,0.8690476190476191,0.8690476190476191,0.8690476190476191,0.8690476190476191,0.8690476190476191,0.8690476190476191,0.8690476190476191,0.8690476190476191,0.8690476190476191,0.8690476190476191,0.8690476190476191,0.8690476190476191,0.8690476190476191,0.8690476190476191,0.8690476190476191,0.8690476190476191,0.8690476190476191,0.8690476190476191,0.8690476190476191,0.8690476190476191,0.8690476190476191,0.8690476190476191,0.8690476190476191,0.8690476190476191,0.8690476190476191,0.8690476190476191,0.8690476190476191,0.8690476190476191,0.8690476190476191,0.8690476190476191,0.8690476190476191,0.8690476190476191,0.8690476190476191,0.8690476190476191,0.8690476190476191,0.8656462585034014,0.8554421768707483,0.8486394557823129,0.8452380952380952,0.8452380952380952,0.8452380952380952,0.8452380952380952,0.8452380952380952,0.8452380952380952,0.8452380952380952,0.8452380952380952,0.8452380952380952,0.8418367346938775,0.8418367346938775,0.8418367346938775,0.8418367346938775,0.8452380952380952,0.8486394557823129,0.8486394557823129,0.8520408163265306,0.8520408163265306,0.8520408163265306,0.8520408163265306,0.8520408163265306,0.8520408163265306,0.8520408163265306,0.8520408163265306,0.8520408163265306,0.8520408163265306,0.8520408163265306,0.8520408163265306,0.8520408163265306,0.8520408163265306,0.8520408163265306,0.8520408163265306,0.8520408163265306,0.8520408163265306,0.8520408163265306,0.8520408163265306,0.8486394557823129,0.8384353741496599,0.8214285714285714,0.8010204081632653,0.7806122448979592,0.7636054421768708,0.7397959183673469,0.7159863945578231,0.6955782312925171,0.6751700680272109,0.6547619047619048,0.641156462585034,0.6275510204081632,0.6139455782312925,0.6071428571428571,0.6003401360544217,0.5901360544217688,0.5799319727891157,0.5697278911564626,0.5561224489795918,0.5391156462585034,0.5187074829931972,0.5017006802721088,0.49489795918367346,0.4880952380952381,0.4846938775510204,0.4744897959183674,0.4642857142857143,0.45408163265306123,0.44387755102040816,0.4336734693877551,0.4200680272108844,0.4030612244897959,0.38945578231292516,0.37244897959183676,0.3622448979591837,0.34523809523809523,0.33843537414965985,0.3282312925170068,0.32482993197278914,0.32482993197278914,0.32482993197278914,0.32482993197278914,0.32482993197278914,0.32482993197278914,0.32482993197278914,0.32482993197278914,0.3282312925170068,0.33503401360544216,0.34523809523809523,0.3554421768707483,0.37244897959183676,0.3826530612244898,0.38945578231292516,0.38945578231292516,0.38945578231292516,0.38945578231292516,0.38945578231292516,0.38945578231292516,0.38945578231292516,0.3826530612244898,0.3758503401360544,0.3622448979591837,0.34183673469387754,0.31802721088435376,0.2976190476190476,0.27721088435374147,0.26700680272108845,0.2602040816326531,0.2568027210884354,0.2568027210884354,0.2568027210884354,0.2534013605442177,0.2465986394557823,0.23639455782312926,0.2261904761904762,0.21258503401360543,0.20238095238095238,0.195578231292517,0.18877551020408162,0.18537414965986396,0.17517006802721088,0.1649659863945578,0.15476190476190477,0.1445578231292517,0.1377551020408163,0.12755102040816327,0.11394557823129252,0.09693877551020408,0.07993197278911565,0.0663265306122449,0.05952380952380952,0.05612244897959184,0.05612244897959184,0.05612244897959184,0.05612244897959184,0.05612244897959184,0.05612244897959184,0.05612244897959184,0.05272108843537415,0.04931972789115646,0.04251700680272109,0.0391156462585034,0.0391156462585034,0.0391156462585034,0.0391156462585034,0.0391156462585034,0.0391156462585034,0.0391156462585034,0.0391156462585034,0.0391156462585034,0.0391156462585034,0.0391156462585034,0.0391156462585034,0.0391156462585034,0.0391156462585034,0.0391156462585034,0.05612244897959184,0.07653061224489796,0.10034013605442177,0.12414965986394558,0.1445578231292517,0.15816326530612246,0.17857142857142858,0.18877551020408162,0.1921768707482993,0.195578231292517,0.1989795918367347,0.1989795918367347,0.1989795918367347,0.20238095238095238,0.20238095238095238,0.20238095238095238,0.20238095238095238,0.20238095238095238,0.20238095238095238,0.20238095238095238,0.1989795918367347,0.195578231292517,0.1921768707482993,0.18537414965986396,0.18537414965986396,0.18197278911564627,0.18197278911564627,0.18197278911564627,0.18197278911564627,0.18197278911564627,0.17857142857142858,0.17857142857142858,0.17857142857142858,0.17857142857142858,0.17857142857142858,0.17857142857142858,0.17857142857142858,0.17857142857142858,0.17857142857142858,0.17857142857142858,0.18537414965986396,0.1989795918367347,0.21258503401360543,0.22959183673469388,0.25,0.26360544217687076,0.27721088435374147,0.29081632653061223,0.2976190476190476,0.3112244897959184,0.32482993197278914,0.33503401360544216,0.33843537414965985,0.33843537414965985,0.33843537414965985,0.33843537414965985,0.33843537414965985,0.33843537414965985,0.33843537414965985,0.33843537414965985,0.33843537414965985,0.33843537414965985,0.33843537414965985,0.33843537414965985,0.33843537414965985,0.3282312925170068,0.31802721088435376,0.3078231292517007,0.2976190476190476,0.2976190476190476,0.2976190476190476,0.2976190476190476,0.2976190476190476,0.2976190476190476,0.2976190476190476,0.2976190476190476,0.2976190476190476,0.2976190476190476,0.2976190476190476,0.2976190476190476,0.2976190476190476,0.2976190476190476,0.2976190476190476,0.2976190476190476,0.2976190476190476,0.2976190476190476,0.2976190476190476,0.2976190476190476,0.2942176870748299,0.2942176870748299,0.2942176870748299,0.2942176870748299,0.2976190476190476,0.3010204081632653,0.304421768707483,0.31462585034013607,0.32482993197278914,0.33843537414965985,0.3554421768707483,0.3758503401360544,0.4030612244897959,0.42346938775510207,0.44727891156462585,0.467687074829932,0.4880952380952381,0.5085034013605442,0.5255102040816326,0.5357142857142857,0.5425170068027211,0.5493197278911565,0.5527210884353742,0.5595238095238095,0.5629251700680272,0.5629251700680272,0.5629251700680272,0.5629251700680272,0.5629251700680272,0.5629251700680272,0.5629251700680272,0.5629251700680272,0.5629251700680272,0.5561224489795918,0.5527210884353742,0.5493197278911565,0.5493197278911565,0.5493197278911565,0.5493197278911565,0.5459183673469388,0.5391156462585034,0.5289115646258503,0.5085034013605442,0.49489795918367346,0.4846938775510204,0.477891156462585,0.467687074829932,0.4574829931972789,0.44387755102040816,0.4336734693877551,0.42346938775510207,0.42346938775510207,0.42346938775510207,0.42346938775510207,0.42346938775510207,0.42346938775510207,0.42346938775510207,0.42346938775510207,0.42346938775510207,0.42346938775510207,0.42346938775510207,0.42346938775510207,0.42346938775510207,0.42346938775510207,0.42346938775510207,0.42346938775510207,0.42346938775510207,0.42346938775510207,0.42346938775510207,0.4302721088435374,0.4370748299319728,0.44387755102040816,0.45408163265306123,0.467687074829932,0.4880952380952381,0.49829931972789115,0.5085034013605442,0.5187074829931972,0.532312925170068,0.5527210884353742,0.5799319727891157,0.6037414965986394,0.6207482993197279,0.6309523809523809,0.6445578231292517,0.6479591836734694,0.6479591836734694,0.6479591836734694,0.6513605442176871,0.6513605442176871,0.6479591836734694,0.6445578231292517,0.6377551020408163,0.6343537414965986,0.6275510204081632,0.6207482993197279,0.6139455782312925,0.6105442176870748,0.6105442176870748,0.6105442176870748,0.6105442176870748,0.6105442176870748,0.6105442176870748,0.6105442176870748,0.6105442176870748,0.6105442176870748,0.6105442176870748,0.6105442176870748,0.6105442176870748,0.6105442176870748,0.6105442176870748,0.6105442176870748,0.6105442176870748,0.6105442176870748,0.6105442176870748,0.6105442176870748,0.6139455782312925,0.6173469387755102,0.6207482993197279,0.6309523809523809,0.6377551020408163,0.6479591836734694,0.6513605442176871,0.6615646258503401,0.6683673469387755,0.6751700680272109,0.6785714285714286,0.6887755102040817,0.6989795918367347,0.7091836734693877,0.7193877551020408,0.7329931972789115,0.7465986394557823,0.7568027210884354,0.7738095238095238,0.7874149659863946,0.7976190476190477,0.8078231292517006,0.8112244897959183,0.8112244897959183,0.8112244897959183,0.8112244897959183,0.8112244897959183,0.814625850340136,0.814625850340136,0.814625850340136,0.814625850340136,0.814625850340136,0.814625850340136,0.814625850340136,0.814625850340136,0.814625850340136,0.814625850340136,0.8010204081632653,0.7840136054421769,0.7806122448979592,0.7806122448979592,0.7806122448979592,0.7806122448979592,0.7806122448979592,0.7772108843537415,0.7738095238095238,0.7738095238095238,0.7738095238095238,0.7738095238095238,0.7738095238095238,0.7738095238095238,0.7738095238095238,0.7738095238095238,0.7738095238095238,0.7738095238095238,0.7738095238095238,0.7738095238095238,0.7738095238095238,0.7738095238095238,0.7738095238095238,0.7738095238095238,0.7738095238095238,0.7738095238095238,0.7738095238095238,0.7738095238095238,0.7738095238095238,0.7738095238095238,0.7738095238095238,0.7738095238095238,0.7738095238095238,0.7738095238095238,0.7738095238095238,0.7738095238095238,0.7738095238095238,0.7738095238095238,0.7738095238095238,0.7738095238095238,0.7738095238095238,0.7738095238095238,0.7738095238095238,0.7738095238095238,0.7772108843537415,0.7806122448979592,0.7840136054421769,0.7840136054421769,0.7840136054421769,0.7840136054421769,0.7874149659863946,0.7874149659863946,0.7874149659863946,0.7874149659863946,0.7874149659863946,0.7874149659863946,0.7874149659863946,0.7874149659863946,0.7874149659863946,0.7874149659863946,0.7874149659863946,0.7874149659863946,0.7874149659863946,0.7874149659863946,0.7874149659863946,0.7874149659863946,0.7874149659863946,0.7874149659863946,0.7874149659863946,0.7874149659863946,0.7874149659863946,0.7874149659863946,0.7874149659863946,0.7874149659863946,0.7874149659863946,0.7874149659863946,0.7874149659863946,0.7874149659863946,0.7874149659863946,0.7874149659863946,0.7874149659863946,0.7874149659863946,0.7874149659863946,0.7874149659863946,0.7874149659863946,0.7874149659863946,0.7874149659863946,0.7874149659863946,0.7874149659863946,0.7874149659863946,0.7874149659863946,0.7874149659863946,0.7874149659863946,0.7874149659863946,0.7874149659863946,0.7874149659863946,0.7874149659863946,0.7874149659863946,0.7874149659863946,0.7874149659863946,0.7874149659863946,0.7874149659863946,0.7874149659863946,0.7874149659863946,0.7874149659863946,0.7874149659863946,0.7874149659863946,0.7874149659863946,0.7874149659863946,0.7874149659863946,0.7874149659863946,0.7874149659863946,0.7874149659863946,0.7874149659863946,0.7874149659863946,0.7874149659863946,0.7874149659863946,0.7874149659863946,0.7874149659863946,0.7874149659863946,0.7874149659863946,0.7840136054421769,0.7772108843537415,0.7670068027210885,0.7602040816326531,0.7465986394557823,0.7397959183673469,0.7363945578231292,0.7363945578231292,0.7329931972789115,0.7329931972789115,0.7329931972789115,0.7329931972789115,0.7329931972789115,0.7329931972789115,0.7329931972789115,0.7329931972789115,0.7329931972789115,0.7329931972789115,0.7329931972789115,0.7329931972789115,0.7329931972789115,0.7329931972789115,0.7329931972789115,0.7329931972789115,0.7329931972789115,0.7329931972789115,0.7329931972789115,0.7329931972789115,0.7329931972789115,0.7329931972789115,0.7329931972789115,0.7329931972789115,0.7329931972789115,0.7329931972789115,0.7329931972789115,0.7329931972789115,0.7329931972789115,0.7329931972789115,0.7329931972789115,0.7295918367346939,0.7295918367346939,0.7295918367346939,0.7295918367346939,0.7295918367346939,0.7295918367346939,0.7295918367346939,0.7295918367346939,0.7295918367346939,0.7295918367346939,0.7295918367346939,0.7295918367346939,0.7295918367346939,0.7295918367346939,0.7295918367346939,0.7295918367346939,0.7295918367346939,0.7295918367346939,0.7295918367346939,0.7295918367346939,0.7295918367346939,0.7295918367346939,0.7295918367346939,0.7295918367346939,0.7295918367346939,0.7193877551020408,0.70578231292517,0.6921768707482994,0.6819727891156463,0.6751700680272109,0.6649659863945578,0.6581632653061225,0.6513605442176871,0.6377551020408163,0.6275510204081632,0.6139455782312925,0.5935374149659864,0.576530612244898,0.5493197278911565,0.5187074829931972,0.49489795918367346,0.4642857142857143,0.4336734693877551,0.4064625850340136,0.38945578231292516,0.3826530612244898,0.3826530612244898,0.3826530612244898,0.3826530612244898,0.38945578231292516,0.4166666666666667,0.4642857142857143,0.5357142857142857,0.6037414965986394,0.6887755102040817,0.7602040816326531,0.8282312925170068,0.8656462585034014,0.8962585034013606,0.9098639455782312,0.923469387755102,0.9268707482993197,0.9268707482993197,0.9268707482993197,0.9268707482993197,0.9268707482993197,0.9302721088435374,0.9336734693877551,0.9336734693877551,0.9336734693877551,0.9336734693877551,0.9370748299319728,0.9370748299319728,0.9404761904761905,0.9438775510204082,0.9438775510204082,0.9438775510204082,0.9472789115646258,0.9506802721088435,0.9506802721088435,0.9506802721088435,0.9506802721088435,0.9506802721088435,0.9506802721088435,0.9506802721088435,0.9506802721088435,0.9506802721088435,0.9506802721088435,0.9506802721088435,0.9506802721088435,0.9506802721088435,0.9506802721088435,0.9506802721088435,0.9506802721088435,0.9506802721088435,0.9506802721088435,0.9506802721088435,0.9506802721088435,0.9506802721088435,0.9506802721088435,0.9506802721088435,0.9506802721088435,0.9506802721088435,0.9506802721088435,0.9506802721088435,0.9506802721088435,0.9472789115646258,0.9438775510204082,0.9336734693877551,0.923469387755102,0.9166666666666666,0.9030612244897959,0.8894557823129252,0.8724489795918368,0.8554421768707483,0.8384353741496599,0.814625850340136,0.7840136054421769,0.75,0.7125850340136054,0.6785714285714286,0.6513605442176871,0.6173469387755102,0.5731292517006803,0.5357142857142857,0.49489795918367346,0.4642857142857143,0.44387755102040816,0.42346938775510207,0.4098639455782313,0.4030612244897959,0.4030612244897959,0.39965986394557823,0.39965986394557823,0.39625850340136054,0.39285714285714285,0.39285714285714285,0.38945578231292516,0.38945578231292516,0.38605442176870747,0.3826530612244898,0.37244897959183676,0.3554421768707483,0.3282312925170068,0.3010204081632653,0.27380952380952384,0.25,0.23639455782312926,0.2261904761904762,0.21598639455782312,0.21258503401360543,0.20578231292517007,0.20238095238095238,0.1989795918367347,0.1921768707482993,0.18877551020408162,0.18197278911564627,0.17857142857142858,0.17517006802721088,0.1683673469387755,0.16156462585034015,0.15476190476190477,0.14795918367346939,0.1445578231292517,0.1445578231292517,0.1445578231292517,0.1445578231292517,0.1445578231292517,0.1445578231292517,0.1445578231292517,0.1445578231292517,0.1445578231292517,0.1445578231292517,0.1445578231292517,0.1445578231292517,0.1445578231292517,0.1445578231292517,0.15136054421768708,0.15816326530612246,0.1683673469387755,0.18537414965986396,0.195578231292517,0.20578231292517007,0.21258503401360543,0.2227891156462585,0.22959183673469388,0.23979591836734693,0.26360544217687076,0.29081632653061223,0.34523809523809523,0.4200680272108844,0.5357142857142857,0.6479591836734694,0.7670068027210885,0.8554421768707483,0.9302721088435374,0.9948979591836735,1.0391156462585034,1.0629251700680271,1.0629251700680271,1.0629251700680271,1.0629251700680271,1.0629251700680271,1.066326530612245,1.0731292517006803,1.0765306122448979,1.0833333333333333,1.086734693877551,1.0901360544217686,1.0901360544217686,1.0901360544217686,1.0935374149659864,1.0935374149659864,1.0935374149659864,1.1003401360544218,1.1105442176870748,1.1173469387755102,1.1275510204081634,1.1343537414965987,1.1343537414965987,1.1343537414965987,1.1343537414965987,1.1343537414965987,1.1343537414965987,1.1343537414965987,1.1343537414965987,1.1343537414965987,1.1343537414965987,1.1343537414965987,1.1343537414965987,1.1343537414965987,1.1343537414965987,1.1343537414965987,1.1343537414965987,1.1343537414965987,1.1343537414965987,1.1343537414965987,1.1343537414965987,1.1343537414965987,1.1343537414965987,1.1343537414965987,1.1343537414965987,1.1343537414965987,1.1343537414965987,1.1343537414965987,1.1343537414965987,1.1343537414965987,1.1343537414965987,1.1343537414965987,1.1343537414965987,1.1343537414965987,1.1377551020408163,1.1411564625850341,1.1445578231292517,1.1445578231292517,1.1445578231292517,1.1445578231292517,1.1445578231292517,1.1445578231292517,1.1377551020408163,1.1275510204081634,1.120748299319728,1.1105442176870748,1.0935374149659864,1.0697278911564625,1.0459183673469388,1.0187074829931972,0.9880952380952381,0.967687074829932,0.9302721088435374,0.8996598639455783,0.8690476190476191,0.8418367346938775,0.8180272108843537,0.8044217687074829,0.79421768707483,0.7908163265306123,0.7874149659863946,0.7840136054421769,0.7806122448979592,0.7772108843537415,0.7772108843537415,0.7772108843537415,0.7772108843537415,0.7772108843537415,0.7772108843537415,0.7772108843537415,0.7772108843537415,0.7772108843537415,0.7772108843537415,0.7772108843537415,0.7806122448979592,0.7806122448979592,0.7806122448979592,0.7806122448979592,0.7772108843537415,0.7772108843537415,0.7772108843537415,0.7772108843537415,0.7772108843537415,0.7738095238095238,0.7670068027210885,0.7636054421768708,0.7636054421768708,0.7636054421768708,0.7704081632653061,0.7840136054421769,0.8044217687074829,0.8316326530612245,0.8758503401360545,0.9268707482993197,0.967687074829932,1.0187074829931972,1.0697278911564625,1.1173469387755102,1.16156462585034,1.1989795918367347,1.2261904761904763,1.2363945578231292,1.2431972789115646,1.25,1.25,1.25,1.25,1.25,1.25,1.25,1.25,1.2534013605442176,1.2568027210884354,1.2568027210884354,1.2568027210884354,1.2568027210884354,1.2568027210884354,1.2568027210884354,1.2534013605442176,1.2534013605442176,1.2534013605442176,1.25,1.2431972789115646,1.239795918367347,1.2329931972789117,1.2295918367346939,1.2261904761904763,1.2261904761904763,1.2261904761904763,1.2261904761904763,1.2261904761904763,1.2261904761904763,1.2261904761904763,1.2261904761904763,1.2261904761904763],"y":[-4.285714285714286,-4.285714285714286,-4.285714285714286,-4.285714285714286,-4.285714285714286,-4.285714285714286,-4.285714285714286,-4.285714285714286,0.8333333333333334,0.8333333333333334,0.8523809523809524,0.8714285714285714,0.9095238095238095,0.9476190476190476,0.9857142857142858,1.0047619047619047,1.0047619047619047,1.0047619047619047,0.9761904761904762,0.9380952380952381,0.9095238095238095,0.8809523809523809,0.8523809523809524,0.8428571428571429,0.8142857142857143,0.7952380952380952,0.7571428571428571,0.7380952380952381,0.7380952380952381,0.7380952380952381,0.7380952380952381,0.7380952380952381,0.7380952380952381,0.7380952380952381,0.7380952380952381,0.7380952380952381,0.7380952380952381,0.7380952380952381,0.7380952380952381,0.7380952380952381,0.7380952380952381,0.7380952380952381,0.7380952380952381,0.7476190476190476,0.7476190476190476,0.7571428571428571,0.7571428571428571,0.7571428571428571,0.7571428571428571,0.7571428571428571,0.7571428571428571,0.7571428571428571,0.7571428571428571,0.7571428571428571,0.7571428571428571,0.7571428571428571,0.7571428571428571,0.7571428571428571,0.7571428571428571,0.7571428571428571,0.7571428571428571,0.7571428571428571,0.7571428571428571,0.7571428571428571,0.7571428571428571,0.7571428571428571,0.7571428571428571,0.7571428571428571,0.7571428571428571,0.7571428571428571,0.7571428571428571,0.7571428571428571,0.7571428571428571,0.7571428571428571,0.7571428571428571,0.7571428571428571,0.7571428571428571,0.7571428571428571,0.7571428571428571,0.7380952380952381,0.7285714285714285,0.719047619047619,0.719047619047619,0.719047619047619,0.719047619047619,0.719047619047619,0.719047619047619,0.719047619047619,0.719047619047619,0.7,0.6904761904761905,0.6619047619047619,0.6047619047619047,0.5190476190476191,0.43333333333333335,0.36666666666666664,0.2904761904761905,0.24285714285714285,0.19523809523809524,0.16666666666666666,0.16666666666666666,0.16666666666666666,0.16666666666666666,0.16666666666666666,0.15714285714285714,0.15714285714285714,0.14761904761904762,0.14761904761904762,0.14761904761904762,0.1380952380952381,0.1380952380952381,0.12857142857142856,0.12857142857142856,0.11904761904761904,0.10952380952380952,0.1,0.09047619047619047,0.08095238095238096,0.08095238095238096,0.06190476190476191,0.04285714285714286,0.023809523809523808,0.014285714285714285,-0.004761904761904762,-0.014285714285714285,-0.014285714285714285,-0.014285714285714285,-0.014285714285714285,-0.014285714285714285,-0.014285714285714285,-0.014285714285714285,-0.014285714285714285,-0.014285714285714285,-0.014285714285714285,-0.014285714285714285,-0.014285714285714285,-0.014285714285714285,-0.014285714285714285,-0.014285714285714285,-0.014285714285714285,-0.014285714285714285,-0.014285714285714285,-0.014285714285714285,-0.014285714285714285,-0.014285714285714285,-0.014285714285714285,-0.014285714285714285,-0.014285714285714285,-0.014285714285714285,-0.014285714285714285,-0.014285714285714285,-0.014285714285714285,-0.014285714285714285,-0.014285714285714285,-0.014285714285714285,-0.014285714285714285,-0.014285714285714285,-0.014285714285714285,-0.014285714285714285,-0.014285714285714285,-0.014285714285714285,-0.014285714285714285,-0.004761904761904762,-0.004761904761904762,0.004761904761904762,0.014285714285714285,0.023809523809523808,0.03333333333333333,0.06190476190476191,0.08095238095238096,0.1,0.12857142857142856,0.1380952380952381,0.14761904761904762,0.14761904761904762,0.15714285714285714,0.15714285714285714,0.15714285714285714,0.15714285714285714,0.15714285714285714,0.15714285714285714,0.1380952380952381,0.12857142857142856,0.11904761904761904,0.11904761904761904,0.1,0.1,0.1,0.1,0.1,0.1,0.1,0.1,0.1,0.1,0.1,0.1,0.1,0.1,0.1,0.1,0.1,0.1,0.1,0.1,0.1,0.1,0.1,0.11904761904761904,0.12857142857142856,0.1380952380952381,0.14761904761904762,0.15714285714285714,0.15714285714285714,0.16666666666666666,0.1761904761904762,0.19523809523809524,0.20476190476190476,0.20476190476190476,0.20476190476190476,0.20476190476190476,0.20476190476190476,0.21428571428571427,0.21428571428571427,0.23333333333333334,0.2619047619047619,0.2904761904761905,0.30952380952380953,0.3380952380952381,0.36666666666666664,0.3952380952380952,0.4142857142857143,0.4238095238095238,0.44285714285714284,0.46190476190476193,0.48095238095238096,0.49047619047619045,0.49047619047619045,0.49047619047619045,0.49047619047619045,0.49047619047619045,0.49047619047619045,0.49047619047619045,0.49047619047619045,0.49047619047619045,0.49047619047619045,0.49047619047619045,0.49047619047619045,0.49047619047619045,0.49047619047619045,0.49047619047619045,0.49047619047619045,0.49047619047619045,0.49047619047619045,0.49047619047619045,0.49047619047619045,0.49047619047619045,0.49047619047619045,0.49047619047619045,0.49047619047619045,0.49047619047619045,0.4714285714285714,0.44285714285714284,0.4238095238095238,0.4142857142857143,0.40476190476190477,0.3952380952380952,0.3761904761904762,0.32857142857142857,0.2904761904761905,0.24285714285714285,0.24285714285714285,0.24285714285714285,0.24285714285714285,0.24285714285714285,0.24285714285714285,0.24285714285714285,0.24285714285714285,0.24285714285714285,0.24285714285714285,0.24285714285714285,0.24285714285714285,0.24285714285714285,0.22380952380952382,0.19523809523809524,0.1761904761904762,0.15714285714285714,0.14761904761904762,0.12857142857142856,0.12857142857142856,0.11904761904761904,0.11904761904761904,0.11904761904761904,0.11904761904761904,0.11904761904761904,0.11904761904761904,0.11904761904761904,0.11904761904761904,0.11904761904761904,0.11904761904761904,0.11904761904761904,0.11904761904761904,0.11904761904761904,0.11904761904761904,0.11904761904761904,0.11904761904761904,0.11904761904761904,0.11904761904761904,0.11904761904761904,0.11904761904761904,0.11904761904761904,0.11904761904761904,0.11904761904761904,0.11904761904761904,0.11904761904761904,0.11904761904761904,0.11904761904761904,0.12857142857142856,0.1380952380952381,0.14761904761904762,0.16666666666666666,0.18571428571428572,0.20476190476190476,0.21428571428571427,0.22380952380952382,0.24285714285714285,0.2523809523809524,0.2619047619047619,0.2619047619047619,0.2619047619047619,0.2619047619047619,0.2619047619047619,0.2523809523809524,0.2523809523809524,0.2523809523809524,0.2523809523809524,0.2523809523809524,0.2523809523809524,0.22380952380952382,0.09047619047619047,-0.08095238095238096,-0.28095238095238095,-0.6142857142857143,-0.8714285714285714,-1.2619047619047619,-1.5,-1.7,-1.8238095238095238,-1.8904761904761904,-1.9285714285714286,-1.9476190476190476,-1.9476190476190476,-1.9476190476190476,-1.9476190476190476,-1.9476190476190476,-1.957142857142857,-1.957142857142857,-1.9666666666666666,-1.9761904761904763,-1.9761904761904763,-1.9857142857142858,-1.9857142857142858,-1.9857142857142858,-1.9666666666666666,-1.9476190476190476,-1.9285714285714286,-1.9095238095238096,-1.880952380952381,-1.8428571428571427,-1.776190476190476,-1.6523809523809523,-1.4904761904761905,-1.2904761904761906,-1.138095238095238,-0.919047619047619,-0.6428571428571429,-0.319047619047619,-0.023809523809523808,0.2904761904761905,0.5190476190476191,0.6333333333333333,0.7380952380952381,0.7857142857142857,0.7952380952380952,0.7952380952380952,0.7952380952380952,0.7952380952380952,0.7952380952380952,0.7952380952380952,0.7952380952380952,0.7952380952380952,0.7952380952380952,0.7952380952380952,0.7952380952380952,0.7952380952380952,0.7952380952380952,0.7952380952380952,0.7952380952380952,0.7571428571428571,0.7285714285714285,0.6904761904761905,0.6714285714285714,0.6714285714285714,0.6714285714285714,0.6714285714285714,0.6714285714285714,0.6714285714285714,0.6714285714285714,0.6714285714285714,0.6714285714285714,0.6714285714285714,0.6714285714285714,0.6714285714285714,0.6619047619047619,0.6142857142857143,0.5666666666666667,0.5,0.4714285714285714,0.4142857142857143,0.3952380952380952,0.36666666666666664,0.35714285714285715,0.35714285714285715,0.35714285714285715,0.3476190476190476,0.3476190476190476,0.3476190476190476,0.3476190476190476,0.3476190476190476,0.3476190476190476,0.3476190476190476,0.3476190476190476,0.3476190476190476,0.3476190476190476,0.3476190476190476,0.3476190476190476,0.3476190476190476,0.3476190476190476,0.3476190476190476,0.35714285714285715,0.38571428571428573,0.40476190476190477,0.4142857142857143,0.4238095238095238,0.4238095238095238,0.4142857142857143,0.38571428571428573,0.36666666666666664,0.35714285714285715,0.35714285714285715,0.35714285714285715,0.35714285714285715,0.35714285714285715,0.35714285714285715,0.35714285714285715,0.35714285714285715,0.35714285714285715,0.35714285714285715,0.35714285714285715,0.35714285714285715,0.35714285714285715,0.35714285714285715,0.35714285714285715,0.35714285714285715,0.3761904761904762,0.38571428571428573,0.38571428571428573,0.3952380952380952,0.3952380952380952,0.3952380952380952,0.3952380952380952,0.3952380952380952,0.3952380952380952,0.3952380952380952,0.3952380952380952,0.3952380952380952,0.3952380952380952,0.3952380952380952,0.3952380952380952,0.3952380952380952,0.3952380952380952,0.3952380952380952,0.3952380952380952,0.3952380952380952,0.3952380952380952,0.3952380952380952,0.3952380952380952,0.3952380952380952,0.3952380952380952,0.3952380952380952,0.3952380952380952,0.3952380952380952,0.3952380952380952,0.3952380952380952,0.3952380952380952,0.3952380952380952,0.3952380952380952,0.3952380952380952,0.3952380952380952,0.3952380952380952,0.3952380952380952,0.3952380952380952,0.3952380952380952,0.3952380952380952,0.3952380952380952,0.3952380952380952,0.3952380952380952,0.38571428571428573,0.38571428571428573,0.38571428571428573,0.3761904761904762,0.3761904761904762,0.3761904761904762,0.36666666666666664,0.36666666666666664,0.36666666666666664,0.36666666666666664,0.36666666666666664,0.36666666666666664,0.36666666666666664,0.36666666666666664,0.36666666666666664,0.36666666666666664,0.36666666666666664,0.36666666666666664,0.36666666666666664,0.36666666666666664,0.38571428571428573,0.3952380952380952,0.4238095238095238,0.4523809523809524,0.4714285714285714,0.5095238095238095,0.5380952380952381,0.5571428571428572,0.5761904761904761,0.5857142857142857,0.5952380952380952,0.5952380952380952,0.5952380952380952,0.5952380952380952,0.5952380952380952,0.5857142857142857,0.5761904761904761,0.5761904761904761,0.5761904761904761,0.5761904761904761,0.5761904761904761,0.5761904761904761,0.5761904761904761,0.5761904761904761,0.5761904761904761,0.5761904761904761,0.5761904761904761,0.5761904761904761,0.5761904761904761,0.5761904761904761,0.5761904761904761,0.5761904761904761,0.5761904761904761,0.5761904761904761,0.5761904761904761,0.5761904761904761,0.5761904761904761,0.5761904761904761,0.5761904761904761,0.5761904761904761,0.5761904761904761,0.5761904761904761,0.5761904761904761,0.5761904761904761,0.5761904761904761,0.5761904761904761,0.5761904761904761,0.5761904761904761,0.5761904761904761,0.5761904761904761,0.5761904761904761,0.5761904761904761,0.5761904761904761,0.5761904761904761,0.5761904761904761,0.5761904761904761,0.5761904761904761,0.5761904761904761,0.5761904761904761,0.5761904761904761,0.5761904761904761,0.5761904761904761,0.5761904761904761,0.5761904761904761,0.5761904761904761,0.5761904761904761,0.5761904761904761,0.5761904761904761,0.5761904761904761,0.5761904761904761,0.5761904761904761,0.5761904761904761,0.5761904761904761,0.5761904761904761,0.5761904761904761,0.5761904761904761,0.5761904761904761,0.5761904761904761,0.5761904761904761,0.5857142857142857,0.5857142857142857,0.5952380952380952,0.5952380952380952,0.5952380952380952,0.5952380952380952,0.5952380952380952,0.5952380952380952,0.6047619047619047,0.6047619047619047,0.6142857142857143,0.6142857142857143,0.6238095238095238,0.6238095238095238,0.6333333333333333,0.6333333333333333,0.6428571428571429,0.6428571428571429,0.6428571428571429,0.6428571428571429,0.6523809523809524,0.6523809523809524,0.6619047619047619,0.6619047619047619,0.6619047619047619,0.6619047619047619,0.6714285714285714,0.6714285714285714,0.6714285714285714,0.680952380952381,0.680952380952381,0.680952380952381,0.680952380952381,0.680952380952381,0.680952380952381,0.680952380952381,0.680952380952381,0.680952380952381,0.680952380952381,0.680952380952381,0.680952380952381,0.680952380952381,0.680952380952381,0.680952380952381,0.680952380952381,0.680952380952381,0.680952380952381,0.680952380952381,0.680952380952381,0.680952380952381,0.680952380952381,0.680952380952381,0.6714285714285714,0.6619047619047619,0.6619047619047619,0.6523809523809524,0.6523809523809524,0.6523809523809524,0.6523809523809524,0.6428571428571429,0.6333333333333333,0.6333333333333333,0.6333333333333333,0.6238095238095238,0.6238095238095238,0.6238095238095238,0.6238095238095238,0.6142857142857143,0.6047619047619047,0.6047619047619047,0.5952380952380952,0.5857142857142857,0.5857142857142857,0.5761904761904761,0.5761904761904761,0.5666666666666667,0.5666666666666667,0.5571428571428572,0.5476190476190477,0.5476190476190477,0.5380952380952381,0.5380952380952381,0.5190476190476191,0.5190476190476191,0.5095238095238095,0.5095238095238095,0.5095238095238095,0.5095238095238095,0.5095238095238095,0.5095238095238095,0.5095238095238095,0.5095238095238095,0.5095238095238095,0.5095238095238095,0.5095238095238095,0.5095238095238095,0.5095238095238095,0.5095238095238095,0.5095238095238095,0.5095238095238095,0.5095238095238095,0.5095238095238095,0.5095238095238095,0.5095238095238095,0.5095238095238095,0.5095238095238095,0.5095238095238095,0.5095238095238095,0.5095238095238095,0.5095238095238095,0.5095238095238095,0.5095238095238095,0.5095238095238095,0.5095238095238095,0.5095238095238095,0.5095238095238095,0.5095238095238095,0.5095238095238095,0.5095238095238095,0.5190476190476191,0.5380952380952381,0.5476190476190477,0.5666666666666667,0.5761904761904761,0.5761904761904761,0.5952380952380952,0.6047619047619047,0.6238095238095238,0.6333333333333333,0.6428571428571429,0.6428571428571429,0.6428571428571429,0.6428571428571429,0.6428571428571429,0.6428571428571429,0.6428571428571429,0.6428571428571429,0.6428571428571429,0.6428571428571429,0.6428571428571429,0.6428571428571429,0.6428571428571429,0.6428571428571429,0.6428571428571429,0.6428571428571429,0.6428571428571429,0.6428571428571429,0.6428571428571429,0.6428571428571429,0.6428571428571429,0.6428571428571429,0.6428571428571429,0.6428571428571429,0.6428571428571429,0.6238095238095238,0.6142857142857143,0.6047619047619047,0.5761904761904761,0.5571428571428572,0.5380952380952381,0.5285714285714286,0.5190476190476191,0.5190476190476191,0.5190476190476191,0.5190476190476191,0.5095238095238095,0.5,0.5,0.5,0.5,0.5,0.49047619047619045,0.49047619047619045,0.49047619047619045,0.49047619047619045,0.49047619047619045,0.49047619047619045,0.49047619047619045,0.49047619047619045,0.49047619047619045,0.49047619047619045,0.49047619047619045,0.49047619047619045,0.49047619047619045,0.49047619047619045,0.49047619047619045,0.49047619047619045,0.49047619047619045,0.49047619047619045,0.49047619047619045,0.49047619047619045,0.49047619047619045,0.49047619047619045,0.49047619047619045,0.5,0.5095238095238095,0.5190476190476191,0.5285714285714286,0.5476190476190477,0.5761904761904761,0.5952380952380952,0.6238095238095238,0.6428571428571429,0.6428571428571429,0.6523809523809524,0.6523809523809524,0.6523809523809524,0.6523809523809524,0.6523809523809524,0.6523809523809524,0.6523809523809524,0.6523809523809524,0.6523809523809524,0.6428571428571429,0.6238095238095238,0.6142857142857143,0.6047619047619047,0.5857142857142857,0.5666666666666667,0.5571428571428572,0.5476190476190477,0.5380952380952381,0.5285714285714286,0.5190476190476191,0.5095238095238095,0.5,0.5,0.49047619047619045,0.48095238095238096,0.48095238095238096,0.48095238095238096,0.48095238095238096,0.48095238095238096,0.48095238095238096,0.48095238095238096,0.48095238095238096,0.48095238095238096,0.48095238095238096,0.48095238095238096,0.48095238095238096,0.48095238095238096,0.48095238095238096,0.48095238095238096,0.48095238095238096,0.48095238095238096,0.48095238095238096,0.48095238095238096,0.48095238095238096,0.48095238095238096,0.48095238095238096,0.48095238095238096,0.48095238095238096,0.48095238095238096,0.48095238095238096,0.48095238095238096,0.48095238095238096,0.48095238095238096,0.48095238095238096,0.48095238095238096,0.48095238095238096,0.48095238095238096,0.48095238095238096,0.48095238095238096,0.48095238095238096,0.48095238095238096,0.48095238095238096,0.48095238095238096,0.48095238095238096,0.48095238095238096,0.48095238095238096,0.48095238095238096,0.48095238095238096,0.48095238095238096,0.48095238095238096,0.48095238095238096,0.48095238095238096,0.48095238095238096,0.48095238095238096,0.48095238095238096,0.49047619047619045,0.49047619047619045,0.49047619047619045,0.49047619047619045,0.49047619047619045,0.49047619047619045,0.49047619047619045,0.49047619047619045,0.49047619047619045,0.49047619047619045,0.49047619047619045,0.49047619047619045,0.49047619047619045,0.49047619047619045,0.49047619047619045,0.49047619047619045,0.49047619047619045,0.49047619047619045,0.49047619047619045,0.49047619047619045,0.49047619047619045,0.49047619047619045,0.49047619047619045,0.49047619047619045,0.49047619047619045,0.49047619047619045,0.49047619047619045,0.49047619047619045,0.49047619047619045,0.49047619047619045,0.49047619047619045,0.49047619047619045,0.49047619047619045,0.49047619047619045,0.49047619047619045,0.49047619047619045,0.49047619047619045,0.49047619047619045,0.49047619047619045,0.49047619047619045,0.49047619047619045,0.49047619047619045,0.49047619047619045,0.49047619047619045,0.49047619047619045,0.49047619047619045,0.49047619047619045,0.49047619047619045,0.49047619047619045,0.49047619047619045,0.49047619047619045,0.49047619047619045,0.48095238095238096,0.4714285714285714,0.4714285714285714,0.4714285714285714,0.4714285714285714,0.4714285714285714,0.4714285714285714,0.4714285714285714,0.4714285714285714,0.4714285714285714,0.4714285714285714,0.4714285714285714,0.4714285714285714,0.4714285714285714,0.4714285714285714,0.4714285714285714,0.4714285714285714,0.4714285714285714,0.4714285714285714,0.4714285714285714,0.4714285714285714,0.4714285714285714,0.4714285714285714,0.4714285714285714,0.4714285714285714,0.4714285714285714,0.4714285714285714,0.4714285714285714,0.4714285714285714,0.4714285714285714,0.4714285714285714,0.4714285714285714,0.4714285714285714,0.4714285714285714,0.4714285714285714,0.4714285714285714,0.4714285714285714,0.4714285714285714,0.4714285714285714,0.4714285714285714,0.4714285714285714,0.4714285714285714,0.4714285714285714,0.4714285714285714,0.4714285714285714,0.4714285714285714,0.4714285714285714,0.4714285714285714,0.4714285714285714,0.4714285714285714,0.4714285714285714,0.4714285714285714,0.4714285714285714,0.4714285714285714,0.4714285714285714,0.4714285714285714,0.4714285714285714,0.4714285714285714,0.4714285714285714,0.4714285714285714,0.4714285714285714,0.4714285714285714,0.4714285714285714,0.4714285714285714,0.4714285714285714,0.4714285714285714,0.4714285714285714,0.4714285714285714,0.4714285714285714,0.4714285714285714,0.4714285714285714,0.4714285714285714,0.4714285714285714,0.4714285714285714,0.4714285714285714,0.4714285714285714,0.4714285714285714,0.4714285714285714,0.4714285714285714,0.4714285714285714,0.4714285714285714,0.4714285714285714,0.4714285714285714,0.46190476190476193,0.46190476190476193,0.46190476190476193,0.44285714285714284,0.4142857142857143,0.3952380952380952,0.36666666666666664,0.36666666666666664,0.36666666666666664,0.36666666666666664,0.36666666666666664,0.36666666666666664,0.36666666666666664,0.36666666666666664,0.36666666666666664,0.36666666666666664,0.36666666666666664,0.36666666666666664,0.3761904761904762,0.38571428571428573,0.3952380952380952,0.4142857142857143,0.4142857142857143,0.4238095238095238,0.4238095238095238,0.4238095238095238,0.4238095238095238,0.4238095238095238,0.4238095238095238,0.4238095238095238,0.4238095238095238,0.4238095238095238,0.4238095238095238,0.4238095238095238,0.4238095238095238,0.4238095238095238,0.4238095238095238,0.4238095238095238,0.4238095238095238,0.4238095238095238,0.4238095238095238,0.44285714285714284,0.46190476190476193,0.5,0.5666666666666667,0.6238095238095238,0.7,0.7666666666666667,0.8142857142857143,0.861904761904762,0.9095238095238095,0.9476190476190476,0.9761904761904762,0.9952380952380953,1.0047619047619047,1.0142857142857142,1.0142857142857142,1.0142857142857142,1.0142857142857142,1.0142857142857142,1.0047619047619047,0.9857142857142858,0.9761904761904762,0.9666666666666667,0.9476190476190476,0.9380952380952381,0.9380952380952381,0.9380952380952381,0.9285714285714286,0.9285714285714286,0.9285714285714286,0.9285714285714286,0.9285714285714286,0.9285714285714286,0.9285714285714286,0.9285714285714286,0.9285714285714286,0.9285714285714286,0.9285714285714286,0.9380952380952381,0.9380952380952381,0.9476190476190476,0.9571428571428572,0.9571428571428572,0.9571428571428572,0.9571428571428572,0.9571428571428572,0.9571428571428572,0.9571428571428572,0.9571428571428572,0.9571428571428572,0.9571428571428572,0.9571428571428572,0.9571428571428572,0.9571428571428572,0.9571428571428572,0.9666666666666667,0.9666666666666667,0.9666666666666667,0.9666666666666667,0.9666666666666667,0.9666666666666667,0.9666666666666667,0.9761904761904762,0.9761904761904762,0.9857142857142858,0.9857142857142858,0.9952380952380953,0.9952380952380953,0.9952380952380953,0.9952380952380953,0.9952380952380953,0.9952380952380953,0.9952380952380953,0.9952380952380953,0.9952380952380953,1.0047619047619047,1.0047619047619047,1.0047619047619047,1.0142857142857142,1.0142857142857142,1.0142857142857142,1.0142857142857142,1.0142857142857142,1.0142857142857142,1.0142857142857142,1.0142857142857142,1.0142857142857142,1.0142857142857142,1.0142857142857142,1.0142857142857142,1.0142857142857142,1.0142857142857142,1.0142857142857142,1.0142857142857142,1.0142857142857142,1.0142857142857142,1.0142857142857142,1.0142857142857142,1.0142857142857142,1.0142857142857142,1.0142857142857142,1.0142857142857142,1.0142857142857142,1.0142857142857142,1.0142857142857142,1.0142857142857142,1.0142857142857142,1.0142857142857142,1.0142857142857142,1.0142857142857142,1.0142857142857142,1.0142857142857142,1.0142857142857142,1.0142857142857142,1.0142857142857142,1.0142857142857142,1.0142857142857142,1.0142857142857142,0.9952380952380953,0.9666666666666667,0.9,0.8238095238095238,0.7380952380952381,0.6523809523809524,0.5857142857142857,0.4714285714285714,0.40476190476190477,0.3761904761904762,0.3380952380952381,0.30952380952380953,0.28095238095238095,0.2714285714285714,0.2523809523809524,0.2523809523809524,0.2523809523809524,0.24285714285714285,0.24285714285714285,0.24285714285714285,0.23333333333333334,0.20476190476190476,0.19523809523809524,0.16666666666666666,0.14761904761904762,0.1380952380952381,0.12857142857142856,0.11904761904761904,0.11904761904761904,0.1,0.1,0.09047619047619047,0.09047619047619047,0.09047619047619047,0.09047619047619047,0.09047619047619047,0.09047619047619047,0.09047619047619047,0.09047619047619047,0.08095238095238096,0.06190476190476191,0.05238095238095238,0.04285714285714286,0.03333333333333333,0.023809523809523808,0.023809523809523808,0.014285714285714285,0.014285714285714285,0.014285714285714285,0.014285714285714285,0.014285714285714285,0.014285714285714285,0.014285714285714285,0.014285714285714285,0.014285714285714285,0.014285714285714285,0.014285714285714285,0.014285714285714285,0.014285714285714285,0.014285714285714285,0.014285714285714285,0.014285714285714285,0.014285714285714285,0.014285714285714285,0.014285714285714285,0.014285714285714285,0.014285714285714285,0.014285714285714285,0.014285714285714285,0.023809523809523808,0.023809523809523808,0.023809523809523808,0.023809523809523808,0.023809523809523808,0.023809523809523808,0.023809523809523808,0.023809523809523808,0.023809523809523808,0.023809523809523808,0.03333333333333333,0.03333333333333333,0.03333333333333333,0.03333333333333333,0.03333333333333333,0.03333333333333333,0.03333333333333333,0.03333333333333333,0.03333333333333333,0.05238095238095238,0.09047619047619047,0.15714285714285714,0.21428571428571427,0.2523809523809524,0.2714285714285714,0.2904761904761905,0.3,0.30952380952380953,0.30952380952380953,0.30952380952380953,0.30952380952380953,0.28095238095238095,0.2523809523809524,0.21428571428571427,0.16666666666666666,0.1380952380952381,0.10952380952380952,0.08095238095238096,0.05238095238095238,0.03333333333333333,0.023809523809523808,0.014285714285714285,0.004761904761904762,-0.004761904761904762,-0.014285714285714285,-0.014285714285714285,-0.014285714285714285,-0.014285714285714285,-0.014285714285714285,-0.014285714285714285,-0.014285714285714285,-0.014285714285714285,-0.023809523809523808,-0.023809523809523808,-0.023809523809523808,-0.023809523809523808,-0.023809523809523808,-0.023809523809523808,-0.023809523809523808,-0.023809523809523808,-0.014285714285714285,-0.014285714285714285,-0.004761904761904762,-0.004761904761904762,-0.004761904761904762,-0.004761904761904762,-0.004761904761904762,-0.004761904761904762,-0.004761904761904762,-0.004761904761904762,-0.004761904761904762,-0.004761904761904762,-0.004761904761904762,-0.004761904761904762,-0.004761904761904762,-0.004761904761904762,-0.004761904761904762,-0.004761904761904762,-0.004761904761904762,-0.004761904761904762,-0.004761904761904762,-0.004761904761904762,0.004761904761904762,0.014285714285714285,0.014285714285714285,0.014285714285714285,0.014285714285714285,0.014285714285714285,0.03333333333333333,0.05238095238095238,0.09047619047619047,0.11904761904761904,0.16666666666666666,0.21428571428571427,0.24285714285714285,0.2714285714285714,0.28095238095238095,0.2904761904761905,0.3,0.3,0.2904761904761905,0.28095238095238095,0.2523809523809524,0.23333333333333334,0.19523809523809524,0.1761904761904762,0.16666666666666666,0.15714285714285714,0.1380952380952381,0.10952380952380952,0.09047619047619047,0.07142857142857142,0.05238095238095238,0.023809523809523808,0.014285714285714285,-0.004761904761904762,-0.014285714285714285,-0.023809523809523808,-0.023809523809523808,-0.023809523809523808,-0.023809523809523808,-0.023809523809523808,-0.023809523809523808,-0.023809523809523808,-0.023809523809523808,-0.023809523809523808,-0.023809523809523808,-0.023809523809523808,-0.023809523809523808,-0.023809523809523808,-0.023809523809523808,-0.023809523809523808,-0.023809523809523808,-0.014285714285714285,-0.004761904761904762,0.004761904761904762,0.014285714285714285,0.03333333333333333,0.07142857142857142,0.10952380952380952,0.1380952380952381,0.16666666666666666,0.18571428571428572,0.19523809523809524,0.20476190476190476,0.22380952380952382,0.22380952380952382,0.22380952380952382,0.23333333333333334,0.23333333333333334,0.23333333333333334,0.23333333333333334,0.23333333333333334,0.23333333333333334,0.23333333333333334,0.23333333333333334,0.23333333333333334,0.22380952380952382,0.22380952380952382,0.22380952380952382,0.22380952380952382,0.22380952380952382,0.21428571428571427,0.21428571428571427,0.19523809523809524,0.1761904761904762,0.15714285714285714,0.1380952380952381,0.12857142857142856,0.12857142857142856,0.12857142857142856,0.11904761904761904,0.08095238095238096,0.06190476190476191,0.06190476190476191,0.07142857142857142,0.07142857142857142,0.07142857142857142,0.07142857142857142,0.07142857142857142,0.07142857142857142,0.08095238095238096,0.09047619047619047,0.09047619047619047,0.09047619047619047,0.09047619047619047,0.09047619047619047,0.09047619047619047,0.09047619047619047,0.09047619047619047,0.09047619047619047,0.09047619047619047,0.09047619047619047,0.09047619047619047,0.09047619047619047,0.09047619047619047,0.09047619047619047,0.09047619047619047,0.09047619047619047,0.09047619047619047,0.09047619047619047,0.09047619047619047,0.09047619047619047,0.09047619047619047,0.09047619047619047,0.09047619047619047,0.09047619047619047,0.09047619047619047,0.09047619047619047,0.09047619047619047,0.09047619047619047,0.09047619047619047,0.09047619047619047,0.09047619047619047,0.09047619047619047,0.09047619047619047,0.08095238095238096,0.08095238095238096,0.08095238095238096,0.07142857142857142,0.07142857142857142,0.06190476190476191,0.06190476190476191,0.06190476190476191,0.06190476190476191,0.06190476190476191,0.06190476190476191,0.06190476190476191,0.06190476190476191,0.06190476190476191,0.06190476190476191,0.06190476190476191,0.06190476190476191,0.06190476190476191,0.06190476190476191,0.06190476190476191,0.06190476190476191,0.06190476190476191,0.06190476190476191,0.06190476190476191,0.06190476190476191,0.06190476190476191,0.06190476190476191,0.06190476190476191,0.06190476190476191,0.06190476190476191,0.06190476190476191,0.06190476190476191,0.06190476190476191,0.06190476190476191,0.06190476190476191,0.06190476190476191,0.06190476190476191,0.06190476190476191,0.06190476190476191,0.06190476190476191,0.06190476190476191,0.06190476190476191,0.06190476190476191,0.06190476190476191,0.06190476190476191,0.06190476190476191,0.06190476190476191,0.06190476190476191,0.06190476190476191,0.04285714285714286,0.03333333333333333,0.023809523809523808,0.014285714285714285,0.004761904761904762,0.004761904761904762,-0.014285714285714285,-0.023809523809523808,-0.03333333333333333,-0.04285714285714286,-0.04285714285714286,-0.04285714285714286,-0.04285714285714286,-0.04285714285714286,-0.04285714285714286,-0.04285714285714286,-0.04285714285714286,-0.04285714285714286,-0.04285714285714286,-0.04285714285714286,-0.04285714285714286,-0.04285714285714286,-0.04285714285714286,-0.04285714285714286,-0.04285714285714286,-0.04285714285714286,-0.04285714285714286,-0.04285714285714286,-0.04285714285714286,-0.04285714285714286,-0.03333333333333333,-0.014285714285714285,-0.004761904761904762,0.014285714285714285,0.03333333333333333,0.03333333333333333,0.04285714285714286,0.04285714285714286,0.04285714285714286,0.04285714285714286,0.05238095238095238,0.05238095238095238,0.05238095238095238,0.06190476190476191,0.06190476190476191,0.06190476190476191,0.06190476190476191,0.06190476190476191,0.06190476190476191,0.06190476190476191,0.06190476190476191,0.06190476190476191,0.06190476190476191,0.06190476190476191,0.06190476190476191,0.06190476190476191,0.06190476190476191,0.06190476190476191,0.06190476190476191,0.06190476190476191,0.06190476190476191,0.06190476190476191,0.06190476190476191,0.06190476190476191,0.06190476190476191,0.06190476190476191,0.06190476190476191,0.06190476190476191,0.06190476190476191,0.06190476190476191,0.06190476190476191,0.06190476190476191,0.06190476190476191,0.06190476190476191,0.06190476190476191,0.06190476190476191,0.06190476190476191,0.06190476190476191,0.06190476190476191,0.06190476190476191,0.06190476190476191,0.06190476190476191,0.06190476190476191,0.06190476190476191,0.06190476190476191,0.06190476190476191,0.06190476190476191,0.06190476190476191,0.06190476190476191,0.06190476190476191,0.06190476190476191,0.06190476190476191,0.07142857142857142,0.10952380952380952,0.16666666666666666,0.23333333333333334,0.28095238095238095,0.3476190476190476,0.4142857142857143,0.48095238095238096,0.5666666666666667,0.6428571428571429,0.7,0.7476190476190476,0.8047619047619048,0.8428571428571429,0.8809523809523809,0.919047619047619,0.9476190476190476,0.9761904761904762,1.0047619047619047,1.0238095238095237,1.0238095238095237,1.0238095238095237,1.0238095238095237,1.0333333333333334,1.0333333333333334,1.0333333333333334,1.0333333333333334,1.0333333333333334,1.0333333333333334,1.0333333333333334,1.0238095238095237,1.0238095238095237,1.0238095238095237,1.0238095238095237,1.0238095238095237,1.0238095238095237,1.0238095238095237,1.0238095238095237,1.0238095238095237,1.0238095238095237,1.0238095238095237,1.0238095238095237,1.0142857142857142,1.0047619047619047,1.0047619047619047,1.0047619047619047,1.0047619047619047,1.0047619047619047,1.0047619047619047,0.9857142857142858,0.9857142857142858,0.9857142857142858,0.9857142857142858,0.9857142857142858,0.9857142857142858,0.9857142857142858,0.9857142857142858,0.9857142857142858,0.9857142857142858,0.9857142857142858,0.9857142857142858,0.9857142857142858,0.9857142857142858,0.9857142857142858,0.9857142857142858,0.9857142857142858,0.9857142857142858,0.9857142857142858,0.9857142857142858,0.9857142857142858,0.9857142857142858,0.9857142857142858,0.9857142857142858,0.9857142857142858,0.9857142857142858,0.9857142857142858,0.9857142857142858,0.9857142857142858,0.9857142857142858,0.9857142857142858,0.9857142857142858,0.9761904761904762,0.9761904761904762,0.9666666666666667,0.9380952380952381,0.9095238095238095,0.8714285714285714,0.8238095238095238,0.7761904761904762,0.719047619047619,0.6523809523809524,0.5952380952380952,0.5380952380952381,0.48095238095238096,0.4238095238095238,0.38571428571428573,0.36666666666666664,0.35714285714285715,0.35714285714285715,0.35714285714285715,0.35714285714285715,0.3761904761904762,0.3952380952380952,0.3952380952380952,0.4142857142857143,0.4238095238095238,0.4238095238095238,0.4238095238095238,0.43333333333333335,0.4523809523809524,0.4714285714285714,0.5,0.5095238095238095,0.5095238095238095,0.5095238095238095,0.5095238095238095,0.5095238095238095,0.5095238095238095,0.4714285714285714,0.40476190476190477,0.3380952380952381,0.2904761904761905,0.24285714285714285,0.20476190476190476,0.16666666666666666,0.1380952380952381,0.10952380952380952,0.09047619047619047,0.07142857142857142,0.05238095238095238,0.04285714285714286,0.03333333333333333,0.03333333333333333,0.03333333333333333,0.03333333333333333,0.023809523809523808,0.023809523809523808,0.023809523809523808,0.023809523809523808,0.023809523809523808,0.023809523809523808,0.023809523809523808,0.023809523809523808,0.023809523809523808,0.023809523809523808,0.023809523809523808,0.023809523809523808,0.023809523809523808,0.023809523809523808,0.023809523809523808,0.023809523809523808,0.023809523809523808,0.05238095238095238,0.10952380952380952,0.19523809523809524,0.28095238095238095,0.36666666666666664,0.4238095238095238,0.46190476190476193,0.5,0.5190476190476191,0.5285714285714286,0.5380952380952381,0.5476190476190477,0.5571428571428572,0.5571428571428572,0.5571428571428572,0.5571428571428572,0.5571428571428572,0.5571428571428572,0.5476190476190477,0.5476190476190477,0.5380952380952381,0.5190476190476191,0.5095238095238095,0.5095238095238095,0.5095238095238095,0.5095238095238095,0.5095238095238095,0.5095238095238095,0.49047619047619045,0.48095238095238096,0.4714285714285714,0.46190476190476193,0.4523809523809524,0.4523809523809524,0.4523809523809524,0.4523809523809524,0.4523809523809524,0.4523809523809524,0.4523809523809524,0.4523809523809524,0.46190476190476193,0.4714285714285714,0.48095238095238096,0.48095238095238096,0.48095238095238096,0.48095238095238096,0.48095238095238096,0.48095238095238096,0.48095238095238096,0.48095238095238096,0.48095238095238096,0.48095238095238096,0.48095238095238096,0.48095238095238096,0.48095238095238096,0.48095238095238096,0.48095238095238096,0.48095238095238096,0.48095238095238096,0.48095238095238096,0.48095238095238096,0.48095238095238096,0.48095238095238096,0.48095238095238096,0.48095238095238096,0.48095238095238096,0.48095238095238096,0.48095238095238096,0.48095238095238096,0.48095238095238096,0.48095238095238096,0.48095238095238096,0.48095238095238096,0.48095238095238096,0.48095238095238096,0.49047619047619045,0.5,0.5,0.5095238095238095,0.5095238095238095,0.5095238095238095,0.5095238095238095,0.5380952380952381,0.5571428571428572,0.5857142857142857,0.6142857142857143,0.6333333333333333,0.6714285714285714,0.719047619047619,0.7761904761904762,0.8238095238095238,0.8904761904761904,0.9380952380952381,1.0047619047619047,1.0714285714285714,1.1285714285714286,1.1666666666666667,1.2047619047619047,1.223809523809524,1.2428571428571429,1.2428571428571429,1.2428571428571429,1.2523809523809524,1.2523809523809524,1.2142857142857142,1.1857142857142857,1.1857142857142857,1.1857142857142857,1.1857142857142857,1.1857142857142857,1.1857142857142857,1.1857142857142857,1.1857142857142857,1.1857142857142857,1.1761904761904762,1.1761904761904762,1.1666666666666667,1.1571428571428573,1.1571428571428573,1.1571428571428573,1.1571428571428573,1.1571428571428573,1.1571428571428573,1.1571428571428573,1.1666666666666667,1.2047619047619047,1.2428571428571429,1.2904761904761906,1.3285714285714285,1.3571428571428572,1.3952380952380952,1.4428571428571428,1.480952380952381,1.5380952380952382,1.5952380952380953,1.6333333333333333,1.6714285714285715,1.7190476190476192,1.7571428571428571,1.7857142857142858,1.8047619047619048,1.8238095238095238,1.8238095238095238,1.8238095238095238,1.8333333333333333,1.8333333333333333,1.8333333333333333,1.8333333333333333,1.8333333333333333,1.8333333333333333,1.8333333333333333,1.8238095238095238,1.8047619047619048,1.7666666666666666,1.7476190476190476,1.7095238095238094,1.680952380952381,1.6523809523809523,1.6333333333333333,1.6142857142857143,1.6047619047619048,1.5952380952380953,1.5952380952380953,1.5761904761904761,1.5666666666666667,1.5666666666666667,1.5571428571428572,1.5571428571428572,1.5571428571428572,1.5571428571428572,1.5571428571428572,1.5571428571428572,1.5571428571428572,1.5571428571428572,1.5571428571428572,1.5571428571428572]},"final_keyboard_state":["A","K","L","M","O","N","P","C","D","E","Z","B","R"],"num_clicks":13,"points":7,"cheat":false,"trial_type":"Hangman","trial_index":5,"time_elapsed":64443,"internal_node_id":"0.0-4.0","protocol_sum":"","subject_identifier":129,"subject_sum":[166,139,65,44,66,130,85,95,21,84,108,246,225,252,66,137,59,126,7,242,113,85,124,235,2,24,33,9,141,214,108,27],"subject_pair":64,"STUDY_ID":"669a702db1122fc5150a13ce","PROLIFIC_PID":"66799662d6513151e840c6af","SESSION_ID":"669b258b1c3e5baa7ed8fb14","practice_instructions":1,"leaderboard_instructions":0,"bonus":0,"reveal_word":true,"self_rating":"3","confidence":"100"},{"view_history":"[{\"page_index\":0,\"viewing_time\":2734.2000000029802},{\"page_index\":1,\"viewing_time\":11719}]","rt":14453.5,"trial_type":"instructions","trial_index":6,"time_elapsed":78897,"internal_node_id":"0.0-5.0","protocol_sum":"","subject_identifier":129,"subject_sum":[166,139,65,44,66,130,85,95,21,84,108,246,225,252,66,137,59,126,7,242,113,85,124,235,2,24,33,9,141,214,108,27],"subject_pair":64,"STUDY_ID":"669a702db1122fc5150a13ce","PROLIFIC_PID":"66799662d6513151e840c6af","SESSION_ID":"669b258b1c3e5baa7ed8fb14","practice_instructions":1,"leaderboard_instructions":0,"bonus":0,"reveal_word":true,"self_rating":"3","confidence":"100"},{"rt":8147.29999999702,"responses":"{\"Q0\":\"...from <b>a previous session</b> that is part of the upcoming tournament.\"}","question_order":"[0]","trial_type":"survey-multi-choice","trial_index":7,"time_elapsed":87045,"internal_node_id":"0.0-6.0","protocol_sum":"","subject_identifier":129,"subject_sum":[166,139,65,44,66,130,85,95,21,84,108,246,225,252,66,137,59,126,7,242,113,85,124,235,2,24,33,9,141,214,108,27],"subject_pair":64,"correct":false,"test_part":"multichoice_leaderboard","STUDY_ID":"669a702db1122fc5150a13ce","PROLIFIC_PID":"66799662d6513151e840c6af","SESSION_ID":"669b258b1c3e5baa7ed8fb14","practice_instructions":1,"leaderboard_instructions":0,"bonus":0,"reveal_word":true,"self_rating":"3","confidence":"100"},{"view_history":"[{\"page_index\":0,\"viewing_time\":1718.3999999910593}]","rt":1718.5,"trial_type":"instructions","trial_index":8,"time_elapsed":88764,"internal_node_id":"0.0-7.0-0.0","protocol_sum":"","subject_identifier":129,"subject_sum":[166,139,65,44,66,130,85,95,21,84,108,246,225,252,66,137,59,126,7,242,113,85,124,235,2,24,33,9,141,214,108,27],"subject_pair":64,"STUDY_ID":"669a702db1122fc5150a13ce","PROLIFIC_PID":"66799662d6513151e840c6af","SESSION_ID":"669b258b1c3e5baa7ed8fb14","practice_instructions":1,"leaderboard_instructions":0,"bonus":0,"reveal_word":true,"self_rating":"3","confidence":"100"},{"rt":6490.70000000298,"responses":"{\"Q0\":\"...from <b>a previous session</b> that is not part of the upcoming tournament.\"}","question_order":"[0]","trial_type":"survey-multi-choice","trial_index":9,"time_elapsed":95255,"internal_node_id":"0.0-7.0-1.0","protocol_sum":"","subject_identifier":129,"subject_sum":[166,139,65,44,66,130,85,95,21,84,108,246,225,252,66,137,59,126,7,242,113,85,124,235,2,24,33,9,141,214,108,27],"subject_pair":64,"correct":true,"test_part":"multichoice_leaderboard","STUDY_ID":"669a702db1122fc5150a13ce","PROLIFIC_PID":"66799662d6513151e840c6af","SESSION_ID":"669b258b1c3e5baa7ed8fb14","practice_instructions":1,"leaderboard_instructions":0,"bonus":0,"reveal_word":true,"self_rating":"3","confidence":"100"},{"view_history":"[{\"page_index\":0,\"viewing_time\":10108.5}]","rt":10108.5,"trial_type":"instructions","trial_index":10,"time_elapsed":105364,"internal_node_id":"0.0-8.0","protocol_sum":"","subject_identifier":129,"subject_sum":[166,139,65,44,66,130,85,95,21,84,108,246,225,252,66,137,59,126,7