[{"success":true,"trial_type":"fullscreen","trial_index":0,"time_elapsed":3736,"internal_node_id":"0.0-0.0","protocol_sum":"","subject_identifier":325,"subject_sum":[121,214,234,162,103,97,137,235,146,127,46,22,167,0,145,71,64,120,226,17,124,63,198,7,211,92,220,107,89,30,243,85],"subject_pair":162,"STUDY_ID":"66a0b3911f23dfc7665bb169","PROLIFIC_PID":"66814bd337692ab271dffe6e","SESSION_ID":"66a1533d8b98d8e7657db092","practice_instructions":1,"leaderboard_instructions":1,"bonus":0,"reveal_word":true,"self_rating":"4","confidence":"59"},{"view_history":"[{\"page_index\":0,\"viewing_time\":5193}]","rt":5193,"trial_type":"instructions","trial_index":1,"time_elapsed":8930,"internal_node_id":"0.0-1.0","protocol_sum":"","subject_identifier":325,"subject_sum":[121,214,234,162,103,97,137,235,146,127,46,22,167,0,145,71,64,120,226,17,124,63,198,7,211,92,220,107,89,30,243,85],"subject_pair":162,"STUDY_ID":"66a0b3911f23dfc7665bb169","PROLIFIC_PID":"66814bd337692ab271dffe6e","SESSION_ID":"66a1533d8b98d8e7657db092","practice_instructions":1,"leaderboard_instructions":1,"bonus":0,"reveal_word":true,"self_rating":"4","confidence":"59"},{"view_history":"[{\"page_index\":0,\"viewing_time\":10511}]","rt":10512,"trial_type":"instructions","trial_index":2,"time_elapsed":19445,"internal_node_id":"0.0-2.0-0.0","protocol_sum":"","subject_identifier":325,"subject_sum":[121,214,234,162,103,97,137,235,146,127,46,22,167,0,145,71,64,120,226,17,124,63,198,7,211,92,220,107,89,30,243,85],"subject_pair":162,"STUDY_ID":"66a0b3911f23dfc7665bb169","PROLIFIC_PID":"66814bd337692ab271dffe6e","SESSION_ID":"66a1533d8b98d8e7657db092","practice_instructions":1,"leaderboard_instructions":1,"bonus":0,"reveal_word":true,"self_rating":"4","confidence":"59"},{"rt":8222,"responses":"{\"Q0\":\"... reveal the word with as <b>few letter guesses</b> as possible\"}","question_order":"[0]","trial_type":"survey-multi-choice","trial_index":3,"time_elapsed":27671,"internal_node_id":"0.0-2.0-1.0","protocol_sum":"","subject_identifier":325,"subject_sum":[121,214,234,162,103,97,137,235,146,127,46,22,167,0,145,71,64,120,226,17,124,63,198,7,211,92,220,107,89,30,243,85],"subject_pair":162,"correct":true,"test_part":"multichoice_nonpretend","STUDY_ID":"66a0b3911f23dfc7665bb169","PROLIFIC_PID":"66814bd337692ab271dffe6e","SESSION_ID":"66a1533d8b98d8e7657db092","practice_instructions":1,"leaderboard_instructions":1,"bonus":0,"reveal_word":true,"self_rating":"4","confidence":"59"},{"view_history":"[{\"page_index\":0,\"viewing_time\":1598}]","rt":1599,"trial_type":"instructions","trial_index":4,"time_elapsed":29271,"internal_node_id":"0.0-3.0","protocol_sum":"","subject_identifier":325,"subject_sum":[121,214,234,162,103,97,137,235,146,127,46,22,167,0,145,71,64,120,226,17,124,63,198,7,211,92,220,107,89,30,243,85],"subject_pair":162,"STUDY_ID":"66a0b3911f23dfc7665bb169","PROLIFIC_PID":"66814bd337692ab271dffe6e","SESSION_ID":"66a1533d8b98d8e7657db092","practice_instructions":1,"leaderboard_instructions":1,"bonus":0,"reveal_word":true,"self_rating":"4","confidence":"59"},{"word":"ZEBRA","click_log":{"letter":["","A","E","N","T","P","D","M","L","H","G","F","C","B","R","Z"],"t":[0,6265,17185,35062,39878,43380,46835,50428,55873,57120,58193,59222,60275,61340,69812,73944],"hit":[null,1,1,0,0,0,0,0,0,0,0,0,0,1,1,1],"asked":["","A","AE","AEN","AENT","AENTP","AENTPD","AENTPDM","AENTPDML","AENTPDMLH","AENTPDMLHG","AENTPDMLHGF","AENTPDMLHGFC","AENTPDMLHGFCB","AENTPDMLHGFCBR","AENTPDMLHGFCBRZ"],"word_state":["_____","____A","_E__A","_E__A","_E__A","_E__A","_E__A","_E__A","_E__A","_E__A","_E__A","_E__A","_E__A","_EB_A","_EBRA","ZEBRA"]},"hover_log":{"letter":["?","?","?","?","?","?","?","?","?","?","?","?","?","?","?","?","?","?","?","?","?","?","?","?","?","?","?","?","?","?","?","?","?","?","?","?","?","?","?","?","?","?","?","?","?","?","?","?","?","?","?","?","?","?","?","?","?","?","?","?","?","?","?","?","?","?","?","?","?","?","?","?","?","?","?","?","?","?","?","?","?","?","?","?","?","?","?","?","?","?","?","?","?","?","?","?","?","?","?","J","J","J","J","J","J","J","J","J","J","?","?","?","?","?","?","?","?","?","?","?","?","?","?","?","?","?","?","?","?","?","?","U","V","?","?","?","?","?","?","?","?","?","?","?","?","?","?","?","?","?","?","?","?","?","?","?","?","?","?","?","?","?","?","?","?","?","?","?","?","?","?","?","?","?","?","?","?","?","?","?","?","?","?","?","?","?","?","?","?","?","?","?","?","?","?","?","?","?","?","?","?","?","?","?","?","?","?","?","?","?","?","?","?","?","?","?","?","?","?","?","?","?","?","?","X","?","?","?","W","W","W","W","W","W","W","W","W","W","W","W","W","W","W","W","W","W","W","W","W","W","W","W","W","W","W","W","W","W","W","W","W","W","W","W","W","W","W","W","W","W","W","W","W","W","W","W","W","W","?","V","V","?","K","K","?","B","B","B","B","B","B","B","B","B","B","A","A","A","A","A","A","A","A","A","A","A","A","A","A","A","A","A","A","A","A","A","A","A","A","A","A","A","A","A","A","A","A","A","A","A","A","A","A","A","A","A","A","A","A","A","A","A","A","A","A","A","A","A","A","A","A","?","?","?","?","?","?","?","?","?","?","?","?","?","?","?","?","?","?","?","?","?","?","?","?","?","?","?","?","?","?","?","?","?","?","?","?","?","?","?","?","?","?","?","?","?","?","?","?","?","?","?","?","?","?","?","?","?","?","?","?","?","?","?","?","?","?","?","?","?","?","?","?","?","?","?","?","?","?","?","?","?","?","?","?","?","?","?","?","?","?","?","?","?","?","?","?","?","?","?","?","?","?","?","?","?","?","?","?","?","?","?","?","?","?","?","?","?","?","?","?","?","?","?","?","?","?","?","?","?","?","?","?","?","?","?","?","?","?","?","?","?","?","?","?","?","?","?","?","?","?","?","?","?","?","?","?","?","?","?","?","?","?","?","?","?","?","?","?","?","?","?","?","?","?","?","?","?","?","?","?","?","?","?","?","?","?","?","?","?","?","?","?","?","?","?","?","?","?","?","?","?","?","?","?","?","?","?","?","?","?","?","?","?","?","?","?","?","?","?","?","?","?","?","?","?","?","?","?","?","?","?","?","?","?","?","?","?","?","?","?","?","?","?","?","?","?","?","?","?","?","?","?","?","?","?","?","?","?","?","?","?","?","?","?","?","?","?","?","?","?","?","?","?","?","?","?","?","?","?","?","?","?","?","?","?","?","?","?","?","?","?","?","?","?","?","?","?","?","?","?","?","?","?","?","?","?","?","?","?","?","?","?","?","?","?","?","?","?","?","?","?","?","?","?","?","?","?","?","?","?","?","?","?","?","?","?","?","?","?","?","?","?","?","?","?","?","?","?","?","?","?","?","?","?","?","?","?","?","?","?","?","?","?","?","?","?","?","?","?","?","?","?","?","?","?","?","?","?","?","?","?","?","?","?","?","?","?","?","?","?","?","?","?","?","?","?","?","?","?","?","?","?","?","?","?","?","?","?","?","?","?","?","?","?","?","?","?","?","?","?","?","?","?","?","?","?","?","?","?","?","?","?","?","?","?","W","?","?","L","L","?","?","K","K","K","K","K","K","K","K","K","K","K","K","?","?","?","?","?","?","?","?","?","?","?","?","?","?","?","?","?","?","?","?","?","?","?","?","?","?","?","K","K","K","K","K","K","K","?","?","?","D","?","?","?","?","E","E","E","E","E","E","E","E","E","E","E","E","E","E","E","E","E","E","E","E","E","E","E","E","E","E","E","E","E","E","E","E","E","E","E","E","E","E","E","E","E","E","E","E","E","E","E","E","E","E","E","E","E","E","E","E","E","E","E","E","E","E","E","E","E","E","E","E","E","E","E","E","E","E","E","E","E","E","E","E","E","E","E","E","E","E","E","E","E","E","E","E","E","E","E","E","E","E","E","E","E","E","E","E","E","E","E","E","E","E","E","E","E","E","E","E","E","E","E","E","E","E","E","E","E","E","E","E","E","E","E","E","E","E","E","E","E","E","E","E","E","E","E","E","E","E","E","E","E","E","E","E","E","E","E","E","E","E","E","E","E","E","E","E","E","E","E","E","E","E","E","E","E","E","E","E","E","E","E","E","E","E","E","E","E","E","E","E","E","E","E","E","E","E","E","E","E","E","E","E","E","E","E","E","E","E","E","E","E","E","E","E","E","E","E","E","E","E","E","E","?","?","?","?","?","?","?","?","?","?","?","?","?","?","?","?","?","?","?","?","?","?","?","?","?","?","?","?","?","?","?","?","?","?","?","?","?","?","?","?","?","?","?","?","?","?","?","?","?","?","?","?","?","?","?","?","?","?","?","?","?","?","?","?","?","?","?","?","?","?","?","?","?","?","?","?","?","?","?","?","?","?","?","?","?","?","?","?","?","?","?","?","?","?","?","?","?","?","?","?","?","?","?","?","?","?","?","?","?","?","?","?","?","?","?","?","?","?","?","?","?","?","?","?","?","?","?","?","?","?","?","?","?","?","?","?","?","?","?","?","?","?","?","?","?","?","?","?","?","?","?","?","?","?","?","?","?","?","?","?","?","?","?","?","?","?","?","?","?","?","?","?","?","?","?","?","?","?","?","?","?","?","?","?","?","?","?","?","?","?","?","?","?","?","?","?","?","?","?","?","?","?","?","?","?","?","?","?","?","?","?","?","?","?","?","?","?","?","?","?","?","?","?","?","?","?","?","?","?","?","?","?","?","?","?","?","?","?","?","?","?","?","?","?","?","?","?","?","?","?","?","?","?","?","?","?","?","?","?","?","?","?","?","?","?","?","?","?","?","?","?","?","?","?","?","?","?","?","?","?","?","?","?","?","?","?","?","?","?","?","?","?","?","?","?","?","?","?","?","?","?","?","?","?","?","?","?","?","?","?","?","?","?","?","?","?","?","?","?","?","?","?","?","?","?","?","?","?","?","?","?","?","?","?","?","?","?","?","?","?","?","?","?","?","?","?","?","?","?","?","?","?","?","?","?","?","?","?","?","?","?","?","?","?","?","?","?","?","?","?","?","?","?","?","?","?","?","?","?","?","?","?","?","?","?","?","?","?","?","?","?","?","?","?","?","?","?","?","?","?","?","?","?","?","?","?","?","?","?","?","?","?","?","?","?","?","?","?","?","?","?","?","?","?","?","?","?","?","?","?","?","?","?","?","?","?","?","?","?","?","?","?","?","?","?","?","?","?","?","?","?","?","?","?","?","?","?","?","?","?","?","?","?","?","?","?","?","?","?","?","?","?","?","?","?","?","?","?","?","?","?","?","?","?","?","?","?","?","?","?","?","?","?","?","?","?","?","?","?","?","?","?","?","?","?","?","?","?","?","?","?","?","?","?","?","?","?","?","?","?","?","?","?","?","?","?","?","?","?","?","?","?","?","?","?","?","?","?","?","?","?","?","?","?","?","?","?","?","?","?","?","?","?","?","?","?","?","?","?","?","?","?","?","?","?","?","?","?","?","?","?","?","?","?","?","?","?","?","?","?","?","?","?","?","?","?","?","?","?","?","?","?","?","?","?","?","?","?","?","?","?","?","?","?","?","?","?","?","?","?","?","?","?","?","?","?","?","?","?","?","?","?","?","?","?","?","?","?","?","?","?","?","?","?","?","?","?","?","?","?","?","?","?","?","?","?","?","?","?","?","?","?","?","?","?","?","?","?","?","?","?","?","?","?","?","?","?","?","?","?","?","?","?","?","?","?","?","?","?","?","?","?","?","?","?","?","?","?","?","?","?","?","?","?","?","?","?","?","?","?","?","?","?","?","?","?","?","?","?","?","?","?","?","?","?","?","?","?","?","?","?","?","?","?","?","?","?","?","?","?","?","?","?","?","?","?","?","?","?","?","?","?","?","?","?","?","?","?","?","?","?","?","?","?","?","?","?","?","?","?","?","?","?","?","?","?","?","?","?","?","?","?","?","?","?","?","?","?","?","?","?","?","?","?","?","?","?","?","?","?","?","?","?","?","?","?","?","?","?","?","?","?","?","?","?","?","?","N","N","N","N","N","N","N","N","N","N","N","N","N","N","N","N","N","N","N","N","N","N","N","N","N","N","N","N","N","N","N","N","N","N","N","N","N","N","N","N","N","N","N","N","N","N","N","N","N","N","N","N","N","N","N","N","N","N","N","N","N","N","N","N","N","N","N","N","N","N","N","N","N","N","N","N","N","N","N","N","N","N","N","N","N","N","N","N","N","N","N","N","N","N","N","N","N","N","N","N","N","N","N","N","N","N","N","N","N","N","?","?","?","?","?","?","?","?","?","?","?","?","?","?","?","?","?","?","?","?","?","?","?","?","?","?","?","?","?","?","?","?","?","?","?","?","?","?","?","?","?","?","?","?","?","?","?","?","?","?","?","?","N","N","N","N","N","N","N","N","N","N","N","N","N","N","N","N","N","N","N","N","N","N","N","N","N","N","N","N","N","N","N","N","N","N","N","N","N","N","N","N","N","N","N","N","N","N","N","N","N","N","N","N","N","N","N","N","N","N","N","N","N","N","N","N","N","N","N","N","N","N","N","N","N","N","N","N","N","?","?","?","?","?","?","?","?","?","?","?","?","?","X","X","V","T","T","T","T","T","T","T","T","T","T","T","T","T","T","T","T","T","T","T","T","T","T","T","T","T","T","T","T","T","T","T","T","T","T","T","T","T","T","T","T","T","T","T","T","T","T","T","T","T","T","T","T","T","T","T","?","?","U","U","U","?","?","?","?","?","?","?","?","?","?","?","?","?","?","?","?","?","?","?","?","?","?","?","?","?","?","?","?","?","?","?","?","?","?","?","?","?","?","?","?","?","?","?","?","?","?","?","?","?","?","?","?","?","?","?","?","?","?","?","?","?","?","?","?","?","?","?","?","?","?","?","?","?","?","?","?","?","?","?","?","?","?","?","?","?","?","?","?","?","?","?","?","?","?","?","?","?","?","?","?","?","?","?","?","?","?","?","?","?","?","?","?","?","?","?","?","?","?","?","?","?","?","?","?","?","?","?","?","W","O","P","P","P","P","P","P","P","P","P","P","P","P","P","P","P","P","P","P","P","P","P","P","P","P","P","P","P","P","P","P","P","P","P","P","P","P","P","P","P","P","P","P","P","P","P","P","P","P","P","P","P","P","P","P","P","P","P","P","P","P","P","P","P","P","P","P","P","P","P","P","P","P","P","P","P","P","P","P","P","P","P","P","P","P","P","P","P","P","P","P","P","P","P","P","P","P","P","P","P","P","P","P","P","P","P","P","P","P","P","P","P","P","P","P","P","P","P","P","P","P","P","P","P","P","P","P","?","O","O","O","O","?","N","?","?","?","?","?","?","?","?","?","L","L","L","L","L","L","L","L","?","?","?","?","K","K","K","K","K","K","K","K","K","K","K","K","K","K","K","K","K","K","?","?","D","D","D","D","D","D","D","D","D","D","D","D","D","D","D","D","D","D","D","D","D","D","D","D","D","D","D","D","D","D","D","D","D","D","D","D","D","D","D","D","D","D","D","D","D","D","D","D","D","D","D","D","D","D","D","D","D","D","D","D","D","D","D","D","D","D","D","D","D","D","D","D","D","D","D","D","D","D","D","D","D","D","D","D","?","?","?","?","?","?","?","?","N","N","?","?","?","?","Y","Y","Y","Y","Y","Y","Y","Y","Y","Y","Y","Y","?","?","X","X","?","?","V","V","V","V","V","?","?","?","U","U","U","U","U","U","U","U","U","U","U","?","?","?","?","?","?","?","?","?","?","?","?","?","?","?","?","?","?","?","?","M","M","M","M","M","M","M","M","M","M","M","M","M","M","M","M","M","M","M","M","M","M","M","M","M","M","M","M","M","M","M","M","M","M","M","M","M","M","M","M","M","M","M","M","M","M","M","M","M","M","M","M","M","M","M","M","M","M","M","M","M","M","M","M","M","M","M","M","M","M","M","M","M","M","M","M","M","M","M","M","M","M","M","M","M","M","M","M","M","M","M","M","M","M","M","M","M","M","M","M","M","M","M","M","M","M","M","M","M","M","M","M","M","M","M","M","M","M","M","M","M","M","M","M","M","M","M","M","M","M","M","M","M","M","M","M","M","M","M","M","M","M","M","M","M","M","M","M","M","M","M","M","?","L","L","L","L","L","L","L","L","L","L","L","L","L","L","L","L","L","L","L","L","L","L","L","L","L","L","L","L","L","L","L","L","L","L","L","L","L","L","L","L","L","L","L","L","L","L","L","L","L","L","L","L","L","L","L","L","L","L","L","L","L","L","L","L","L","L","L","L","L","L","L","L","L","L","L","L","L","L","L","L","L","L","L","L","L","L","L","L","L","L","L","L","L","L","L","L","L","L","L","L","L","L","L","L","L","L","L","L","L","L","L","L","L","L","L","L","L","L","L","L","L","L","L","L","L","L","L","L","L","L","L","L","L","L","L","L","L","L","L","L","L","L","L","L","L","L","L","L","L","L","L","L","L","L","L","L","L","L","L","L","L","L","L","L","L","L","L","L","L","L","L","L","L","L","L","L","L","L","L","L","L","L","L","L","L","L","L","L","L","L","L","L","L","L","L","L","L","L","L","L","L","L","L","L","L","L","L","L","L","L","L","L","L","L","L","L","L","L","L","L","L","L","L","L","L","L","L","L","L","L","L","L","L","L","L","L","L","?","?","?","?","?","?","?","?","?","?","?","?","H","H","H","H","H","H","H","H","H","H","H","H","H","H","H","H","H","H","H","H","H","H","H","H","H","H","H","H","H","H","H","H","H","H","H","H","H","H","H","H","H","H","H","H","H","H","H","?","?","?","G","G","G","G","G","G","G","G","G","G","G","G","G","G","G","G","G","G","G","G","G","G","G","G","G","G","G","G","G","G","G","G","G","G","G","G","G","G","G","G","G","G","G","G","G","G","G","G","G","G","G","G","G","G","G","G","G","G","?","?","?","?","?","?","F","F","F","F","F","F","F","F","F","F","F","F","F","F","F","F","F","F","F","F","F","F","F","F","F","F","F","F","F","F","F","F","?","?","?","?","?","E","?","?","D","D","D","D","?","?","?","?","?","?","?","?","?","?","C","C","C","C","C","C","C","C","C","C","C","C","C","C","C","C","C","C","C","C","C","C","C","C","C","C","C","C","C","C","C","C","C","C","C","C","C","C","C","C","C","C","C","C","C","C","?","?","?","B","B","B","B","B","B","B","B","B","B","B","B","B","B","B","B","B","B","B","B","B","B","B","B","B","B","B","B","B","B","B","B","B","B","B","B","B","B","B","B","B","B","B","B","B","B","B","B","B","B","B","B","B","B","B","B","B","B","B","B","B","B","B","B","B","B","B","B","B","B","B","B","B","B","B","B","B","B","B","B","B","B","B","B","B","B","B","B","B","B","B","B","B","B","B","B","B","B","B","B","B","B","B","B","B","B","B","B","B","B","B","B","B","B","B","B","B","B","B","B","B","B","B","B","B","B","B","B","B","B","B","B","B","B","B","B","B","B","B","B","B","B","B","B","B","B","B","B","B","B","B","B","B","B","B","B","B","B","B","B","B","B","B","B","B","B","B","B","B","B","B","B","B","B","B","B","B","B","B","B","B","B","B","B","B","B","B","B","B","B","B","B","B","B","B","B","B","B","B","B","B","B","B","B","B","B","B","B","B","B","B","B","B","B","B","B","B","B","B","B","B","B","B","B","B","B","B","B","B","B","B","B","B","B","B","B","B","B","B","B","B","B","B","B","B","B","B","B","B","B","B","B","B","B","B","B","B","B","B","B","B","B","B","B","B","B","B","B","B","B","B","B","B","B","B","B","B","B","B","B","B","B","B","B","B","B","B","B","B","B","B","B","B","B","B","B","B","B","B","B","B","B","B","B","B","B","B","B","B","B","B","B","B","B","B","B","B","B","B","B","B","B","B","B","B","B","B","B","B","B","B","B","B","B","B","B","B","B","B","B","B","B","B","B","B","B","B","B","B","B","B","B","B","B","B","B","B","B","B","B","B","B","B","B","B","B","B","B","B","B","B","B","B","B","B","B","B","B","B","B","B","B","B","B","B","B","B","B","B","B","B","B","B","B","B","B","B","B","B","B","B","B","B","B","B","B","B","B","B","B","B","B","B","B","B","B","B","B","B","B","B","B","B","B","B","B","B","B","B","B","B","B","B","B","B","B","B","B","B","B","B","B","B","B","B","B","B","B","B","B","B","B","B","B","B","B","B","B","B","B","B","B","B","B","B","B","B","B","B","B","B","B","B","B","B","B","B","B","C","?","O","P","?","Q","Q","Q","Q","R","R","R","R","R","R","R","R","R","R","R","R","R","R","R","R","R","R","R","R","R","R","R","R","R","R","R","R","R","R","R","R","R","R","R","R","R","R","R","R","R","R","R","R","R","R","R","R","R","R","R","R","R","R","R","R","R","R","R","R","R","R","R","R","R","R","R","R","R","R","R","R","R","R","R","R","R","R","R","R","R","R","R","R","R","R","R","R","R","R","R","R","R","R","R","R","R","R","R","R","R","R","R","R","R","R","R","?","Q","?","?","?","?","?","?","U","U","U","U","V","X","?","Y","Y","Y","Y","Y","Y","Y","Y","Y","Y","Y","Y","Y","Y","Y","Y","Y","Y","Y","Y","?","X","X","X","X","?","W","W","?","V","V","V","V","V","V","V","V","V","V","V","?","Y","Y","Y","Y","Z","Z","Z","Z","Z","Z","Z","Z","Z","Z","Z","Z","Z","Z","Z","Z","Z","Z","Z","Z","Z","Z","Z","Z","Z","Z","Z","Z","Z","Z","Z","Z","Z","Z","Z","Z","Z","Z","Z","Z","Z","Z","Z","Z","Z","Z","Z","Z","Z","?","?","?","?","?","?","?","?","?","?","?","?","?","?","?","?","?","?","?","?","?","?","?","?","?","?","?","?","?","?","?","?","?","?","?","?","?","?","?","?","?","?","?","?","?","?","?","?","?","?","?","?","?","?","?","?","?","?","?","?","?","?","?","?","?","?","?","?","?","?","?","?","?","?","?","?","?","?","?","?","?","?","?","?","?","?","?","?","?","?","?"],"t":[40,49,179,203,231,263,279,293,309,326,343,357,375,392,409,427,441,461,477,492,508,527,544,559,576,593,610,626,643,660,675,693,707,724,744,760,775,793,827,843,860,877,892,907,924,942,958,974,990,1009,1027,1042,1057,1075,1092,1109,1127,1139,1154,1174,1191,1209,1225,1239,1255,1274,1291,1306,1323,1335,1354,1373,1391,1406,1423,1439,1457,1473,1488,1507,1521,1539,1556,1573,1589,1607,1623,1639,1657,1684,1703,1721,1743,1757,1773,1791,1808,1820,1839,1855,1873,1886,1902,1921,1939,1955,1972,1988,2004,2022,2038,2056,2070,2087,2103,2120,2136,2155,2170,2188,2205,2221,2238,2254,2271,2290,2307,2326,2359,2409,2466,2497,2649,2758,2771,2786,2802,2830,2838,2854,2870,2885,2903,2918,2935,2950,2968,2984,3002,3018,3034,3050,3067,3084,3099,3116,3135,3150,3167,3186,3199,3218,3232,3251,3268,3283,3299,3316,3333,3349,3368,3386,3401,3417,3434,3459,3471,3483,3500,3515,3532,3549,3565,3583,3602,3618,3633,3649,3666,3684,3695,3715,3732,3748,3766,3783,3802,3816,3831,3848,3866,3882,3898,3914,3929,3949,3967,3982,3998,4015,4034,4043,4064,4082,4101,4115,4133,4160,4180,4243,4296,4351,4411,4466,4498,4527,4552,4566,4584,4600,4616,4643,4662,4680,4698,4713,4727,4747,4763,4779,4796,4813,4829,4846,4864,4879,4895,4912,4929,4946,4962,4978,4994,5010,5028,5045,5062,5074,5094,5113,5128,5146,5161,5176,5195,5210,5226,5245,5262,5278,5295,5312,5328,5345,5363,5384,5401,5440,5481,5545,5591,5650,5690,5740,5766,5781,5794,5810,5830,5852,5857,5880,5897,5924,5954,5988,6009,6023,6031,6050,6060,6074,6092,6109,6126,6143,6162,6179,6194,6211,6226,6243,6263,6279,6294,6311,6327,6344,6360,6377,6394,6412,6426,6443,6460,6477,6493,6511,6528,6535,6573,6593,6605,6626,6642,6659,6675,6692,6709,6726,6743,6761,6774,6792,6808,6825,6840,6858,6888,6933,6989,7080,7202,7362,7379,7401,7418,7427,7444,7458,7477,7491,7507,7526,7541,7560,7577,7587,7608,7623,7645,7656,7671,7689,7709,7728,7752,7760,7774,7788,7817,7836,7856,7867,7877,7917,7924,7942,7958,7978,8006,8026,8039,8072,8135,8147,8156,8192,8208,8226,8233,8272,8297,8316,8340,8367,8393,8407,8429,8443,8459,8475,8491,8517,8526,8539,8563,8577,8600,8616,8633,8637,8661,8675,8689,8706,8724,8736,8753,8771,8786,8802,8821,8840,8856,8873,8889,8906,8920,8937,8955,8975,8988,9004,9021,9037,9053,9069,9090,9102,9118,9137,9155,9171,9185,9203,9221,9238,9254,9271,9288,9305,9330,9352,9374,9387,9403,9420,9434,9450,9470,9487,9506,9519,9532,9553,9568,9585,9603,9619,9637,9653,9670,9687,9700,9717,9736,9752,9769,9787,9805,9817,9831,9852,9867,9885,9904,9919,9935,9950,9965,9985,10001,10018,10036,10052,10068,10084,10100,10118,10135,10152,10169,10185,10202,10219,10232,10251,10268,10284,10301,10319,10332,10349,10368,10388,10399,10417,10435,10452,10467,10483,10502,10520,10532,10549,10568,10585,10598,10617,10634,10652,10675,10683,10699,10715,10730,10750,10768,10784,10803,10819,10835,10852,10870,10886,10917,10935,10947,10962,10983,11000,11017,11030,11048,11064,11081,11097,11112,11129,11147,11164,11180,11195,11213,11229,11250,11267,11279,11296,11313,11330,11349,11366,11378,11397,11416,11431,11447,11465,11482,11498,11514,11528,11548,11563,11579,11595,11612,11631,11648,11663,11676,11698,11715,11731,11749,11767,11778,11793,11813,11830,11856,11874,11892,11911,11927,11943,11960,11977,11995,12014,12027,12043,12063,12080,12097,12110,12128,12146,12163,12180,12196,12213,12229,12247,12262,12279,12296,12312,12333,12345,12365,12381,12412,12423,12432,12453,12459,12477,12494,12509,12527,12544,12560,12577,12594,12610,12626,12643,12660,12675,12692,12709,12724,12742,12758,12775,12791,12809,12824,12843,12857,12875,12891,12907,12925,12941,12957,12976,12991,13007,13023,13041,13058,13073,13092,13107,13124,13140,13157,13172,13191,13207,13223,13240,13256,13274,13290,13307,13321,13339,13356,13374,13389,13406,13424,13439,13457,13474,13490,13505,13522,13540,13556,13574,13589,13606,13622,13640,13655,13673,13688,13711,13723,13739,13755,13773,13789,13806,13823,13838,13854,13872,13889,13905,13922,13938,13951,13970,13988,14004,14021,14039,14055,14070,14089,14105,14120,14138,14154,14171,14188,14204,14222,14236,14256,14277,14290,14304,14321,14338,14354,14370,14394,14421,14441,14461,14471,14487,14507,14528,14538,14554,14575,14588,14610,14621,14636,14664,14687,14716,14742,14790,14858,14980,15066,15088,15215,15269,15310,15317,15370,15401,15421,15437,15456,15469,15486,15502,15519,15538,15554,15571,15589,15611,15618,15633,15654,15669,15687,15701,15717,15734,15752,15768,15784,15800,15816,15835,15850,15867,15882,15900,15917,15932,15949,15966,15983,16000,16016,16037,16051,16068,16087,16110,16132,16153,16188,16243,16305,16403,16445,16453,16478,16487,16517,16546,16565,16583,16614,16636,16678,16697,16708,16721,16735,16751,16768,16784,16801,16817,16832,16851,16867,16884,16901,16917,16934,16950,16967,16984,16999,17015,17031,17052,17078,17095,17112,17129,17146,17163,17183,17197,17212,17231,17246,17263,17280,17296,17312,17330,17348,17365,17380,17395,17413,17429,17447,17462,17479,17497,17512,17525,17546,17563,17578,17595,17612,17629,17645,17662,17677,17695,17711,17728,17746,17762,17778,17794,17811,17830,17845,17861,17878,17895,17911,17928,17945,17960,17978,17995,18012,18028,18044,18060,18077,18094,18110,18127,18144,18160,18178,18196,18210,18228,18244,18260,18277,18294,18309,18329,18343,18361,18377,18393,18409,18426,18443,18460,18477,18492,18509,18526,18543,18560,18577,18592,18610,18626,18643,18659,18677,18692,18714,18728,18743,18760,18775,18792,18809,18825,18843,18861,18877,18895,18909,18928,18943,18958,18975,18992,19010,19025,19043,19058,19075,19092,19110,19125,19142,19157,19176,19192,19208,19224,19240,19261,19278,19292,19308,19324,19344,19358,19376,19392,19408,19427,19438,19457,19475,19490,19508,19522,19541,19557,19574,19591,19607,19623,19639,19655,19674,19690,19707,19723,19741,19756,19771,19789,19807,19824,19840,19856,19872,19889,19905,19923,19975,19994,20016,20039,20052,20065,20089,20106,20123,20144,20171,20193,20205,20222,20240,20259,20277,20305,20341,20373,20405,20484,20525,20556,20591,20607,20640,20659,20689,20693,20715,20739,20818,20888,20926,20943,20967,20987,21018,21039,21052,21063,21073,21091,21101,21119,21136,21151,21170,21186,21203,21220,21236,21253,21269,21285,21302,21319,21336,21351,21370,21384,21402,21418,21434,21449,21469,21484,21502,21518,21535,21551,21568,21584,21601,21615,21634,21651,21670,21684,21702,21718,21730,21749,21768,21783,21800,21819,21834,21851,21867,21884,21900,21918,21935,21951,21966,21983,22001,22017,22033,22050,22066,22083,22101,22119,22134,22151,22165,22184,22201,22218,22234,22249,22266,22283,22299,22316,22332,22348,22365,22384,22400,22416,22433,22449,22466,22482,22500,22514,22532,22550,22565,22581,22598,22615,22632,22649,22665,22681,22700,22717,22730,22748,22766,22781,22798,22815,22831,22848,22865,22882,22896,22915,22931,22947,22964,22982,22998,23014,23032,23047,23065,23081,23097,23114,23132,23148,23166,23180,23197,23214,23231,23247,23263,23281,23297,23313,23330,23347,23365,23380,23396,23413,23430,23446,23463,23479,23496,23513,23529,23545,23563,23580,23597,23612,23629,23645,23662,23679,23695,23711,23728,23748,23776,23794,23812,23830,23845,23862,23879,23895,23911,23929,23945,23961,23977,23991,24011,24027,24046,24061,24077,24096,24111,24128,24144,24160,24179,24196,24210,24228,24245,24261,24279,24298,24314,24329,24345,24360,24377,24393,24410,24427,24443,24460,24478,24493,24510,24526,24544,24560,24577,24594,24611,24623,24643,24659,24677,24695,24710,24728,24742,24760,24777,24793,24809,24827,24843,24859,24876,24892,24909,24925,24943,24958,24975,24993,25008,25025,25043,25060,25074,25091,25108,25125,25141,25159,25175,25192,25209,25225,25241,25260,25276,25292,25308,25325,25342,25358,25374,25392,25407,25424,25440,25457,25474,25491,25508,25524,25542,25557,25573,25589,25609,25624,25641,25656,25672,25690,25708,25724,25741,25758,25775,25790,25807,25823,25841,25856,25873,25887,25906,25922,25939,25956,25973,25989,26006,26024,26040,26057,26071,26089,26106,26123,26138,26156,26172,26189,26205,26229,26253,26272,26291,26306,26322,26339,26356,26372,26389,26405,26421,26439,26456,26472,26487,26504,26522,26539,26555,26571,26588,26604,26621,26639,26654,26671,26688,26705,26722,26737,26756,26768,26787,26804,26821,26838,26853,26870,26887,26904,26920,26937,26953,26970,26986,27003,27021,27036,27053,27071,27088,27103,27120,27136,27153,27169,27185,27202,27220,27235,27253,27270,27287,27305,27320,27337,27354,27371,27387,27403,27420,27437,27454,27469,27487,27502,27518,27537,27553,27569,27586,27602,27618,27635,27653,27668,27686,27702,27718,27734,27752,27768,27785,27802,27818,27835,27852,27869,27886,27901,27918,27934,27951,27967,27985,27997,28017,28034,28052,28065,28084,28101,28117,28133,28150,28167,28184,28200,28217,28235,28253,28267,28283,28301,28316,28333,28350,28367,28384,28400,28416,28432,28448,28466,28482,28499,28518,28533,28550,28565,28582,28600,28613,28633,28648,28665,28682,28699,28715,28732,28749,28769,28782,28800,28815,28832,28849,28866,28881,28899,28914,28931,28949,28965,28981,28998,29015,29031,29049,29062,29081,29099,29115,29132,29148,29164,29181,29198,29213,29231,29248,29265,29281,29297,29313,29333,29349,29365,29379,29397,29412,29431,29446,29463,29480,29496,29513,29530,29547,29563,29579,29597,29613,29629,29647,29663,29679,29697,29713,29728,29746,29763,29791,29802,29817,29830,29845,29863,29879,29895,29914,29929,29945,29962,29979,29995,30011,30030,30045,30061,30078,30096,30111,30128,30144,30161,30180,30195,30212,30228,30245,30263,30281,30307,30330,30410,30496,30559,30592,30610,30630,30648,30662,30678,30708,30782,30856,30888,30897,30916,30928,30944,30960,30977,30994,31011,31023,31045,31062,31077,31094,31112,31127,31145,31159,31176,31194,31208,31225,31241,31259,31275,31292,31308,31326,31341,31359,31374,31391,31409,31424,31442,31458,31474,31491,31505,31524,31540,31556,31570,31592,31606,31624,31641,31657,31671,31690,31708,31723,31741,31758,31774,31790,31809,31823,31840,31858,31875,31890,31907,31924,31941,31958,31972,31989,32006,32024,32040,32057,32074,32090,32107,32122,32141,32154,32173,32189,32206,32224,32239,32256,32272,32290,32304,32323,32340,32357,32372,32388,32405,32422,32440,32456,32471,32488,32505,32523,32537,32556,32572,32588,32605,32622,32637,32655,32672,32689,32705,32721,32738,32755,32771,32788,32805,32821,32837,32854,32871,32887,32904,32920,32938,32956,32968,32988,33005,33021,33038,33053,33071,33087,33104,33120,33134,33152,33172,33187,33203,33221,33237,33253,33270,33287,33304,33321,33336,33353,33370,33387,33402,33419,33436,33453,33469,33485,33502,33520,33535,33554,33570,33586,33603,33619,33635,33653,33669,33686,33703,33718,33737,33752,33768,33792,33804,33817,33835,33852,33868,33885,33901,33918,33936,33952,33969,33984,34001,34019,34035,34051,34068,34084,34101,34119,34135,34152,34167,34184,34201,34218,34233,34250,34271,34319,34383,34471,34544,34599,34630,34645,34652,34668,34696,34719,34736,34765,34784,34798,34815,34837,34854,34872,34899,34916,34932,34949,34966,34982,34999,35014,35033,35049,35067,35085,35103,35117,35134,35149,35166,35182,35199,35215,35232,35247,35264,35282,35297,35314,35330,35349,35365,35381,35398,35415,35432,35448,35463,35482,35497,35515,35531,35548,35565,35580,35596,35613,35632,35647,35665,35680,35698,35715,35731,35745,35764,35780,35797,35814,35831,35845,35863,35879,35898,35913,35929,35946,35962,35979,35997,36013,36030,36047,36065,36079,36096,36112,36129,36146,36161,36179,36196,36218,36234,36252,36281,36305,36317,36328,36344,36363,36379,36396,36411,36428,36446,36463,36478,36496,36511,36529,36547,36564,36582,36604,36639,36678,36684,36711,36727,36743,36761,36777,36793,36811,36827,36845,36861,36877,36895,36909,36926,36942,36960,36977,36994,37011,37027,37040,37061,37076,37095,37110,37126,37143,37158,37178,37195,37211,37228,37242,37260,37276,37292,37309,37326,37344,37359,37376,37392,37409,37426,37443,37456,37476,37494,37524,37561,37581,37598,37609,37624,37642,37659,37675,37691,37708,37725,37743,37757,37775,37792,37809,37825,37841,37858,37875,37892,37908,37924,37941,37958,37973,37991,38009,38025,38041,38057,38075,38092,38108,38125,38142,38158,38174,38189,38206,38225,38242,38258,38275,38289,38302,38324,38340,38356,38374,38390,38405,38423,38440,38457,38473,38489,38507,38524,38539,38556,38572,38590,38606,38622,38639,38656,38672,38689,38706,38722,38738,38756,38779,38827,38862,38894,38934,38984,38994,39012,39037,39050,39060,39072,39087,39108,39140,39167,39176,39201,39215,39338,39486,39512,39537,39555,39571,39588,39615,39639,39668,39684,39691,39702,39720,39736,39752,39767,39792,39800,39817,39837,39848,39869,39887,39903,39919,39936,39952,39968,39986,40002,40020,40035,40052,40069,40085,40102,40119,40135,40152,40168,40185,40201,40219,40235,40251,40268,40286,40301,40318,40335,40351,40371,40394,40411,40440,40471,40496,40517,40551,40589,40634,40670,40687,40707,40720,40735,40752,40769,40784,40801,40818,40834,40849,40866,40883,40900,40917,40933,40950,40966,40983,40999,41017,41033,41047,41066,41083,41100,41116,41129,41149,41167,41182,41198,41216,41231,41249,41265,41282,41297,41315,41331,41348,41366,41382,41398,41414,41431,41448,41465,41481,41498,41515,41531,41547,41562,41581,41598,41613,41630,41648,41664,41680,41699,41715,41729,41748,41764,41780,41798,41814,41830,41848,41861,41880,41896,41912,41931,41947,41963,41981,41997,42014,42030,42047,42063,42079,42098,42114,42130,42147,42163,42180,42197,42214,42229,42246,42262,42279,42296,42313,42329,42346,42363,42379,42394,42413,42428,42443,42464,42479,42495,42511,42528,42545,42562,42578,42592,42611,42628,42645,42661,42678,42695,42712,42730,42753,42778,42865,42942,43016,43056,43076,43082,43097,43110,43128,43144,43161,43177,43193,43210,43228,43243,43261,43278,43298,43323,43341,43361,43379,43395,43412,43428,43445,43456,43477,43493,43509,43524,43544,43560,43576,43593,43608,43625,43642,43658,43676,43693,43708,43725,43744,43760,43773,43793,43810,43825,43842,43870,43880,43893,43911,43928,43944,43960,43976,43994,44010,44026,44041,44058,44075,44091,44109,44124,44140,44158,44173,44190,44207,44224,44242,44261,44277,44291,44309,44328,44345,44363,44371,44390,44407,44425,44445,44458,44473,44490,44507,44523,44540,44556,44573,44590,44607,44623,44640,44657,44674,44693,44710,44728,44743,44757,44776,44789,44806,44823,44840,44855,44872,44890,44905,44924,44940,44958,44975,45002,45019,45048,45065,45078,45093,45106,45125,45145,45162,45193,45215,45241,45254,45324,45373,45444,45508,45542,45572,45606,45634,45663,45676,45690,45740,45772,45802,45826,45852,45871,45893,45908,45933,45955,45982,46002,46020,46046,46059,46088,46106,46120,46137,46152,46170,46186,46199,46216,46231,46247,46268,46282,46289,46305,46386,46470,46502,46536,46539,46565,46584,46602,46621,46639,46653,46669,46686,46702,46719,46735,46756,46772,46787,46803,46818,46835,46852,46868,46881,46900,46914,46934,46950,46966,46984,47001,47017,47033,47050,47068,47084,47100,47116,47133,47151,47167,47183,47200,47216,47233,47249,47265,47283,47300,47314,47334,47349,47365,47381,47400,47416,47432,47450,47466,47482,47497,47515,47531,47549,47565,47582,47598,47615,47631,47648,47665,47682,47698,47716,47731,47749,47764,47782,47799,47815,47831,47853,47865,47879,47902,47921,47930,47950,47970,47985,48009,48033,48069,48116,48167,48224,48258,48345,48427,48472,48494,48512,48534,48548,48564,48577,48585,48598,48615,48633,48651,48678,48723,48751,48800,48873,48897,48982,49018,49054,49084,49111,49137,49160,49193,49215,49227,49251,49267,49299,49336,49347,49363,49385,49397,49442,49495,49529,49565,49608,49646,49677,49704,49716,49742,49760,49766,49790,49798,49814,49830,49847,49860,49877,49894,49919,49938,49953,49980,49996,50013,50025,50045,50060,50080,50095,50106,50125,50141,50158,50176,50192,50208,50224,50241,50259,50274,50293,50309,50324,50341,50359,50373,50390,50407,50427,50442,50459,50475,50491,50508,50522,50542,50558,50573,50590,50604,50624,50642,50657,50673,50689,50708,50724,50741,50757,50774,50790,50806,50825,50840,50856,50873,50891,50908,50924,50939,50957,50974,50990,51006,51023,51039,51056,51072,51090,51106,51123,51138,51155,51172,51188,51206,51222,51238,51255,51272,51288,51305,51322,51337,51356,51371,51388,51405,51422,51440,51456,51470,51487,51506,51521,51537,51556,51573,51587,51604,51620,51639,51654,51672,51688,51703,51720,51738,51754,51771,51788,51805,51820,51838,51853,51872,51889,51902,51921,51937,51955,51971,51988,52002,52020,52038,52054,52073,52087,52104,52120,52138,52154,52170,52186,52203,52220,52243,52256,52271,52287,52301,52321,52341,52351,52371,52391,52411,52421,52438,52453,52483,52503,52506,52528,52542,52557,52584,52597,52612,52620,52637,52655,52671,52685,52702,52717,52737,52753,52768,52783,52802,52817,52835,52851,52869,52885,52901,52918,52935,52952,52966,52983,53001,53018,53034,53050,53066,53083,53101,53118,53136,53153,53169,53186,53200,53216,53233,53251,53266,53284,53300,53316,53333,53351,53367,53384,53399,53416,53433,53450,53468,53483,53499,53516,53532,53550,53566,53582,53597,53616,53633,53648,53665,53679,53699,53714,53733,53749,53766,53782,53798,53816,53832,53849,53864,53886,53899,53917,53932,53949,53966,53982,53998,54014,54031,54049,54065,54081,54100,54118,54133,54149,54167,54182,54199,54216,54233,54250,54265,54282,54296,54315,54331,54347,54365,54381,54397,54414,54429,54449,54464,54479,54497,54513,54528,54547,54564,54579,54596,54612,54629,54646,54661,54679,54698,54712,54730,54747,54763,54779,54796,54812,54829,54846,54863,54878,54895,54911,54930,54946,54962,54981,54997,55013,55029,55047,55064,55080,55097,55113,55131,55147,55162,55178,55195,55212,55229,55244,55261,55277,55295,55312,55330,55344,55361,55377,55394,55411,55427,55444,55461,55478,55494,55512,55528,55544,55560,55576,55595,55611,55627,55644,55661,55678,55692,55710,55727,55742,55762,55789,55808,55826,55843,55860,55879,55895,55911,55927,55944,55960,55977,55992,56009,56027,56043,56059,56077,56093,56109,56125,56143,56159,56175,56193,56209,56225,56241,56259,56275,56293,56308,56325,56342,56358,56374,56392,56411,56439,56538,56596,56672,56678,56690,56709,56724,56742,56758,56773,56795,56808,56829,56863,56894,56913,56926,56940,56957,56974,56990,57006,57024,57053,57071,57091,57110,57126,57153,57174,57190,57207,57223,57241,57255,57273,57290,57306,57323,57338,57355,57372,57389,57406,57422,57438,57455,57472,57489,57505,57522,57539,57555,57573,57588,57604,57623,57641,57660,57677,57693,57722,57748,57770,57788,57807,57832,57841,57855,57872,57887,57905,57922,57937,57954,57972,57986,58004,58021,58036,58056,58075,58087,58101,58121,58137,58153,58170,58191,58204,58220,58236,58255,58270,58286,58302,58320,58336,58353,58370,58388,58404,58420,58437,58455,58471,58488,58502,58520,58536,58551,58569,58588,58605,58623,58630,58652,58671,58687,58714,58744,58766,58787,58803,58817,58830,58846,58867,58882,58903,58923,58941,58968,58987,59004,59021,59034,59051,59068,59087,59103,59120,59138,59153,59169,59183,59203,59221,59235,59251,59267,59284,59304,59320,59339,59352,59373,59400,59421,59442,59461,59491,59504,59536,59592,59642,59678,59702,59718,59746,59767,59787,59801,59816,59849,59859,59879,59905,59917,59937,59972,60013,60029,60048,60056,60072,60088,60113,60120,60137,60165,60184,60204,60208,60233,60250,60273,60285,60303,60316,60335,60352,60366,60384,60403,60416,60435,60451,60464,60479,60499,60518,60535,60545,60570,60584,60603,60615,60646,60668,60686,60717,60742,60777,60814,60830,60853,60870,60900,60922,60953,60969,60994,61014,61031,61052,61063,61083,61099,61151,61161,61179,61205,61213,61231,61248,61266,61284,61295,61315,61337,61349,61366,61381,61401,61413,61433,61444,61465,61483,61496,61515,61532,61549,61566,61584,61595,61615,61633,61646,61661,61681,61697,61713,61730,61745,61762,61778,61795,61811,61828,61845,61860,61879,61894,61910,61927,61943,61960,61977,61991,62011,62027,62044,62059,62077,62091,62111,62127,62143,62161,62177,62190,62210,62227,62244,62259,62276,62293,62309,62326,62342,62361,62376,62393,62410,62425,62442,62460,62477,62495,62509,62527,62542,62559,62576,62592,62607,62625,62641,62661,62676,62690,62709,62725,62741,62756,62776,62793,62807,62824,62840,62859,62875,62891,62907,62924,62942,62957,62974,62991,63008,63025,63041,63060,63074,63091,63107,63124,63144,63159,63174,63190,63206,63223,63240,63257,63273,63290,63306,63323,63341,63358,63374,63391,63407,63422,63440,63458,63474,63489,63508,63524,63541,63556,63573,63590,63606,63620,63639,63656,63674,63689,63707,63721,63739,63756,63772,63788,63806,63820,63838,63857,63872,63888,63906,63923,63943,63956,63971,63988,64006,64022,64037,64056,64069,64089,64104,64122,64139,64155,64171,64188,64206,64223,64238,64254,64270,64287,64304,64320,64338,64354,64370,64388,64404,64420,64437,64454,64470,64489,64512,64524,64538,64554,64570,64586,64605,64621,64636,64653,64669,64686,64703,64720,64736,64753,64769,64787,64804,64820,64836,64852,64870,64883,64903,64919,64936,64952,64969,64985,65002,65019,65036,65055,65073,65085,65102,65120,65134,65154,65168,65186,65203,65220,65236,65251,65267,65286,65303,65318,65334,65353,65368,65384,65402,65418,65434,65452,65468,65484,65501,65517,65533,65551,65567,65585,65602,65616,65633,65650,65669,65684,65700,65717,65733,65754,65768,65784,65800,65814,65833,65851,65866,65883,65902,65916,65933,65950,65967,65984,66000,66017,66032,66049,66065,66084,66100,66117,66133,66149,66166,66183,66199,66216,66232,66248,66266,66283,66300,66315,66332,66350,66367,66383,66400,66416,66433,66449,66465,66481,66498,66515,66532,66547,66564,66581,66598,66614,66633,66649,66666,66683,66700,66717,66733,66750,66766,66785,66800,66816,66834,66850,66866,66884,66900,66915,66931,66947,66964,66980,66997,67014,67030,67046,67063,67081,67096,67113,67130,67148,67164,67180,67196,67214,67230,67246,67263,67280,67296,67311,67330,67347,67363,67379,67395,67413,67430,67446,67463,67480,67495,67513,67528,67545,67564,67578,67595,67611,67630,67647,67662,67678,67695,67712,67729,67746,67761,67779,67794,67810,67828,67845,67860,67878,67894,67910,67928,67945,67960,67978,67994,68012,68028,68045,68060,68077,68093,68110,68128,68140,68161,68177,68195,68210,68226,68245,68260,68281,68294,68311,68326,68342,68361,68377,68393,68409,68426,68445,68460,68475,68493,68509,68525,68544,68557,68577,68593,68610,68625,68643,68660,68678,68694,68708,68727,68744,68759,68779,68794,68810,68828,68844,68860,68873,68888,68912,68963,69096,69190,69221,69303,69324,69371,69390,69426,69506,69540,69554,69569,69578,69593,69609,69625,69643,69660,69676,69698,69709,69726,69742,69757,69773,69789,69808,69826,69842,69857,69873,69889,69906,69924,69938,69955,69972,69989,70007,70022,70040,70054,70072,70089,70106,70123,70138,70155,70171,70189,70205,70221,70239,70255,70271,70290,70306,70321,70338,70356,70372,70388,70401,70422,70438,70455,70471,70488,70504,70521,70538,70556,70574,70590,70605,70620,70638,70655,70670,70687,70703,70721,70737,70754,70772,70786,70804,70822,70839,70854,70870,70887,70903,70919,70936,70955,70969,70985,71003,71018,71036,71053,71070,71086,71102,71120,71136,71153,71167,71185,71203,71220,71236,71253,71271,71318,71375,71412,71479,71536,71588,71608,71647,71682,71731,71740,71753,71800,71907,71939,71981,72012,72033,72056,72069,72086,72102,72119,72135,72154,72185,72204,72218,72237,72248,72269,72287,72301,72320,72348,72442,72493,72538,72563,72592,72636,72671,72713,72769,72829,72848,72870,72895,72927,72952,72970,72983,73002,73021,73046,73191,73220,73229,73282,73346,73409,73461,73481,73502,73522,73557,73575,73590,73598,73617,73631,73649,73667,73681,73701,73715,73745,73760,73768,73784,73806,73824,73833,73856,73874,73885,73901,73917,73933,73961,73997,74011,74027,74042,74056,74067,74084,74100,74117,74134,74142,74168,74181,74200,74215,74229,74249,74262,74282,74312,74396,74457,74476,74496,74511,74527,74541,74565,74587,74604,74616,74633,74648,74666,74681,74698,74715,74732,74753,74770,74782,74800,74821,74829,74850,74856,74880,74897,74910,74931,74944,74962,74981,74993,75014,75026,75045,75064,75078,75097,75112,75129,75143,75164,75195,75212,75228,75247,75261,75280,75294,75313,75327,75346,75360,75378,75396,75410,75427,75446,75460,75479,75492,75511,75528,75544,75562,75575,75594,75609,75629,75641,75662,75679,75693,75712,75724,75741,75759,75777,75793,75811,75826,75844,75852,75872,75891,75907,75922,75944,75958],"hit":[null],"x":[-1.8231292517006803,-1.8231292517006803,-1.8231292517006803,-1.8231292517006803,-1.8231292517006803,-1.8231292517006803,-1.8231292517006803,-1.8231292517006803,-1.8231292517006803,-1.8231292517006803,-1.8231292517006803,-1.8231292517006803,-1.8231292517006803,-1.8231292517006803,-1.8231292517006803,-1.8231292517006803,-1.8231292517006803,-1.8231292517006803,-1.8231292517006803,-1.8231292517006803,-1.8231292517006803,-1.8231292517006803,-1.8231292517006803,-1.8231292517006803,-1.8231292517006803,-1.8231292517006803,-1.8231292517006803,-1.8231292517006803,-1.8231292517006803,0.07482993197278912,0.07482993197278912,0.07142857142857142,0.07142857142857142,0.07142857142857142,0.07142857142857142,0.07142857142857142,0.07142857142857142,0.07142857142857142,0.06802721088435375,0.061224489795918366,0.061224489795918366,0.061224489795918366,0.061224489795918366,0.061224489795918366,0.061224489795918366,0.061224489795918366,0.061224489795918366,0.061224489795918366,0.061224489795918366,0.061224489795918366,0.05782312925170068,0.05102040816326531,0.05102040816326531,0.05102040816326531,0.05102040816326531,0.05102040816326531,0.05102040816326531,0.05102040816326531,0.05442176870748299,0.05442176870748299,0.05442176870748299,0.05442176870748299,0.05442176870748299,0.05442176870748299,0.05442176870748299,0.05442176870748299,0.05442176870748299,0.05442176870748299,0.05442176870748299,0.05442176870748299,0.05442176870748299,0.05442176870748299,0.05442176870748299,0.05442176870748299,0.05442176870748299,0.05442176870748299,0.05442176870748299,0.05442176870748299,0.05442176870748299,0.05442176870748299,0.05442176870748299,0.05442176870748299,0.05442176870748299,0.05442176870748299,0.05442176870748299,0.05442176870748299,0.05442176870748299,0.05442176870748299,0.05442176870748299,0.05442176870748299,0.05442176870748299,0.05442176870748299,0.05442176870748299,0.05102040816326531,0.05102040816326531,0.05102040816326531,0.047619047619047616,0.047619047619047616,0.047619047619047616,0.04421768707482993,0.04421768707482993,0.04421768707482993,0.04421768707482993,0.04421768707482993,0.04421768707482993,0.04421768707482993,0.04421768707482993,0.04421768707482993,0.04421768707482993,0.04421768707482993,0.04421768707482993,0.04421768707482993,0.04421768707482993,0.04421768707482993,0.04421768707482993,0.04421768707482993,0.04421768707482993,0.04421768707482993,0.04421768707482993,0.04421768707482993,0.04421768707482993,0.04421768707482993,0.04421768707482993,0.04421768707482993,0.04421768707482993,0.04421768707482993,0.04421768707482993,0.05102040816326531,0.05782312925170068,0.07482993197278912,0.10884353741496598,0.25510204081632654,0.4489795918367347,1.1700680272108843,1.2040816326530612,1.2040816326530612,1.2040816326530612,1.2040816326530612,1.2040816326530612,1.2040816326530612,1.2040816326530612,1.2040816326530612,1.2040816326530612,1.2040816326530612,1.2040816326530612,1.2040816326530612,1.2040816326530612,1.2040816326530612,1.2040816326530612,1.2040816326530612,1.2040816326530612,1.2040816326530612,1.2040816326530612,1.2040816326530612,1.2040816326530612,1.2040816326530612,1.2040816326530612,1.2040816326530612,1.2040816326530612,1.2040816326530612,1.2040816326530612,1.2040816326530612,1.2040816326530612,1.2040816326530612,1.2040816326530612,1.2040816326530612,1.2040816326530612,1.2040816326530612,1.2040816326530612,1.2040816326530612,1.2040816326530612,1.2040816326530612,1.2040816326530612,1.2040816326530612,1.2040816326530612,1.2006802721088434,1.1938775510204083,1.1870748299319729,1.1870748299319729,1.1870748299319729,1.1870748299319729,1.1870748299319729,1.1870748299319729,1.183673469387755,1.183673469387755,1.183673469387755,1.1802721088435375,1.1802721088435375,1.1768707482993197,1.1768707482993197,1.1768707482993197,1.1768707482993197,1.1768707482993197,1.1768707482993197,1.1768707482993197,1.1768707482993197,1.1768707482993197,1.1768707482993197,1.1768707482993197,1.1768707482993197,1.1768707482993197,1.1768707482993197,1.1768707482993197,1.1768707482993197,1.1768707482993197,1.1768707482993197,1.1768707482993197,1.1768707482993197,1.1768707482993197,1.1768707482993197,1.1768707482993197,1.1768707482993197,1.1768707482993197,1.1768707482993197,1.1768707482993197,1.1734693877551021,1.1734693877551021,1.1666666666666667,1.153061224489796,1.0748299319727892,1.0068027210884354,0.935374149659864,0.8367346938775511,0.7482993197278912,0.6870748299319728,0.6598639455782312,0.6326530612244898,0.6156462585034014,0.6054421768707483,0.6020408163265306,0.6020408163265306,0.6020408163265306,0.6020408163265306,0.6020408163265306,0.6020408163265306,0.6020408163265306,0.6020408163265306,0.6020408163265306,0.6020408163265306,0.6020408163265306,0.6020408163265306,0.6020408163265306,0.6020408163265306,0.6020408163265306,0.6020408163265306,0.6020408163265306,0.6020408163265306,0.6020408163265306,0.6020408163265306,0.6020408163265306,0.6020408163265306,0.6020408163265306,0.6020408163265306,0.6020408163265306,0.6020408163265306,0.6020408163265306,0.6020408163265306,0.6020408163265306,0.6020408163265306,0.6020408163265306,0.6020408163265306,0.6020408163265306,0.6020408163265306,0.6020408163265306,0.6020408163265306,0.6020408163265306,0.6020408163265306,0.6020408163265306,0.6020408163265306,0.6020408163265306,0.6020408163265306,0.6020408163265306,0.6020408163265306,0.5986394557823129,0.5952380952380952,0.5884353741496599,0.5782312925170068,0.564625850340136,0.5340136054421769,0.4523809523809524,0.42857142857142855,0.19047619047619047,0.13945578231292516,0.12585034013605442,0.12585034013605442,0.12585034013605442,0.12585034013605442,0.12585034013605442,0.12585034013605442,0.12585034013605442,0.12244897959183673,0.12244897959183673,0.11564625850340136,0.10884353741496598,0.09863945578231292,0.04081632653061224,0.023809523809523808,0.013605442176870748,0.01020408163265306,0.006802721088435374,0.003401360544217687,-0.003401360544217687,-0.003401360544217687,-0.003401360544217687,-0.003401360544217687,-0.003401360544217687,-0.003401360544217687,-0.003401360544217687,-0.003401360544217687,-0.003401360544217687,-0.003401360544217687,-0.003401360544217687,-0.003401360544217687,-0.003401360544217687,-0.003401360544217687,-0.003401360544217687,-0.003401360544217687,-0.003401360544217687,-0.003401360544217687,-0.003401360544217687,-0.003401360544217687,-0.003401360544217687,-0.003401360544217687,-0.003401360544217687,-0.003401360544217687,-0.003401360544217687,-0.003401360544217687,-0.003401360544217687,-0.003401360544217687,-0.003401360544217687,-0.003401360544217687,-0.003401360544217687,-0.003401360544217687,-0.003401360544217687,-0.003401360544217687,-0.003401360544217687,-0.003401360544217687,-0.003401360544217687,-0.003401360544217687,-0.003401360544217687,-0.003401360544217687,-0.003401360544217687,-0.003401360544217687,-0.003401360544217687,-0.003401360544217687,-0.003401360544217687,-0.003401360544217687,-0.003401360544217687,-0.003401360544217687,0.006802721088435374,0.034013605442176874,0.08163265306122448,0.2857142857142857,0.7244897959183674,0.9421768707482994,0.9421768707482994,0.9421768707482994,0.9421768707482994,0.9421768707482994,0.9421768707482994,0.9421768707482994,0.9421768707482994,0.9421768707482994,0.9421768707482994,0.9421768707482994,0.9421768707482994,0.9421768707482994,0.9421768707482994,0.9421768707482994,0.9421768707482994,0.9421768707482994,0.9421768707482994,0.9421768707482994,0.9421768707482994,0.9421768707482994,0.9421768707482994,0.9421768707482994,0.9421768707482994,0.9421768707482994,0.9421768707482994,0.9421768707482994,0.9421768707482994,0.9421768707482994,0.9421768707482994,0.9421768707482994,0.9421768707482994,0.9421768707482994,0.9421768707482994,0.9421768707482994,0.9421768707482994,0.9421768707482994,0.9421768707482994,0.9421768707482994,0.9421768707482994,0.9421768707482994,0.9421768707482994,0.9421768707482994,0.9421768707482994,0.9421768707482994,0.9421768707482994,0.9421768707482994,0.9421768707482994,0.9421768707482994,0.9421768707482994,0.9421768707482994,0.9421768707482994,0.9421768707482994,0.9421768707482994,0.9421768707482994,0.9421768707482994,0.9421768707482994,0.9421768707482994,0.9421768707482994,0.9421768707482994,0.9421768707482994,0.9421768707482994,0.9421768707482994,0.9421768707482994,0.9421768707482994,0.9421768707482994,0.9421768707482994,0.9421768707482994,0.9421768707482994,0.9421768707482994,0.9421768707482994,0.9421768707482994,0.9421768707482994,0.9421768707482994,0.9421768707482994,0.9421768707482994,0.9421768707482994,0.9421768707482994,0.9421768707482994,0.9421768707482994,0.9421768707482994,0.9421768707482994,0.9421768707482994,0.9421768707482994,0.9421768707482994,0.9421768707482994,0.9421768707482994,0.9421768707482994,0.9421768707482994,0.9421768707482994,0.9421768707482994,0.9421768707482994,0.9421768707482994,0.9421768707482994,0.9421768707482994,0.9421768707482994,0.9421768707482994,0.9421768707482994,0.9421768707482994,0.9421768707482994,0.9421768707482994,0.9421768707482994,0.9421768707482994,0.9421768707482994,0.9421768707482994,0.9421768707482994,0.9421768707482994,0.9421768707482994,0.9421768707482994,0.9421768707482994,0.9421768707482994,0.9421768707482994,0.9421768707482994,0.9421768707482994,0.9421768707482994,0.9421768707482994,0.9387755102040817,0.9387755102040817,0.935374149659864,0.935374149659864,0.935374149659864,0.935374149659864,0.935374149659864,0.935374149659864,0.935374149659864,0.935374149659864,0.935374149659864,0.935374149659864,0.935374149659864,0.935374149659864,0.935374149659864,0.935374149659864,0.935374149659864,0.935374149659864,0.935374149659864,0.935374149659864,0.9319727891156463,0.9319727891156463,0.9319727891156463,0.9319727891156463,0.9319727891156463,0.9319727891156463,0.9285714285714286,0.9285714285714286,0.9285714285714286,0.9285714285714286,0.9285714285714286,0.9285714285714286,0.9285714285714286,0.9285714285714286,0.9285714285714286,0.9285714285714286,0.9285714285714286,0.9285714285714286,0.9285714285714286,0.9285714285714286,0.9285714285714286,0.9285714285714286,0.9285714285714286,0.9285714285714286,0.9285714285714286,0.9285714285714286,0.9285714285714286,0.9285714285714286,0.9285714285714286,0.9285714285714286,0.9285714285714286,0.9285714285714286,0.9285714285714286,0.9285714285714286,0.9285714285714286,0.9285714285714286,0.9285714285714286,0.9285714285714286,0.9285714285714286,0.9285714285714286,0.9285714285714286,0.9285714285714286,0.9285714285714286,0.9285714285714286,0.9285714285714286,0.9285714285714286,0.9285714285714286,0.9285714285714286,0.9285714285714286,0.9285714285714286,0.9285714285714286,0.9285714285714286,0.9285714285714286,0.9285714285714286,0.9285714285714286,0.9285714285714286,0.9285714285714286,0.9285714285714286,0.9285714285714286,0.9285714285714286,0.9285714285714286,0.9285714285714286,0.9285714285714286,0.9285714285714286,0.9285714285714286,0.9285714285714286,0.9285714285714286,0.9285714285714286,0.9285714285714286,0.9285714285714286,0.9285714285714286,0.9285714285714286,0.9285714285714286,0.9285714285714286,0.9285714285714286,0.9285714285714286,0.9285714285714286,0.9285714285714286,0.9285714285714286,0.9285714285714286,0.9285714285714286,0.9285714285714286,0.9285714285714286,0.9285714285714286,0.9285714285714286,0.9285714285714286,0.9285714285714286,0.9251700680272109,0.9251700680272109,0.9251700680272109,0.9251700680272109,0.9251700680272109,0.9251700680272109,0.9251700680272109,0.9251700680272109,0.9251700680272109,0.9251700680272109,0.9251700680272109,0.9251700680272109,0.9251700680272109,0.9251700680272109,0.9251700680272109,0.9251700680272109,0.9251700680272109,0.9251700680272109,0.9251700680272109,0.9251700680272109,0.9251700680272109,0.9251700680272109,0.9251700680272109,0.9251700680272109,0.9251700680272109,0.9251700680272109,0.9251700680272109,0.9251700680272109,0.9251700680272109,0.9251700680272109,0.9251700680272109,0.9251700680272109,0.9251700680272109,0.9251700680272109,0.9251700680272109,0.9251700680272109,0.9251700680272109,0.9251700680272109,0.9251700680272109,0.9251700680272109,0.9251700680272109,0.9251700680272109,0.9251700680272109,0.9251700680272109,0.9251700680272109,0.9251700680272109,0.9251700680272109,0.9251700680272109,0.9251700680272109,0.9251700680272109,0.9251700680272109,0.9251700680272109,0.9251700680272109,0.9251700680272109,0.9251700680272109,0.9251700680272109,0.9251700680272109,0.9251700680272109,0.9251700680272109,0.9251700680272109,0.9251700680272109,0.9251700680272109,0.9251700680272109,0.9251700680272109,0.9251700680272109,0.9251700680272109,0.9251700680272109,0.9251700680272109,0.9251700680272109,0.9251700680272109,0.9251700680272109,0.9251700680272109,0.9251700680272109,0.9251700680272109,0.9251700680272109,0.9251700680272109,0.9251700680272109,0.9251700680272109,0.9251700680272109,0.9251700680272109,0.9251700680272109,0.9251700680272109,0.9251700680272109,0.9251700680272109,0.9251700680272109,0.9251700680272109,0.9251700680272109,0.9251700680272109,0.9251700680272109,0.9251700680272109,0.9251700680272109,0.9251700680272109,0.9251700680272109,0.9251700680272109,0.9251700680272109,0.9251700680272109,0.9251700680272109,0.9251700680272109,0.9251700680272109,0.9251700680272109,0.9251700680272109,0.9251700680272109,0.9251700680272109,0.9251700680272109,0.9251700680272109,0.9251700680272109,0.9251700680272109,0.9251700680272109,0.9251700680272109,0.9251700680272109,0.9251700680272109,0.9251700680272109,0.9251700680272109,0.9251700680272109,0.9251700680272109,0.9251700680272109,0.9251700680272109,0.9251700680272109,0.9251700680272109,0.9251700680272109,0.9251700680272109,0.9251700680272109,0.9251700680272109,0.9251700680272109,0.9251700680272109,0.9251700680272109,0.9251700680272109,0.9251700680272109,0.9251700680272109,0.9251700680272109,0.9251700680272109,0.9251700680272109,0.9251700680272109,0.9251700680272109,0.9251700680272109,0.9251700680272109,0.9251700680272109,0.9251700680272109,0.9251700680272109,0.9251700680272109,0.9251700680272109,0.9251700680272109,0.9251700680272109,0.9251700680272109,0.9251700680272109,0.9251700680272109,0.9251700680272109,0.9251700680272109,0.9251700680272109,0.9251700680272109,0.9251700680272109,0.9251700680272109,0.9251700680272109,0.9251700680272109,0.9251700680272109,0.9251700680272109,0.9251700680272109,0.9251700680272109,0.9251700680272109,0.9251700680272109,0.9251700680272109,0.9251700680272109,0.9251700680272109,0.9251700680272109,0.9251700680272109,0.9251700680272109,0.9251700680272109,0.9251700680272109,0.9251700680272109,0.9251700680272109,0.9251700680272109,0.9251700680272109,0.9251700680272109,0.9251700680272109,0.9251700680272109,0.9251700680272109,0.9251700680272109,0.9251700680272109,0.9251700680272109,0.9251700680272109,0.9251700680272109,0.9251700680272109,0.9251700680272109,0.9251700680272109,0.9251700680272109,0.9251700680272109,0.9251700680272109,0.9251700680272109,0.9217687074829932,0.9183673469387755,0.9149659863945578,0.9115646258503401,0.9081632653061225,0.9047619047619048,0.9013605442176871,0.8945578231292517,0.891156462585034,0.8843537414965986,0.8809523809523809,0.8741496598639455,0.8673469387755102,0.8571428571428571,0.8469387755102041,0.8401360544217688,0.8299319727891157,0.8129251700680272,0.7993197278911565,0.7653061224489796,0.6700680272108843,0.5476190476190477,0.5,0.35034013605442177,0.2857142857142857,0.25170068027210885,0.21428571428571427,0.19387755102040816,0.17346938775510204,0.15306122448979592,0.14285714285714285,0.13945578231292516,0.1360544217687075,0.1292517006802721,0.12585034013605442,0.12585034013605442,0.12244897959183673,0.11904761904761904,0.11904761904761904,0.11904761904761904,0.11224489795918367,0.10884353741496598,0.10884353741496598,0.10884353741496598,0.10884353741496598,0.1054421768707483,0.10204081632653061,0.10204081632653061,0.09863945578231292,0.09863945578231292,0.09863945578231292,0.09523809523809523,0.09183673469387756,0.09183673469387756,0.09183673469387756,0.09183673469387756,0.09183673469387756,0.09183673469387756,0.09183673469387756,0.09183673469387756,0.09183673469387756,0.09183673469387756,0.09183673469387756,0.09183673469387756,0.09183673469387756,0.09523809523809523,0.09863945578231292,0.09863945578231292,0.1054421768707483,0.11224489795918367,0.11904761904761904,0.1292517006802721,0.14625850340136054,0.1564625850340136,0.19387755102040816,0.2585034013605442,0.35034013605442177,0.47619047619047616,0.5,0.5034013605442177,0.5102040816326531,0.5102040816326531,0.5204081632653061,0.5374149659863946,0.54421768707483,0.5544217687074829,0.5680272108843537,0.5748299319727891,0.6054421768707483,0.6122448979591837,0.6122448979591837,0.6122448979591837,0.6122448979591837,0.6122448979591837,0.6122448979591837,0.6122448979591837,0.6122448979591837,0.6122448979591837,0.6122448979591837,0.6122448979591837,0.6122448979591837,0.6122448979591837,0.6122448979591837,0.6122448979591837,0.6122448979591837,0.6122448979591837,0.6122448979591837,0.6122448979591837,0.6122448979591837,0.6122448979591837,0.6122448979591837,0.6122448979591837,0.6122448979591837,0.6122448979591837,0.6122448979591837,0.6122448979591837,0.6122448979591837,0.6122448979591837,0.6122448979591837,0.6122448979591837,0.6122448979591837,0.6122448979591837,0.6122448979591837,0.6122448979591837,0.6122448979591837,0.6122448979591837,0.6122448979591837,0.6122448979591837,0.6122448979591837,0.6122448979591837,0.6122448979591837,0.6122448979591837,0.6122448979591837,0.6122448979591837,0.6122448979591837,0.6122448979591837,0.6122448979591837,0.6122448979591837,0.6122448979591837,0.6122448979591837,0.6122448979591837,0.6122448979591837,0.6122448979591837,0.6122448979591837,0.6122448979591837,0.6122448979591837,0.6122448979591837,0.6122448979591837,0.6122448979591837,0.6122448979591837,0.6122448979591837,0.6122448979591837,0.6122448979591837,0.6122448979591837,0.6122448979591837,0.6122448979591837,0.6122448979591837,0.6122448979591837,0.6122448979591837,0.6122448979591837,0.6122448979591837,0.6122448979591837,0.6122448979591837,0.6122448979591837,0.6122448979591837,0.6122448979591837,0.6122448979591837,0.6122448979591837,0.6122448979591837,0.6122448979591837,0.6122448979591837,0.6122448979591837,0.6122448979591837,0.6122448979591837,0.6122448979591837,0.6122448979591837,0.6122448979591837,0.6122448979591837,0.6122448979591837,0.6122448979591837,0.6122448979591837,0.6122448979591837,0.6122448979591837,0.6122448979591837,0.6122448979591837,0.6122448979591837,0.6122448979591837,0.6122448979591837,0.6122448979591837,0.6122448979591837,0.6122448979591837,0.6122448979591837,0.6122448979591837,0.6122448979591837,0.6122448979591837,0.6122448979591837,0.6122448979591837,0.6122448979591837,0.6122448979591837,0.6122448979591837,0.6122448979591837,0.6122448979591837,0.6122448979591837,0.6122448979591837,0.6122448979591837,0.6122448979591837,0.6122448979591837,0.6122448979591837,0.6122448979591837,0.6122448979591837,0.6122448979591837,0.6122448979591837,0.6122448979591837,0.6122448979591837,0.6122448979591837,0.6122448979591837,0.6122448979591837,0.6122448979591837,0.6122448979591837,0.6122448979591837,0.6122448979591837,0.6122448979591837,0.6122448979591837,0.6122448979591837,0.6122448979591837,0.6122448979591837,0.6122448979591837,0.6122448979591837,0.6122448979591837,0.608843537414966,0.608843537414966,0.608843537414966,0.608843537414966,0.608843537414966,0.6054421768707483,0.6054421768707483,0.6054421768707483,0.6054421768707483,0.6054421768707483,0.6054421768707483,0.6054421768707483,0.6054421768707483,0.6054421768707483,0.6054421768707483,0.6054421768707483,0.6054421768707483,0.6054421768707483,0.6054421768707483,0.6054421768707483,0.6054421768707483,0.6054421768707483,0.6054421768707483,0.6054421768707483,0.6054421768707483,0.6054421768707483,0.6054421768707483,0.6054421768707483,0.6054421768707483,0.6054421768707483,0.6054421768707483,0.6054421768707483,0.6054421768707483,0.6054421768707483,0.6054421768707483,0.6054421768707483,0.6054421768707483,0.6054421768707483,0.6054421768707483,0.6054421768707483,0.6054421768707483,0.6054421768707483,0.6054421768707483,0.6054421768707483,0.6054421768707483,0.6054421768707483,0.6054421768707483,0.6054421768707483,0.6054421768707483,0.6054421768707483,0.6054421768707483,0.6054421768707483,0.6054421768707483,0.6054421768707483,0.6054421768707483,0.6054421768707483,0.6054421768707483,0.6054421768707483,0.6054421768707483,0.6020408163265306,0.6020408163265306,0.5986394557823129,0.5952380952380952,0.5918367346938775,0.5850340136054422,0.5714285714285714,0.564625850340136,0.5612244897959183,0.5612244897959183,0.5578231292517006,0.5578231292517006,0.5578231292517006,0.5544217687074829,0.5476190476190477,0.5408163265306123,0.5340136054421769,0.5170068027210885,0.5102040816326531,0.5102040816326531,0.5034013605442177,0.4965986394557823,0.4931972789115646,0.48299319727891155,0.47278911564625853,0.47278911564625853,0.46598639455782315,0.4557823129251701,0.3435374149659864,0.2857142857142857,0.2687074829931973,0.2585034013605442,0.25170068027210885,0.24489795918367346,0.22448979591836735,0.21768707482993196,0.21768707482993196,0.21768707482993196,0.21768707482993196,0.21768707482993196,0.21768707482993196,0.21768707482993196,0.21768707482993196,0.21768707482993196,0.21768707482993196,0.21768707482993196,0.21768707482993196,0.21768707482993196,0.21768707482993196,0.21768707482993196,0.21768707482993196,0.21768707482993196,0.21768707482993196,0.21768707482993196,0.21768707482993196,0.21768707482993196,0.21768707482993196,0.21768707482993196,0.21768707482993196,0.21768707482993196,0.21768707482993196,0.21768707482993196,0.21768707482993196,0.21768707482993196,0.21768707482993196,0.21768707482993196,0.21768707482993196,0.21768707482993196,0.21768707482993196,0.21768707482993196,0.21768707482993196,0.21768707482993196,0.21768707482993196,0.21768707482993196,0.21768707482993196,0.21768707482993196,0.21768707482993196,0.21768707482993196,0.21768707482993196,0.21768707482993196,0.21768707482993196,0.21768707482993196,0.21768707482993196,0.21768707482993196,0.21768707482993196,0.21768707482993196,0.21768707482993196,0.21768707482993196,0.21768707482993196,0.21768707482993196,0.21768707482993196,0.21768707482993196,0.21768707482993196,0.21768707482993196,0.21768707482993196,0.21768707482993196,0.21768707482993196,0.21768707482993196,0.21768707482993196,0.21768707482993196,0.21768707482993196,0.21768707482993196,0.21768707482993196,0.21768707482993196,0.21768707482993196,0.21768707482993196,0.21768707482993196,0.21768707482993196,0.21768707482993196,0.21768707482993196,0.21768707482993196,0.21768707482993196,0.21768707482993196,0.21768707482993196,0.21768707482993196,0.21768707482993196,0.21768707482993196,0.21768707482993196,0.21768707482993196,0.21768707482993196,0.21768707482993196,0.21768707482993196,0.21768707482993196,0.21768707482993196,0.21768707482993196,0.21768707482993196,0.21768707482993196,0.21768707482993196,0.21768707482993196,0.21768707482993196,0.21768707482993196,0.21768707482993196,0.21768707482993196,0.21768707482993196,0.21768707482993196,0.21768707482993196,0.21768707482993196,0.21768707482993196,0.21768707482993196,0.21768707482993196,0.21768707482993196,0.21768707482993196,0.21768707482993196,0.21768707482993196,0.21768707482993196,0.21768707482993196,0.21768707482993196,0.21768707482993196,0.21768707482993196,0.21768707482993196,0.21768707482993196,0.21768707482993196,0.21768707482993196,0.21768707482993196,0.21768707482993196,0.21768707482993196,0.21768707482993196,0.21768707482993196,0.21768707482993196,0.21768707482993196,0.21768707482993196,0.21768707482993196,0.21768707482993196,0.21768707482993196,0.21768707482993196,0.21768707482993196,0.21768707482993196,0.21768707482993196,0.21768707482993196,0.21768707482993196,0.21768707482993196,0.21768707482993196,0.21768707482993196,0.21768707482993196,0.21768707482993196,0.21768707482993196,0.21768707482993196,0.21768707482993196,0.21768707482993196,0.21768707482993196,0.21768707482993196,0.21768707482993196,0.21768707482993196,0.21768707482993196,0.21768707482993196,0.21768707482993196,0.21768707482993196,0.21768707482993196,0.21768707482993196,0.21768707482993196,0.21768707482993196,0.21768707482993196,0.21768707482993196,0.21768707482993196,0.21768707482993196,0.21768707482993196,0.21768707482993196,0.21768707482993196,0.21768707482993196,0.21768707482993196,0.21768707482993196,0.21768707482993196,0.21768707482993196,0.21768707482993196,0.21768707482993196,0.21768707482993196,0.21768707482993196,0.21768707482993196,0.21768707482993196,0.21768707482993196,0.21768707482993196,0.21768707482993196,0.21768707482993196,0.21768707482993196,0.21768707482993196,0.21768707482993196,0.21768707482993196,0.21768707482993196,0.21768707482993196,0.21768707482993196,0.21768707482993196,0.21768707482993196,0.21768707482993196,0.21768707482993196,0.21768707482993196,0.21768707482993196,0.21768707482993196,0.21768707482993196,0.21768707482993196,0.21768707482993196,0.21768707482993196,0.21768707482993196,0.21768707482993196,0.21768707482993196,0.21768707482993196,0.21768707482993196,0.21768707482993196,0.21768707482993196,0.21768707482993196,0.21768707482993196,0.21768707482993196,0.21768707482993196,0.21768707482993196,0.21768707482993196,0.21768707482993196,0.21768707482993196,0.21768707482993196,0.21768707482993196,0.21768707482993196,0.21768707482993196,0.21768707482993196,0.21768707482993196,0.21768707482993196,0.21768707482993196,0.21768707482993196,0.21768707482993196,0.21768707482993196,0.21768707482993196,0.21768707482993196,0.21768707482993196,0.21768707482993196,0.21768707482993196,0.21768707482993196,0.21768707482993196,0.21768707482993196,0.21768707482993196,0.21768707482993196,0.21768707482993196,0.21768707482993196,0.21768707482993196,0.21768707482993196,0.21768707482993196,0.21768707482993196,0.21768707482993196,0.21768707482993196,0.21768707482993196,0.21768707482993196,0.21768707482993196,0.21768707482993196,0.21768707482993196,0.21768707482993196,0.21768707482993196,0.21768707482993196,0.21768707482993196,0.21768707482993196,0.21768707482993196,0.21768707482993196,0.21768707482993196,0.21768707482993196,0.21768707482993196,0.21768707482993196,0.21768707482993196,0.21768707482993196,0.21768707482993196,0.21768707482993196,0.21768707482993196,0.21768707482993196,0.21768707482993196,0.21768707482993196,0.21768707482993196,0.21768707482993196,0.21768707482993196,0.21768707482993196,0.21768707482993196,0.21768707482993196,0.21768707482993196,0.21768707482993196,0.21768707482993196,0.21768707482993196,0.21768707482993196,0.21768707482993196,0.21768707482993196,0.21768707482993196,0.21768707482993196,0.21768707482993196,0.21768707482993196,0.21768707482993196,0.21768707482993196,0.21768707482993196,0.21768707482993196,0.21768707482993196,0.21768707482993196,0.21768707482993196,0.21768707482993196,0.21768707482993196,0.21768707482993196,0.21768707482993196,0.21768707482993196,0.21768707482993196,0.21768707482993196,0.21768707482993196,0.21768707482993196,0.21768707482993196,0.21768707482993196,0.21768707482993196,0.21768707482993196,0.21768707482993196,0.21768707482993196,0.21768707482993196,0.21768707482993196,0.21768707482993196,0.21768707482993196,0.21768707482993196,0.21768707482993196,0.21768707482993196,0.21768707482993196,0.21768707482993196,0.21768707482993196,0.21768707482993196,0.21768707482993196,0.21768707482993196,0.21768707482993196,0.21768707482993196,0.21768707482993196,0.21768707482993196,0.21768707482993196,0.21768707482993196,0.21768707482993196,0.21768707482993196,0.21768707482993196,0.21768707482993196,0.21768707482993196,0.21768707482993196,0.21768707482993196,0.21768707482993196,0.21768707482993196,0.21768707482993196,0.21768707482993196,0.21768707482993196,0.21768707482993196,0.21768707482993196,0.21768707482993196,0.21768707482993196,0.21768707482993196,0.21768707482993196,0.21768707482993196,0.21768707482993196,0.21768707482993196,0.21768707482993196,0.21768707482993196,0.21768707482993196,0.21768707482993196,0.21768707482993196,0.21768707482993196,0.21768707482993196,0.21768707482993196,0.21768707482993196,0.21768707482993196,0.21768707482993196,0.21768707482993196,0.21768707482993196,0.21768707482993196,0.21768707482993196,0.21768707482993196,0.21768707482993196,0.21768707482993196,0.21768707482993196,0.21768707482993196,0.21768707482993196,0.21768707482993196,0.21768707482993196,0.21768707482993196,0.21768707482993196,0.21768707482993196,0.21768707482993196,0.21768707482993196,0.21768707482993196,0.21768707482993196,0.21768707482993196,0.21768707482993196,0.21768707482993196,0.21768707482993196,0.21768707482993196,0.21768707482993196,0.21768707482993196,0.21768707482993196,0.21768707482993196,0.21768707482993196,0.21768707482993196,0.21768707482993196,0.21768707482993196,0.21768707482993196,0.21768707482993196,0.21768707482993196,0.21768707482993196,0.21768707482993196,0.21768707482993196,0.21768707482993196,0.21768707482993196,0.21768707482993196,0.21768707482993196,0.21768707482993196,0.21768707482993196,0.21768707482993196,0.21768707482993196,0.21768707482993196,0.21768707482993196,0.21768707482993196,0.21768707482993196,0.21768707482993196,0.21768707482993196,0.21768707482993196,0.21768707482993196,0.21768707482993196,0.21768707482993196,0.21768707482993196,0.21768707482993196,0.21768707482993196,0.21768707482993196,0.21768707482993196,0.21768707482993196,0.21768707482993196,0.21768707482993196,0.21768707482993196,0.21768707482993196,0.21768707482993196,0.21768707482993196,0.21768707482993196,0.21768707482993196,0.21768707482993196,0.21768707482993196,0.21768707482993196,0.21768707482993196,0.21768707482993196,0.21768707482993196,0.21768707482993196,0.21768707482993196,0.21768707482993196,0.21768707482993196,0.21768707482993196,0.21768707482993196,0.21768707482993196,0.21768707482993196,0.21768707482993196,0.21768707482993196,0.21768707482993196,0.21768707482993196,0.21768707482993196,0.21768707482993196,0.21768707482993196,0.21768707482993196,0.21768707482993196,0.21768707482993196,0.21768707482993196,0.21768707482993196,0.21768707482993196,0.21768707482993196,0.21768707482993196,0.21768707482993196,0.21768707482993196,0.21768707482993196,0.21768707482993196,0.21768707482993196,0.21768707482993196,0.21768707482993196,0.21768707482993196,0.21768707482993196,0.21768707482993196,0.21768707482993196,0.21768707482993196,0.21768707482993196,0.21768707482993196,0.21768707482993196,0.21768707482993196,0.21768707482993196,0.21768707482993196,0.21768707482993196,0.21768707482993196,0.21768707482993196,0.21768707482993196,0.21768707482993196,0.21768707482993196,0.21768707482993196,0.21768707482993196,0.21768707482993196,0.21768707482993196,0.21768707482993196,0.21768707482993196,0.21768707482993196,0.21768707482993196,0.21768707482993196,0.21768707482993196,0.21768707482993196,0.21768707482993196,0.21768707482993196,0.21768707482993196,0.21768707482993196,0.21768707482993196,0.21768707482993196,0.21768707482993196,0.21768707482993196,0.21768707482993196,0.21768707482993196,0.21768707482993196,0.21768707482993196,0.21768707482993196,0.21768707482993196,0.21768707482993196,0.21768707482993196,0.21768707482993196,0.21768707482993196,0.21768707482993196,0.21768707482993196,0.21768707482993196,0.21768707482993196,0.21768707482993196,0.21768707482993196,0.21768707482993196,0.21768707482993196,0.21768707482993196,0.21768707482993196,0.21768707482993196,0.21768707482993196,0.21768707482993196,0.21768707482993196,0.21768707482993196,0.21768707482993196,0.21768707482993196,0.21768707482993196,0.21768707482993196,0.21768707482993196,0.21768707482993196,0.21768707482993196,0.21768707482993196,0.21768707482993196,0.21768707482993196,0.21768707482993196,0.21768707482993196,0.21768707482993196,0.21768707482993196,0.21768707482993196,0.21768707482993196,0.21768707482993196,0.21768707482993196,0.21768707482993196,0.21768707482993196,0.21768707482993196,0.21768707482993196,0.21768707482993196,0.21768707482993196,0.21768707482993196,0.21768707482993196,0.21768707482993196,0.21768707482993196,0.21768707482993196,0.21768707482993196,0.21768707482993196,0.21768707482993196,0.21768707482993196,0.21768707482993196,0.22108843537414966,0.23469387755102042,0.2653061224489796,0.41836734693877553,0.5714285714285714,0.6394557823129252,0.6632653061224489,0.673469387755102,0.6802721088435374,0.6836734693877551,0.6870748299319728,0.6904761904761905,0.7142857142857143,0.7993197278911565,0.9115646258503401,0.9217687074829932,0.9251700680272109,0.9285714285714286,0.9285714285714286,0.9285714285714286,0.9285714285714286,0.9285714285714286,0.9285714285714286,0.9285714285714286,0.9285714285714286,0.9285714285714286,0.9285714285714286,0.9285714285714286,0.9285714285714286,0.9285714285714286,0.9285714285714286,0.9285714285714286,0.9285714285714286,0.9285714285714286,0.9285714285714286,0.9285714285714286,0.9285714285714286,0.9285714285714286,0.9285714285714286,0.9285714285714286,0.9285714285714286,0.9285714285714286,0.9285714285714286,0.9285714285714286,0.9285714285714286,0.9285714285714286,0.9285714285714286,0.9285714285714286,0.9285714285714286,0.9285714285714286,0.9285714285714286,0.9285714285714286,0.9285714285714286,0.9285714285714286,0.9285714285714286,0.9285714285714286,0.9285714285714286,0.9285714285714286,0.9285714285714286,0.9285714285714286,0.9285714285714286,0.9285714285714286,0.9285714285714286,0.9285714285714286,0.9285714285714286,0.9285714285714286,0.9285714285714286,0.9285714285714286,0.9285714285714286,0.9285714285714286,0.9285714285714286,0.9285714285714286,0.9285714285714286,0.9285714285714286,0.9285714285714286,0.9285714285714286,0.9285714285714286,0.9285714285714286,0.9285714285714286,0.9285714285714286,0.9285714285714286,0.9285714285714286,0.9285714285714286,0.9285714285714286,0.9285714285714286,0.9285714285714286,0.9285714285714286,0.9285714285714286,0.9285714285714286,0.9285714285714286,0.9285714285714286,0.9285714285714286,0.9285714285714286,0.9285714285714286,0.9285714285714286,0.9285714285714286,0.9285714285714286,0.9285714285714286,0.9285714285714286,0.9285714285714286,0.9285714285714286,0.9285714285714286,0.9285714285714286,0.9285714285714286,0.9285714285714286,0.9285714285714286,0.9285714285714286,0.9285714285714286,0.9285714285714286,0.9285714285714286,0.9285714285714286,0.9285714285714286,0.9285714285714286,0.9285714285714286,0.9285714285714286,0.9285714285714286,0.9285714285714286,0.9285714285714286,0.9285714285714286,0.9285714285714286,0.9285714285714286,0.9285714285714286,0.9285714285714286,0.9285714285714286,0.9285714285714286,0.9285714285714286,0.9285714285714286,0.9285714285714286,0.9285714285714286,0.9285714285714286,0.9285714285714286,0.9285714285714286,0.9285714285714286,0.9285714285714286,0.9285714285714286,0.9285714285714286,0.9285714285714286,0.9285714285714286,0.9285714285714286,0.9285714285714286,0.9285714285714286,0.9285714285714286,0.9285714285714286,0.9285714285714286,0.9285714285714286,0.9285714285714286,0.9285714285714286,0.9285714285714286,0.9285714285714286,0.9285714285714286,0.9285714285714286,0.9285714285714286,0.9285714285714286,0.9285714285714286,0.9285714285714286,0.9285714285714286,0.9285714285714286,0.9285714285714286,0.9285714285714286,0.9285714285714286,0.9285714285714286,0.9285714285714286,0.9285714285714286,0.9285714285714286,0.9285714285714286,0.9285714285714286,0.9285714285714286,0.9285714285714286,0.9285714285714286,0.9285714285714286,0.9285714285714286,0.9285714285714286,0.9285714285714286,0.9285714285714286,0.9285714285714286,0.9285714285714286,0.9285714285714286,0.9285714285714286,0.9285714285714286,0.9285714285714286,0.9285714285714286,0.9285714285714286,0.9285714285714286,0.9285714285714286,0.9285714285714286,0.9285714285714286,0.9285714285714286,0.9285714285714286,0.9285714285714286,0.9285714285714286,0.9285714285714286,0.9285714285714286,0.9285714285714286,0.9285714285714286,0.9285714285714286,0.9285714285714286,0.9285714285714286,0.9285714285714286,0.9285714285714286,0.9285714285714286,0.9285714285714286,0.9285714285714286,0.9285714285714286,0.9285714285714286,0.9285714285714286,0.9285714285714286,0.9285714285714286,0.9285714285714286,0.9285714285714286,0.9285714285714286,0.9285714285714286,0.9285714285714286,0.9285714285714286,0.9285714285714286,0.9285714285714286,0.9285714285714286,0.9285714285714286,0.9285714285714286,0.9285714285714286,0.9217687074829932,0.8945578231292517,0.8299319727891157,0.7108843537414966,0.6496598639455783,0.5884353741496599,0.5782312925170068,0.5782312925170068,0.5748299319727891,0.5748299319727891,0.5714285714285714,0.5680272108843537,0.5612244897959183,0.5612244897959183,0.5612244897959183,0.5612244897959183,0.5612244897959183,0.5612244897959183,0.5578231292517006,0.5578231292517006,0.5578231292517006,0.5578231292517006,0.5578231292517006,0.5578231292517006,0.5578231292517006,0.5578231292517006,0.5578231292517006,0.5578231292517006,0.5578231292517006,0.5578231292517006,0.5578231292517006,0.5578231292517006,0.5578231292517006,0.5578231292517006,0.5578231292517006,0.5578231292517006,0.5578231292517006,0.5578231292517006,0.5578231292517006,0.5578231292517006,0.5578231292517006,0.5578231292517006,0.5578231292517006,0.5578231292517006,0.5578231292517006,0.5578231292517006,0.5578231292517006,0.5578231292517006,0.5578231292517006,0.5578231292517006,0.5578231292517006,0.5578231292517006,0.5578231292517006,0.5578231292517006,0.5578231292517006,0.5578231292517006,0.5578231292517006,0.5578231292517006,0.5578231292517006,0.5578231292517006,0.5578231292517006,0.5578231292517006,0.5578231292517006,0.5578231292517006,0.5578231292517006,0.5578231292517006,0.5578231292517006,0.5578231292517006,0.5578231292517006,0.5578231292517006,0.5578231292517006,0.5578231292517006,0.5578231292517006,0.5578231292517006,0.5578231292517006,0.5578231292517006,0.5578231292517006,0.5578231292517006,0.5578231292517006,0.5578231292517006,0.5578231292517006,0.5578231292517006,0.5578231292517006,0.5578231292517006,0.5578231292517006,0.5578231292517006,0.5578231292517006,0.5578231292517006,0.5578231292517006,0.5578231292517006,0.5578231292517006,0.5578231292517006,0.5578231292517006,0.5578231292517006,0.5578231292517006,0.5578231292517006,0.5578231292517006,0.5578231292517006,0.5578231292517006,0.5578231292517006,0.5578231292517006,0.5578231292517006,0.5578231292517006,0.5578231292517006,0.5578231292517006,0.5578231292517006,0.5578231292517006,0.5578231292517006,0.5578231292517006,0.5578231292517006,0.5578231292517006,0.5578231292517006,0.5578231292517006,0.5578231292517006,0.5578231292517006,0.5578231292517006,0.5578231292517006,0.5578231292517006,0.5612244897959183,0.564625850340136,0.5680272108843537,0.5748299319727891,0.6122448979591837,0.6462585034013606,0.6462585034013606,0.6462585034013606,0.6462585034013606,0.6462585034013606,0.6462585034013606,0.6462585034013606,0.6462585034013606,0.6462585034013606,0.6462585034013606,0.6462585034013606,0.6462585034013606,0.6462585034013606,0.6462585034013606,0.6462585034013606,0.6462585034013606,0.6462585034013606,0.6462585034013606,0.6462585034013606,0.6462585034013606,0.6462585034013606,0.6462585034013606,0.6462585034013606,0.6462585034013606,0.6462585034013606,0.6462585034013606,0.6462585034013606,0.6462585034013606,0.6462585034013606,0.6462585034013606,0.6462585034013606,0.6462585034013606,0.6462585034013606,0.6462585034013606,0.6462585034013606,0.6462585034013606,0.6462585034013606,0.6462585034013606,0.6462585034013606,0.6462585034013606,0.6462585034013606,0.6462585034013606,0.6462585034013606,0.6462585034013606,0.6462585034013606,0.6462585034013606,0.6462585034013606,0.6462585034013606,0.6462585034013606,0.6394557823129252,0.6224489795918368,0.5816326530612245,0.5680272108843537,0.5612244897959183,0.5612244897959183,0.5612244897959183,0.5612244897959183,0.5612244897959183,0.5612244897959183,0.5612244897959183,0.5612244897959183,0.5612244897959183,0.5612244897959183,0.5612244897959183,0.5612244897959183,0.5612244897959183,0.5612244897959183,0.5612244897959183,0.5612244897959183,0.5612244897959183,0.5612244897959183,0.5612244897959183,0.5612244897959183,0.5612244897959183,0.5612244897959183,0.5612244897959183,0.5612244897959183,0.5612244897959183,0.5578231292517006,0.5578231292517006,0.5578231292517006,0.5578231292517006,0.5578231292517006,0.5578231292517006,0.5578231292517006,0.5578231292517006,0.5578231292517006,0.5578231292517006,0.5578231292517006,0.5578231292517006,0.5578231292517006,0.5578231292517006,0.5578231292517006,0.5578231292517006,0.5578231292517006,0.5578231292517006,0.5578231292517006,0.5578231292517006,0.5578231292517006,0.5578231292517006,0.5578231292517006,0.5578231292517006,0.5578231292517006,0.5578231292517006,0.5578231292517006,0.5578231292517006,0.5578231292517006,0.5578231292517006,0.5578231292517006,0.5578231292517006,0.5578231292517006,0.5578231292517006,0.5578231292517006,0.5578231292517006,0.5578231292517006,0.5578231292517006,0.5578231292517006,0.5578231292517006,0.5578231292517006,0.5578231292517006,0.5578231292517006,0.5578231292517006,0.5578231292517006,0.5578231292517006,0.5578231292517006,0.5680272108843537,0.5816326530612245,0.5986394557823129,0.6326530612244898,0.6700680272108843,0.673469387755102,0.6768707482993197,0.6870748299319728,0.6870748299319728,0.6904761904761905,0.6904761904761905,0.6938775510204082,0.7006802721088435,0.7142857142857143,0.717687074829932,0.717687074829932,0.717687074829932,0.6972789115646258,0.47278911564625853,0.10884353741496598,0.10884353741496598,0.10884353741496598,0.10884353741496598,0.10884353741496598,0.11224489795918367,0.12585034013605442,0.1360544217687075,0.15306122448979592,0.1564625850340136,0.1564625850340136,0.1564625850340136,0.1564625850340136,0.1564625850340136,0.1564625850340136,0.1564625850340136,0.1564625850340136,0.1564625850340136,0.1564625850340136,0.1564625850340136,0.1564625850340136,0.1564625850340136,0.1564625850340136,0.1564625850340136,0.1564625850340136,0.1564625850340136,0.1564625850340136,0.1564625850340136,0.1564625850340136,0.1564625850340136,0.1564625850340136,0.1564625850340136,0.1564625850340136,0.1564625850340136,0.1564625850340136,0.1564625850340136,0.1564625850340136,0.1564625850340136,0.1564625850340136,0.1564625850340136,0.1564625850340136,0.1564625850340136,0.1564625850340136,0.1564625850340136,0.1564625850340136,0.1564625850340136,0.1564625850340136,0.1564625850340136,0.1564625850340136,0.1564625850340136,0.1564625850340136,0.16326530612244897,0.17346938775510204,0.1836734693877551,0.20068027210884354,0.21428571428571427,0.22448979591836735,0.23809523809523808,0.2653061224489796,0.29591836734693877,0.3231292517006803,0.3435374149659864,0.35034013605442177,0.35374149659863946,0.35714285714285715,0.35714285714285715,0.35714285714285715,0.35714285714285715,0.35714285714285715,0.35714285714285715,0.35714285714285715,0.35714285714285715,0.35714285714285715,0.35714285714285715,0.35714285714285715,0.35714285714285715,0.35714285714285715,0.35714285714285715,0.35714285714285715,0.35714285714285715,0.35714285714285715,0.35714285714285715,0.35714285714285715,0.35714285714285715,0.35714285714285715,0.35714285714285715,0.35714285714285715,0.35714285714285715,0.35714285714285715,0.35714285714285715,0.35714285714285715,0.35714285714285715,0.35714285714285715,0.35714285714285715,0.35714285714285715,0.35714285714285715,0.35714285714285715,0.35714285714285715,0.35714285714285715,0.35714285714285715,0.35714285714285715,0.35714285714285715,0.35714285714285715,0.35714285714285715,0.35714285714285715,0.35714285714285715,0.35714285714285715,0.35714285714285715,0.35714285714285715,0.35714285714285715,0.35714285714285715,0.35714285714285715,0.35714285714285715,0.35714285714285715,0.35714285714285715,0.35714285714285715,0.35714285714285715,0.35714285714285715,0.35714285714285715,0.35714285714285715,0.35714285714285715,0.35714285714285715,0.35714285714285715,0.35714285714285715,0.35714285714285715,0.35714285714285715,0.35714285714285715,0.35714285714285715,0.35714285714285715,0.35714285714285715,0.35714285714285715,0.35714285714285715,0.35714285714285715,0.35714285714285715,0.35714285714285715,0.35714285714285715,0.35714285714285715,0.35714285714285715,0.35714285714285715,0.35714285714285715,0.35714285714285715,0.35714285714285715,0.35714285714285715,0.35714285714285715,0.35714285714285715,0.35714285714285715,0.35714285714285715,0.35714285714285715,0.35714285714285715,0.35714285714285715,0.35714285714285715,0.35714285714285715,0.35714285714285715,0.35714285714285715,0.35714285714285715,0.35714285714285715,0.35714285714285715,0.35714285714285715,0.35714285714285715,0.35714285714285715,0.35714285714285715,0.35714285714285715,0.35714285714285715,0.35714285714285715,0.35714285714285715,0.35714285714285715,0.35714285714285715,0.35714285714285715,0.35714285714285715,0.35714285714285715,0.35714285714285715,0.35714285714285715,0.35714285714285715,0.35714285714285715,0.35714285714285715,0.35714285714285715,0.35714285714285715,0.35714285714285715,0.35714285714285715,0.35714285714285715,0.35714285714285715,0.35714285714285715,0.35714285714285715,0.35714285714285715,0.35714285714285715,0.36054421768707484,0.36394557823129253,0.38095238095238093,0.5510204081632653,0.7210884353741497,0.8469387755102041,0.8673469387755102,0.8707482993197279,0.8707482993197279,0.8707482993197279,0.8707482993197279,0.8707482993197279,0.8707482993197279,0.8707482993197279,0.8707482993197279,0.8707482993197279,0.8707482993197279,0.8707482993197279,0.8707482993197279,0.8707482993197279,0.8707482993197279,0.8707482993197279,0.8707482993197279,0.8707482993197279,0.8707482993197279,0.8707482993197279,0.8707482993197279,0.8707482993197279,0.8707482993197279,0.8707482993197279,0.8707482993197279,0.8707482993197279,0.8707482993197279,0.8707482993197279,0.8707482993197279,0.8707482993197279,0.8707482993197279,0.8707482993197279,0.8707482993197279,0.8707482993197279,0.8707482993197279,0.8707482993197279,0.8707482993197279,0.8707482993197279,0.8707482993197279,0.8707482993197279,0.8707482993197279,0.8707482993197279,0.8707482993197279,0.8707482993197279,0.8707482993197279,0.8707482993197279,0.8707482993197279,0.8707482993197279,0.8707482993197279,0.8707482993197279,0.8707482993197279,0.8707482993197279,0.8707482993197279,0.8707482993197279,0.8707482993197279,0.8707482993197279,0.8707482993197279,0.8707482993197279,0.8707482993197279,0.8707482993197279,0.8707482993197279,0.8707482993197279,0.8707482993197279,0.8707482993197279,0.8707482993197279,0.8707482993197279,0.8707482993197279,0.8707482993197279,0.8707482993197279,0.8707482993197279,0.8707482993197279,0.8707482993197279,0.8707482993197279,0.8707482993197279,0.8707482993197279,0.8707482993197279,0.8707482993197279,0.8707482993197279,0.8707482993197279,0.8707482993197279,0.8707482993197279,0.8707482993197279,0.8707482993197279,0.8707482993197279,0.8707482993197279,0.8707482993197279,0.8707482993197279,0.8707482993197279,0.8707482993197279,0.8707482993197279,0.8707482993197279,0.8707482993197279,0.8707482993197279,0.8707482993197279,0.8707482993197279,0.8707482993197279,0.8707482993197279,0.8707482993197279,0.8707482993197279,0.8673469387755102,0.8673469387755102,0.8673469387755102,0.8673469387755102,0.8639455782312925,0.8639455782312925,0.8639455782312925,0.8639455782312925,0.8639455782312925,0.8639455782312925,0.8639455782312925,0.8639455782312925,0.8639455782312925,0.8605442176870748,0.8605442176870748,0.8571428571428571,0.8469387755102041,0.8401360544217688,0.8299319727891157,0.8163265306122449,0.8095238095238095,0.8061224489795918,0.8027210884353742,0.8027210884353742,0.7993197278911565,0.7993197278911565,0.782312925170068,0.7619047619047619,0.7414965986394558,0.7244897959183674,0.6972789115646258,0.6292517006802721,0.5952380952380952,0.5204081632653061,0.4523809523809524,0.43197278911564624,0.41156462585034015,0.3877551020408163,0.3707482993197279,0.36054421768707484,0.35034013605442177,0.3401360544217687,0.3129251700680272,0.29591836734693877,0.2789115646258503,0.272108843537415,0.2619047619047619,0.2585034013605442,0.24829931972789115,0.23809523809523808,0.22448979591836735,0.21428571428571427,0.2108843537414966,0.20408163265306123,0.19727891156462585,0.1870748299319728,0.18027210884353742,0.17346938775510204,0.16666666666666666,0.16326530612244897,0.16326530612244897,0.1564625850340136,0.1564625850340136,0.15306122448979592,0.14965986394557823,0.14625850340136054,0.14625850340136054,0.14625850340136054,0.14285714285714285,0.14285714285714285,0.14285714285714285,0.14625850340136054,0.2585034013605442,0.282312925170068,0.43537414965986393,0.43537414965986393,0.43537414965986393,0.43537414965986393,0.43537414965986393,0.4387755102040816,0.445578231292517,0.445578231292517,0.445578231292517,0.445578231292517,0.445578231292517,0.445578231292517,0.445578231292517,0.445578231292517,0.445578231292517,0.445578231292517,0.445578231292517,0.445578231292517,0.445578231292517,0.445578231292517,0.445578231292517,0.445578231292517,0.445578231292517,0.445578231292517,0.445578231292517,0.445578231292517,0.445578231292517,0.445578231292517,0.445578231292517,0.445578231292517,0.445578231292517,0.445578231292517,0.445578231292517,0.445578231292517,0.445578231292517,0.445578231292517,0.445578231292517,0.445578231292517,0.445578231292517,0.445578231292517,0.445578231292517,0.445578231292517,0.445578231292517,0.445578231292517,0.445578231292517,0.445578231292517,0.445578231292517,0.445578231292517,0.445578231292517,0.445578231292517,0.445578231292517,0.445578231292517,0.445578231292517,0.445578231292517,0.445578231292517,0.445578231292517,0.445578231292517,0.445578231292517,0.445578231292517,0.445578231292517,0.445578231292517,0.445578231292517,0.445578231292517,0.445578231292517,0.445578231292517,0.445578231292517,0.445578231292517,0.445578231292517,0.445578231292517,0.445578231292517,0.445578231292517,0.445578231292517,0.445578231292517,0.445578231292517,0.445578231292517,0.445578231292517,0.445578231292517,0.445578231292517,0.445578231292517,0.445578231292517,0.4489795918367347,0.4489795918367347,0.4523809523809524,0.4557823129251701,0.4557823129251701,0.45918367346938777,0.46258503401360546,0.46598639455782315,0.47278911564625853,0.47619047619047616,0.48299319727891155,0.5,0.5408163265306123,0.5748299319727891,0.6258503401360545,0.6598639455782312,0.7074829931972789,0.7857142857142857,0.8061224489795918,0.8095238095238095,0.8095238095238095,0.8163265306122449,0.8197278911564626,0.8197278911564626,0.8197278911564626,0.8197278911564626,0.8197278911564626,0.8197278911564626,0.8197278911564626,0.8129251700680272,0.7925170068027211,0.7721088435374149,0.7551020408163265,0.6870748299319728,0.6190476190476191,0.5204081632653061,0.46598639455782315,0.445578231292517,0.41156462585034015,0.3945578231292517,0.3843537414965986,0.3707482993197279,0.36054421768707484,0.3435374149659864,0.3333333333333333,0.3299319727891156,0.32653061224489793,0.3231292517006803,0.3129251700680272,0.29931972789115646,0.29931972789115646,0.29931972789115646,0.29931972789115646,0.30612244897959184,0.3231292517006803,0.35714285714285715,0.37755102040816324,0.3979591836734694,0.4217687074829932,0.445578231292517,0.45918367346938777,0.46258503401360546,0.46938775510204084,0.47278911564625853,0.47278911564625853,0.47619047619047616,0.47959183673469385,0.47959183673469385,0.47959183673469385,0.47959183673469385,0.47959183673469385,0.47959183673469385,0.47959183673469385,0.47959183673469385,0.47959183673469385,0.47619047619047616,0.47278911564625853,0.46938775510204084,0.46258503401360546,0.45918367346938777,0.4557823129251701,0.4523809523809524,0.4489795918367347,0.445578231292517,0.445578231292517,0.445578231292517,0.445578231292517,0.445578231292517,0.445578231292517,0.445578231292517,0.445578231292517,0.445578231292517,0.445578231292517,0.445578231292517,0.445578231292517,0.445578231292517,0.445578231292517,0.445578231292517,0.445578231292517,0.445578231292517,0.445578231292517,0.445578231292517,0.445578231292517,0.445578231292517,0.445578231292517,0.445578231292517,0.445578231292517,0.445578231292517,0.445578231292517,0.445578231292517,0.445578231292517,0.445578231292517,0.445578231292517,0.445578231292517,0.445578231292517,0.445578231292517,0.445578231292517,0.445578231292517,0.445578231292517,0.445578231292517,0.445578231292517,0.445578231292517,0.445578231292517,0.445578231292517,0.445578231292517,0.445578231292517,0.445578231292517,0.445578231292517,0.445578231292517,0.445578231292517,0.445578231292517,0.445578231292517,0.445578231292517,0.445578231292517,0.445578231292517,0.445578231292517,0.445578231292517,0.445578231292517,0.445578231292517,0.445578231292517,0.445578231292517,0.445578231292517,0.445578231292517,0.445578231292517,0.445578231292517,0.445578231292517,0.445578231292517,0.445578231292517,0.445578231292517,0.445578231292517,0.445578231292517,0.445578231292517,0.445578231292517,0.445578231292517,0.445578231292517,0.445578231292517,0.445578231292517,0.445578231292517,0.445578231292517,0.445578231292517,0.445578231292517,0.445578231292517,0.445578231292517,0.445578231292517,0.445578231292517,0.445578231292517,0.445578231292517,0.445578231292517,0.445578231292517,0.445578231292517,0.445578231292517,0.445578231292517,0.445578231292517,0.445578231292517,0.445578231292517,0.445578231292517,0.445578231292517,0.445578231292517,0.445578231292517,0.445578231292517,0.445578231292517,0.445578231292517,0.445578231292517,0.445578231292517,0.445578231292517,0.445578231292517,0.445578231292517,0.445578231292517,0.445578231292517,0.445578231292517,0.445578231292517,0.445578231292517,0.445578231292517,0.445578231292517,0.445578231292517,0.445578231292517,0.445578231292517,0.445578231292517,0.445578231292517,0.445578231292517,0.445578231292517,0.445578231292517,0.4421768707482993,0.4387755102040816,0.4387755102040816,0.43537414965986393,0.43537414965986393,0.43537414965986393,0.43537414965986393,0.43537414965986393,0.43537414965986393,0.43537414965986393,0.43537414965986393,0.42517006802721086,0.4217687074829932,0.41836734693877553,0.41836734693877553,0.41836734693877553,0.41836734693877553,0.41156462585034015,0.40476190476190477,0.3979591836734694,0.391156462585034,0.3877551020408163,0.3843537414965986,0.37755102040816324,0.3741496598639456,0.36054421768707484,0.3435374149659864,0.336734693877551,0.3299319727891156,0.32653061224489793,0.3163265306122449,0.30952380952380953,0.30272108843537415,0.30272108843537415,0.30272108843537415,0.29931972789115646,0.29591836734693877,0.29591836734693877,0.2925170068027211,0.2925170068027211,0.2891156462585034,0.2891156462585034,0.2891156462585034,0.2891156462585034,0.2891156462585034,0.2891156462585034,0.2891156462585034,0.2891156462585034,0.2891156462585034,0.2891156462585034,0.2891156462585034,0.2891156462585034,0.2891156462585034,0.2891156462585034,0.2891156462585034,0.2891156462585034,0.2891156462585034,0.2891156462585034,0.2891156462585034,0.2891156462585034,0.2891156462585034,0.2891156462585034,0.2891156462585034,0.2891156462585034,0.2891156462585034,0.2891156462585034,0.2891156462585034,0.2891156462585034,0.2891156462585034,0.2891156462585034,0.2891156462585034,0.2891156462585034,0.2891156462585034,0.2891156462585034,0.2891156462585034,0.2891156462585034,0.2891156462585034,0.2891156462585034,0.2891156462585034,0.2891156462585034,0.2891156462585034,0.2891156462585034,0.2891156462585034,0.2891156462585034,0.2891156462585034,0.2891156462585034,0.2891156462585034,0.2891156462585034,0.2891156462585034,0.2891156462585034,0.2891156462585034,0.2891156462585034,0.2891156462585034,0.2891156462585034,0.2891156462585034,0.2891156462585034,0.2891156462585034,0.2891156462585034,0.2891156462585034,0.2891156462585034,0.2891156462585034,0.2891156462585034,0.2891156462585034,0.2891156462585034,0.2891156462585034,0.2891156462585034,0.2891156462585034,0.2891156462585034,0.2891156462585034,0.2891156462585034,0.2891156462585034,0.2891156462585034,0.2891156462585034,0.2891156462585034,0.2891156462585034,0.2891156462585034,0.2891156462585034,0.2891156462585034,0.2891156462585034,0.2891156462585034,0.2891156462585034,0.2891156462585034,0.2891156462585034,0.2891156462585034,0.2891156462585034,0.2891156462585034,0.2891156462585034,0.2891156462585034,0.2891156462585034,0.2891156462585034,0.2891156462585034,0.2891156462585034,0.2891156462585034,0.2891156462585034,0.2891156462585034,0.2891156462585034,0.2891156462585034,0.2891156462585034,0.2891156462585034,0.2891156462585034,0.289115646