[{"success":true,"trial_type":"fullscreen","trial_index":0,"time_elapsed":16988,"internal_node_id":"0.0-0.0","protocol_sum":"","subject_identifier":200,"subject_sum":[173,87,54,104,101,18,110,85,100,158,203,35,174,29,72,136,117,68,151,110,254,164,106,72,235,93,133,166,238,180,211,6],"subject_pair":100,"STUDY_ID":"669eec2e4270c76bc184a38e","PROLIFIC_PID":"669d2e3514022f35e47da6d8","SESSION_ID":"669eecd4b7173a47a093d2f5","practice_instructions":1,"leaderboard_instructions":0,"bonus":0,"reveal_word":false,"self_rating":"3","confidence":"100"},{"view_history":"[{\"page_index\":0,\"viewing_time\":9397}]","rt":9398.000000000007,"trial_type":"instructions","trial_index":1,"time_elapsed":26386,"internal_node_id":"0.0-1.0","protocol_sum":"","subject_identifier":200,"subject_sum":[173,87,54,104,101,18,110,85,100,158,203,35,174,29,72,136,117,68,151,110,254,164,106,72,235,93,133,166,238,180,211,6],"subject_pair":100,"STUDY_ID":"669eec2e4270c76bc184a38e","PROLIFIC_PID":"669d2e3514022f35e47da6d8","SESSION_ID":"669eecd4b7173a47a093d2f5","practice_instructions":1,"leaderboard_instructions":0,"bonus":0,"reveal_word":false,"self_rating":"3","confidence":"100"},{"view_history":"[{\"page_index\":0,\"viewing_time\":57091.99999999999}]","rt":57091.99999999999,"trial_type":"instructions","trial_index":2,"time_elapsed":83479,"internal_node_id":"0.0-2.0-0.0","protocol_sum":"","subject_identifier":200,"subject_sum":[173,87,54,104,101,18,110,85,100,158,203,35,174,29,72,136,117,68,151,110,254,164,106,72,235,93,133,166,238,180,211,6],"subject_pair":100,"STUDY_ID":"669eec2e4270c76bc184a38e","PROLIFIC_PID":"669d2e3514022f35e47da6d8","SESSION_ID":"669eecd4b7173a47a093d2f5","practice_instructions":1,"leaderboard_instructions":0,"bonus":0,"reveal_word":false,"self_rating":"3","confidence":"100"},{"rt":19262,"responses":"{\"Q0\":\"... reveal the word with as <b>few letter guesses</b> as possible\"}","question_order":"[0]","trial_type":"survey-multi-choice","trial_index":3,"time_elapsed":102743,"internal_node_id":"0.0-2.0-1.0","protocol_sum":"","subject_identifier":200,"subject_sum":[173,87,54,104,101,18,110,85,100,158,203,35,174,29,72,136,117,68,151,110,254,164,106,72,235,93,133,166,238,180,211,6],"subject_pair":100,"correct":true,"test_part":"multichoice_nonpretend","STUDY_ID":"669eec2e4270c76bc184a38e","PROLIFIC_PID":"669d2e3514022f35e47da6d8","SESSION_ID":"669eecd4b7173a47a093d2f5","practice_instructions":1,"leaderboard_instructions":0,"bonus":0,"reveal_word":false,"self_rating":"3","confidence":"100"},{"view_history":"[{\"page_index\":0,\"viewing_time\":3772}]","rt":3772,"trial_type":"instructions","trial_index":4,"time_elapsed":106516,"internal_node_id":"0.0-3.0","protocol_sum":"","subject_identifier":200,"subject_sum":[173,87,54,104,101,18,110,85,100,158,203,35,174,29,72,136,117,68,151,110,254,164,106,72,235,93,133,166,238,180,211,6],"subject_pair":100,"STUDY_ID":"669eec2e4270c76bc184a38e","PROLIFIC_PID":"669d2e3514022f35e47da6d8","SESSION_ID":"669eecd4b7173a47a093d2f5","practice_instructions":1,"leaderboard_instructions":0,"bonus":0,"reveal_word":false,"self_rating":"3","confidence":"100"},{"word":"ZEBRA","click_log":{"letter":["","D","M","C","T","G","R","L","B","E","H","F","J","A","Y","U","V","W","Z"],"t":[0,13814.000000000015,19297.999999999985,26982.999999999985,41913.999999999985,49695.000000000015,56991.999999999985,71296.00000000001,77978.99999999999,84191.99999999999,86929.99999999999,88646.99999999999,96880.00000000001,98642.99999999999,106860.99999999999,108876.99999999999,112112.99999999999,115960.99999999999,119226.99999999999],"hit":[null,0,0,0,0,0,1,0,1,1,0,0,0,1,0,0,0,0,1],"asked":["","D","DM","DMC","DMCT","DMCTG","DMCTGR","DMCTGRL","DMCTGRLB","DMCTGRLBE","DMCTGRLBEH","DMCTGRLBEHF","DMCTGRLBEHFJ","DMCTGRLBEHFJA","DMCTGRLBEHFJAY","DMCTGRLBEHFJAYU","DMCTGRLBEHFJAYUV","DMCTGRLBEHFJAYUVW","DMCTGRLBEHFJAYUVWZ"],"word_state":["_____","_____","_____","_____","_____","_____","___R_","___R_","__BR_","_EBR_","_EBR_","_EBR_","_EBR_","_EBRA","_EBRA","_EBRA","_EBRA","_EBRA","ZEBRA"]},"hover_log":{"letter":["?","?","?","?","?","S","S","S","?","?","?","T","?","?","?","?","?","?","?","?","?","?","?","?","?","?","?","?","?","?","?","?","?","?","?","?","?","?","?","?","?","?","?","?","?","?","?","?","?","?","?","?","?","?","?","?","?","?","?","?","?","?","?","?","?","?","?","?","?","?","?","?","?","?","?","?","?","?","?","?","?","?","?","?","?","?","?","?","?","?","?","?","?","?","?","?","?","?","?","?","?","?","?","?","?","?","?","?","?","?","?","?","?","?","?","?","?","?","?","?","?","?","?","?","?","?","?","?","?","?","?","?","?","?","?","?","?","?","?","?","?","?","?","?","?","?","?","?","?","?","?","?","?","?","?","?","?","?","?","?","?","?","?","?","?","?","?","?","?","?","?","?","?","?","?","?","?","?","?","?","?","?","?","?","?","?","?","?","?","?","?","?","?","?","?","?","?","?","?","?","?","?","?","?","?","?","?","?","?","?","?","?","?","?","?","?","?","?","?","?","?","?","?","?","?","?","?","?","?","?","?","?","?","?","?","?","?","?","?","?","?","?","?","?","?","?","?","?","?","?","?","?","?","?","?","?","?","?","?","?","?","?","?","?","?","?","?","?","?","?","?","?","?","?","?","?","?","?","?","?","?","?","?","?","?","?","?","?","?","?","?","?","?","?","?","?","?","?","?","?","?","?","?","?","?","?","?","?","?","?","?","?","?","?","?","?","?","?","?","?","?","?","?","?","?","?","?","?","?","?","?","?","?","?","?","?","?","?","?","?","?","?","?","?","?","?","?","U","U","U","U","U","?","?","?","?","?","M","M","M","M","M","M","M","M","M","M","M","M","M","M","M","M","M","M","M","M","M","M","M","M","M","M","M","M","M","M","M","M","M","M","M","M","M","M","M","M","M","M","M","M","M","M","M","M","M","M","M","M","M","M","M","M","M","M","M","M","M","M","M","M","M","M","M","M","M","M","M","M","M","M","M","M","M","M","M","M","M","M","M","M","M","M","M","M","M","M","M","M","M","M","M","M","M","M","M","M","M","M","M","M","M","M","M","M","M","M","M","M","M","M","M","M","M","M","M","M","M","M","M","M","M","M","M","M","M","M","M","M","M","M","M","M","M","M","M","M","M","M","M","M","M","M","M","M","M","M","M","M","M","M","M","M","M","M","M","M","M","M","M","M","M","M","M","M","M","M","M","M","M","M","M","M","M","M","M","M","M","M","M","M","M","M","M","M","M","M","M","M","M","M","M","M","M","M","M","M","M","M","M","M","M","M","M","M","M","M","M","M","M","M","M","M","M","M","M","M","M","M","M","M","M","M","M","M","M","M","M","M","M","M","M","M","M","M","M","M","M","M","M","M","M","M","M","M","M","M","M","M","M","M","M","M","M","M","M","M","M","M","M","M","M","M","M","M","M","M","M","M","M","M","M","M","M","M","M","M","M","M","M","M","M","M","M","M","M","M","M","M","M","M","?","?","?","?","?","?","?","?","?","?","?","L","?","?","?","?","?","?","?","?","?","?","?","?","?","?","?","?","?","?","O","O","O","O","O","?","?","P","P","P","P","P","P","P","P","P","P","P","P","P","P","?","?","?","?","?","?","?","?","?","?","?","?","?","?","?","?","?","?","?","?","W","W","W","W","W","W","W","W","W","?","?","?","?","V","V","V","V","V","V","V","V","V","V","V","V","V","V","V","V","V","?","?","?","?","?","?","?","?","?","?","?","?","M","M","M","M","M","M","?","?","?","?","?","?","?","?","?","?","?","?","?","?","?","?","?","?","?","?","?","?","?","?","?","?","?","?","?","D","D","D","D","D","D","D","D","D","D","D","D","D","D","D","D","D","D","D","D","D","D","D","D","D","D","D","D","D","D","D","D","D","D","D","D","D","?","?","?","?","?","?","?","N","N","?","?","?","W","W","W","?","?","?","?","?","?","?","?","?","?","?","?","?","?","?","?","?","?","?","?","?","?","?","?","?","?","?","?","?","?","?","?","?","?","?","?","?","?","?","?","?","?","?","?","?","?","?","?","?","?","?","?","?","?","?","?","?","?","?","?","?","?","?","?","?","?","?","?","?","?","?","?","?","?","?","?","?","?","?","?","?","?","?","?","?","?","?","?","?","?","?","?","?","?","?","?","?","?","?","?","?","?","?","?","?","?","?","?","?","?","?","?","?","?","?","?","?","?","?","?","?","?","?","?","?","?","?","?","?","?","?","?","?","?","?","?","?","?","?","?","?","?","?","?","?","?","?","?","?","?","?","?","?","?","?","?","?","?","?","?","?","?","?","?","?","?","?","?","?","?","?","?","?","W","W","W","W","W","W","W","W","W","W","W","W","W","W","W","W","W","W","W","W","W","W","W","W","W","W","W","W","W","W","W","W","W","W","W","W","W","W","W","W","W","W","W","W","W","W","W","W","W","W","W","W","W","W","W","W","W","W","W","W","W","W","W","W","W","W","W","W","W","W","W","W","W","W","W","W","W","W","W","W","?","?","?","?","?","?","?","?","?","?","?","?","?","?","?","M","M","M","M","M","M","M","M","M","M","M","M","M","M","M","M","M","M","M","M","M","M","M","M","M","M","M","M","M","M","M","M","M","M","M","M","M","M","M","M","M","M","M","M","M","M","M","M","M","M","M","M","M","M","M","M","M","M","M","M","M","M","M","M","M","M","M","M","M","M","M","M","M","M","M","M","M","M","M","M","M","M","M","M","M","M","M","M","M","M","M","M","M","M","M","M","M","M","M","M","M","M","M","M","M","M","M","M","M","M","M","M","M","M","M","M","M","M","M","M","M","M","M","M","M","M","M","M","M","M","M","M","M","M","M","M","M","M","M","M","M","M","M","M","M","M","M","M","M","M","M","M","M","M","M","M","M","M","M","M","M","M","M","M","M","M","M","M","M","M","M","M","M","M","M","M","M","M","M","M","M","M","M","M","M","M","M","M","M","M","M","M","M","M","M","M","M","M","M","M","M","M","M","M","M","M","M","M","M","M","M","M","M","M","M","M","M","M","M","M","M","M","M","M","M","M","M","M","M","M","M","M","M","M","M","M","M","M","M","M","M","M","M","M","M","M","M","M","M","M","M","M","M","M","M","M","M","M","M","M","M","M","M","M","M","M","?","?","?","?","?","?","?","?","?","?","?","?","?","?","?","?","?","?","?","?","?","?","N","N","?","?","?","?","?","?","?","?","?","?","?","G","G","G","G","G","G","G","G","G","G","G","G","G","G","G","G","G","G","G","G","G","G","G","G","G","G","G","G","G","G","G","G","G","G","G","G","G","G","G","G","G","?","?","?","?","?","?","?","?","?","?","?","?","?","?","?","?","?","?","?","?","?","?","?","?","?","?","?","P","P","P","P","P","P","P","P","P","P","P","P","P","P","P","P","P","P","P","P","P","P","P","P","P","P","P","P","P","P","P","?","?","?","?","?","?","?","O","O","O","O","O","O","O","O","O","O","O","O","O","O","O","O","O","O","O","O","O","O","O","O","O","O","O","O","O","O","O","O","O","O","O","O","O","O","?","?","?","?","?","?","?","?","?","?","?","?","?","?","?","D","D","D","D","D","D","D","D","D","D","D","?","?","?","C","C","C","C","C","C","C","C","C","C","C","C","C","C","C","C","C","C","C","C","C","C","C","C","C","C","C","C","C","C","C","C","C","C","C","C","C","C","C","C","C","C","C","C","C","C","?","?","?","?","?","?","?","?","?","?","?","?","?","?","?","?","?","?","?","?","?","?","?","?","?","?","?","?","?","?","?","?","?","?","?","?","?","?","?","?","?","?","?","?","?","?","?","?","?","?","?","?","?","?","?","?","?","?","?","?","?","?","?","?","?","?","?","?","?","?","?","?","?","?","?","?","?","?","?","?","?","?","?","?","?","?","?","?","?","?","?","?","?","?","?","?","?","?","?","?","?","?","?","?","?","?","?","?","?","?","?","?","?","?","?","?","?","?","?","?","?","?","?","?","?","?","?","?","?","?","?","D","D","D","D","D","D","D","D","?","?","E","E","E","E","E","E","E","E","E","E","E","E","E","E","E","E","E","E","E","E","E","E","E","E","E","E","E","E","E","E","E","E","E","E","E","E","E","E","E","?","?","?","?","?","?","F","F","F","F","F","F","F","F","F","F","F","F","F","F","F","F","F","F","F","F","F","F","F","F","F","F","F","F","F","F","F","F","F","F","F","F","F","F","F","F","F","F","F","F","F","F","F","F","F","F","F","F","F","F","F","F","F","F","F","F","F","F","F","F","F","F","F","F","F","F","F","F","F","F","F","F","F","F","F","F","F","F","F","F","F","F","F","F","F","F","F","F","F","F","F","F","F","F","F","F","F","F","F","F","F","F","F","F","F","F","F","F","F","F","F","F","F","F","F","F","F","F","F","F","F","F","F","F","F","F","F","F","F","F","F","F","F","F","F","F","F","F","F","F","F","F","F","F","F","F","?","?","?","?","?","?","?","?","?","?","?","?","?","?","?","?","?","?","?","?","?","?","?","?","?","?","?","?","?","?","?","?","?","?","?","?","?","?","?","?","?","?","?","?","?","?","?","O","O","O","O","O","O","O","O","O","O","O","O","O","O","O","O","O","O","O","O","O","O","O","O","O","O","O","O","O","O","O","O","O","O","O","O","O","O","O","O","O","O","O","O","O","O","O","O","O","O","O","O","O","O","O","O","O","O","O","O","O","O","O","O","O","O","O","O","O","O","O","O","?","?","?","?","?","?","?","?","?","?","?","?","?","?","?","?","?","X","X","X","X","X","X","X","X","X","X","X","X","?","?","?","?","?","?","?","?","?","?","?","?","?","?","?","?","?","?","X","X","X","X","X","X","X","X","X","X","X","X","X","X","X","X","X","X","X","X","X","X","X","X","X","X","X","X","X","X","X","X","X","X","X","X","X","X","X","X","X","X","X","?","?","?","?","?","?","?","?","?","?","?","?","?","?","?","?","?","?","?","?","?","?","?","?","?","?","?","?","?","?","?","?","?","?","?","?","?","?","?","?","?","?","?","?","?","?","?","?","?","?","?","P","P","P","P","P","P","P","P","P","P","P","P","P","P","P","P","P","P","P","P","P","P","P","P","P","P","P","P","P","P","P","P","P","P","P","P","P","P","P","P","P","P","P","P","P","P","P","P","P","P","P","P","P","P","P","P","P","P","P","P","P","P","P","P","P","P","P","P","P","P","P","P","P","P","P","P","P","P","P","P","P","P","P","P","P","P","P","P","P","P","P","P","P","P","P","P","P","P","P","P","P","P","P","P","P","P","P","P","P","P","P","P","P","P","P","P","P","P","P","P","P","P","P","P","P","P","P","P","P","P","P","P","P","P","P","P","P","P","P","P","P","P","P","P","P","?","?","?","?","?","?","?","?","?","O","O","O","O","O","O","O","O","O","O","O","O","?","?","?","?","?","?","?","?","?","?","?","?","?","?","?","?","?","?","X","X","X","X","X","X","X","X","X","X","X","X","X","X","X","X","X","X","X","X","X","?","?","W","W","W","W","V","V","V","V","?","U","U","U","U","U","U","U","U","?","?","?","?","T","T","T","T","T","T","T","T","T","T","T","T","T","T","T","T","T","T","T","T","T","T","T","T","T","T","T","T","T","T","T","T","T","T","T","T","T","T","T","T","T","T","T","T","T","T","T","T","T","T","T","T","T","T","T","T","T","T","T","T","T","T","T","T","T","T","T","T","T","T","T","T","T","T","T","T","T","T","T","T","T","T","T","T","T","T","T","T","T","T","T","T","T","T","T","T","T","T","T","T","T","T","T","T","T","T","T","T","T","T","T","T","T","T","T","T","T","T","T","T","T","T","T","T","T","T","T","T","T","T","T","T","T","T","T","T","T","T","T","T","T","T","T","T","T","T","T","T","T","T","T","T","T","T","T","T","T","T","T","T","T","T","T","T","T","T","T","T","T","T","T","T","T","T","T","T","T","T","T","T","T","T","T","T","T","T","T","T","T","T","T","T","T","T","T","T","T","T","T","T","T","T","T","T","T","T","T","T","T","T","T","T","T","T","T","T","T","T","T","T","T","T","T","T","T","T","T","T","T","T","T","T","T","T","T","T","T","T","T","T","T","T","T","T","T","T","T","T","T","T","T","T","T","T","T","T","T","T","T","T","T","T","T","T","T","T","T","T","T","T","T","T","T","T","T","T","T","T","T","T","T","T","T","T","T","T","T","T","T","T","T","T","T","T","T","T","T","T","T","T","T","T","T","T","T","T","T","T","T","T","T","T","T","T","T","?","?","?","?","?","L","L","?","?","D","?","E","?","?","?","?","?","?","?","?","?","?","?","?","?","?","?","?","?","?","?","?","?","?","?","?","?","?","?","?","?","?","?","?","?","?","?","?","?","?","?","?","?","?","?","?","?","?","?","?","?","?","?","?","?","?","?","?","?","?","?","?","?","?","?","?","?","?","?","?","?","?","?","?","?","?","?","?","?","?","?","?","?","?","?","?","?","?","?","?","?","?","?","?","?","?","H","H","H","H","H","H","H","H","H","H","H","H","H","H","H","H","H","H","H","H","H","H","H","H","H","H","H","H","H","H","H","H","H","H","H","H","H","H","H","H","H","H","H","H","H","H","H","H","?","?","?","?","?","?","?","?","?","?","?","?","?","?","?","?","?","?","?","G","G","G","G","G","G","G","G","G","G","G","G","G","G","G","G","G","G","G","G","G","G","G","G","G","G","G","G","G","G","G","G","G","G","G","G","G","G","G","G","G","G","G","G","G","G","G","G","G","G","G","G","G","G","G","G","G","G","G","G","G","G","G","G","G","G","G","G","G","G","G","G","G","G","G","G","G","G","G","G","G","G","G","G","G","G","G","G","G","G","G","G","G","G","G","G","G","G","G","G","G","G","G","G","G","G","G","G","G","G","G","G","G","G","G","G","G","G","G","G","G","G","G","G","G","G","G","G","G","?","?","?","?","?","?","?","?","?","?","?","?","?","?","?","?","?","?","?","?","?","?","?","?","?","?","?","?","?","?","?","?","?","?","?","?","?","?","?","?","?","?","?","?","?","?","?","?","?","?","?","?","?","?","?","?","?","?","?","?","?","?","?","?","?","?","?","?","?","?","?","?","?","?","?","?","?","?","?","?","?","?","?","?","?","?","?","?","?","?","?","?","?","?","?","?","?","?","?","?","?","?","?","?","?","?","?","?","?","?","?","?","?","?","?","?","?","?","?","?","?","?","?","?","?","?","?","?","?","?","?","?","?","?","?","?","?","?","?","?","?","?","?","?","?","?","?","?","?","?","?","?","?","?","?","?","?","?","?","?","?","?","?","?","?","?","?","?","?","?","?","?","?","?","?","?","?","?","?","?","?","?","?","?","?","?","?","?","?","?","?","?","?","?","?","?","?","?","?","?","?","?","?","?","?","?","?","?","?","?","?","?","?","?","?","?","?","?","?","?","?","?","?","?","?","?","?","?","?","?","?","?","?","?","?","?","?","?","?","?","?","?","?","?","?","?","?","?","?","?","?","?","?","?","?","?","?","?","?","?","?","?","?","?","?","?","?","?","?","?","?","?","?","?","?","?","?","?","?","?","?","?","?","Q","Q","Q","?","?","?","?","?","R","R","R","R","R","R","R","R","R","R","R","R","R","R","R","R","R","R","R","R","R","R","R","R","R","R","R","R","R","R","R","R","R","R","R","R","R","R","R","R","R","R","R","R","R","R","R","R","R","R","R","R","R","R","R","R","R","R","R","R","R","R","R","R","R","R","R","R","R","R","R","R","R","R","R","R","R","R","R","R","R","R","R","R","R","R","R","R","R","R","R","R","R","R","R","R","R","R","R","R","R","R","R","R","R","R","R","R","R","R","R","R","R","R","R","R","R","R","R","R","R","R","R","R","R","R","R","R","R","R","R","R","R","R","R","R","R","R","R","R","R","R","R","R","R","R","R","R","R","R","R","R","R","R","R","R","R","R","R","R","R","R","R","R","R","R","R","R","R","R","R","R","R","R","R","R","R","R","R","R","R","R","R","R","R","R","R","R","R","R","R","R","R","R","R","R","R","R","R","R","R","R","R","R","R","R","R","R","R","R","R","R","R","R","R","R","R","R","R","R","R","R","R","R","R","R","R","R","R","R","R","R","R","R","R","R","R","R","R","R","R","R","R","R","R","R","R","R","R","R","R","R","R","R","R","R","R","R","R","R","R","R","R","R","R","R","?","?","?","Q","Q","Q","Q","Q","Q","Q","Q","Q","Q","Q","Q","Q","?","?","?","?","?","?","?","?","?","?","?","?","?","?","?","?","?","?","P","P","P","P","P","P","P","P","P","P","P","P","P","P","P","P","P","P","P","P","P","P","P","P","P","P","P","P","P","P","P","P","P","P","P","P","P","P","P","P","P","P","P","P","P","P","P","P","P","P","P","P","P","P","P","P","P","P","P","P","P","P","P","P","P","P","P","P","P","P","P","P","P","P","P","P","P","P","P","P","P","P","P","P","P","P","P","P","P","P","P","P","P","P","P","P","P","P","P","P","P","P","P","P","P","P","P","P","P","P","P","P","P","P","P","P","P","P","P","P","P","P","P","P","P","P","P","P","P","P","P","P","P","P","P","P","P","P","P","P","P","P","P","P","P","P","P","P","P","P","P","P","P","P","P","P","P","P","P","P","P","P","P","P","P","P","P","P","P","P","P","P","P","P","P","P","P","P","P","P","P","P","P","P","P","P","P","P","P","P","P","P","P","P","P","P","P","P","P","P","P","P","P","P","P","P","P","P","P","P","P","P","P","P","P","P","P","P","P","P","P","P","P","P","P","P","P","P","P","P","P","P","P","P","P","P","P","P","P","P","P","P","P","P","P","P","P","P","P","P","P","P","P","P","P","P","P","P","P","P","P","P","P","P","P","P","P","P","P","P","P","P","P","P","P","P","P","P","P","P","P","P","P","P","P","P","P","P","P","P","P","P","P","P","P","P","P","P","P","P","P","P","P","P","P","P","P","P","P","P","P","P","P","P","P","P","P","P","P","P","P","P","P","?","O","O","?","?","?","?","?","?","?","?","?","?","V","V","V","V","V","V","V","V","V","V","V","V","?","?","?","U","U","U","U","U","U","U","U","U","U","U","U","U","U","U","U","U","U","U","U","U","U","U","U","U","U","U","U","U","U","U","U","U","U","U","U","U","U","U","U","U","U","?","?","?","?","?","?","T","T","T","T","T","T","T","T","T","T","T","T","T","T","T","T","T","T","T","T","T","T","T","T","T","T","T","T","?","?","?","?","?","?","?","?","?","?","?","?","?","?","?","?","?","?","?","?","?","O","O","?","?","?","?","P","P","P","P","P","P","P","P","P","P","P","P","P","P","P","P","P","P","P","P","P","P","P","P","P","P","P","P","?","?","?","?","?","?","?","?","?","?","?","?","?","?","?","?","Y","Y","Y","Y","Y","Y","Y","Y","Y","Y","Y","Y","Y","?","?","?","?","X","X","X","X","X","X","?","W","W","W","W","W","W","W","W","W","W","W","W","W","W","W","W","W","W","W","W","W","W","W","W","W","W","W","W","W","W","?","?","?","?","?","?","?","?","?","?","?","?","?","?","?","?","L","L","L","L","L","L","L","L","L","L","L","L","L","L","L","L","L","L","L","L","L","L","L","L","L","L","L","L","L","L","L","L","L","L","L","L","L","L","L","L","L","L","L","L","L","L","L","L","L","L","L","L","L","L","L","L","L","L","L","L","L","L","L","L","L","L","L","L","L","L","L","L","L","L","L","L","L","L","L","L","L","L","L","L","L","L","L","L","L","L","L","L","L","L","L","L","L","L","L","L","L","L","L","L","L","L","L","L","L","L","L","L","L","L","L","L","L","L","L","L","L","?","?","?","?","M","M","?","?","?","?","?","?","?","?","?","?","?","?","?","?","?","?","?","?","?","?","?","?","?","?","?","?","?","?","?","?","?","?","?","?","?","?","?","?","?","?","?","?","?","?","?","?","?","?","?","?","?","?","?","?","?","?","?","?","?","?","?","?","?","?","?","?","?","?","?","?","?","?","?","?","?","?","?","?","?","?","?","?","?","?","?","?","?","?","?","?","?","?","?","?","?","?","?","?","?","?","?","?","N","N","N","N","N","N","N","N","N","N","N","N","N","N","N","N","N","N","N","N","N","N","N","N","N","N","N","N","N","N","N","N","N","N","N","N","N","N","N","N","N","N","N","N","N","N","N","N","N","N","N","N","N","N","N","N","N","N","N","N","N","N","N","N","N","N","N","N","N","N","N","N","N","N","N","N","N","N","N","N","N","N","N","N","N","N","N","N","N","N","N","N","N","N","N","N","N","N","N","N","N","N","N","N","N","N","N","N","N","N","N","N","N","N","N","N","N","N","N","N","N","N","N","N","N","N","N","N","N","N","N","N","N","N","N","N","N","?","?","?","D","D","D","?","?","C","C","C","C","C","C","C","C","C","C","C","C","C","C","C","C","C","C","C","C","C","C","?","?","?","?","B","B","B","B","B","B","B","B","B","B","B","B","B","B","B","B","B","B","B","B","B","B","B","B","B","B","B","B","B","B","B","B","B","B","B","B","B","B","B","B","B","B","B","B","B","B","B","B","B","B","B","B","B","B","B","B","B","B","B","B","B","B","B","B","B","B","B","B","B","B","B","B","B","B","B","B","B","B","B","B","B","B","B","B","B","B","B","B","B","B","B","B","B","?","?","?","?","?","?","?","?","?","L","L","L","L","?","?","?","M","M","M","M","M","M","?","?","?","?","?","?","?","?","?","?","?","?","?","?","?","?","?","?","?","?","?","?","?","?","?","?","?","?","?","?","?","?","?","?","?","?","?","?","?","?","?","?","?","?","?","?","?","?","?","?","?","?","?","?","?","?","?","?","?","?","?","?","?","?","?","?","?","?","?","?","?","?","?","?","?","?","?","?","?","?","?","?","?","?","?","?","?","?","?","?","?","?","?","?","?","?","?","?","?","?","?","?","?","?","?","?","?","?","?","?","?","?","?","?","?","?","?","?","?","?","?","?","?","?","?","?","?","?","?","?","?","?","?","?","?","?","?","?","?","?","?","?","?","?","?","?","?","?","?","?","?","?","?","?","?","?","M","M","M","M","M","M","M","M","M","M","?","?","L","L","L","L","L","L","L","L","L","L","L","L","L","L","L","L","L","?","?","?","?","?","?","?","?","?","?","?","?","?","?","?","?","?","?","?","?","?","?","?","?","?","?","?","?","?","?","?","?","?","?","?","?","?","?","?","?","?","?","?","?","?","?","?","?","?","?","?","?","?","?","?","?","?","?","?","?","?","?","?","?","E","E","E","E","E","E","E","E","E","E","E","E","E","E","E","E","E","E","E","E","E","E","E","E","E","E","E","E","E","E","E","E","E","E","E","E","E","E","E","E","E","E","E","E","E","E","E","E","E","E","E","E","E","E","E","E","E","E","E","E","E","E","E","E","E","E","E","E","E","E","E","E","E","E","E","E","E","E","E","E","E","E","E","E","E","E","E","E","E","E","E","E","E","E","E","E","E","E","E","E","E","E","E","E","E","E","E","E","E","E","E","E","E","E","E","E","E","E","E","E","E","E","E","E","E","E","E","E","E","E","E","E","E","E","E","E","E","E","E","E","E","E","E","E","E","E","E","E","E","E","E","E","E","E","?","F","F","F","?","G","G","G","G","G","G","G","G","G","G","G","G","G","G","G","G","G","G","G","?","?","H","H","H","H","H","H","H","H","H","H","H","H","H","H","H","H","H","H","H","H","H","H","H","H","H","H","H","H","H","H","H","H","H","H","H","H","H","H","H","H","H","H","H","H","H","H","H","H","H","H","H","H","H","H","H","H","H","H","H","H","H","H","H","H","H","H","H","H","H","H","H","H","H","H","H","H","H","H","H","H","H","H","?","?","?","?","?","?","?","?","?","?","F","F","F","F","F","F","F","F","F","F","F","F","F","F","F","F","F","F","F","F","F","F","F","F","F","F","F","F","F","F","F","F","F","F","F","F","F","F","F","F","F","F","F","F","F","F","F","F","F","F","F","F","F","F","F","F","F","F","F","F","F","F","F","F","F","F","F","F","F","F","F","F","F","F","F","F","F","F","F","F","F","F","F","F","?","?","?","?","?","?","?","?","?","?","?","?","?","?","?","?","?","?","?","?","?","?","?","?","?","?","?","?","?","?","?","?","?","?","?","?","?","?","?","?","?","?","?","?","?","?","?","?","?","?","?","?","?","?","?","?","?","?","?","?","?","?","?","?","?","?","?","?","?","?","?","?","?","?","?","?","?","?","?","?","?","?","?","?","?","?","?","?","?","?","?","?","?","?","?","?","?","?","?","?","?","?","?","?","?","?","?","?","?","?","?","?","?","?","?","?","?","?","?","?","?","?","?","?","?","?","?","?","?","?","?","?","?","?","?","?","?","?","?","?","?","?","?","?","?","?","?","?","O","O","O","O","O","O","O","O","?","?","?","?","?","?","?","?","?","?","?","?","?","?","?","?","?","?","?","?","?","?","?","?","?","?","?","?","?","?","?","?","?","?","?","?","?","?","?","?","?","?","?","?","?","?","?","?","?","?","?","?","?","?","?","?","?","?","?","?","?","?","?","?","?","?","?","?","?","?","?","?","?","?","?","?","?","?","?","?","?","?","?","?","?","?","?","?","?","?","?","?","?","?","?","?","?","?","?","?","?","?","?","?","?","?","?","?","?","W","W","W","W","W","W","W","W","W","W","W","W","W","W","?","?","?","?","?","?","?","?","?","?","?","?","?","?","?","?","V","V","V","V","V","V","V","V","V","V","V","V","V","V","V","V","V","V","V","V","V","V","V","V","V","V","V","V","V","V","V","V","V","V","V","V","V","?","?","?","?","?","?","?","?","?","?","?","?","?","?","?","?","?","?","?","?","?","?","?","?","?","?","?","?","?","?","?","U","U","U","?","?","K","K","K","K","K","?","?","?","?","?","?","?","?","?","?","?","?","?","?","?","?","?","?","?","?","A","A","A","A","A","A","A","A","A","A","A","A","A","A","A","A","A","A","A","A","A","A","A","A","?","?","?","?","?","J","J","J","J","J","J","J","J","J","J","J","J","J","J","J","J","J","J","J","J","J","J","J","J","J","J","J","J","J","J","J","J","J","J","J","J","J","J","J","J","J","J","J","J","J","J","J","J","J","J","J","J","J","J","J","J","J","J","J","J","J","J","J","J","J","J","J","J","J","J","J","J","J","J","J","J","J","J","J","J","J","J","J","J","J","J","J","J","J","J","J","J","J","J","J","J","J","J","?","?","?","?","?","?","?","?","?","A","A","A","A","A","A","A","A","A","A","A","A","A","A","A","A","A","A","A","A","A","A","A","A","A","A","A","A","A","A","A","A","A","A","A","A","A","A","A","A","A","A","A","A","A","A","A","A","A","A","A","A","A","A","A","A","A","A","A","A","A","A","A","A","A","A","A","A","A","A","A","A","A","A","A","A","A","?","?","?","?","?","?","?","?","?","L","L","?","?","V","V","V","?","?","?","?","?","?","?","?","?","?","?","?","?","?","?","?","?","?","?","?","?","?","?","?","?","?","?","?","?","?","?","?","?","?","?","?","?","?","?","?","?","?","?","?","?","?","?","?","?","?","?","?","?","?","?","?","?","?","?","?","?","?","?","?","?","?","?","?","?","?","?","?","?","?","?","?","?","?","?","?","?","?","?","?","?","?","?","?","?","?","?","?","?","?","?","?","?","?","?","?","?","?","?","?","?","?","?","?","?","?","?","?","?","?","?","?","?","?","?","?","?","?","?","?","?","?","?","?","?","?","?","?","?","?","?","?","?","?","?","?","?","?","?","?","?","?","?","?","?","?","?","?","?","?","?","?","?","?","?","?","?","?","?","?","?","?","?","?","?","?","?","?","?","?","?","?","?","?","?","?","?","?","?","?","?","?","?","?","?","?","?","?","?","?","?","?","?","?","?","?","?","?","?","?","?","?","?","?","?","?","?","?","?","?","?","?","?","?","?","?","?","?","?","?","?","?","?","?","?","?","?","?","?","?","?","?","?","?","?","?","?","?","?","?","?","?","?","?","?","?","?","?","?","?","?","?","?","?","?","?","?","?","?","?","?","W","W","W","W","W","W","W","W","W","W","W","W","W","W","W","W","W","W","W","W","W","W","W","W","W","W","W","W","W","W","W","W","W","W","W","W","W","W","W","W","W","W","W","W","W","W","W","W","W","W","W","W","W","W","W","W","W","W","W","W","W","W","W","W","W","W","W","W","W","W","W","W","W","W","W","W","W","W","W","W","W","W","W","W","W","W","W","W","W","W","W","W","W","W","W","W","W","W","W","W","W","W","W","W","W","W","W","W","W","?","?","?","?","X","X","X","X","X","X","X","X","X","X","?","?","?","Y","Y","Y","Y","Y","Y","Y","Y","Y","Y","Y","Y","Y","Y","Y","Y","Y","Y","Y","Y","Y","Y","Y","Y","Y","Y","Y","Y","Y","Y","Y","Y","Y","Y","Y","Y","Y","Y","Y","Y","Y","Y","Y","Y","Y","Y","Y","Y","Y","Y","Y","Y","Y","Y","Y","Y","Y","Y","Y","Y","Y","Y","Y","Y","Y","Y","Y","Y","Y","Y","Y","Y","Y","Y","Y","Y","Y","Y","Y","Y","?","X","X","X","X","X","?","?","?","?","?","?","?","?","?","?","?","?","?","?","?","?","?","?","?","?","?","?","?","?","?","?","?","?","?","?","?","U","U","U","U","U","U","U","U","U","U","U","U","U","U","U","U","U","U","U","U","U","U","U","U","U","U","U","U","U","U","U","U","U","U","U","U","U","U","U","U","U","U","U","U","U","U","U","U","U","U","U","U","U","U","U","U","U","U","U","U","U","U","U","U","U","U","U","U","U","U","U","U","U","U","U","U","U","U","U","U","U","U","U","U","U","U","U","U","U","U","U","U","U","U","U","U","U","U","U","U","U","U","U","U","?","?","?","?","?","V","V","V","V","V","V","V","V","V","V","V","V","?","?","?","?","?","?","?","?","?","?","?","?","?","?","W","W","W","W","W","W","W","W","W","W","W","W","W","W","W","W","W","W","W","W","W","W","W","W","W","W","W","W","W","W","W","W","W","W","W","W","W","W","W","W","W","W","W","W","W","W","W","W","W","W","W","W","W","W","W","W","W","?","?","V","V","V","V","V","V","V","V","V","V","V","V","V","V","V","V","V","V","V","V","V","V","V","V","V","V","V","V","V","V","V","V","V","V","V","V","V","V","V","V","V","V","V","V","V","V","V","V","V","V","V","V","V","V","V","V","V","V","V","V","V","V","V","V","V","V","V","V","V","V","V","V","V","V","V","V","V","V","V","V","V","V","V","V","V","V","V","V","V","V","V","V","?","?","?","?","?","?","?","?","?","?","W","W","W","W","W","W","W","W","W","W","W","W","W","W","W","W","W","W","W","W","W","W","W","W","W","W","W","W","W","W","W","W","W","W","W","W","W","W","W","W","W","W","W","W","W","W","W","W","W","W","W","W","W","W","W","W","W","W","W","W","W","W","W","W","W","W","W","?","?","?","?","?","?","?","?","X","X","X","X","X","X","X","X","X","X","X","X","X","X","X","X","X","X","X","X","X","?","?","?","W","W","W","W","W","W","W","W","W","W","W","W","W","W","W","W","W","W","W","W","W","W","W","W","W","W","W","W","W","W","W","W","W","W","W","W","W","W","W","W","W","W","W","W","W","W","W","W","W","W","W","W","W","W","W","W","W","W","W","W","W","W","W","W","W","W","W","W","W","W","W","W","W","W","W","W","W","W","W","W","W","W","W","W","W","W","W","W","W","W","W","W","W","W","W","W","W","W","W","W","W","W","W","W","W","W","W","W","W","W","W","W","W","W","W","W","W","W","W","W","W","W","W","W","W","W","W","W","W","W","W","W","W","W","W","W","W","W","W","W","W","W","W","W","W","W","W","W","?","?","?","?","?","?","?","?","?","?","X","X","X","X","X","X","X","X","X","X","X","X","X","X","X","X","X","X","X","X","X","X","X","X","X","X","X","X","X","X","X","X","X","X","X","X","X","X","X","X","X","X","X","X","X","X","X","X","X","X","X","X","X","X","X","X","X","X","?","Y","Y","Y","?","Z","Z","Z","Z","?","?","?","?","?","?","?","?","?","?","?","?","?","?","Z","Z","Z","Z","Z","Z","Z","Z","Z","Z","Z","Z","Z","Z","Z","Z","Z","Z","Z","Z","Z","Z","Z","Z","Z","Z","Z","Z","Z","Z","Z","Z","Z","Z","Z","Z","Z","Z","Z","Z","Z","Z","Z","Z","Z","Z","Z","Z","Z","Z","Z","Z","Z","Z","Z","Z","Z","Z","Z","Z","Z","Z","Z","Z","Z","Z","Z","Z","Z","Z","Z","Z","Z","Z","Z","Z","Z","Z","Z","Z","Z","Z","Z","Z","Z","Z","Z","Z","Z","Z","Z","Z","Z","Z","Z","Z","Z","Z","Z","Z","Z","Z","Z","Z","Z","Z","Z","Z","Z","Z","Z","Z","Z","Z","Z","Z","Z","Z","Z","Z","Z","Z","Z","Z","Z","Z","Z","Z","Z","Z","?","?","?","?","?","?","?","?","?","?","?"],"t":[31,62,74,87,106,117,133,151,171,184,201,217,236,252,268,284,303,319,335,351,368,385,402,417,437,451,467,483,500,518,535,551,567,584,602,617,633,650,668,684,702,720,735,753,767,786,802,819,835,853,868,886,902,917,936,952,968,986,1002,1019,1035,1052,1070,1086,1101,1118,1135,1153,1169,1183,1203,1218,1235,1251,1269,1286,1302,1319,1335,1352,1368,1386,1402,1419,1435,1453,1469,1486,1503,1518,1535,1551,1569,1585,1603,1619,1634,1653,1669,1686,1702,1719,1735,1752,1769,1785,1803,1818,1833,1853,1867,1886,1902,1919,1935,1951,1969,1985,2003,2019,2035,2051,2069,2084,2101,2119,2135,2153,2168,2186,2201,2218,2235,2252,2269,2285,2302,2318,2335,2352,2368,2386,2401,2418,2435,2452,2469,2484,2501,2517,2533,2551,2567,2583,2600,2619,2635,2652,2669,2685,2700,2717,2735,2752,2768,2786,2802,2817,2835,2851,2869,2886,2902,2918,2936,2951,2969,2985,3001,3019,3036,3052,3069,3085,3101,3118,3135,3152,3169,3184,3202,3219,3234,3252,3268,3284,3300,3318,3336,3352,3369,3385,3402,3418,3434,3453,3467,3484,3502,3519,3534,3551,3568,3586,3601,3619,3634,3652,3668,3685,3702,3719,3735,3752,3769,3785,3802,3818,3835,3852,3869,3885,3902,3919,3934,3951,3969,3984,4002,4018,4035,4051,4068,4086,4102,4119,4135,4151,4169,4185,4201,4219,4235,4250,4269,4285,4302,4318,4335,4352,4369,4385,4401,4419,4435,4452,4469,4485,4502,4519,4535,4552,4569,4585,4602,4618,4635,4652,4669,4686,4701,4719,4736,4752,4769,4786,4802,4818,4835,4852,4868,4885,4902,4919,4934,4952,4969,4985,5001,5019,5035,5052,5069,5084,5101,5119,5135,5152,5169,5185,5201,5219,5235,5251,5268,5284,5302,5318,5334,5350,5369,5383,5401,5418,5435,5451,5467,5483,5500,5519,5534,5550,5567,5584,5601,5618,5633,5650,5669,5683,5700,5717,5733,5751,5768,5783,5799,5820,5833,5849,5867,5884,5901,5918,5933,5950,5969,5985,6001,6019,6036,6052,6069,6085,6101,6117,6134,6152,6169,6185,6200,6219,6234,6252,6269,6285,6302,6318,6334,6352,6368,6385,6402,6419,6434,6452,6467,6485,6502,6518,6534,6552,6567,6585,6602,6619,6634,6652,6667,6683,6701,6717,6736,6750,6769,6785,6802,6819,6835,6852,6869,6885,6902,6918,6934,6952,6969,6985,7002,7018,7034,7051,7068,7085,7100,7119,7134,7152,7168,7185,7201,7218,7234,7252,7268,7283,7301,7318,7335,7350,7370,7384,7401,7418,7435,7452,7468,7485,7502,7517,7535,7552,7568,7584,7602,7618,7634,7651,7668,7685,7702,7718,7734,7751,7768,7785,7802,7819,7835,7852,7868,7885,7901,7918,7934,7952,7968,7985,8002,8018,8034,8052,8066,8083,8102,8118,8134,8152,8168,8183,8202,8218,8234,8251,8268,8284,8301,8318,8333,8352,8368,8384,8402,8417,8434,8451,8466,8484,8500,8519,8534,8551,8567,8584,8601,8618,8634,8651,8668,8684,8702,8718,8733,8752,8768,8785,8801,8818,8835,8852,8868,8885,8902,8918,8934,8952,8968,8985,9001,9018,9034,9050,9067,9084,9102,9118,9134,9151,9168,9185,9202,9218,9235,9252,9268,9284,9301,9318,9335,9351,9368,9384,9402,9417,9434,9452,9467,9485,9501,9518,9534,9552,9567,9585,9601,9618,9634,9652,9667,9685,9702,9716,9735,9752,9768,9785,9800,9818,9833,9852,9867,9883,9902,9918,9934,9951,9967,9985,10001,10019,10034,10052,10068,10084,10100,10117,10135,10152,10167,10185,10202,10218,10234,10252,10268,10284,10301,10319,10335,10351,10368,10383,10402,10418,10434,10451,10468,10485,10501,10517,10534,10551,10568,10585,10601,10617,10634,10651,10669,10683,10702,10718,10734,10750,10766,10783,10802,10816,10835,10852,10866,10883,10899,10918,10934,10950,10967,10984,11000,11017,11033,11050,11069,11083,11099,11116,11133,11150,11167,11183,11200,11219,11233,11250,11267,11283,11300,11317,11333,11350,11369,11383,11400,11417,11434,11451,11467,11483,11499,11520,11535,11549,11567,11584,11600,11617,11632,11650,11668,11683,11700,11717,11733,11751,11767,11784,11800,11819,11833,11850,11867,11883,11900,11916,11932,11950,11969,11983,12000,12017,12034,12050,12066,12083,12103,12117,12133,12150,12167,12184,12201,12217,12233,12250,12269,12283,12299,12316,12334,12350,12366,12383,12399,12417,12433,12450,12466,12484,12500,12516,12532,12549,12568,12583,12600,12617,12634,12649,12666,12683,12702,12717,12732,12750,12767,12783,12800,12817,12833,12850,12867,12883,12900,12916,12934,12950,12966,12983,13000,13016,13036,13051,13067,13084,13100,13116,13133,13152,13167,13183,13200,13216,13234,13250,13266,13283,13301,13316,13333,13350,13367,13384,13400,13416,13433,13451,13468,13482,13500,13516,13534,13550,13566,13583,13600,13617,13635,13650,13669,13684,13701,13717,13734,13753,13768,13785,13803,13821,13835,13853,13867,13885,13900,13917,13933,13950,13967,13984,14000,14016,14034,14052,14066,14083,14100,14117,14134,14150,14166,14187,14200,14217,14232,14251,14267,14285,14299,14317,14333,14352,14366,14383,14401,14417,14433,14450,14469,14484,14502,14519,14534,14552,14568,14585,14600,14618,14635,14651,14668,14685,14702,14718,14735,14751,14768,14785,14801,14819,14834,14852,14867,14883,14900,14919,14935,14952,14968,14984,15000,15016,15035,15050,15067,15083,15102,15117,15134,15152,15168,15183,15200,15218,15235,15251,15269,15285,15301,15319,15335,15350,15368,15384,15402,15418,15434,15452,15468,15484,15500,15518,15534,15549,15569,15584,15601,15619,15634,15650,15667,15684,15699,15719,15734,15752,15767,15785,15801,15817,15834,15852,15868,15883,15901,15919,15934,15951,15968,15985,16000,16019,16034,16052,16068,16085,16101,16118,16134,16152,16167,16183,16202,16218,16233,16251,16268,16284,16301,16319,16335,16351,16368,16384,16401,16419,16434,16450,16467,16485,16499,16516,16532,16549,16570,16585,16600,16617,16633,16650,16667,16683,16699,16719,16733,16749,16767,16784,16800,16817,16833,16850,16869,16883,16900,16917,16933,16951,16966,16983,16999,17019,17033,17049,17067,17084,17099,17116,17132,17151,17169,17185,17200,17219,17233,17252,17268,17284,17301,17318,17334,17350,17366,17384,17400,17417,17434,17451,17468,17483,17501,17517,17533,17550,17566,17583,17600,17617,17634,17651,17667,17683,17701,17716,17733,17750,17768,17784,17800,17818,17833,17851,17866,17884,17900,17917,17934,17951,17968,17985,18002,18017,18034,18052,18068,18084,18102,18118,18134,18151,18167,18184,18200,18218,18233,18250,18267,18284,18300,18316,18335,18351,18367,18383,18400,18417,18434,18450,18466,18483,18502,18516,18533,18550,18566,18584,18600,18616,18633,18652,18666,18683,18700,18716,18734,18750,18766,18782,18802,18818,18835,18851,18867,18885,18903,18916,18935,18952,18968,18983,18999,19016,19033,19050,19067,19085,19100,19118,19135,19151,19167,19185,19199,19216,19234,19251,19267,19285,19302,19318,19335,19351,19366,19384,19402,19418,19434,19451,19468,19485,19500,19516,19535,19551,19569,19583,19601,19617,19633,19649,19666,19684,19703,19718,19734,19752,19768,19784,19801,19818,19834,19851,19867,19885,19902,19919,19934,19950,19967,19985,20000,20016,20034,20052,20069,20085,20100,20116,20134,20151,20168,20185,20202,20218,20233,20251,20267,20285,20301,20317,20334,20351,20368,20385,20400,20418,20434,20450,20468,20484,20500,20518,20533,20549,20567,20584,20600,20618,20634,20651,20667,20685,20701,20718,20733,20751,20768,20784,20802,20817,20834,20849,20867,20884,20900,20917,20935,20951,20968,20984,21001,21016,21034,21050,21068,21083,21101,21117,21133,21151,21167,21184,21201,21218,21233,21252,21267,21285,21300,21316,21333,21352,21367,21384,21401,21418,21434,21450,21468,21484,21501,21518,21534,21551,21568,21585,21601,21618,21634,21651,21668,21684,21701,21717,21734,21750,21768,21784,21800,21817,21834,21852,21868,21885,21900,21917,21934,21952,21968,21985,22000,22016,22034,22050,22067,22085,22101,22116,22135,22151,22168,22185,22201,22218,22234,22252,22267,22283,22301,22318,22333,22360,22385,22400,22416,22434,22452,22467,22485,22501,22518,22535,22552,22568,22584,22601,22617,22634,22652,22669,22685,22700,22718,22734,22751,22768,22785,22800,22817,22834,22851,22866,22885,22901,22917,22934,22951,22968,22985,23001,23017,23034,23050,23066,23083,23101,23116,23135,23150,23167,23184,23200,23216,23232,23252,23266,23283,23299,23319,23333,23352,23366,23383,23402,23416,23432,23450,23466,23484,23500,23516,23533,23551,23567,23582,23600,23617,23634,23650,23666,23683,23701,23717,23733,23750,23767,23784,23800,23816,23833,23853,23866,23883,23900,23917,23935,23950,23966,23984,24001,24018,24034,24052,24068,24084,24101,24117,24133,24150,24166,24183,24200,24217,24233,24250,24266,24283,24301,24317,24333,24350,24367,24384,24399,24417,24434,24451,24466,24483,24500,24517,24535,24551,24567,24583,24602,24618,24634,24651,24666,24684,24700,24716,24736,24750,24766,24783,24800,24817,24834,24849,24867,24886,24900,24917,24933,24950,24966,24982,25001,25016,25033,25050,25067,25084,25099,25116,25135,25150,25166,25186,25199,25215,25232,25250,25266,25283,25300,25316,25335,25349,25366,25382,25400,25417,25434,25449,25466,25485,25499,25516,25533,25550,25567,25583,25599,25616,25635,25649,25666,25685,25701,25718,25734,25750,25768,25785,25802,25818,25834,25851,25868,25884,25900,25917,25933,25951,25967,25982,26002,26018,26034,26049,26068,26085,26101,26116,26135,26149,26166,26183,26199,26219,26233,26250,26266,26283,26300,26317,26333,26349,26369,26383,26400,26416,26433,26450,26467,26483,26499,26519,26533,26549,26566,26583,26599,26616,26633,26649,26668,26685,26699,26716,26732,26750,26767,26783,26799,26816,26834,26851,26867,26883,26900,26918,26933,26951,26968,26985,26999,27018,27034,27052,27068,27084,27099,27118,27135,27149,27167,27184,27200,27216,27233,27250,27268,27283,27300,27316,27333,27351,27366,27383,27399,27418,27433,27449,27467,27484,27500,27516,27534,27550,27568,27585,27601,27616,27635,27652,27666,27685,27700,27718,27734,27750,27767,27784,27802,27818,27834,27850,27867,27882,27900,27918,27935,27950,27967,27983,28001,28018,28033,28052,28068,28085,28101,28117,28134,28151,28167,28185,28201,28218,28234,28251,28266,28284,28301,28317,28334,28351,28368,28385,28401,28417,28434,28451,28466,28484,28501,28517,28534,28551,28567,28584,28601,28618,28633,28650,28665,28684,28700,28716,28734,28751,28768,28784,28801,28818,28834,28851,28866,28883,28901,28917,28934,28950,28968,28984,29001,29016,29035,29051,29066,29085,29101,29118,29134,29151,29166,29183,29201,29218,29234,29251,29268,29285,29301,29316,29334,29350,29367,29384,29400,29416,29434,29449,29467,29483,29501,29518,29532,29549,29567,29582,29599,29616,29636,29650,29666,29683,29699,29717,29733,29749,29766,29785,29800,29818,29832,29851,29868,29884,29901,29918,29934,29951,29967,29984,30000,30018,30034,30051,30068,30085,30100,30115,30134,30150,30168,30185,30199,30217,30234,30251,30268,30282,30299,30317,30334,30350,30368,30383,30399,30417,30433,30449,30468,30483,30499,30518,30534,30551,30567,30585,30600,30616,30635,30650,30668,30684,30700,30718,30733,30751,30768,30783,30800,30817,30834,30851,30867,30884,30900,30919,30934,30951,30967,30985,31002,31018,31034,31049,31067,31084,31100,31118,31133,31150,31168,31185,31202,31217,31233,31250,31268,31284,31299,31318,31334,31351,31367,31384,31400,31416,31434,31451,31468,31485,31501,31518,31533,31549,31566,31585,31601,31618,31634,31651,31668,31683,31701,31718,31734,31751,31768,31785,31801,31818,31833,31850,31868,31884,31900,31917,31934,31951,31968,31983,32000,32018,32034,32051,32068,32085,32100,32116,32133,32150,32168,32183,32200,32218,32234,32251,32267,32284,32301,32317,32334,32351,32367,32385,32401,32417,32433,32450,32466,32485,32500,32518,32535,32551,32566,32583,32600,32618,32633,32651,32668,32683,32701,32716,32735,32751,32767,32785,32801,32817,32834,32850,32866,32882,32901,32918,32933,32949,32965,32984,33001,33016,33033,33052,33066,33082,33100,33115,33133,33149,33166,33184,33201,33216,33233,33249,33266,33284,33300,33316,33332,33351,33367,33383,33400,33417,33433,33450,33467,33483,33502,33516,33532,33549,33567,33583,33600,33616,33633,33650,33667,33685,33701,33717,33732,33751,33766,33783,33802,33817,33834,33849,33868,33885,33907,33934,33950,33967,33985,34001,34018,34034,34050,34067,34084,34101,34118,34133,34150,34167,34184,34199,34218,34235,34252,34266,34283,34300,34318,34333,34349,34366,34385,34400,34416,34434,34449,34466,34484,34499,34516,34532,34553,34566,34583,34600,34616,34633,34650,34666,34686,34701,34715,34733,34750,34767,34784,34799,34816,34836,34849,34867,34883,34900,34917,34933,34949,34966,34985,35000,35016,35033,35050,35067,35084,35099,35117,35135,35150,35165,35183,35200,35217,35233,35249,35266,35285,35299,35315,35333,35351,35368,35382,35400,35416,35435,35449,35470,35485,35501,35516,35533,35549,35569,35583,35601,35616,35633,35650,35666,35682,35699,35718,35733,35749,35766,35783,35800,35818,35834,35851,35867,35885,35901,35918,35934,35951,35966,35984,36001,36018,36034,36051,36067,36085,36101,36118,36133,36149,36168,36183,36200,36216,36234,36250,36268,36283,36300,36315,36333,36350,36367,36385,36402,36417,36433,36451,36466,36485,36501,36515,36533,36549,36566,36582,36600,36617,36633,36650,36667,36685,36701,36718,36734,36749,36768,36783,36799,36817,36832,36850,36866,36883,36899,36919,36933,36949,36966,36983,37000,37016,37033,37052,37067,37084,37099,37116,37133,37150,37166,37183,37202,37217,37233,37249,37266,37284,37300,37318,37332,37350,37368,37382,37398,37415,37433,37451,37466,37483,37502,37516,37533,37550,37567,37583,37601,37616,37633,37651,37666,37685,37701,37717,37735,37750,37766,37783,37800,37817,37834,37850,37868,37885,37900,37916,37934,37950,37968,37984,38001,38018,38034,38050,38066,38084,38101,38118,38132,38150,38167,38185,38201,38217,38234,38251,38267,38284,38301,38318,38334,38349,38367,38384,38401,38418,38433,38451,38466,38485,38501,38516,38535,38551,38568,38584,38600,38618,38634,38651,38667,38685,38701,38716,38735,38751,38766,38784,38799,38817,38833,38850,38868,38885,38901,38917,38934,38949,38967,38985,39001,39018,39034,39051,39068,39084,39099,39117,39133,39150,39168,39183,39201,39218,39234,39249,39267,39285,39300,39317,39334,39349,39366,39384,39399,39417,39434,39451,39466,39484,39499,39516,39534,39549,39566,39584,39599,39616,39633,39650,39667,39683,39699,39718,39733,39749,39765,39783,39800,39817,39833,39849,39866,39884,39899,39916,39933,39950,39967,39983,39999,40016,40035,40049,40066,40083,40100,40116,40133,40149,40166,40185,40200,40218,40233,40250,40267,40283,40299,40316,40333,40349,40366,40383,40400,40416,40433,40450,40468,40483,40499,40518,40534,40551,40566,40584,40601,40618,40634,40650,40666,40683,40699,40716,40732,40748,40767,40783,40798,40815,40832,40849,40867,40883,40899,40916,40933,40948,40965,40992,41017,41032,41052,41068,41083,41099,41117,41133,41150,41166,41183,41200,41218,41233,41249,41268,41284,41301,41318,41333,41350,41368,41384,41400,41418,41434,41450,41466,41482,41501,41518,41534,41550,41567,41584,41599,41616,41634,41650,41668,41685,41701,41718,41733,41750,41767,41783,41799,41817,41835,41850,41867,41883,41900,41918,41932,41951,41967,41983,42001,42017,42034,42051,42067,42083,42100,42118,42134,42150,42168,42185,42201,42215,42233,42251,42266,42285,42301,42318,42334,42351,42366,42384,42400,42416,42434,42450,42468,42484,42501,42516,42534,42551,42568,42585,42601,42617,42633,42651,42666,42684,42701,42717,42734,42751,42768,42785,42800,42817,42834,42850,42867,42885,42901,42916,42934,42951,42967,42984,43001,43018,43033,43051,43068,43084,43101,43117,43134,43150,43167,43184,43199,43216,43234,43251,43266,43284,43301,43318,43334,43351,43368,43383,43399,43417,43434,43450,43467,43484,43501,43517,43534,43549,43568,43584,43600,43617,43634,43651,43668,43685,43700,43717,43734,43751,43768,43785,43801,43818,43833,43849,43867,43885,43901,43917,43934,43951,43968,43984,43999,44017,44034,44050,44067,44085,44101,44117,44133,44150,44167,44184,44200,44218,44233,44251,44268,44283,44299,44317,44334,44350,44368,44385,44401,44418,44433,44450,44467,44483,44500,44517,44534,44551,44568,44584,44600,44618,44633,44650,44668,44685,44701,44718,44733,44750,44766,44785,44800,44818,44834,44851,44868,44883,44901,44917,44934,44951,44968,44984,45001,45018,45033,45050,45068,45085,45101,45117,45134,45151,45167,45184,45200,45218,45233,45251,45268,45284,45300,45317,45333,45350,45367,45384,45401,45418,45434,45450,45466,45483,45500,45518,45533,45551,45568,45584,45600,45618,45633,45650,45668,45684,45700,45718,45733,45750,45766,45784,45800,45817,45834,45851,45868,45884,45901,45917,45932,45949,45966,45983,45999,46016,46033,46049,46066,46083,46101,46117,46133,46149,46168,46183,46200,46216,46234,46249,46267,46284,46301,46317,46332,46350,46366,46383,46402,46416,46432,46449,46466,46483,46500,46516,46533,46551,46567,46582,46599,46616,46634,46651,46668,46684,46700,46718,46734,46751,46768,46784,46800,46818,46834,46851,46868,46884,46901,46918,46934,46949,46968,46984,47001,47017,47034,47049,47067,47083,47099,47115,47134,47151,47168,47182,47199,47216,47234,47249,47266,47286,47299,47317,47333,47349,47367,47384,47400,47417,47433,47450,47468,47484,47501,47517,47533,47550,47567,47584,47600,47617,47634,47651,47668,47684,47700,47717,47733,47750,47768,47784,47801,47817,47833,47849,47867,47884,47901,47918,47935,47951,47965,47983,48000,48016,48032,48049,48065,48083,48100,48116,48132,48149,48168,48184,48201,48218,48233,48249,48266,48284,48299,48317,48334,48350,48368,48384,48400,48417,48433,48449,48468,48483,48501,48518,48533,48550,48568,48584,48600,48617,48632,48651,48668,48685,48700,48717,48734,48750,48768,48783,48800,48817,48834,48851,48867,48883,48899,48919,48932,48951,48966,48984,49000,49016,49034,49049,49067,49084,49101,49118,49133,49149,49166,49183,49199,49215,49234,49251,49265,49283,49300,49316,49332,49350,49369,49383,49399,49416,49433,49450,49467,49484,49501,49518,49533,49550,49566,49584,49601,49618,49632,49649,49666,49685,49700,49718,49733,49751,49767,49783,49799,49818,49834,49851,49868,49884,49901,49916,49933,49950,49968,49985,50001,50018,50034,50050,50066,50084,50100,50117,50134,50151,50168,50184,50200,50216,50234,50250,50267,50284,50300,50318,50333,50351,50366,50384,50399,50416,50434,50449,50468,50484,50501,50516,50534,50550,50566,50584,50600,50617,50634,50650,50667,50685,50701,50717,50734,50749,50767,50785,50801,50818,50834,50850,50866,50884,50901,50917,50934,50951,50967,50983,51001,51018,51033,51050,51068,51084,51101,51116,51133,51151,51167,51184,51200,51217,51233,51262,51285,51301,51318,51334,51351,51366,51383,51400,51416,51435,51450,51466,51483,51502,51517,51533,51549,51567,51583,51600,51616,51634,51651,51667,51685,51700,51716,51733,51751,51768,51785,51801,51818,51833,51850,51866,51883,51899,51917,51934,51951,51967,51985,51999,52017,52034,52051,52068,52084,52101,52117,52133,52150,52167,52184,52200,52217,52234,52251,52267,52283,52299,52318,52334,52351,52368,52385,52401,52418,52433,52449,52467,52483,52499,52517,52534,52551,52568,52583,52601,52617,52634,52650,52666,52685,52701,52717,52733,52749,52767,52785,52800,52817,52834,52851,52867,52884,52900,52916,52934,52949,52967,52984,53000,53017,53032,53050,53067,53084,53101,53118,53134,53151,53167,53183,53200,53217,53234,53251,53267,53285,53300,53318,53333,53350,53368,53382,53401,53418,53435,53451,53467,53483,53501,53518,53534,53550,53568,53584,53600,53616,53634,53650,53667,53685,53700,53718,53734,53751,53768,53783,53800,53817,53834,53851,53868,53885,53901,53917,53933,53950,53968,53985,54001,54018,54034,54050,54068,54083,54099,54116,54134,54149,54165,54184,54200,54218,54233,54251,54267,54283,54299,54318,54334,54350,54366,54385,54401,54418,54434,54451,54467,54483,54499,54518,54534,54551,54568,54584,54601,54616,54633,54651,54666,54683,54701,54718,54733,54751,54766,54784,54799,54818,54834,54850,54868,54883,54901,54916,54933,54950,54966,54984,55001,55016,55033,55051,55068,55083,55101,55116,55134,55151,55166,55184,55201,55218,55233,55249,55268,55284,55301,55316,55332,55351,55367,55383,55401,55418,55434,55451,55466,55485,55501,55518,55532,55551,55567,55583,55599,55616,55634,55651,55666,55684,55700,55717,55732,55751,55767,55784,55801,55818,55832,55851,55868,55884,55901,55917,55934,55951,55967,55983,55999,56018,56035,56051,56067,56084,56100,56116,56133,56148,56166,56185,56199,56215,56232,56249,56266,56283,56299,56316,56335,56349,56366,56383,56400,56416,56433,56449,56467,56482,56501,56516,56533,56550,56566,56582,56598,56618,56633,56651,56666,56684,56701,56718,56733,56749,56767,56783,56801,56817,56835,56850,56867,56882,56898,56917,56932,56949,56966,56983,57002,57018,57033,57049,57068,57084,57101,57117,57134,57151,57167,57183,57200,57218,57234,57251,57268,57285,57300,57317,57333,57350,57368,57385,57401,57418,57433,57450,57466,57484,57500,57518,57533,57550,57568,57582,57601,57618,57633,57651,57668,57684,57701,57718,57734,57751,57768,57783,57800,57816,57834,57851,57868,57885,57901,57917,57934,57950,57968,57985,58001,58018,58049,58069,58082,58099,58116,58133,58150,58166,58185,58201,58217,58233,58251,58268,58283,58299,58316,58332,58351,58367,58383,58401,58418,58432,58450,58468,58484,58500,58517,58534,58550,58567,58585,58601,58618,58633,58651,58666,58684,58701,58717,58733,58750,58768,58784,58800,58815,58835,58850,58868,58884,58901,58917,58932,58950,58967,58984,58999,59018,59034,59050,59068,59084,59100,59115,59134,59150,59167,59184,59201,59218,59233,59250,59265,59284,59301,59317,59333,59349,59368,59384,59400,59417,59434,59451,59467,59485,59501,59518,59533,59549,59566,59582,59599,59616,59632,59650,59668,59685,59700,59717,59733,59749,59768,59785,59799,59816,59834,59850,59866,59884,59899,59918,59933,59950,59967,59984,60000,60018,60033,60051,60067,60084,60101,60117,60132,60151,60167,60184,60200,60218,60232,60250,60266,60284,60300,60318,60334,60351,60368,60385,60399,60418,60432,60449,60467,60484,60501,60516,60533,60550,60566,60583,60599,60618,60632,60650,60667,60682,60700,60716,60732,60749,60766,60785,60799,60816,60833,60850,60866,60882,60899,60918,60933,60951,60966,60983,61000,61016,61033,61049,61068,61085,61100,61116,61132,61149,61166,61183,61199,61217,61233,61250,61266,61283,61312,61333,61349,61369,61382,61400,61418,61434,61451,61466,61484,61500,61517,61533,61551,61567,61585,61601,61618,61633,61649,61668,61682,61699,61717,61733,61750,61766,61783,61800,61818,61834,61850,61867,61883,61899,61918,61932,61949,61966,61982,62000,62018,62032,62051,62066,62084,62100,62118,62134,62151,62168,62184,62200,62218,62233,62250,62268,62284,62300,62317,62334,62350,62367,62382,62400,62418,62433,62450,62468,62483,62501,62516,62532,62550,62567,62582,62601,62616,62632,62649,62665,62683,62700,62717,62733,62751,62767,62784,62801,62817,62832,62849,62868,62883,62900,62916,62934,62950,62966,62984,63000,63017,63032,63051,63068,63084,63101,63116,63134,63151,63168,63183,63201,63218,63234,63251,63267,63284,63299,63317,63334,63352,63368,63384,63400,63416,63434,63451,63467,63482,63501,63518,63534,63550,63567,63584,63601,63618,63633,63651,63667,63684,63701,63717,63734,63751,63767,63785,63800,63817,63833,63851,63866,63883,63901,63917,63933,63950,63967,63985,63999,64016,64032,64050,64067,64083,64101,64118,64134,64149,64166,64184,64201,64217,64234,64250,64267,64285,64300,64317,64332,64350,64368,64385,64401,64418,64433,64449,64467,64483,64501,64517,64533,64549,64568,64584,64599,64618,64633,64651,64667,64683,64699,64718,64733,64750,64767,64784,64800,64818,64832,64851,64867,64884,64899,64918,64932,64951,64968,64984,65001,65016,65033,65049,65066,65084,65100,65116,65132,65151,65167,65184,65199,65218,65232,65251,65268,65285,65300,65318,65333,65350,65367,65382,65402,65416,65432,65450,65466,65482,65499,65517,65533,65548,65566,65582,65599,65616,65634,65650,65667,65684,65701,65717,65733,65750,65768,65783,65800,65818,65833,65851,65868,65885,65901,65918,65933,65950,65966,65982,66001,66018,66033,66051,66067,66083,66100,66118,66133,66151,66167,66182,66201,66216,66234,66250,66268,66284,66300,66317,66332,66350,66367,66384,66401,66418,66433,66451,66468,66485,66500,66518,66533,66550,66568,66584,66600,66617,66633,66649,66666,66682,66701,66718,66732,66750,66766,66782,66800,66815,66832,66850,66867,66882,66899,66916,66932,66950,66966,66982,67002,67018,67033,67049,67067,67083,67100,67115,67132,67152,67166,67182,67200,67215,67232,67250,67266,67282,67300,67316,67333,67349,67367,67383,67400,67417,67433,67451,67468,67484,67501,67518,67534,67551,67568,67584,67600,67618,67632,67651,67667,67683,67700,67716,67734,67751,67767,67784,67802,67818,67834,67849,67865,67885,67899,67918,67932,67948,67966,67983,67999,68016,68035,68049,68068,68083,68098,68116,68132,68149,68166,68185,68200,68217,68233,68250,68268,68284,68299,68316,68334,68351,68368,68382,68399,68416,68434,68448,68467,68485,68499,68515,68533,68548,68566,68583,68599,68616,68635,68652,68665,68682,68699,68715,68732,68750,68765,68785,68799,68815,68832,68850,68866,68883,68899,68918,68933,68951,68968,68984,69001,69018,69032,69050,69068,69084,69099,69118,69133,69151,69165,69183,69199,69216,69232,69250,69268,69283,69300,69317,69333,69348,69367,69384,69400,69415,69433,69450,69466,69483,69499,69515,69533,69554,69565,69583,69599,69615,69632,69649,69668,69683,69699,69715,69733,69750,69767,69782,69799,69819,69833,69850,69866,69883,69900,69916,69933,69949,69966,69984,69998,70015,70032,70050,70065,70084,70100,70117,70133,70151,70168,70184,70199,70218,70233,70251,70268,70283,70300,70318,70333,70350,70368,70382,70400,70416,70433,70450,70465,70484,70500,70516,70532,70551,70566,70582,70598,70616,70633,70649,70666,70682,70702,70717,70732,70749,70767,70783,70800,70816,70833,70849,70869,70883,70900,70915,70932,70950,70966,70982,70999,71017,71032,71050,71066,71083,71100,71116,71133,71149,71171,71182,71199,71216,71232,71250,71266,71283,71300,71318,71333,71350,71368,71385,71400,71421,71433,71450,71467,71483,71502,71517,71535,71551,71567,71584,71601,71618,71633,71650,71667,71684,71700,71717,71734,71750,71768,71784,71799,71817,71833,71850,71867,71884,71901,71918,71933,71950,71967,71984,72000,72017,72033,72050,72066,72083,72100,72117,72133,72151,72167,72184,72200,72218,72233,72250,72268,72283,72299,72317,72333,72351,72367,72384,72401,72417,72432,72450,72467,72484,72500,72517,72533,72551,72566,72583,72599,72617,72632,72649,72668,72681,72699,72716,72733,72749,72765,72784,72799,72816,72833,72849,72866,72883,72899,72915,72935,72951,72966,72981,73000,73016,73032,73049,73065,73083,73101,73117,73132,73151,73167,73184,73201,73217,73233,73250,73267,73284,73301,73317,73332,73350,73366,73382,73401,73416,73434,73450,73466,73482,73498,73517,73533,73549,73565,73583,73600,73616,73633,73650,73667,73684,73701,73718,73733,73750,73767,73783,73800,73816,73834,73850,73867,73884,73901,73917,73933,73950,73966,73984,73999,74018,74032,74051,74067,74083,74100,74117,74133,74150,74167,74183,74200,74217,74233,74250,74267,74284,74300,74318,74332,74348,74366,74382,74398,74415,74433,74450,74467,74483,74499,74515,74532,74552,74566,74582,74599,74616,74633,74650,74666,74682,74702,74716,74732,74750,74768,74784,74801,74815,74833,74850,74868,74884,74900,74916,74932,74951,74966,74983,75001,75017,75032,75050,75068,75083,75100,75115,75132,75150,75167,75183,75201,75217,75233,75251,75267,75283,75301,75318,75333,75351,75367,75384,75401,75417,75433,75451,75467,75483,75501,75515,75532,75551,75568,75584,75600,75617,75633,75651,75666,75682,75701,75718,75732,75748,75766,75782,75799,75816,75832,75848,75865,75884,75899,75917,75933,75951,75966,75984,76000,76017,76033,76050,76067,76084,76101,76117,76133,76151,76167,76184,76200,76215,76233,76251,76267,76284,76300,76317,76333,76350,76367,76384,76400,76415,76435,76451,76467,76484,76501,76517,76533,76550,76565,76583,76599,76615,76633,76651,76667,76683,76701,76717,76733,76750,76766,76784,76800,76816,76834,76850,76867,76883,76898,76915,76933,76949,76965,76983,76998,77016,77032,77049,77066,77085,77099,77117,77134,77150,77166,77182,77199,77216,77234,77249,77266,77282,77298,77316,77332,77348,77369,77383,77400,77415,77433,77450,77466,77482,77498,77518,77532,77551,77567,77583,77600,77616,77632,77650,77667,77683,77699,77717,77734,77749,77766,77782,77800,77816,77833,77849,77866,77883,77900,77915,77931,77951,77967,77983,78001,78017,78034,78051,78067,78083,78100,78117,78133,78150,78167,78184,78200,78217,78232,78250,78267,78284,78301,78318,78333,78351,78367,78383,78400,78417,78432,78449,78467,78483,78500,78517,78533,78550,78567,78583,78600,78616,78632,78650,78667,78683,78700,78716,78734,78751,78767,78783,78800,78816,78832,78851,78866,78883,78901,78916,78933,78950,78965,78981,79002,79016,79033,79048,79066,79083,79099,79116,79132,79150,79167,79181,79199,79215,79232,79250,79266,79281,79301,79316,79332,79348,79366,79383,79400,79415,79432,79451,79466,79481,79500,79516,79533,79549,79565,79584,79600,79617,79634,79651,79667,79683,79699,79716,79733,79751,79767,79783,79801,79817,79833,79849,79867,79883,79900,79916,79933,79951,79966,79984,80001,80016,80032,80049,80067,80084,80101,80116,80134,80150,80167,80183,80199,80218,80232,80250,80266,80284,80299,80316,80332,80351,80365,80384,80400,80417,80433,80449,80466,80484,80501,80517,80532,80550,80566,80583,80599,80616,80632,80650,80667,80683,80701,80715,80733,80749,80767,80783,80799,80817,80833,80851,80867,80883,80900,80917,80932,80951,80966,80984,81001,81017,81033,81049,81067,81082,81106,81132,81150,81167,81183,81200,81217,81233,81249,81265,81284,81300,81318,81333,81349,81368,81384,81400,81416,81433,81451,81468,81483,81500,81516,81533,81551,81567,81584,81599,81617,81633,81650,81667,81684,81701,81716,81733,81750,81766,81783,81799,81816,81834,81848,81867,81882,81900,81916,81932,81948,81968,81983,81999,82016,82032,82050,82066,82082,82099,82118,82133,82149,82166,82182,82199,82217,82232,82249,82266,82283,82300,82316,82332,82350,82366,82383,82399,82418,82432,82448,82466,82483,82499,82516,82532,82548,82567,82582,82599,82616,82631,82648,82665,82682,82702,82717,82733,82748,82765,82783,82799,82816,82832,82849,82868,82882,82900,82916,82932,82949,82966,82982,83000,83016,83033,83051,83066,83084,83101,83117,83132,83149,83167,83183,83200,83218,83234,83250,83265,83283,83299,83316,83332,83350,83367,83383,83400,83415,83432,83448,83467,83481,83498,83516,83532,83551,83566,83582,83600,83616,83632,83648,83666,83683,83700,83715,83732,83749,83768,83784,83801,83815,83831,83848,83864,83883,83901,83918,83933,83951,83968,83983,83999,84016,84033,84051,84067,84082,84100,84117,84132,84149,84165,84183,84200,84217,84233,84251,84268,84284,84300,84316,84332,84349,84368,84384,84401,84415,84433,84449,84465,84483,84499,84517,84532,84550,84568,84584,84599,84617,84632,84651,84667,84683,84700,84718,84733,84751,84767,84783,84801,84817,84833,84851,84868,84883,84901,84917,84933,84951,84966,84984,85000,85018,85033,85050,85067,85082,85098,85115,85132,85151,85167,85184,85200,85216,85232,85251,85268,85282,85301,85317,85332,85350,85367,85384,85399,85416,85433,85451,85467,85484,85500,85517,85533,85549,85566,85584,85601,85617,85633,85651,85667,85684,85701,85716,85733,85751,85766,85782,85799,85815,85832,85849,85865,85881,85899,85915,85931,85949,85965,85982,85998,86015,86031,86049,86065,86081,86098,86116,86132,86148,86165,86182,86200,86216,86232,86248,86268,86282,86298,86316,86334,86350,86367,86383,86399,86416,86434,86448,86465,86482,86500,86516,86532,86549,86568,86582,86599,86616,86632,86649,86666,86682,86700,86717,86733,86751,86768,86784,86801,86816,86832,86848,86867,86883,86899,86917,86934,86951,86967,86982,87001,87018,87033,87048,87067,87084,87099,87117,87132,87149,87167,87185,87201,87218,87232,87251,87267,87283,87301,87317,87333,87351,87367,87382,87400,87417,87433,87449,87469,87484,87501,87517,87533,87549,87566,87583,87601,87617,87633,87649,87666,87683,87700,87715,87731,87750,87766,87781,87799,87816,87832,87849,87865,87882,87901,87915,87932,87949,87965,87983,87999,88015,88031,88051,88065,88083,88099,88116,88132,88150,88165,88182,88202,88215,88232,88249,88266,88282,88299,88315,88335,88349,88367,88385,88399,88416,88432,88449,88465,88483,88501,88516,88535,88549,88565,88584,88599,88617,88633,88650,88667,88684,88700,88718,88733,88750,88766,88783,88801,88817,88833,88851,88867,88884,88900,88917,88932,88950,88966,88984,89001,89017,89033,89050,89065,89082,89101,89117,89133,89150,89167,89183,89198,89216,89234,89251,89265,89283,89299,89316,89332,89349,89366,89385,89399,89416,89432,89448,89466,89483,89498,89515,89535,89551,89566,89584,89599,89616,89633,89651,89667,89683,89701,89716,89732,89751,89767,89783,89801,89818,89833,89850,89867,89884,89901,89917,89933,89951,89967,89984,90001,90017,90032,90049,90067,90084,90098,90116,90132,90150,90168,90182,90199,90216,90234,90250,90267,90284,90300,90317,90333,90350,90367,90384,90401,90417,90432,90450,90467,90484,90499,90517,90533,90550,90569,90583,90599,90618,90633,90650,90667,90684,90700,90717,90733,90750,90767,90783,90799,90817,90834,90850,90867,90883,90898,90917,90933,90951,90966,90983,91001,91017,91033,91049,91067,91083,91100,91117,91132,91151,91165,91182,91199,91216,91233,91251,91267,91284,91300,91317,91333,91351,91367,91384,91400,91416,91433,91450,91467,91484,91500,91517,91533,91550,91567,91584,91601,91617,91632,91649,91667,91684,91701,91717,91733,91751,91767,91795,91817,91833,91853,91866,91882,91899,91918,91934,91950,91967,91983,91999,92015,92031,92050,92066,92082,92098,92116,92132,92149,92166,92182,92202,92215,92232,92249,92268,92283,92300,92315,92332,92349,92367,92384,92399,92417,92433,92450,92467,92483,92501,92517,92533,92550,92568,92584,92600,92616,92633,92649,92668,92683,92701,92716,92733,92749,92765,92781,92801,92816,92832,92849,92866,92882,92899,92915,92933,92951,92965,92982,92999,93016,93032,93049,93065,93082,93101,93115,93132,93149,93166,93183,93199,93215,93232,93251,93265,93281,93298,93316,93333,93351,93366,93384,93401,93417,93433,93450,93467,93484,93500,93516,93532,93551,93567,93584,93601,93617,93632,93649,93665,93684,93701,93717,93734,93749,93766,93783,93799,93815,93835,93849,93866,93882,93899,93916,93932,93949,93965,93985,93999,94016,94033,94049,94066,94083,94098,94115,94135,94152,94166,94182,94199,94217,94233,94250,94265,94285,94301,94316,94333,94351,94366,94382,94399,94415,94434,94449,94465,94482,94499,94516,94532,94548,94565,94584,94600,94617,94632,94650,94666,94684,94699,94715,94732,94749,94766,94783,94799,94816,94832,94848,94865,94886,94899,94916,94933,94950,94966,94982,94999,95018,95032,95051,95065,95082,95100,95116,95132,95150,95166,95183,95201,95218,95233,95251,95267,95282,95300,95317,95334,95351,95367,95383,95400,95416,95432,95449,95466,95484,95500,95517,95533,95550,95566,95582,95598,95617,95632,95648,95665,95683,95699,95717,95732,95749,95768,95782,95799,95815,95832,95851,95866,95881,95899,95918,95932,95948,95965,95982,96000,96016,96033,96049,96065,96084,96098,96115,96132,96150,96166,96182,96200,96216,96233,96251,96267,96284,96301,96317,96334,96349,96365,96384,96401,96415,96432,96449,96465,96482,96502,96516,96533,96549,96565,96582,96599,96616,96632,96651,96666,96684,96700,96717,96733,96751,96768,96784,96798,96815,96832,96848,96867,96884,96900,96917,96932,96948,96965,96981,96999,97018,97033,97051,97066,97084,97100,97117,97133,97151,97165,97183,97200,97215,97234,97251,97266,97283,97299,97318,97332,97351,97366,97382,97401,97417,97433,97451,97466,97484,97499,97516,97533,97551,97567,97584,97600,97615,97633,97651,97665,97683,97701,97717,97733,97751,97767,97783,97800,97815,97834,97849,97868,97884,97900,97917,97932,97950,97965,97983,98000,98017,98033,98048,98065,98083,98099,98115,98134,98151,98165,98182,98198,98215,98231,98248,98265,98281,98301,98315,98332,98349,98366,98383,98398,98415,98432,98451,98465,98482,98501,98518,98532,98549,98565,98583,98600,98615,98632,98648,98666,98684,98700,98715,98732,98749,98766,98782,98798,98818,98833,98848,98865,98883,98901,98916,98932,98950,98966,98982,98999,99017,99033,99050,99066,99083,99099,99117,99133,99150,99165,99184,99200,99216,99233,99250,99266,99283,99299,99315,99334,99349,99367,99383,99399,99416,99432,99450,99465,99483,99499,99515,99532,99548,99566,99583,99598,99615,99633,99649,99666,99682,99699,99715,99732,99749,99766,99784,99798,99815,99832,99849,99866,99883,99902,99915,99933,99951,99967,99984,100000,100017,100034,100050,100066,100084,100100,100116,100133,100150,100167,100184,100201,100217,100233,100249,100267,100284,100300,100317,100332,100351,100366,100384,100399,100417,100434,100450,100467,100484,100501,100516,100533,100551,100565,100584,100600,100616,100633,100650,100665,100684,100700,100717,100732,100750,100767,100783,100801,100816,100833,100848,100865,100883,100899,100915,100934,100951,100966,100984,101000,101016,101032,101049,101066,101084,101099,101117,101133,101150,101165,101184,101199,101217,101234,101250,101267,101284,101300,101317,101333,101351,101367,101384,101400,101416,101432,101451,101466,101484,101500,101517,101533,101549,101566,101584,101599,101616,101633,101650,101666,101684,101700,101716,101732,101750,101779,101800,101817,101833,101850,101866,101884,101899,101916,101933,101951,101967,101983,101999,102016,102032,102050,102067,102084,102099,102117,102132,102150,102166,102184,102199,102217,102232,102251,102267,102283,102299,102317,102333,102351,102366,102384,102401,102418,102434,102450,102466,102483,102501,102517,102533,102551,102567,102584,102600,102617,102633,102651,102666,102684,102700,102716,102733,102751,102766,102783,102800,102817,102834,102850,102867,102883,102900,102915,102932,102951,102966,102984,103001,103017,103033,103049,103066,103082,103100,103118,103131,103149,103166,103182,103198,103215,103231,103251,103265,103282,103299,103317,103333,103350,103366,103384,103399,103418,103434,103450,103466,103483,103499,103517,103533,103551,103566,103582,103600,103617,103633,103648,103665,103682,103700,103715,103731,103750,103767,103782,103799,103817,103832,103851,103867,103884,103899,103917,103933,103949,103966,103983,103999,104017,104033,104051,104067,104084,104100,104117,104133,104150,104165,104184,104200,104217,104233,104248,104265,104282,104300,104315,104332,104348,104368,104384,104399,104417,104432,104451,104467,104483,104501,104517,104532,104548,104566,104584,104600,104616,104632,104649,104667,104683,104698,104716,104734,104750,104768,104784,104801,104817,104832,104849,104866,104884,104901,104918,104934,104951,104966,104982,104999,105017,105032,105049,105067,105083,105100,105115,105131,105149,105167,105186,105200,105218,105233,105251,105267,105284,105298,105315,105333,105349,105366,105384,105400,105418,105432,105450,105467,105484,105501,105517,105533,105550,105566,105583,105600,105617,105633,105651,105665,105684,105700,105716,105732,105751,105767,105782,105800,105817,105832,105849,105867,105883,105900,105917,105933,105950,105966,105982,105999,106015,106033,106049,106067,106084,106099,106115,106132,106149,106165,106182,106198,106218,106234,106248,106265,106283,106299,106316,106332,106351,106366,106382,106398,106415,106432,106448,106466,106482,106498,106516,106532,106548,106565,106582,106599,106615,106633,106650,106665,106684,106701,106717,106734,106749,106765,106782,106801,106815,106832,106850,106866,106884,106899,106917,106933,106951,106966,106983,107001,107017,107034,107051,107065,107083,107100,107117,107134,107148,107167,107184,107201,107217,107233,107250,107266,107283,107298,107318,107332,107349,107366,107383,107399,107417,107432,107451,107467,107483,107501,107515,107532,107549,107567,107583,107599,107616,107631,107649,107665,107682,107700,107717,107733,107749,107765,107783,107799,107815,107832,107851,107865,107882,107898,107915,107931,107949,107965,107982,108000,108016,108031,108049,108065,108084,108098,108115,108135,108149,108166,108182,108199,108216,108233,108249,108265,108282,108300,108315,108332,108348,108366,108383,108399,108415,108432,108450,108465,108482,108499,108515,108532,108549,108565,108582,108599,108616,108631,108649,108667,108684,108698,108715,108731,108750,108764,108781,108799,108816,108832,108848,108869,108881,108901,108919,108934,108951,108967,108984,108999,109016,109033,109051,109067,109084,109101,109117,109132,109150,109166,109184,109199,109217,109234,109251,109267,109281,109298,109316,109332,109350,109366,109383,109400,109416,109434,109448,109466,109484,109499,109517,109534,109551,109566,109582,109598,109616,109633,109648,109666,109684,109700,109715,109734,109749,109765,109783,109800,109815,109834,109851,109867,109882,109898,109917,109934,109949,109965,109982,109999,110016,110032,110048,110066,110083,110100,110114,110132,110149,110165,110182,110198,110218,110232,110248,110265,110282,110299,110315,110332,110348,110368,110382,110399,110415,110432,110449,110466,110482,110498,110518,110532,110549,110565,110582,110599,110615,110632,110650,110665,110684,110700,110716,110733,110749,110767,110781,110801,110817,110832,110849,110866,110882,110899,110916,110933,110948,110967,110983,110998,111016,111034,111050,111067,111083,111099,111115,111132,111148,111165,111182,111199,111215,111232,111249,111266,111282,111302,111315,111332,111351,111367,111382,111400,111415,111433,111450,111465,111482,111499,111515,111534,111551,111566,111583,111599,111616,111632,111649,111665,111683,111701,111717,111733,111751,111767,111784,111799,111816,111832,111850,111867,111883,111899,111917,111934,111950,111966,111982,112000,112016,112033,112049,112065,112082,112099,112117,112132,112149,112166,112183,112200,112218,112234,112250,112265,112283,112299,112317,112333,112350,112368,112383,112398,112416,112432,112451,112465,112482,112498,112515,112533,112549,112565,112584,112599,112615,112632,112649,112666,112682,112699,112715,112732,112750,112766,112784,112800,112815,112833,112849,112865,112882,112899,112915,112932,112948,112966,112982,112999,113015,113035,113049,113066,113083,113099,113115,113132,113148,113165,113185,113198,113214,113232,113249,113267,113282,113298,113316,113335,113349,113364,113381,113398,113415,113432,113448,113464,113482,113498,113515,113532,113549,113567,113582,113599,113618,113633,113652,113666,113683,113700,113717,113734,113748,113767,113782,113800,113816,113831,113849,113867,113883,113899,113917,113933,113950,113966,113984,114001,114015,114032,114048,114067,114084,114100,114115,114132,114149,114166,114182,114198,114218,114232,114248,114265,114282,114299,114317,114333,114349,114367,114383,114398,114415,114432,114449,114465,114481,114499,114515,114532,114549,114569,114582,114599,114616,114633,114649,114665,114684,114701,114717,114733,114751,114766,114782,114799,114817,114834,114850,114867,114882,114899,114915,114931,114948,114967,114981,114998,115016,115032,115049,115065,115081,115099,115117,115134,115151,115168,115183,115200,115217,115232,115249,115269,115282,115298,115317,115333,115349,115365,115382,115401,115417,115434,115451,115467,115483,115501,115517,115533,115550,115567,115584,115599,115617,115633,115649,115665,115684,115700,115717,115733,115749,115768,115784,115800,115815,115834,115848,115865,115882,115899,115916,115932,115948,115966,115982,115999,116017,116032,116049,116067,116084,116100,116116,116132,116149,116165,116184,116198,116217,116233,116250,116265,116283,116299,116317,116333,116351,116367,116383,116399,116416,116432,116449,116466,116483,116500,116516,116534,116550,116566,116584,116600,116617,116633,116650,116667,116684,116699,116716,116733,116750,116767,116784,116801,116816,116834,116849,116866,116884,116899,116917,116933,116950,116967,116982,116999,117015,117034,117050,117065,117082,117100,117115,117132,117148,117165,117183,117199,117214,117231,117249,117266,117283,117298,117315,117334,117348,117365,117382,117398,117416,117432,117449,117465,117484,117499,117514,117531,117549,117565,117582,117598,117616,117634,117651,117666,117684,117698,117717,117732,117749,117766,117782,117799,117816,117834,117851,117867,117883,117900,117916,117933,117950,117967,117984,118001,118016,118033,118049,118066,118082,118100,118115,118132,118149,118164,118184,118198,118217,118232,118249,118265,118284,118299,118315,118331,118349,118367,118383,118399,118417,118434,118450,118466,118481,118498,118515,118532,118548,118564,118582,118598,118616,118632,118648,118668,118684,118698,118715,118731,118748,118767,118782,118799,118816,118833,118849,118866,118882,118899,118916,118931,118948,118968,118981,119000,119016,119034,119050,119066,119082,119098,119117,119132,119148,119166,119184,119198,119218,119232,119250,119267,119284,119300,119317,119334,119350,119367,119383,119399,119417,119434,119451,119467,119483,119500,119516,119533,119549,119567,119582,119598,119615,119632,119649,119666,119682,119700,119716,119731,119749,119767,119784,119801,119817,119833,119849,119865,119884,119899,119915,119932,119949,119965,119982,120001,120016,120033,120050,120065,120083,120099,120115,120131,120149,120165,120181,120199,120217,120232,120249,120265,120282,120301,120315,120332,120349,120366,120383,120399,120415,120432,120450,120465,120481,120498,120516,120532,120549,120565,120582,120599,120615,120634,120650,120665,120683,120699,120717,120733,120750,120767,120783,120800,120817,120834,120850,120865,120882,120901,120917,120934,120950,120966,120984,120999,121017,121033,121049,121065,121084,121099,121115,121133,121148,121166,121184,121199,121215,121233],"hit":[null],"x":[-1.8775510204081634,-1.8775510204081634,0.02040816326530612,0.02040816326530612,0.02040816326530612,0.030612244897959183,0.034013605442176874,0.05102040816326531,0.06462585034013606,0.0782312925170068,0.08503401360544217,0.09863945578231292,0.10884353741496598,0.12585034013605442,0.1326530612244898,0.14285714285714285,0.14965986394557823,0.16326530612244897,0.17006802721088435,0.17687074829931973,0.1836734693877551,0.19047619047619047,0.19727891156462585,0.20408163265306123,0.20748299319727892,0.2108843537414966,0.21428571428571427,0.21768707482993196,0.21768707482993196,0.22108843537414966,0.22448979591836735,0.22789115646258504,0.22789115646258504,0.23129251700680273,0.23129251700680273,0.23469387755102042,0.23469387755102042,0.23809523809523808,0.23809523809523808,0.24149659863945577,0.24149659863945577,0.24149659863945577,0.24149659863945577,0.24149659863945577,0.24149659863945577,0.24149659863945577,0.24149659863945577,0.24149659863945577,0.24149659863945577,0.24149659863945577,0.24149659863945577,0.24149659863945577,0.24149659863945577,0.24149659863945577,0.24149659863945577,0.24149659863945577,0.24149659863945577,0.24149659863945577,0.24149659863945577,0.24149659863945577,0.24149659863945577,0.24149659863945577,0.24149659863945577,0.24149659863945577,0.24149659863945577,0.24149659863945577,0.24149659863945577,0.24149659863945577,0.24149659863945577,0.24149659863945577,0.24149659863945577,0.24149659863945577,0.24149659863945577,0.24149659863945577,0.24149659863945577,0.24149659863945577,0.24149659863945577,0.24149659863945577,0.24149659863945577,0.24149659863945577,0.24149659863945577,0.24149659863945577,0.24149659863945577,0.24149659863945577,0.24149659863945577,0.24149659863945577,0.24149659863945577,0.24149659863945577,0.24149659863945577,0.24149659863945577,0.24149659863945577,0.24149659863945577,0.24149659863945577,0.24149659863945577,0.24149659863945577,0.24149659863945577,0.24149659863945577,0.24149659863945577,0.24149659863945577,0.24149659863945577,0.24149659863945577,0.24149659863945577,0.24149659863945577,0.24149659863945577,0.24149659863945577,0.24149659863945577,0.24149659863945577,0.24149659863945577,0.24149659863945577,0.24149659863945577,0.24149659863945577,0.24149659863945577,0.24149659863945577,0.24149659863945577,0.24149659863945577,0.24149659863945577,0.24149659863945577,0.24149659863945577,0.24149659863945577,0.24149659863945577,0.24149659863945577,0.24149659863945577,0.24149659863945577,0.24149659863945577,0.24149659863945577,0.24149659863945577,0.24149659863945577,0.24149659863945577,0.24149659863945577,0.24149659863945577,0.24149659863945577,0.24149659863945577,0.24149659863945577,0.24149659863945577,0.24149659863945577,0.24149659863945577,0.24149659863945577,0.24149659863945577,0.24149659863945577,0.24149659863945577,0.24149659863945577,0.24149659863945577,0.24149659863945577,0.24149659863945577,0.24149659863945577,0.24149659863945577,0.24149659863945577,0.24149659863945577,0.24149659863945577,0.24149659863945577,0.24149659863945577,0.24149659863945577,0.24149659863945577,0.24149659863945577,0.24149659863945577,0.24149659863945577,0.24149659863945577,0.24149659863945577,0.24149659863945577,0.24149659863945577,0.24149659863945577,0.24149659863945577,0.24149659863945577,0.24149659863945577,0.24149659863945577,0.24149659863945577,0.24149659863945577,0.24149659863945577,0.24149659863945577,0.24149659863945577,0.24149659863945577,0.24149659863945577,0.24149659863945577,0.24149659863945577,0.24149659863945577,0.24149659863945577,0.24149659863945577,0.24149659863945577,0.24149659863945577,0.24149659863945577,0.24149659863945577,0.24149659863945577,0.24149659863945577,0.24149659863945577,0.24149659863945577,0.24149659863945577,0.24149659863945577,0.24149659863945577,0.24149659863945577,0.24149659863945577,0.24149659863945577,0.24149659863945577,0.24149659863945577,0.24149659863945577,0.24149659863945577,0.24149659863945577,0.24149659863945577,0.24149659863945577,0.24149659863945577,0.24149659863945577,0.24149659863945577,0.24149659863945577,0.24149659863945577,0.24149659863945577,0.24149659863945577,0.24149659863945577,0.24149659863945577,0.24149659863945577,0.24149659863945577,0.24149659863945577,0.24149659863945577,0.24149659863945577,0.24149659863945577,0.24149659863945577,0.24149659863945577,0.24149659863945577,0.24149659863945577,0.24149659863945577,0.24149659863945577,0.24149659863945577,0.24149659863945577,0.24149659863945577,0.24149659863945577,0.24149659863945577,0.24149659863945577,0.24149659863945577,0.24149659863945577,0.24149659863945577,0.24149659863945577,0.24149659863945577,0.24149659863945577,0.24149659863945577,0.24149659863945577,0.24149659863945577,0.24149659863945577,0.24149659863945577,0.24149659863945577,0.24149659863945577,0.24149659863945577,0.24149659863945577,0.24149659863945577,0.24149659863945577,0.24149659863945577,0.24149659863945577,0.24149659863945577,0.24149659863945577,0.24149659863945577,0.24149659863945577,0.24149659863945577,0.24149659863945577,0.24149659863945577,0.24149659863945577,0.24149659863945577,0.24149659863945577,0.24149659863945577,0.24149659863945577,0.24149659863945577,0.24149659863945577,0.24149659863945577,0.24149659863945577,0.24149659863945577,0.24149659863945577,0.24149659863945577,0.24149659863945577,0.24149659863945577,0.24149659863945577,0.24149659863945577,0.24149659863945577,0.24149659863945577,0.24149659863945577,0.24149659863945577,0.24149659863945577,0.24149659863945577,0.24149659863945577,0.24149659863945577,0.24149659863945577,0.24149659863945577,0.24149659863945577,0.24149659863945577,0.24149659863945577,0.24149659863945577,0.24149659863945577,0.24149659863945577,0.24149659863945577,0.24149659863945577,0.24149659863945577,0.24149659863945577,0.24149659863945577,0.24149659863945577,0.24149659863945577,0.24149659863945577,0.24149659863945577,0.24149659863945577,0.24149659863945577,0.24149659863945577,0.24149659863945577,0.24149659863945577,0.24149659863945577,0.24149659863945577,0.24149659863945577,0.24149659863945577,0.24149659863945577,0.24149659863945577,0.24149659863945577,0.24149659863945577,0.24149659863945577,0.24149659863945577,0.24149659863945577,0.24149659863945577,0.24149659863945577,0.24149659863945577,0.24149659863945577,0.24149659863945577,0.24149659863945577,0.24149659863945577,0.24149659863945577,0.24149659863945577,0.24149659863945577,0.24149659863945577,0.24149659863945577,0.24149659863945577,0.24829931972789115,0.2585034013605442,0.2653061224489796,0.2755102040816326,0.282312925170068,0.2891156462585034,0.2925170068027211,0.29931972789115646,0.30272108843537415,0.30612244897959184,0.30952380952380953,0.3129251700680272,0.3129251700680272,0.3129251700680272,0.3129251700680272,0.3129251700680272,0.3129251700680272,0.3129251700680272,0.3129251700680272,0.3129251700680272,0.3129251700680272,0.3129251700680272,0.3129251700680272,0.3129251700680272,0.3129251700680272,0.3129251700680272,0.3163265306122449,0.3197278911564626,0.3197278911564626,0.3231292517006803,0.32653061224489793,0.3299319727891156,0.3435374149659864,0.35374149659863946,0.36054421768707484,0.3707482993197279,0.37755102040816324,0.37755102040816324,0.37755102040816324,0.37755102040816324,0.37755102040816324,0.37755102040816324,0.37755102040816324,0.37755102040816324,0.37755102040816324,0.37755102040816324,0.37755102040816324,0.37755102040816324,0.37755102040816324,0.37755102040816324,0.37755102040816324,0.37755102040816324,0.37755102040816324,0.37755102040816324,0.37755102040816324,0.37755102040816324,0.37755102040816324,0.37755102040816324,0.37755102040816324,0.37755102040816324,0.37755102040816324,0.37755102040816324,0.37755102040816324,0.37755102040816324,0.37755102040816324,0.37755102040816324,0.37755102040816324,0.37755102040816324,0.37755102040816324,0.37755102040816324,0.37755102040816324,0.37755102040816324,0.37755102040816324,0.37755102040816324,0.37755102040816324,0.37755102040816324,0.37755102040816324,0.37755102040816324,0.37755102040816324,0.37755102040816324,0.37755102040816324,0.37755102040816324,0.37755102040816324,0.37755102040816324,0.37755102040816324,0.37755102040816324,0.37755102040816324,0.37755102040816324,0.37755102040816324,0.37755102040816324,0.37755102040816324,0.37755102040816324,0.37755102040816324,0.37755102040816324,0.37755102040816324,0.37755102040816324,0.37755102040816324,0.37755102040816324,0.37755102040816324,0.37755102040816324,0.37755102040816324,0.37755102040816324,0.37755102040816324,0.37755102040816324,0.37755102040816324,0.37755102040816324,0.37755102040816324,0.37755102040816324,0.37755102040816324,0.37755102040816324,0.37755102040816324,0.37755102040816324,0.37755102040816324,0.37755102040816324,0.37755102040816324,0.37755102040816324,0.37755102040816324,0.37755102040816324,0.37755102040816324,0.37755102040816324,0.37755102040816324,0.37755102040816324,0.37755102040816324,0.37755102040816324,0.37755102040816324,0.37755102040816324,0.37755102040816324,0.37755102040816324,0.37755102040816324,0.37755102040816324,0.37755102040816324,0.37755102040816324,0.37755102040816324,0.37755102040816324,0.37755102040816324,0.37755102040816324,0.37755102040816324,0.37755102040816324,0.37755102040816324,0.37755102040816324,0.37755102040816324,0.37755102040816324,0.37755102040816324,0.37755102040816324,0.37755102040816324,0.37755102040816324,0.37755102040816324,0.37755102040816324,0.37755102040816324,0.37755102040816324,0.37755102040816324,0.37755102040816324,0.37755102040816324,0.37755102040816324,0.37755102040816324,0.37755102040816324,0.37755102040816324,0.37755102040816324,0.37755102040816324,0.37755102040816324,0.37755102040816324,0.37755102040816324,0.37755102040816324,0.37755102040816324,0.37755102040816324,0.37755102040816324,0.37755102040816324,0.37755102040816324,0.37755102040816324,0.37755102040816324,0.37755102040816324,0.37755102040816324,0.37755102040816324,0.37755102040816324,0.37755102040816324,0.37755102040816324,0.37755102040816324,0.37755102040816324,0.37755102040816324,0.37755102040816324,0.37755102040816324,0.37755102040816324,0.37755102040816324,0.37755102040816324,0.37755102040816324,0.37755102040816324,0.37755102040816324,0.37755102040816324,0.37755102040816324,0.37755102040816324,0.37755102040816324,0.37755102040816324,0.37755102040816324,0.37755102040816324,0.37755102040816324,0.37755102040816324,0.37755102040816324,0.37755102040816324,0.37755102040816324,0.37755102040816324,0.37755102040816324,0.37755102040816324,0.37755102040816324,0.37755102040816324,0.37755102040816324,0.37755102040816324,0.37755102040816324,0.37755102040816324,0.37755102040816324,0.37755102040816324,0.37755102040816324,0.37755102040816324,0.37755102040816324,0.37755102040816324,0.37755102040816324,0.37755102040816324,0.37755102040816324,0.37755102040816324,0.37755102040816324,0.37755102040816324,0.37755102040816324,0.37755102040816324,0.37755102040816324,0.37755102040816324,0.37755102040816324,0.37755102040816324,0.37755102040816324,0.37755102040816324,0.37755102040816324,0.37755102040816324,0.37755102040816324,0.37755102040816324,0.37755102040816324,0.37755102040816324,0.37755102040816324,0.37755102040816324,0.37755102040816324,0.37755102040816324,0.37755102040816324,0.37755102040816324,0.37755102040816324,0.37755102040816324,0.37755102040816324,0.37755102040816324,0.37755102040816324,0.37755102040816324,0.37755102040816324,0.37755102040816324,0.37755102040816324,0.37755102040816324,0.37755102040816324,0.37755102040816324,0.37755102040816324,0.37755102040816324,0.37755102040816324,0.37755102040816324,0.37755102040816324,0.37755102040816324,0.37755102040816324,0.37755102040816324,0.37755102040816324,0.37755102040816324,0.37755102040816324,0.37755102040816324,0.37755102040816324,0.37755102040816324,0.37755102040816324,0.37755102040816324,0.37755102040816324,0.37755102040816324,0.37755102040816324,0.37755102040816324,0.37755102040816324,0.37755102040816324,0.37755102040816324,0.37755102040816324,0.37755102040816324,0.37755102040816324,0.37755102040816324,0.37755102040816324,0.37755102040816324,0.37755102040816324,0.37755102040816324,0.37755102040816324,0.37755102040816324,0.37755102040816324,0.37755102040816324,0.37755102040816324,0.37755102040816324,0.37755102040816324,0.37755102040816324,0.37755102040816324,0.37755102040816324,0.37755102040816324,0.37755102040816324,0.37755102040816324,0.37755102040816324,0.37755102040816324,0.37755102040816324,0.37755102040816324,0.37755102040816324,0.37755102040816324,0.37755102040816324,0.37755102040816324,0.37755102040816324,0.37755102040816324,0.37755102040816324,0.37755102040816324,0.37755102040816324,0.37755102040816324,0.37755102040816324,0.37755102040816324,0.37755102040816324,0.37755102040816324,0.37755102040816324,0.37755102040816324,0.37755102040816324,0.37755102040816324,0.37755102040816324,0.37755102040816324,0.37755102040816324,0.37755102040816324,0.37755102040816324,0.37755102040816324,0.37755102040816324,0.37755102040816324,0.3741496598639456,0.3741496598639456,0.3707482993197279,0.3707482993197279,0.3673469387755102,0.36394557823129253,0.36054421768707484,0.35714285714285715,0.35374149659863946,0.35374149659863946,0.35034013605442177,0.35034013605442177,0.35034013605442177,0.3469387755102041,0.3469387755102041,0.3435374149659864,0.3435374149659864,0.3435374149659864,0.3435374149659864,0.3435374149659864,0.3435374149659864,0.3435374149659864,0.3469387755102041,0.35034013605442177,0.35714285714285715,0.3673469387755102,0.38095238095238093,0.4013605442176871,0.4217687074829932,0.4489795918367347,0.5034013605442177,0.5510204081632653,0.5952380952380952,0.6394557823129252,0.6802721088435374,0.7074829931972789,0.7278911564625851,0.7482993197278912,0.7653061224489796,0.7857142857142857,0.7925170068027211,0.7993197278911565,0.8027210884353742,0.8095238095238095,0.8129251700680272,0.8163265306122449,0.8197278911564626,0.8231292517006803,0.8231292517006803,0.8299319727891157,0.8333333333333334,0.8401360544217688,0.8469387755102041,0.8503401360544217,0.8503401360544217,0.8537414965986394,0.8571428571428571,0.8605442176870748,0.8605442176870748,0.8605442176870748,0.8605442176870748,0.8605442176870748,0.8571428571428571,0.8503401360544217,0.8367346938775511,0.8163265306122449,0.7789115646258503,0.7517006802721088,0.7210884353741497,0.6904761904761905,0.6700680272108843,0.6496598639455783,0.6360544217687075,0.6224489795918368,0.6122448979591837,0.5952380952380952,0.5850340136054422,0.5782312925170068,0.5680272108843537,0.5578231292517006,0.5510204081632653,0.5408163265306123,0.5340136054421769,0.5272108843537415,0.5170068027210885,0.5102040816326531,0.5,0.4897959183673469,0.48299319727891155,0.47278911564625853,0.46258503401360546,0.4557823129251701,0.4523809523809524,0.445578231292517,0.4421768707482993,0.4387755102040816,0.43197278911564624,0.42857142857142855,0.42517006802721086,0.4217687074829932,0.41836734693877553,0.41836734693877553,0.41496598639455784,0.41496598639455784,0.41156462585034015,0.40816326530612246,0.40816326530612246,0.40476190476190477,0.40476190476190477,0.40476190476190477,0.40476190476190477,0.40476190476190477,0.40476190476190477,0.40476190476190477,0.40816326530612246,0.41156462585034015,0.41496598639455784,0.4217687074829932,0.42857142857142855,0.43197278911564624,0.445578231292517,0.4557823129251701,0.46938775510204084,0.48639455782312924,0.4965986394557823,0.5136054421768708,0.5238095238095238,0.5340136054421769,0.5374149659863946,0.54421768707483,0.54421768707483,0.5476190476190477,0.5476190476190477,0.5476190476190477,0.5476190476190477,0.5476190476190477,0.5476190476190477,0.5476190476190477,0.5408163265306123,0.5340136054421769,0.5238095238095238,0.5204081632653061,0.5136054421768708,0.5068027210884354,0.5,0.4931972789115646,0.48639455782312924,0.47959183673469385,0.47619047619047616,0.47619047619047616,0.47278911564625853,0.47278911564625853,0.46938775510204084,0.46598639455782315,0.46598639455782315,0.46258503401360546,0.45918367346938777,0.45918367346938777,0.4557823129251701,0.4523809523809524,0.4489795918367347,0.4489795918367347,0.445578231292517,0.4421768707482993,0.4387755102040816,0.4387755102040816,0.43537414965986393,0.43197278911564624,0.43197278911564624,0.42857142857142855,0.42857142857142855,0.42857142857142855,0.42857142857142855,0.42857142857142855,0.42857142857142855,0.42857142857142855,0.42857142857142855,0.42857142857142855,0.42857142857142855,0.42857142857142855,0.42857142857142855,0.42857142857142855,0.42857142857142855,0.42857142857142855,0.42857142857142855,0.42857142857142855,0.42857142857142855,0.42857142857142855,0.43197278911564624,0.4387755102040816,0.445578231292517,0.4557823129251701,0.46258503401360546,0.47959183673469385,0.4931972789115646,0.5068027210884354,0.5204081632653061,0.5340136054421769,0.5476190476190477,0.5612244897959183,0.5850340136054422,0.5986394557823129,0.6122448979591837,0.6258503401360545,0.6360544217687075,0.6462585034013606,0.6564625850340136,0.6632653061224489,0.673469387755102,0.6768707482993197,0.6802721088435374,0.6802721088435374,0.6836734693877551,0.6870748299319728,0.6904761904761905,0.6904761904761905,0.6938775510204082,0.6938775510204082,0.6938775510204082,0.6938775510204082,0.6972789115646258,0.6972789115646258,0.6972789115646258,0.6972789115646258,0.6972789115646258,0.6972789115646258,0.6972789115646258,0.6972789115646258,0.6972789115646258,0.6972789115646258,0.6972789115646258,0.6972789115646258,0.6972789115646258,0.6972789115646258,0.6972789115646258,0.6972789115646258,0.6972789115646258,0.6972789115646258,0.6972789115646258,0.6972789115646258,0.6972789115646258,0.6972789115646258,0.6972789115646258,0.6972789115646258,0.6972789115646258,0.6972789115646258,0.6972789115646258,0.6972789115646258,0.6972789115646258,0.6972789115646258,0.6972789115646258,0.6972789115646258,0.6972789115646258,0.6972789115646258,0.6972789115646258,0.6972789115646258,0.6972789115646258,0.6972789115646258,0.6972789115646258,0.6972789115646258,0.6972789115646258,0.6972789115646258,0.6972789115646258,0.6972789115646258,0.6972789115646258,0.6972789115646258,0.6972789115646258,0.6972789115646258,0.6972789115646258,0.6972789115646258,0.6972789115646258,0.6972789115646258,0.6972789115646258,0.6972789115646258,0.6972789115646258,0.6972789115646258,0.6972789115646258,0.6972789115646258,0.6972789115646258,0.6972789115646258,0.6972789115646258,0.6972789115646258,0.6972789115646258,0.6972789115646258,0.6972789115646258,0.6972789115646258,0.6972789115646258,0.6972789115646258,0.6972789115646258,0.6972789115646258,0.6972789115646258,0.6972789115646258,0.6972789115646258,0.6972789115646258,0.6972789115646258,0.6972789115646258,0.6972789115646258,0.6972789115646258,0.6972789115646258,0.6972789115646258,0.6972789115646258,0.6972789115646258,0.6972789115646258,0.6972789115646258,0.6972789115646258,0.6972789115646258,0.6972789115646258,0.6972789115646258,0.6972789115646258,0.6972789115646258,0.6972789115646258,0.6972789115646258,0.6972789115646258,0.6972789115646258,0.6972789115646258,0.6972789115646258,0.6972789115646258,0.6972789115646258,0.6972789115646258,0.6972789115646258,0.6972789115646258,0.6972789115646258,0.6972789115646258,0.6972789115646258,0.6972789115646258,0.6972789115646258,0.6972789115646258,0.6972789115646258,0.6972789115646258,0.6972789115646258,0.6972789115646258,0.6972789115646258,0.6972789115646258,0.6972789115646258,0.6972789115646258,0.6972789115646258,0.6972789115646258,0.6972789115646258,0.6972789115646258,0.6938775510204082,0.6938775510204082,0.6938775510204082,0.6938775510204082,0.6938775510204082,0.6904761904761905,0.6904761904761905,0.6904761904761905,0.6870748299319728,0.6870748299319728,0.6870748299319728,0.6836734693877551,0.6802721088435374,0.6802721088435374,0.6768707482993197,0.673469387755102,0.673469387755102,0.6700680272108843,0.6666666666666666,0.6632653061224489,0.6598639455782312,0.6564625850340136,0.6530612244897959,0.6496598639455783,0.6428571428571429,0.6394557823129252,0.6326530612244898,0.6292517006802721,0.6258503401360545,0.6224489795918368,0.6156462585034014,0.6122448979591837,0.608843537414966,0.6054421768707483,0.6020408163265306,0.5986394557823129,0.5986394557823129,0.5952380952380952,0.5918367346938775,0.5918367346938775,0.5884353741496599,0.5884353741496599,0.5884353741496599,0.5850340136054422,0.5850340136054422,0.5850340136054422,0.5850340136054422,0.5850340136054422,0.5850340136054422,0.5850340136054422,0.5816326530612245,0.5816326530612245,0.5816326530612245,0.5816326530612245,0.5816326530612245,0.5816326530612245,0.5816326530612245,0.5816326530612245,0.5816326530612245,0.5816326530612245,0.5816326530612245,0.5816326530612245,0.5816326530612245,0.5782312925170068,0.5782312925170068,0.5782312925170068,0.5782312925170068,0.5782312925170068,0.5748299319727891,0.5748299319727891,0.5748299319727891,0.5748299319727891,0.5748299319727891,0.5748299319727891,0.5714285714285714,0.5714285714285714,0.5714285714285714,0.5714285714285714,0.5714285714285714,0.5714285714285714,0.5714285714285714,0.5714285714285714,0.5714285714285714,0.5714285714285714,0.5680272108843537,0.5680272108843537,0.5680272108843537,0.5680272108843537,0.5680272108843537,0.5680272108843537,0.5680272108843537,0.5680272108843537,0.5680272108843537,0.5680272108843537,0.5680272108843537,0.5680272108843537,0.5680272108843537,0.5680272108843537,0.5680272108843537,0.5680272108843537,0.5680272108843537,0.5680272108843537,0.5680272108843537,0.5680272108843537,0.5680272108843537,0.5680272108843537,0.5680272108843537,0.564625850340136,0.564625850340136,0.5612244897959183,0.5578231292517006,0.5544217687074829,0.5510204081632653,0.5476190476190477,0.5408163265306123,0.5374149659863946,0.5306122448979592,0.5272108843537415,0.5238095238095238,0.5204081632653061,0.5136054421768708,0.5102040816326531,0.5068027210884354,0.5,0.4965986394557823,0.4965986394557823,0.4931972789115646,0.4931972789115646,0.48639455782312924,0.48299319727891155,0.47959183673469385,0.47278911564625853,0.46598639455782315,0.4557823129251701,0.445578231292517,0.43197278911564624,0.4217687074829932,0.40476190476190477,0.3979591836734694,0.3945578231292517,0.391156462585034,0.391156462585034,0.391156462585034,0.391156462585034,0.391156462585034,0.391156462585034,0.391156462585034,0.391156462585034,0.391156462585034,0.3945578231292517,0.3979591836734694,0.4013605442176871,0.40476190476190477,0.40816326530612246,0.41156462585034015,0.41156462585034015,0.41496598639455784,0.41496598639455784,0.41496598639455784,0.41496598639455784,0.41496598639455784,0.41496598639455784,0.41496598639455784,0.41496598639455784,0.41496598639455784,0.41496598639455784,0.41496598639455784,0.41496598639455784,0.41496598639455784,0.41496598639455784,0.41496598639455784,0.41496598639455784,0.4149659863945