[{"success":true,"trial_type":"fullscreen","trial_index":0,"time_elapsed":7404,"internal_node_id":"0.0-0.0","protocol_sum":"","subject_identifier":428,"subject_sum":[128,43,144,106,24,89,30,173,138,109,216,9,178,98,172,228,198,92,22,232,151,100,196,10,227,38,207,207,248,17,225,12],"subject_pair":214,"STUDY_ID":"66a22c0758a3d5c9d26873c6","PROLIFIC_PID":"665787be40f706e2b22ce6c1","SESSION_ID":"66a2c9f9da1d14c7c153c848","practice_instructions":1,"leaderboard_instructions":1,"bonus":0,"reveal_word":false,"self_rating":"4","confidence":"64"},{"view_history":"[{\"page_index\":0,\"viewing_time\":4527.800000011921}]","rt":4528.100000008941,"trial_type":"instructions","trial_index":1,"time_elapsed":11929,"internal_node_id":"0.0-1.0","protocol_sum":"","subject_identifier":428,"subject_sum":[128,43,144,106,24,89,30,173,138,109,216,9,178,98,172,228,198,92,22,232,151,100,196,10,227,38,207,207,248,17,225,12],"subject_pair":214,"STUDY_ID":"66a22c0758a3d5c9d26873c6","PROLIFIC_PID":"665787be40f706e2b22ce6c1","SESSION_ID":"66a2c9f9da1d14c7c153c848","practice_instructions":1,"leaderboard_instructions":1,"bonus":0,"reveal_word":false,"self_rating":"4","confidence":"64"},{"view_history":"[{\"page_index\":0,\"viewing_time\":18992.40000000596}]","rt":18992.70000000298,"trial_type":"instructions","trial_index":2,"time_elapsed":30912,"internal_node_id":"0.0-2.0-0.0","protocol_sum":"","subject_identifier":428,"subject_sum":[128,43,144,106,24,89,30,173,138,109,216,9,178,98,172,228,198,92,22,232,151,100,196,10,227,38,207,207,248,17,225,12],"subject_pair":214,"STUDY_ID":"66a22c0758a3d5c9d26873c6","PROLIFIC_PID":"665787be40f706e2b22ce6c1","SESSION_ID":"66a2c9f9da1d14c7c153c848","practice_instructions":1,"leaderboard_instructions":1,"bonus":0,"reveal_word":false,"self_rating":"4","confidence":"64"},{"rt":9397.29999999702,"responses":"{\"Q0\":\"... reveal the word with as <b>few letter guesses</b> as possible\"}","question_order":"[0]","trial_type":"survey-multi-choice","trial_index":3,"time_elapsed":40310,"internal_node_id":"0.0-2.0-1.0","protocol_sum":"","subject_identifier":428,"subject_sum":[128,43,144,106,24,89,30,173,138,109,216,9,178,98,172,228,198,92,22,232,151,100,196,10,227,38,207,207,248,17,225,12],"subject_pair":214,"correct":true,"test_part":"multichoice_nonpretend","STUDY_ID":"66a22c0758a3d5c9d26873c6","PROLIFIC_PID":"665787be40f706e2b22ce6c1","SESSION_ID":"66a2c9f9da1d14c7c153c848","practice_instructions":1,"leaderboard_instructions":1,"bonus":0,"reveal_word":false,"self_rating":"4","confidence":"64"},{"view_history":"[{\"page_index\":0,\"viewing_time\":2116.0999999940395}]","rt":2116.5,"trial_type":"instructions","trial_index":4,"time_elapsed":42428,"internal_node_id":"0.0-3.0","protocol_sum":"","subject_identifier":428,"subject_sum":[128,43,144,106,24,89,30,173,138,109,216,9,178,98,172,228,198,92,22,232,151,100,196,10,227,38,207,207,248,17,225,12],"subject_pair":214,"STUDY_ID":"66a22c0758a3d5c9d26873c6","PROLIFIC_PID":"665787be40f706e2b22ce6c1","SESSION_ID":"66a2c9f9da1d14c7c153c848","practice_instructions":1,"leaderboard_instructions":1,"bonus":0,"reveal_word":false,"self_rating":"4","confidence":"64"},{"word":"ZEBRA","click_log":{"letter":["","A","E","H","M","J","T","Z","B","R"],"t":[0,3995.9000000059605,13811.10000000894,51969.60000000894,102416.10000000894,114982.30000001192,144985.80000001192,151828.10000000894,153681.60000000894,156257.20000000298],"hit":[null,1,1,0,0,0,0,1,1,1],"asked":["","A","AE","AEH","AEHM","AEHMJ","AEHMJT","AEHMJTZ","AEHMJTZB","AEHMJTZBR"],"word_state":["_____","____A","_E__A","_E__A","_E__A","_E__A","_E__A","ZE__A","ZEB_A","ZEBRA"]},"hover_log":{"letter":["?","?","?","?","?","?","?","?","?","?","?","?","?","?","?","?","?","?","?","?","?","?","?","?","?","?","?","?","?","?","?","?","?","?","?","?","?","?","?","?","?","?","?","?","?","?","?","?","?","?","?","?","?","?","?","?","?","?","?","?","?","?","?","?","?","?","?","?","?","?","?","?","?","?","?","?","?","?","?","?","?","?","?","?","?","?","?","?","K","K","?","?","?","?","?","?","?","?","?","?","?","?","?","?","?","?","?","?","?","?","?","?","?","?","?","?","?","?","?","?","?","?","?","?","?","?","?","?","?","?","?","?","?","?","?","?","?","?","?","?","?","?","?","?","?","?","?","?","?","?","?","?","?","?","?","?","?","?","?","?","?","?","?","?","?","?","?","?","?","?","?","?","?","?","?","?","?","?","?","?","?","?","?","?","?","?","?","?","?","?","?","?","?","?","?","?","?","?","?","?","?","?","?","?","?","?","?","?","?","?","?","?","?","?","?","?","?","?","?","A","A","A","A","A","A","A","A","A","A","A","A","A","A","A","A","A","A","A","A","A","A","A","A","A","A","A","A","A","A","A","A","A","A","A","A","A","A","A","A","A","A","A","A","A","A","A","A","A","A","A","A","A","A","A","A","A","A","A","A","A","A","A","A","A","A","A","A","A","A","A","A","A","A","A","A","A","A","A","A","A","A","A","A","A","A","A","A","A","A","A","A","A","K","T","?","?","?","?","?","?","?","?","?","?","?","?","?","?","?","?","?","?","?","?","?","?","?","?","?","?","?","?","?","?","?","?","?","?","?","?","?","?","?","?","?","?","?","?","?","?","?","?","?","?","?","?","?","?","?","?","?","?","?","?","?","?","?","?","?","?","?","?","?","?","?","?","?","?","?","?","?","?","?","?","?","?","?","?","?","?","?","?","?","?","?","?","?","?","?","?","?","?","?","?","?","?","?","?","?","?","?","?","?","?","?","?","?","?","?","?","?","?","?","?","?","?","?","?","?","?","?","?","?","?","?","?","?","?","?","?","?","?","?","?","?","?","?","?","?","?","?","?","?","?","?","?","?","?","?","?","?","?","?","?","?","?","?","?","?","?","?","?","?","?","?","?","?","?","?","?","?","?","?","?","?","?","?","?","?","?","?","?","?","?","?","?","?","?","?","?","?","?","?","?","?","?","?","?","?","?","?","?","?","?","?","?","?","?","?","?","?","?","?","?","?","?","?","?","?","?","?","?","?","?","?","?","?","?","?","?","?","?","?","?","?","?","?","?","?","?","?","?","?","?","?","?","?","?","?","?","?","?","?","?","?","?","?","?","?","?","?","?","?","?","?","?","?","?","?","?","?","?","?","?","?","?","?","?","?","?","?","?","?","?","?","?","?","?","?","?","?","?","?","?","?","?","?","?","?","?","?","?","?","?","?","?","?","?","?","?","?","?","?","?","?","?","?","?","?","?","?","?","?","?","?","?","?","?","?","?","?","?","?","?","?","?","?","?","?","?","?","?","?","?","?","?","?","?","?","?","?","?","?","?","?","?","?","?","?","?","?","?","?","?","?","?","?","?","?","?","?","?","?","?","?","?","?","?","?","?","?","?","?","?","?","?","?","?","?","?","?","?","?","?","?","?","?","?","?","?","?","?","?","?","?","?","?","?","?","?","?","?","?","?","?","?","?","?","?","?","?","?","?","?","?","?","?","?","?","?","?","?","?","?","?","?","?","?","?","?","?","?","?","?","?","?","?","?","?","?","?","?","?","?","W","W","?","?","?","?","?","?","?","?","?","?","?","?","?","?","?","?","?","N","N","N","N","N","?","?","?","?","?","?","?","?","E","E","E","E","E","E","E","E","E","E","E","E","E","E","E","E","E","E","E","E","E","E","E","E","E","E","E","E","E","E","E","E","E","E","E","E","E","E","E","E","E","E","E","E","E","E","E","E","E","E","E","E","E","E","E","E","E","E","E","E","E","E","E","E","E","E","E","E","E","E","E","E","E","E","E","E","E","E","E","E","E","E","E","E","E","E","E","E","E","E","E","E","E","E","E","E","E","E","E","E","E","E","E","E","E","E","E","E","E","E","E","E","E","E","E","E","E","E","E","E","E","E","E","E","E","E","E","E","E","E","E","E","E","E","E","E","E","E","E","E","E","E","E","E","E","E","E","E","E","E","E","E","E","E","E","E","E","E","E","E","E","E","E","E","E","E","E","E","E","E","E","E","E","E","E","E","E","E","E","E","E","E","E","E","E","E","E","E","E","E","E","E","E","E","E","E","E","E","E","E","E","E","E","E","E","E","E","E","E","E","E","E","E","E","E","E","E","E","E","E","E","E","E","E","E","E","E","E","E","E","E","E","E","E","E","E","E","E","E","E","E","E","E","E","E","E","E","E","E","E","E","E","E","E","E","E","E","E","E","E","E","E","E","E","E","E","E","E","E","E","E","E","E","E","E","E","E","E","E","E","E","E","E","E","E","E","E","E","E","E","E","E","E","E","E","E","E","E","E","E","E","E","E","E","E","E","E","E","E","E","E","E","E","E","E","E","E","E","E","E","E","E","E","E","E","E","E","E","E","E","E","E","E","E","E","E","E","E","E","E","E","E","E","E","E","E","E","E","E","E","E","E","E","E","E","E","E","E","E","E","E","E","E","E","E","E","E","E","E","E","E","E","E","E","E","E","E","E","E","E","E","E","E","E","E","E","E","E","E","E","E","E","E","E","E","E","E","E","E","E","E","E","E","E","E","E","E","E","E","E","E","E","E","E","E","E","E","E","E","E","E","E","E","E","E","E","E","E","E","E","E","E","E","E","E","E","E","E","E","E","E","E","E","E","E","E","E","E","E","E","E","E","E","E","E","E","E","E","E","E","E","E","E","E","E","E","E","E","E","E","E","E","E","E","E","E","E","E","E","E","E","E","E","E","E","E","E","E","E","E","E","E","E","E","E","E","E","E","E","E","E","E","E","E","E","E","E","E","E","E","E","E","E","E","E","E","E","E","E","E","E","E","E","E","E","E","E","E","E","E","E","E","E","E","E","E","E","E","E","E","E","E","E","E","E","E","E","E","E","E","E","E","E","E","E","E","E","E","E","E","E","E","E","E","E","E","E","E","E","E","E","E","E","E","E","E","E","E","E","E","E","E","E","E","E","E","E","E","E","E","E","E","E","E","E","E","E","E","E","E","E","E","E","E","E","E","E","E","E","E","E","E","E","E","E","E","E","E","E","E","E","E","E","E","E","E","E","E","E","E","E","E","E","E","E","E","E","E","E","E","E","E","E","E","E","E","E","E","E","E","E","E","E","E","E","E","E","E","E","E","E","E","E","E","E","E","E","E","E","E","E","E","E","E","E","E","E","E","E","E","E","E","E","E","E","E","E","E","E","E","E","E","E","E","E","E","E","E","E","E","E","E","E","E","E","E","E","E","E","E","E","E","E","E","E","E","E","E","E","E","E","E","E","E","E","E","E","E","E","E","E","E","E","E","E","E","E","E","E","E","E","E","E","E","E","E","E","E","E","E","E","E","E","E","E","E","E","E","E","E","E","E","E","E","E","E","E","E","E","E","E","E","E","E","E","E","E","E","E","E","E","E","E","E","E","E","E","E","E","E","E","E","E","E","E","E","E","E","E","E","E","E","E","E","E","E","E","E","E","E","E","E","E","E","E","E","E","E","E","E","E","E","E","E","E","E","E","E","E","E","E","E","E","E","E","E","E","E","E","E","E","E","E","E","E","E","E","E","E","E","E","E","E","E","E","E","E","E","E","E","E","E","E","E","E","E","E","E","E","E","E","E","E","E","E","E","E","E","E","E","E","E","E","E","E","E","E","E","E","E","E","E","E","E","E","E","E","E","E","E","E","E","E","E","E","E","E","E","E","E","E","E","E","E","E","E","E","E","E","E","E","E","E","E","E","E","E","E","E","E","E","E","E","E","E","E","E","E","E","E","E","E","E","E","E","E","E","E","E","E","E","E","E","E","E","E","E","E","E","E","E","E","E","E","E","E","E","E","E","E","E","E","E","E","E","E","E","E","E","E","E","E","E","E","E","E","E","E","E","E","E","E","E","E","E","E","E","E","E","E","E","E","E","E","E","E","E","E","E","E","E","E","E","E","E","E","E","E","E","E","E","E","E","E","E","E","E","E","E","E","E","E","E","E","E","E","E","E","E","E","E","E","E","E","E","E","E","E","E","E","E","E","E","E","E","E","E","E","E","E","E","E","E","E","E","E","E","E","E","E","E","E","E","E","E","E","E","E","E","E","E","E","E","E","E","E","E","E","E","E","E","E","E","E","E","E","E","E","E","E","E","E","E","E","E","E","E","E","E","E","E","E","E","E","E","E","E","E","E","E","E","E","E","E","E","E","E","E","E","E","E","E","E","E","E","E","E","E","E","E","E","E","E","E","E","E","E","E","E","E","E","E","E","E","E","E","E","E","E","E","E","E","E","E","E","E","E","E","E","E","E","E","E","E","E","E","E","E","E","E","E","E","E","E","E","E","E","E","E","E","E","E","E","E","E","E","E","E","E","E","E","E","E","E","E","E","E","E","E","E","E","E","E","E","E","E","E","E","E","E","E","E","E","E","E","E","E","E","E","E","E","E","E","E","E","E","E","E","E","E","E","E","E","E","E","E","E","E","E","E","E","E","E","E","E","E","E","E","E","E","E","E","E","E","E","E","E","E","E","E","E","E","E","E","E","E","E","E","E","E","E","E","E","E","E","E","E","E","E","E","E","E","E","E","E","E","E","E","E","E","E","E","E","E","E","E","E","E","E","E","E","E","E","E","E","E","E","E","E","E","E","E","E","E","E","E","E","E","E","E","E","E","E","E","E","E","E","E","E","E","E","E","E","E","E","E","E","E","E","E","E","E","E","E","E","E","E","E","E","E","E","E","E","E","E","E","E","E","E","E","E","E","E","E","E","E","E","E","E","E","E","E","E","E","E","E","E","E","E","E","E","E","E","E","E","E","E","E","E","E","E","E","E","E","E","E","E","E","E","E","E","E","E","E","E","E","E","E","E","E","E","E","E","E","E","E","E","E","E","E","E","E","E","E","E","E","E","E","E","E","E","E","E","E","E","E","E","E","E","E","E","E","E","E","E","E","E","E","E","E","E","E","E","E","E","E","E","E","E","E","E","E","E","E","E","E","E","E","E","E","E","E","E","E","E","E","E","E","E","E","E","E","E","E","E","E","E","E","E","E","E","E","E","E","E","E","E","E","E","E","E","E","E","E","E","E","E","E","E","E","E","E","E","E","E","E","E","E","E","E","E","E","E","E","E","E","E","E","E","E","E","E","E","E","E","E","E","E","E","E","E","E","E","E","E","E","E","E","E","E","E","E","E","E","E","E","E","E","E","E","E","E","E","E","E","E","E","E","E","E","E","E","E","E","E","E","E","E","E","E","E","E","E","E","E","E","E","E","E","E","E","E","E","E","E","E","E","E","E","E","E","E","E","E","E","E","E","E","E","E","E","E","E","E","E","E","E","E","E","E","E","E","E","E","E","E","E","E","E","E","E","E","E","E","E","E","E","E","E","E","E","E","E","E","E","E","E","E","E","E","E","E","E","E","E","E","E","E","E","E","E","E","E","E","E","E","E","E","E","E","E","E","E","E","E","E","E","E","E","E","E","E","E","E","E","E","E","E","E","E","E","E","E","E","E","E","E","E","E","E","E","E","E","E","E","E","E","E","E","E","E","E","E","E","E","E","E","E","E","E","E","E","E","E","E","E","E","E","E","E","E","E","E","E","E","E","E","E","E","E","E","E","E","E","E","E","E","E","E","E","E","E","E","E","E","E","E","E","E","E","E","E","E","E","E","E","E","E","E","E","E","E","E","E","E","E","E","E","E","E","E","E","E","E","E","E","E","E","E","E","E","E","E","E","E","E","E","E","E","E","E","E","E","E","E","E","E","E","E","E","E","E","E","E","E","E","E","E","E","E","E","E","E","E","E","E","E","E","E","E","E","E","E","E","E","E","E","E","E","E","E","E","E","E","E","E","E","E","E","E","E","E","E","E","E","E","E","E","E","E","E","E","E","E","E","E","E","E","E","E","E","E","E","E","E","E","E","E","E","E","E","E","E","E","E","E","E","E","E","E","E","E","E","E","E","E","E","E","E","E","E","E","E","E","E","E","E","E","E","E","E","E","E","E","E","E","E","E","E","E","E","E","E","E","E","E","E","E","E","E","E","E","E","E","E","E","E","E","E","E","E","E","E","E","E","E","E","E","E","E","E","E","E","E","E","E","E","E","E","E","E","E","E","E","E","E","E","E","E","E","E","E","E","E","E","E","E","E","E","E","E","E","E","E","E","E","E","E","E","E","E","E","E","E","E","E","E","E","E","E","E","E","E","E","E","E","E","E","E","E","E","E","E","E","E","E","E","E","E","E","E","E","E","E","E","E","E","E","E","E","E","E","E","E","E","E","E","E","E","E","E","E","E","E","E","E","E","E","E","E","E","E","E","E","E","E","E","E","E","E","E","E","E","E","E","E","E","E","E","E","E","E","E","E","E","E","E","E","E","E","E","E","E","E","E","E","E","E","E","E","E","E","E","E","E","E","E","E","E","E","E","E","E","E","E","E","E","E","E","E","E","E","E","E","E","E","E","E","E","E","E","E","E","E","E","E","E","E","E","E","E","E","E","E","E","E","E","E","E","E","E","E","E","E","E","E","E","E","E","E","E","E","E","E","E","E","E","E","E","E","E","E","E","E","E","E","E","E","E","E","E","E","E","E","E","E","E","E","E","E","E","E","E","E","E","E","E","E","E","E","E","E","E","E","E","E","E","E","E","E","E","E","E","E","E","E","E","E","E","E","E","E","E","E","E","E","E","E","E","E","E","E","E","E","E","E","E","E","E","E","E","E","E","E","E","E","E","E","E","E","E","E","E","E","E","E","E","E","E","E","E","E","E","E","E","E","E","E","E","E","E","E","E","?","?","F","F","F","F","F","?","G","G","G","G","?","H","H","H","H","H","H","H","H","H","H","H","H","H","H","H","H","H","H","H","H","H","H","H","H","H","H","H","H","H","H","H","H","H","H","H","H","H","H","H","H","H","H","H","H","H","H","H","H","H","H","H","H","H","H","H","H","H","H","H","H","H","H","H","H","H","H","H","H","H","H","H","?","?","?","?","?","?","?","?","?","?","?","?","?","?","?","?","?","?","?","?","?","?","?","?","?","?","?","?","?","?","?","?","?","?","?","?","?","?","?","?","?","?","?","?","?","?","?","?","?","?","?","?","?","?","?","?","?","?","?","?","?","?","?","?","?","?","?","?","?","?","?","?","?","?","?","?","?","?","?","?","?","?","?","?","?","?","?","?","?","?","?","?","?","?","?","?","?","?","?","?","?","?","?","?","?","?","?","?","?","?","?","?","?","?","?","?","?","?","?","?","?","?","?","?","?","?","?","?","?","?","?","?","?","?","?","?","?","?","?","?","?","?","?","?","?","?","?","?","?","?","?","?","?","?","?","?","?","?","?","?","?","?","?","?","?","?","?","?","?","?","?","?","?","?","?","?","?","?","?","?","?","?","?","?","?","?","?","?","?","?","?","?","?","?","?","?","?","?","?","?","?","?","?","?","?","?","?","?","?","?","?","?","?","?","?","?","?","?","?","?","?","?","?","?","?","?","?","?","?","?","?","?","?","?","?","?","?","?","?","?","?","?","?","?","?","?","?","?","?","?","?","?","?","?","?","?","?","?","?","?","?","?","?","?","?","?","?","?","?","?","?","?","?","?","?","?","?","?","?","?","?","?","?","?","?","?","?","?","?","?","?","?","?","?","?","?","?","?","?","?","?","?","?","?","?","?","?","?","?","?","?","?","?","?","?","?","?","?","?","?","?","?","?","?","?","?","?","?","?","?","?","?","?","?","?","?","?","?","?","?","?","?","?","?","?","?","?","?","?","?","?","?","?","?","?","?","?","?","?","?","?","?","?","?","?","?","?","?","?","?","?","?","?","?","?","?","?","?","?","?","?","?","?","?","?","?","?","?","?","?","?","?","?","?","?","?","?","?","?","?","?","?","?","?","?","?","?","?","?","?","?","?","?","?","?","?","?","?","?","?","?","?","?","?","?","?","?","?","?","?","?","?","?","?","?","?","?","?","?","?","?","?","?","?","?","?","?","?","?","?","?","?","?","?","?","?","?","?","?","?","?","?","?","?","?","?","?","?","?","?","?","?","?","?","?","?","?","?","?","?","?","?","?","?","?","?","?","?","?","?","?","?","?","?","?","?","?","?","?","?","?","?","?","?","?","?","?","?","?","?","?","?","?","?","?","?","?","?","?","?","?","?","?","?","?","?","?","?","?","?","?","?","?","?","?","?","?","?","?","?","?","?","?","?","?","?","?","?","?","?","?","?","?","?","?","?","?","?","?","?","?","?","?","?","?","?","?","?","?","?","?","?","?","?","?","?","?","?","?","?","?","?","?","?","?","?","?","?","?","?","?","?","?","?","?","?","?","?","?","?","?","?","?","?","?","?","?","?","?","?","?","?","?","?","?","?","?","?","?","?","?","?","?","?","?","?","?","?","?","?","?","?","?","?","?","?","?","?","?","?","?","?","?","?","?","?","?","?","?","?","?","?","?","?","?","?","?","?","?","?","?","?","?","?","?","?","?","?","?","?","?","?","?","?","?","?","?","?","?","?","?","?","?","?","?","?","?","?","?","?","?","?","?","?","?","?","?","?","?","?","?","?","?","?","?","?","?","?","?","?","?","?","?","?","?","?","?","?","?","?","?","?","?","?","?","?","?","?","?","?","?","?","?","?","?","?","?","?","?","?","?","?","?","?","?","?","?","?","?","?","?","?","?","?","?","?","?","?","?","?","?","?","?","?","?","?","?","?","?","?","?","?","?","?","?","?","?","?","?","?","?","?","?","?","?","?","?","?","?","?","?","?","?","?","?","?","?","?","?","?","?","?","?","?","?","?","?","?","?","?","?","?","?","?","?","?","?","?","?","?","?","?","?","?","?","?","?","?","?","?","?","?","?","?","?","?","?","?","?","?","?","?","?","?","?","?","?","?","?","?","?","?","?","?","?","?","?","?","?","?","?","?","?","?","?","?","?","?","?","?","?","?","?","?","?","?","?","?","?","?","?","?","?","?","?","?","?","?","?","?","?","?","?","?","?","?","?","?","?","?","?","?","?","?","?","?","?","?","?","?","?","?","?","?","?","?","?","?","?","?","?","?","?","?","?","?","?","?","?","?","?","?","?","?","?","?","?","?","?","?","?","?","?","?","?","?","?","?","?","?","?","?","?","?","?","?","?","?","?","?","?","?","?","?","?","?","?","?","?","?","?","?","?","?","?","?","?","?","?","?","?","?","?","?","?","?","?","?","?","?","?","?","?","?","?","?","?","?","?","?","?","?","?","?","?","?","?","?","?","?","?","?","?","?","?","?","?","?","?","?","?","?","?","?","?","?","?","?","?","?","?","?","?","?","?","?","?","?","?","?","?","?","?","?","?","?","?","?","?","?","?","?","?","?","?","?","?","?","?","?","?","?","?","?","?","?","?","?","?","?","?","?","?","?","?","?","?","?","?","?","?","?","?","?","?","?","?","?","?","?","?","?","?","?","?","?","?","?","?","?","?","?","?","?","?","?","?","?","?","?","?","?","?","?","?","?","?","?","?","?","?","?","?","?","?","?","?","?","?","?","?","?","?","?","?","?","?","?","?","?","?","?","?","?","?","?","?","?","?","?","?","?","?","?","?","?","?","?","?","?","?","?","?","?","?","?","?","?","?","?","?","?","?","?","?","?","?","?","?","?","?","?","?","?","?","?","?","?","?","?","?","?","?","?","?","?","?","?","?","?","?","?","?","?","?","?","?","?","?","?","?","?","?","?","?","?","?","?","?","?","?","?","?","?","?","?","?","?","?","?","?","?","?","?","?","?","?","?","?","?","?","?","?","?","?","?","?","?","?","?","?","?","?","?","?","?","?","?","?","?","?","?","?","?","?","?","?","?","?","?","?","?","?","?","?","?","?","?","?","?","?","?","?","?","?","?","?","?","?","?","?","?","?","?","?","?","?","?","?","?","?","?","?","?","?","?","?","?","?","?","?","?","?","?","?","?","?","?","?","?","?","?","?","?","?","?","?","?","?","?","?","?","?","?","?","?","?","?","?","?","?","?","?","?","?","?","?","?","?","?","?","?","?","?","?","?","?","?","?","?","?","?","?","?","?","?","?","?","?","?","?","?","?","?","?","?","?","?","?","?","?","?","?","?","?","?","?","?","?","?","?","?","?","?","?","?","?","?","?","?","?","?","?","?","?","?","?","?","?","?","?","?","?","?","?","?","?","?","?","?","?","?","?","?","?","?","?","?","?","?","?","?","?","?","?","?","?","?","?","?","?","?","?","?","?","?","?","?","?","?","?","?","?","?","?","?","?","?","?","?","?","?","?","?","?","?","?","?","?","?","?","?","?","?","?","?","?","?","?","?","?","?","?","?","?","?","?","?","?","?","?","?","?","?","?","?","?","?","?","?","?","?","?","?","?","?","?","?","?","?","?","?","?","?","?","?","?","?","?","?","?","?","?","?","?","?","?","?","?","?","?","?","?","?","?","?","?","?","?","?","?","?","?","?","?","?","?","?","?","?","?","?","?","?","?","?","?","?","?","?","?","?","?","?","?","?","?","?","?","?","?","?","?","?","?","?","?","?","?","?","?","?","?","?","?","?","?","?","?","?","?","?","?","?","?","?","?","?","?","?","?","?","?","?","?","?","?","?","?","?","?","?","?","?","?","?","?","?","?","?","?","?","?","?","?","?","?","?","?","?","?","?","?","?","?","?","?","?","?","?","?","?","?","?","?","?","?","?","?","?","?","?","?","?","?","?","?","?","?","?","?","?","?","?","?","?","?","?","?","?","?","?","?","?","?","?","?","?","?","?","?","?","?","?","?","?","?","?","?","?","?","?","?","?","?","?","?","?","?","?","?","?","?","?","?","?","?","?","?","?","?","?","?","?","?","?","?","?","?","?","?","?","?","?","?","?","?","?","?","?","?","?","?","?","?","?","?","?","?","?","?","?","?","?","?","?","?","?","?","?","?","?","?","?","?","?","?","?","?","?","?","?","?","?","?","?","?","?","?","?","?","?","?","?","?","?","?","?","?","?","?","?","?","?","?","?","?","?","?","?","?","?","?","?","?","?","?","?","?","?","?","?","?","?","?","?","?","?","?","?","?","?","?","?","?","?","?","?","?","?","?","?","?","?","?","?","?","?","?","?","?","?","?","?","?","?","?","?","?","?","?","?","?","?","?","?","?","?","?","?","?","?","?","?","?","?","?","?","?","?","?","?","?","?","?","?","?","?","?","?","?","?","?","?","?","?","?","?","?","?","?","?","?","?","?","?","?","?","?","?","?","?","?","?","?","?","?","?","?","?","?","?","?","?","?","?","?","?","?","?","?","?","?","?","?","?","?","?","?","?","?","?","?","?","?","?","?","?","?","?","?","?","?","?","?","?","?","?","?","?","?","?","?","?","?","?","?","?","?","?","?","?","?","?","?","?","?","?","?","?","?","?","?","?","?","?","?","?","?","?","?","?","?","?","?","?","?","?","?","?","?","?","?","?","?","?","?","?","?","?","?","?","?","?","?","?","?","?","?","?","?","?","?","?","?","?","?","?","?","?","?","?","?","?","?","?","?","?","?","?","?","?","?","?","?","?","?","?","?","?","?","?","?","?","?","?","?","?","?","?","?","?","?","?","?","?","?","?","?","?","?","?","?","?","?","?","?","?","?","?","?","?","?","?","?","?","?","?","?","?","?","?","?","?","?","?","?","?","?","?","?","?","?","?","?","?","?","?","?","?","?","?","?","?","?","?","?","?","?","?","?","?","?","?","?","?","?","?","?","?","?","?","?","?","?","?","?","?","?","?","?","?","?","?","?","?","?","?","?","?","?","?","?","?","?","?","?","?","?","?","?","?","?","?","?","?","?","?","?","?","?","?","?","?","?","?","?","?","?","?","?","?","?","?","?","?","?","?","?","?","?","?","?","?","?","?","?","?","?","?","?","?","?","?","?","?","?","?","?","?","?","?","?","?","?","?","?","?","?","?","?","?","?","?","?","?","?","?","?","?","?","?","?","?","?","?","?","?","?","?","?","?","?","?","?","?","?","?","?","?","?","?","?","?","?","?","?","?","?","?","?","?","?","?","?","?","?","?","?","?","?","?","?","?","?","?","?","?","?","?","?","?","?","?","?","?","?","?","?","?","?","?","?","?","?","?","?","?","?","?","?","?","?","?","?","?","?","?","?","?","?","?","?","?","?","?","?","?","?","?","?","?","?","?","?","?","?","?","?","?","?","?","?","?","?","?","?","?","?","?","?","?","?","?","?","?","?","?","?","?","?","?","?","?","?","?","?","?","?","?","?","?","?","?","?","?","?","?","?","?","?","?","?","?","?","?","?","?","?","?","?","?","?","?","?","?","?","?","?","?","?","?","?","?","?","?","?","?","?","?","?","?","?","?","?","?","?","?","?","?","?","?","?","?","?","?","?","?","?","?","?","?","?","?","?","?","?","?","?","?","?","?","?","?","?","?","?","?","?","?","?","?","?","?","?","?","?","?","?","?","?","?","?","?","?","?","?","?","?","?","?","?","?","?","?","?","?","?","?","?","?","?","?","?","?","?","?","?","?","?","?","?","?","?","?","?","?","?","?","?","?","?","?","?","?","?","?","?","?","?","?","?","?","?","?","?","?","?","?","?","?","?","?","?","?","?","?","?","?","?","?","?","?","?","?","?","?","?","?","?","?","?","?","?","?","?","?","?","?","?","?","?","?","?","?","?","?","?","?","?","?","?","?","?","?","?","?","?","?","?","?","?","?","?","?","?","?","?","?","?","?","?","?","?","?","?","?","?","?","?","?","?","?","?","?","?","?","?","?","?","?","?","?","?","?","?","?","?","?","?","?","?","?","?","?","?","?","?","?","?","?","?","?","?","?","?","?","?","?","?","?","?","?","?","?","?","?","?","?","?","?","?","?","?","?","?","?","?","?","?","?","?","?","?","?","?","?","?","?","?","?","?","?","?","?","?","?","?","?","?","?","?","?","?","?","?","?","?","?","?","?","?","?","?","?","?","?","?","?","?","?","?","?","?","?","?","?","?","?","?","?","?","?","?","?","?","?","?","?","?","?","?","?","?","?","?","?","?","?","?","?","?","?","?","?","?","?","?","?","?","?","?","?","?","?","?","?","?","?","?","?","?","?","?","?","?","?","?","?","?","?","?","?","?","?","?","?","?","?","?","?","?","?","?","?","?","?","?","?","?","?","?","?","?","?","?","?","?","?","?","?","?","?","?","?","?","?","?","?","?","?","?","?","?","?","?","?","?","?","?","?","?","?","?","?","?","?","?","?","?","?","?","?","?","?","?","?","?","?","?","?","?","?","?","?","?","?","?","?","?","?","?","?","?","?","?","?","?","?","?","?","?","?","?","?","?","?","?","?","?","?","?","?","?","?","?","?","?","?","?","?","?","?","?","?","?","?","?","?","?","?","?","?","?","?","?","?","?","?","?","?","?","?","?","?","?","?","?","?","?","?","?","?","?","?","?","?","?","?","?","?","?","?","?","?","?","?","?","?","?","?","?","?","?","?","?","?","?","?","?","?","?","?","?","?","?","?","?","?","?","?","?","?","?","?","?","?","?","?","?","?","?","?","?","?","?","?","?","?","?","?","?","?","?","?","?","?","?","?","?","?","?","?","?","?","?","N","M","?","L","L","L","L","L","L","L","L","L","L","L","L","L","L","L","?","M","M","M","M","M","M","M","M","M","M","M","M","M","M","M","M","M","M","M","M","M","M","M","M","M","M","M","M","M","M","M","M","M","M","M","M","M","M","M","M","M","M","M","M","M","M","M","M","M","M","M","M","M","M","M","M","M","M","M","M","M","M","M","M","M","M","M","M","M","M","M","M","M","M","M","M","M","M","M","M","M","M","M","M","M","M","M","M","M","M","M","M","M","M","M","M","M","M","M","M","M","M","M","M","M","M","M","M","M","M","M","M","M","M","M","M","M","M","M","M","M","M","M","M","M","M","M","M","M","M","M","M","M","M","M","M","M","M","M","M","M","M","M","M","M","M","M","M","M","M","M","M","M","M","M","M","M","M","M","M","M","M","M","M","M","M","M","M","M","M","M","M","M","M","M","M","M","M","M","M","M","M","M","M","M","M","M","M","M","M","M","M","M","M","M","M","M","M","M","M","M","M","M","M","M","M","M","M","M","M","M","M","M","M","M","M","M","M","M","M","M","M","M","M","M","M","M","M","M","M","M","M","M","M","M","M","M","M","M","M","M","M","M","M","M","M","M","M","M","M","M","M","M","M","M","M","M","M","M","M","M","M","M","M","M","M","M","M","M","M","M","M","M","M","M","M","M","M","M","M","M","M","M","M","M","M","M","M","M","M","M","M","M","M","M","M","M","M","M","M","M","M","M","M","M","M","M","M","M","M","M","M","M","M","M","M","M","M","M","M","M","M","M","M","M","M","M","M","M","M","M","M","M","M","M","M","M","M","M","M","M","M","M","M","M","M","M","M","M","M","M","M","M","M","M","M","M","M","M","M","M","M","M","M","M","M","M","M","M","M","M","M","M","M","M","M","M","M","M","M","M","M","M","M","M","M","M","M","M","M","M","M","M","M","M","M","M","M","M","M","M","M","M","M","M","M","M","M","M","M","M","M","M","M","M","M","M","M","M","M","M","M","M","M","M","M","M","M","M","M","M","M","M","M","M","M","M","M","M","M","M","M","M","M","M","M","M","M","M","M","M","M","M","M","M","M","M","M","M","M","M","M","M","M","M","M","M","M","M","M","M","M","M","M","M","M","M","M","M","M","M","M","M","M","M","M","M","M","M","M","M","M","M","M","M","M","M","M","M","M","M","M","M","M","M","M","M","M","M","M","M","M","M","M","M","M","M","M","M","M","M","M","M","M","M","M","M","M","M","M","M","M","M","M","M","M","M","M","M","M","M","M","M","M","M","M","M","M","M","M","M","M","M","M","M","M","M","M","M","M","M","M","M","M","M","M","M","M","M","M","M","M","M","M","M","M","M","M","M","M","M","M","M","M","M","M","M","M","M","M","M","M","M","M","M","M","M","M","M","M","M","M","M","M","M","M","M","M","M","M","M","M","M","M","M","M","M","M","M","M","M","M","M","M","M","M","M","M","M","M","M","M","M","M","M","M","M","M","M","M","M","M","M","M","M","M","M","M","M","M","M","M","M","M","M","M","M","M","M","M","M","M","M","M","M","M","M","M","M","M","M","M","M","M","M","M","M","M","M","M","M","M","M","M","M","M","M","M","M","M","M","M","M","M","M","M","M","M","M","M","M","M","M","M","M","M","M","M","M","M","M","M","M","M","M","M","M","M","M","M","M","M","M","M","M","M","M","?","L","L","L","L","?","?","?","?","K","K","K","K","K","K","K","K","K","K","K","K","?","?","?","?","J","J","J","J","J","J","J","J","J","J","J","J","J","J","J","J","J","J","J","J","J","J","J","J","J","J","J","J","J","J","J","J","J","J","J","J","J","J","J","J","J","J","J","J","J","J","J","J","J","J","J","J","J","J","J","J","J","J","J","J","J","J","J","J","J","J","J","J","J","J","J","J","J","J","J","J","J","J","J","J","J","J","J","J","J","J","J","J","J","J","J","J","J","J","J","J","J","J","J","J","J","J","J","J","J","J","J","J","J","J","J","J","J","J","J","J","J","J","J","J","J","J","J","J","J","J","J","J","J","J","J","J","J","J","J","J","J","J","J","J","J","J","J","J","J","J","J","J","J","J","J","J","J","J","J","J","J","J","J","J","J","J","J","J","J","J","J","J","J","J","J","J","J","J","J","J","J","J","J","J","J","J","J","J","J","J","J","J","J","J","J","J","J","J","J","J","J","J","J","J","J","J","J","J","J","J","J","J","J","J","J","J","J","J","J","J","J","J","J","J","J","J","J","J","J","J","J","J","J","J","J","J","J","J","J","J","J","J","J","J","J","J","J","J","J","J","J","J","J","J","J","J","J","J","J","J","J","J","J","J","J","J","J","J","J","J","J","J","J","J","J","J","J","J","J","J","J","J","J","J","J","J","J","J","J","J","J","J","J","J","J","J","J","J","J","J","J","J","J","J","J","J","J","J","J","J","J","J","J","J","J","J","J","J","J","J","J","J","J","J","J","J","J","J","J","J","J","J","J","J","J","J","J","J","J","J","J","J","J","J","J","J","J","J","J","J","J","J","J","J","J","J","J","J","J","J","J","J","J","J","J","J","J","J","J","J","J","J","J","J","J","J","J","J","J","J","J","J","J","J","J","J","J","J","J","J","J","J","J","J","J","J","J","J","J","J","J","J","J","J","J","J","J","J","J","J","J","J","J","J","J","J","J","J","J","J","J","J","J","J","J","J","J","J","J","J","J","J","J","J","J","J","J","J","J","J","J","J","J","J","J","J","J","J","J","J","J","J","J","J","J","J","J","J","J","J","J","J","J","J","J","J","J","J","J","J","J","J","J","J","J","J","J","J","J","J","J","J","J","J","J","J","J","J","J","J","J","J","J","J","J","J","J","J","J","J","J","J","J","J","J","J","J","J","J","J","J","J","J","J","J","J","J","J","J","J","J","J","J","J","J","J","J","J","J","J","J","J","J","J","J","J","J","J","J","J","J","J","J","J","J","J","J","J","J","J","J","J","J","J","J","J","J","J","J","J","J","J","J","J","J","J","J","J","J","J","J","J","J","J","J","J","J","J","J","J","J","J","J","J","J","J","J","J","J","J","J","J","J","J","J","J","J","J","J","J","J","J","J","J","J","J","J","J","J","J","J","J","J","J","J","J","J","J","J","J","J","J","J","J","J","J","J","J","J","J","J","J","J","J","J","J","J","J","J","J","J","J","J","J","J","J","J","J","J","J","J","J","J","J","J","J","J","J","J","J","J","J","J","J","J","J","J","J","J","J","J","J","J","J","J","J","J","J","J","J","J","J","J","J","J","J","J","J","J","J","J","J","J","J","J","J","J","J","J","J","J","J","J","J","J","J","J","J","J","J","J","J","J","J","J","J","J","J","J","J","J","J","J","J","J","J","J","J","J","J","J","J","J","J","J","J","J","J","J","J","J","J","J","J","J","J","J","J","J","J","J","J","J","J","J","J","J","J","J","J","J","J","J","J","J","J","J","J","J","J","J","J","J","J","J","J","J","J","J","J","J","J","J","J","J","J","J","J","J","J","J","J","J","J","J","J","J","J","J","J","J","J","J","J","J","J","J","J","J","J","J","J","J","J","J","J","J","J","J","J","J","J","J","J","J","J","J","J","J","J","J","J","J","J","J","J","J","J","J","J","J","J","J","J","J","J","J","J","J","J","J","J","J","J","J","J","J","J","J","J","J","J","J","J","J","J","J","J","J","J","J","J","J","J","J","J","J","J","J","J","J","J","J","J","J","J","J","J","J","J","J","J","J","J","J","J","J","J","J","J","J","J","J","J","J","J","J","J","J","J","J","J","J","J","J","J","J","J","J","J","J","J","J","J","J","J","J","J","J","J","J","J","J","J","J","J","J","J","J","J","J","J","J","J","J","J","J","J","J","J","J","J","J","J","J","J","J","J","J","J","J","J","J","J","J","J","J","J","J","J","J","J","J","J","J","J","J","J","J","J","J","J","J","J","J","J","J","J","J","J","J","J","J","J","J","J","J","J","J","J","J","J","J","J","J","J","J","J","J","J","J","J","J","J","J","J","J","J","J","J","J","J","J","J","J","J","J","J","J","J","J","J","J","J","J","J","J","J","J","J","J","J","J","J","J","J","J","J","J","J","J","J","J","J","J","J","J","J","J","J","J","J","J","J","J","J","J","J","J","J","J","J","J","J","J","J","J","J","J","J","J","J","J","J","J","J","J","J","J","J","J","J","J","J","J","J","J","J","J","J","J","J","J","J","J","J","J","J","J","J","J","J","J","J","J","J","J","J","J","J","J","J","J","J","J","J","J","J","J","J","J","J","J","J","J","J","J","J","J","J","J","J","J","J","J","J","J","J","J","J","J","J","J","J","J","J","J","J","J","J","J","J","J","J","J","J","J","J","J","J","J","J","J","J","J","J","J","J","J","J","J","J","J","J","J","J","J","J","J","J","J","J","J","J","J","J","J","J","J","J","J","J","J","J","J","J","J","J","J","J","J","J","J","J","J","J","J","J","J","J","J","J","J","J","J","J","J","J","J","J","J","J","J","J","J","J","J","J","J","J","J","J","J","J","J","J","J","J","J","J","J","J","J","J","J","J","J","J","J","J","J","J","J","J","J","J","J","J","J","J","J","J","J","J","J","J","J","J","J","J","J","J","J","J","J","J","J","J","J","J","J","J","J","J","J","J","J","J","J","J","J","J","J","J","J","J","J","J","J","J","J","J","J","J","J","J","J","J","J","J","J","J","J","J","J","J","J","J","J","J","J","J","J","J","J","J","J","J","J","J","J","J","J","J","J","J","J","J","J","J","J","J","J","J","J","J","J","J","J","J","J","J","J","J","J","J","J","J","J","J","J","J","J","J","J","J","J","J","J","J","J","J","J","J","J","J","J","J","J","J","J","J","J","J","J","J","J","J","J","J","J","J","J","J","J","J","J","J","J","J","J","J","J","J","J","J","J","J","J","J","J","J","J","J","J","J","J","J","J","J","J","J","J","J","J","J","J","J","J","J","J","J","J","J","J","J","J","J","J","J","J","J","J","J","J","J","J","J","J","J","J","J","J","J","J","J","J","J","J","J","J","J","J","J","J","J","J","J","J","J","J","J","J","J","J","J","J","J","J","J","J","J","J","J","J","J","J","J","J","J","J","J","J","J","J","J","J","J","J","J","J","J","J","J","J","J","J","J","J","J","J","J","J","J","J","J","J","J","J","J","J","J","J","J","J","J","J","J","J","J","J","J","J","J","J","J","J","J","J","J","J","J","J","J","J","J","J","J","J","J","J","J","J","J","J","J","J","J","J","J","J","J","J","J","J","J","J","J","J","J","J","J","J","J","J","J","J","J","J","J","J","J","J","J","J","J","J","J","J","J","J","J","J","J","J","J","J","J","J","J","J","J","J","J","J","J","J","J","J","J","J","J","J","J","J","J","J","J","J","J","J","J","J","J","J","J","J","J","J","J","J","J","J","J","J","J","J","J","J","J","J","J","J","J","J","J","J","J","J","J","J","J","J","J","J","J","J","J","J","J","J","J","J","J","J","J","J","J","J","J","J","J","J","J","J","J","J","J","J","J","J","J","J","J","J","J","J","J","J","J","J","J","J","J","J","J","J","J","J","J","J","J","J","J","J","J","J","J","J","J","J","J","J","J","J","J","J","J","J","J","J","J","J","J","J","J","J","J","J","J","J","J","J","J","J","J","J","J","J","J","J","J","J","J","J","J","J","J","J","J","J","J","J","J","J","J","J","J","J","J","J","J","J","J","J","J","J","J","J","J","J","J","J","J","?","K","K","?","?","?","?","?","?","?","?","?","U","U","U","U","U","U","U","?","?","T","T","T","T","T","T","T","T","T","T","T","T","T","T","T","T","T","T","T","T","T","T","T","T","T","T","T","T","T","T","T","T","T","T","T","T","T","T","T","T","T","T","T","T","T","T","T","T","T","T","T","T","T","T","T","T","T","T","T","T","T","T","T","T","T","T","T","T","T","T","T","T","T","T","T","T","T","T","T","T","T","T","T","T","T","T","T","T","T","T","T","T","T","T","T","T","T","T","T","T","T","T","T","T","T","T","T","T","T","T","T","T","T","T","T","T","T","T","T","T","T","T","T","T","T","T","T","T","T","T","T","T","T","T","T","T","T","T","T","T","T","T","T","T","T","T","T","T","T","T","T","T","T","T","T","T","T","T","T","T","T","T","T","T","T","T","T","T","T","T","T","T","T","T","T","T","T","T","T","T","T","T","T","T","T","T","T","T","T","T","T","T","T","T","T","T","T","T","T","T","T","T","T","T","T","T","T","T","T","T","T","T","T","T","T","T","T","T","T","T","T","T","T","T","T","T","T","T","T","T","T","T","T","T","T","T","T","T","T","T","T","T","T","T","T","T","T","T","T","T","T","T","T","T","T","T","T","T","T","T","T","T","T","T","T","T","T","T","T","T","T","T","T","T","T","T","T","T","T","T","T","T","T","T","T","T","T","T","T","T","T","T","T","T","T","T","T","T","T","T","T","T","T","T","T","T","T","T","T","T","T","T","T","T","T","T","T","T","T","T","T","T","T","T","T","T","T","T","T","T","T","T","T","T","T","T","T","T","T","T","T","T","T","T","T","T","T","T","T","T","T","T","T","T","T","T","T","T","?","U","?","V","W","W","X","X","X","?","?","?","Y","Y","Y","Y","Y","Y","Y","Y","Y","Y","Y","Y","Y","Y","Y","Y","Y","Y","Y","Y","Y","Y","Y","Y","Y","Y","Y","Y","Y","Y","Y","Y","Y","Y","Y","Y","Y","Y","Y","?","Z","Z","Z","Z","Z","Z","Z","Z","Z","Z","Z","Z","Z","Z","Z","Z","Z","Z","Z","Z","Z","Z","Z","Z","Z","Z","Z","Z","Z","Z","Z","Z","Z","Z","Z","Z","Z","Z","Z","Z","Z","Z","Z","Z","Z","Z","Z","Z","Z","Z","Z","Z","Z","Z","Z","Z","Z","Z","Z","Z","Z","Z","Z","Z","Z","Z","Z","Z","Z","Y","Y","Y","Y","?","?","?","?","?","N","N","?","?","?","?","?","?","?","?","?","?","?","?","?","?","?","?","?","?","?","?","C","C","?","?","B","B","B","B","B","B","B","B","B","B","B","B","B","B","B","B","B","B","B","B","B","B","B","B","B","B","B","B","B","B","B","B","B","B","B","B","B","B","B","B","B","B","B","?","C","C","?","D","?","?","?","?","?","?","?","O","O","O","O","O","O","O","O","O","O","O","O","O","O","O","O","O","O","O","O","O","O","O","O","O","O","O","O","O","O","O","O","O","O","O","O","O","O","O","O","O","O","O","O","O","O","O","O","O","O","O","O","O","O","O","O","O","O","O","O","O","O","O","O","O","O","O","O","?","?","?","?","?","?","?","?","?","?","?","?","?","?","?","?","?","?","?","G","?","?","?","?","R","R","R","R","?","?","?","?","?","?","?","?","?","?","?","?","?","R","R","R","R","R","R","R","R","R","R","R","R","R","R","R","R","R","R","R","R","R","R","R","R","R","R","R","R","R","R","R","R","R","R","R","R","R","R","R","R","R","R","R","R","R","R","R","R","R","R","R","R","R","R","R","R","R","R","R","R","R","R","R","R","R","R","R","R","R","R","R","R","R","R","R","R","R","R","R","R","R","R","R","R","R","R","R","R","R","R","R","R","R","R","R","R","R","R","R","R","R","R","R","R","R","R","R","R","R","R","R","R","R","R","R","R","R","R","R","R","R","R","R","R","R","R","R","R","R","R","R","R","R","R","R","R","R"],"t":[39,62,82,99,116,132,149,166,182,199,215,232,249,266,282,299,316,332,349,365,382,399,415,432,449,466,482,499,515,532,549,565,582,599,616,632,649,665,682,699,715,732,749,766,782,799,815,832,849,865,882,899,916,932,949,965,982,999,1016,1032,1049,1065,1082,1099,1116,1132,1149,1166,1182,1199,1216,1232,1249,1266,1282,1299,1316,1332,1349,1365,1383,1399,1416,1434,1450,1466,1483,1499,1516,1532,1549,1566,1582,1599,1616,1632,1649,1666,1682,1699,1715,1732,1749,1765,1782,1799,1816,1832,1849,1865,1882,1899,1916,1932,1949,1966,1982,1999,2015,2032,2049,2065,2082,2099,2116,2132,2149,2166,2182,2199,2215,2232,2249,2266,2282,2299,2315,2332,2349,2365,2382,2399,2415,2432,2449,2466,2482,2499,2515,2532,2549,2566,2582,2599,2615,2632,2649,2666,2682,2699,2715,2732,2749,2765,2782,2799,2815,2832,2849,2866,2884,2900,2916,2932,2949,2965,2982,2999,3016,3032,3049,3065,3082,3099,3115,3132,3149,3165,3182,3199,3216,3232,3249,3265,3282,3299,3315,3332,3349,3365,3382,3399,3416,3432,3449,3466,3483,3500,3517,3534,3551,3568,3585,3601,3618,3635,3652,3669,3686,3703,3720,3737,3754,3771,3788,3804,3821,3838,3855,3872,3888,3905,3922,3939,3956,3973,3989,4006,4023,4039,4055,4072,4088,4105,4122,4138,4155,4172,4188,4205,4222,4238,4255,4272,4289,4306,4324,4341,4357,4374,4390,4407,4424,4441,4457,4474,4491,4508,4524,4541,4558,4574,4591,4608,4624,4641,4657,4674,4691,4707,4724,4741,4757,4774,4791,4807,4824,4840,4857,4874,4891,4907,4924,4941,4957,4974,4991,5008,5024,5041,5057,5074,5091,5107,5124,5141,5158,5174,5191,5208,5225,5241,5258,5275,5292,5309,5325,5342,5359,5376,5393,5410,5427,5444,5460,5477,5494,5511,5528,5544,5561,5578,5594,5611,5628,5644,5661,5677,5694,5710,5727,5749,5766,5783,5800,5816,5833,5850,5867,5883,5900,5917,5933,5950,5966,5983,5999,6016,6032,6049,6066,6082,6099,6116,6133,6149,6166,6182,6199,6216,6232,6249,6265,6282,6299,6315,6332,6349,6365,6382,6399,6415,6432,6449,6465,6482,6499,6515,6532,6549,6565,6582,6599,6616,6632,6649,6665,6682,6699,6715,6732,6749,6765,6782,6799,6816,6832,6849,6865,6882,6899,6916,6932,6949,6966,6982,6999,7015,7032,7049,7065,7082,7099,7116,7132,7149,7166,7182,7201,7218,7234,7251,7267,7284,7301,7317,7334,7351,7367,7384,7400,7417,7433,7450,7467,7483,7500,7517,7533,7550,7567,7583,7600,7617,7633,7650,7666,7683,7699,7716,7732,7749,7766,7782,7799,7815,7832,7849,7865,7882,7899,7916,7932,7949,7966,7983,7999,8016,8033,8049,8066,8083,8100,8116,8133,8150,8166,8183,8200,8216,8233,8250,8266,8283,8300,8316,8333,8350,8367,8383,8400,8417,8433,8450,8467,8484,8500,8517,8533,8550,8567,8583,8600,8617,8634,8652,8669,8686,8703,8719,8736,8752,8769,8785,8802,8818,8835,8852,8869,8886,8902,8919,8936,8952,8969,8986,9002,9019,9036,9052,9069,9085,9102,9119,9136,9152,9169,9186,9202,9219,9235,9252,9269,9285,9302,9319,9336,9352,9369,9386,9403,9419,9436,9452,9469,9486,9502,9519,9536,9553,9569,9586,9603,9619,9636,9653,9670,9686,9703,9719,9736,9753,9770,9786,9803,9820,9836,9853,9870,9887,9903,9920,9936,9953,9970,9986,10003,10020,10037,10053,10070,10087,10106,10122,10139,10155,10172,10188,10205,10222,10239,10256,10273,10289,10306,10322,10339,10355,10372,10389,10406,10422,10439,10455,10471,10488,10505,10521,10538,10555,10572,10588,10605,10621,10638,10654,10671,10688,10704,10721,10738,10754,10771,10788,10805,10822,10838,10855,10872,10888,10905,10922,10939,10955,10972,10989,11005,11022,11039,11056,11072,11089,11106,11122,11139,11155,11172,11189,11205,11222,11239,11256,11273,11289,11305,11321,11338,11354,11371,11388,11404,11421,11438,11454,11471,11487,11504,11521,11538,11556,11573,11589,11607,11622,11639,11655,11671,11687,11703,11720,11737,11753,11770,11787,11804,11820,11837,11853,11870,11887,11904,11920,11937,11954,11970,11987,12004,12020,12036,12053,12070,12087,12103,12120,12137,12154,12170,12187,12204,12221,12237,12254,12270,12287,12304,12321,12337,12354,12371,12387,12404,12421,12438,12454,12471,12487,12504,12521,12538,12554,12571,12587,12604,12621,12637,12654,12671,12687,12704,12720,12737,12753,12770,12787,12804,12821,12838,12854,12871,12888,12905,12922,12939,12956,12973,12990,13010,13026,13042,13059,13076,13093,13109,13126,13142,13159,13176,13192,13209,13226,13244,13263,13282,13299,13316,13334,13351,13368,13385,13402,13418,13435,13452,13470,13487,13504,13520,13538,13555,13571,13588,13605,13622,13639,13656,13673,13689,13706,13722,13739,13755,13772,13789,13806,13823,13840,13856,13873,13888,13905,13921,13937,13954,13971,13987,14004,14021,14037,14054,14071,14087,14104,14121,14138,14154,14171,14188,14204,14221,14237,14254,14271,14287,14304,14321,14337,14354,14371,14388,14407,14424,14441,14458,14474,14491,14507,14524,14541,14558,14574,14591,14608,14625,14641,14658,14674,14691,14708,14724,14741,14758,14774,14791,14807,14824,14841,14858,14874,14891,14907,14924,14941,14958,14974,14991,15008,15024,15041,15058,15074,15091,15108,15125,15141,15158,15175,15191,15208,15225,15241,15258,15275,15291,15308,15325,15341,15358,15375,15391,15408,15425,15441,15458,15475,15491,15508,15525,15541,15558,15575,15591,15608,15625,15641,15658,15675,15691,15708,15725,15741,15758,15774,15791,15807,15826,15843,15860,15876,15893,15909,15926,15943,15960,15977,15993,16010,16027,16044,16060,16077,16094,16111,16128,16144,16161,16178,16194,16211,16227,16244,16261,16277,16294,16310,16327,16344,16360,16377,16394,16410,16427,16443,16460,16477,16493,16510,16527,16543,16560,16577,16594,16610,16627,16643,16660,16677,16693,16710,16727,16743,16760,16777,16793,16810,16826,16843,16860,16877,16893,16910,16926,16943,16960,16977,16993,17010,17027,17043,17060,17077,17094,17111,17127,17144,17160,17177,17193,17210,17227,17249,17266,17283,17300,17316,17333,17350,17367,17383,17400,17417,17434,17450,17467,17484,17500,17517,17534,17550,17567,17584,17600,17617,17634,17651,17667,17684,17700,17717,17734,17750,17767,17784,17800,17817,17834,17851,17868,17885,17901,17918,17934,17951,17968,17985,18001,18018,18035,18052,18068,18085,18102,18119,18136,18152,18169,18186,18202,18219,18236,18253,18270,18286,18303,18320,18336,18353,18370,18386,18402,18419,18436,18452,18469,18486,18503,18519,18536,18553,18569,18586,18603,18619,18636,18652,18669,18686,18704,18721,18738,18754,18771,18788,18804,18821,18837,18854,18871,18887,18904,18921,18937,18954,18971,18987,19004,19021,19037,19054,19071,19088,19104,19121,19138,19154,19171,19188,19204,19221,19237,19254,19270,19287,19304,19320,19337,19353,19370,19386,19403,19420,19436,19453,19470,19487,19503,19520,19537,19554,19570,19587,19603,19620,19637,19654,19670,19687,19703,19720,19737,19753,19770,19787,19804,19820,19837,19853,19870,19887,19903,19920,19936,19953,19970,19987,20003,20020,20037,20053,20070,20086,20103,20122,20139,20156,20173,20189,20205,20221,20238,20255,20272,20288,20305,20322,20339,20355,20372,20389,20406,20422,20439,20456,20472,20489,20505,20522,20539,20555,20572,20588,20605,20621,20638,20655,20671,20688,20704,20721,20738,20754,20771,20787,20803,20820,20837,20853,20870,20886,20903,20920,20936,20953,20970,20986,21003,21020,21036,21053,21069,21086,21103,21120,21136,21153,21170,21186,21203,21220,21236,21252,21269,21286,21302,21319,21335,21352,21368,21385,21402,21418,21435,21452,21468,21485,21502,21518,21537,21553,21570,21587,21603,21620,21637,21653,21670,21686,21703,21720,21736,21753,21769,21786,21803,21819,21836,21852,21869,21885,21902,21919,21935,21952,21968,21985,22002,22018,22035,22052,22068,22085,22102,22119,22135,22152,22169,22185,22202,22219,22235,22252,22269,22285,22302,22318,22335,22351,22367,22383,22400,22416,22432,22449,22465,22482,22499,22515,22532,22549,22565,22582,22599,22615,22632,22649,22665,22682,22699,22715,22732,22749,22766,22782,22799,22815,22832,22849,22865,22882,22899,22915,22932,22951,22967,22984,23000,23016,23032,23049,23065,23082,23099,23115,23132,23149,23165,23182,23199,23215,23232,23249,23265,23282,23299,23315,23332,23349,23365,23382,23399,23415,23432,23449,23465,23482,23499,23515,23532,23549,23565,23582,23599,23615,23632,23649,23665,23682,23699,23715,23732,23749,23765,23782,23799,23815,23832,23849,23865,23882,23899,23915,23932,23949,23965,23982,23999,24015,24032,24049,24065,24082,24099,24115,24132,24149,24165,24182,24199,24215,24232,24249,24265,24282,24299,24315,24332,24349,24368,24384,24401,24417,24433,24450,24467,24483,24500,24516,24532,24549,24565,24582,24599,24615,24632,24649,24665,24682,24699,24715,24732,24749,24765,24782,24799,24815,24832,24849,24865,24882,24899,24915,24932,24949,24965,24982,24999,25015,25032,25049,25065,25082,25099,25115,25132,25149,25165,25182,25199,25215,25232,25249,25265,25282,25299,25315,25332,25349,25365,25382,25399,25415,25432,25449,25465,25482,25499,25515,25532,25549,25565,25582,25599,25615,25632,25649,25665,25682,25699,25715,25732,25749,25765,25784,25801,25817,25833,25849,25866,25882,25899,25915,25932,25949,25965,25982,25999,26015,26032,26049,26065,26082,26099,26115,26132,26149,26165,26182,26199,26215,26232,26249,26265,26282,26299,26315,26332,26349,26365,26382,26399,26415,26432,26449,26465,26482,26499,26515,26532,26549,26565,26582,26599,26615,26632,26649,26665,26682,26699,26715,26732,26749,26765,26782,26799,26815,26832,26849,26865,26882,26899,26915,26932,26949,26965,26982,26999,27015,27032,27049,27065,27082,27099,27115,27132,27149,27165,27182,27201,27218,27234,27251,27268,27284,27300,27317,27333,27350,27366,27383,27399,27416,27433,27449,27466,27482,27499,27516,27532,27549,27565,27582,27599,27615,27632,27649,27665,27682,27699,27715,27732,27749,27765,27782,27799,27815,27832,27849,27865,27882,27899,27915,27932,27949,27965,27982,27999,28015,28032,28049,28065,28082,28099,28115,28132,28149,28165,28182,28199,28215,28232,28249,28266,28282,28299,28315,28332,28349,28365,28382,28399,28415,28432,28449,28465,28482,28499,28515,28532,28549,28565,28582,28599,28618,28634,28651,28667,28684,28700,28716,28733,28749,28766,28782,28799,28815,28832,28849,28865,28882,28899,28915,28932,28949,28965,28982,28999,29015,29032,29049,29065,29082,29099,29115,29132,29149,29165,29182,29199,29215,29232,29249,29265,29282,29299,29315,29332,29349,29365,29382,29399,29415,29432,29449,29465,29482,29499,29515,29532,29549,29565,29582,29599,29615,29632,29649,29665,29682,29699,29715,29732,29749,29765,29782,29799,29815,29832,29849,29865,29882,29899,29915,29932,29949,29965,29982,29999,30015,30034,30051,30067,30084,30100,30117,30133,30150,30166,30183,30199,30216,30232,30249,30265,30282,30299,30315,30332,30349,30365,30382,30399,30415,30432,30449,30465,30482,30499,30515,30532,30549,30565,30582,30599,30615,30632,30649,30665,30682,30699,30716,30732,30749,30765,30782,30799,30815,30832,30849,30865,30882,30899,30916,30932,30949,30965,30982,30999,31015,31032,31049,31065,31082,31099,31115,31132,31149,31165,31182,31199,31215,31232,31249,31265,31282,31299,31315,31332,31349,31365,31382,31399,31415,31432,31451,31468,31484,31500,31517,31534,31550,31567,31583,31600,31616,31633,31650,31666,31683,31699,31716,31732,31749,31765,31782,31799,31815,31832,31849,31865,31882,31899,31915,31932,31949,31965,31982,31999,32016,32032,32049,32065,32082,32099,32116,32132,32149,32165,32182,32199,32215,32232,32249,32265,32282,32299,32315,32332,32349,32365,32382,32399,32415,32432,32449,32466,32482,32499,32515,32532,32549,32565,32582,32599,32615,32632,32649,32665,32682,32699,32715,32732,32749,32765,32782,32799,32815,32832,32849,32867,32884,32901,32917,32934,32950,32966,32983,33000,33016,33033,33049,33066,33083,33099,33116,33132,33149,33165,33182,33199,33215,33232,33249,33265,33282,33299,33315,33332,33349,33365,33382,33399,33415,33432,33449,33465,33482,33499,33515,33532,33549,33565,33582,33599,33615,33632,33649,33665,33682,33699,33715,33732,33749,33765,33782,33799,33815,33832,33849,33865,33882,33899,33916,33932,33949,33966,33982,33999,34015,34032,34049,34065,34082,34099,34115,34132,34149,34165,34182,34199,34215,34232,34249,34265,34284,34301,34317,34334,34350,34366,34383,34399,34416,34432,34449,34465,34482,34499,34515,34532,34549,34565,34582,34599,34615,34632,34649,34665,34682,34699,34715,34732,34749,34765,34782,34799,34815,34832,34849,34865,34882,34899,34915,34932,34949,34965,34982,34999,35015,35032,35049,35065,35082,35099,35115,35132,35149,35165,35182,35199,35215,35232,35249,35265,35282,35299,35315,35332,35349,35365,35382,35399,35415,35432,35449,35465,35482,35499,35515,35532,35549,35565,35582,35599,35615,35632,35649,35665,35682,35701,35717,35733,35750,35766,35782,35799,35816,35832,35849,35866,35882,35899,35915,35932,35949,35965,35982,35999,36015,36032,36049,36065,36082,36099,36116,36132,36149,36165,36182,36199,36216,36232,36249,36265,36282,36299,36315,36332,36349,36365,36382,36399,36415,36432,36449,36465,36482,36499,36516,36532,36549,36566,36582,36599,36616,36632,36649,36665,36682,36699,36715,36732,36749,36766,36782,36799,36815,36832,36849,36866,36882,36899,36915,36932,36949,36965,36982,36999,37015,37032,37049,37065,37082,37101,37118,37134,37151,37167,37184,37200,37217,37233,37250,37266,37283,37299,37316,37332,37349,37365,37382,37399,37415,37432,37449,37465,37482,37499,37515,37532,37549,37565,37582,37599,37615,37632,37649,37666,37682,37699,37715,37732,37749,37765,37782,37799,37815,37832,37849,37865,37882,37899,37915,37932,37949,37965,37982,37999,38015,38032,38049,38065,38082,38099,38115,38132,38149,38166,38182,38199,38216,38232,38249,38266,38282,38299,38316,38332,38349,38366,38382,38399,38415,38432,38449,38466,38482,38499,38517,38534,38550,38566,38583,38599,38616,38632,38649,38666,38682,38699,38716,38732,38749,38765,38782,38799,38815,38832,38849,38865,38882,38899,38915,38932,38949,38966,38982,38999,39015,39032,39049,39065,39082,39099,39116,39132,39149,39166,39182,39199,39215,39232,39249,39266,39282,39299,39315,39332,39349,39365,39382,39399,39415,39432,39449,39465,39482,39499,39516,39532,39549,39566,39582,39599,39616,39632,39649,39665,39682,39699,39715,39732,39749,39766,39782,39799,39815,39832,39849,39866,39882,39899,39918,39934,39951,39968,39984,40000,40017,40033,40050,40066,40083,40099,40116,40132,40149,40166,40182,40199,40216,40232,40249,40265,40282,40299,40315,40332,40349,40366,40382,40399,40416,40432,40449,40465,40482,40499,40515,40532,40549,40566,40582,40599,40616,40632,40649,40665,40682,40699,40716,40732,40749,40765,40782,40799,40816,40832,40849,40865,40882,40899,40915,40932,40949,40965,40982,40999,41016,41032,41049,41066,41082,41099,41116,41132,41149,41165,41182,41199,41215,41232,41249,41265,41282,41298,41315,41333,41350,41366,41382,41399,41415,41432,41449,41466,41482,41499,41516,41532,41549,41566,41582,41599,41615,41632,41649,41665,41682,41699,41716,41732,41749,41765,41782,41799,41815,41832,41849,41866,41882,41899,41915,41932,41949,41966,41982,41999,42016,42032,42049,42065,42082,42098,42115,42131,42148,42164,42181,42198,42216,42232,42249,42265,42282,42299,42315,42332,42349,42365,42382,42399,42415,42432,42449,42466,42482,42499,42516,42532,42549,42565,42582,42599,42615,42632,42649,42665,42682,42699,42716,42734,42751,42767,42784,42800,42817,42833,42850,42866,42882,42899,42915,42932,42949,42965,42982,42999,43015,43032,43049,43066,43082,43099,43116,43132,43149,43166,43182,43199,43215,43232,43249,43265,43282,43299,43315,43332,43349,43365,43382,43398,43415,43431,43449,43466,43482,43499,43515,43531,43548,43566,43582,43599,43615,43632,43649,43665,43682,43699,43715,43732,43749,43765,43782,43799,43815,43832,43849,43866,43882,43899,43915,43932,43949,43965,43982,43999,44015,44032,44049,44066,44082,44099,44116,44132,44151,44168,44184,44200,44217,44233,44250,44266,44283,44299,44316,44332,44349,44365,44382,44399,44415,44432,44448,44465,44482,44499,44516,44532,44549,44565,44581,44598,44616,44632,44649,44665,44682,44699,44715,44732,44748,44766,44782,44799,44816,44832,44849,44865,44882,44899,44915,44932,44948,44965,44981,44999,45015,45032,45049,45065,45082,45099,45115,45132,45148,45166,45182,45199,45216,45232,45249,45265,45282,45299,45315,45332,45349,45365,45382,45399,45415,45432,45449,45465,45482,45499,45515,45532,45550,45567,45583,45600,45616,45632,45649,45665,45682,45698,45716,45732,45749,45766,45782,45799,45815,45832,45848,45865,45881,45898,45916,45932,45949,45966,45982,45999,46016,46032,46049,46065,46082,46099,46115,46132,46149,46166,46182,46199,46216,46232,46249,46265,46282,46299,46316,46332,46349,46366,46382,46398,46415,46431,46449,46466,46482,46499,46516,46532,46549,46565,46582,46598,46615,46631,46648,46666,46682,46699,46716,46732,46749,46766,46782,46799,46815,46832,46849,46865,46882,46899,46915,46932,46949,46967,46984,47000,47017,47033,47050,47066,47083,47099,47116,47132,47149,47166,47182,47199,47215,47232,47249,47265,47282,47299,47315,47332,47349,47366,47382,47398,47416,47432,47449,47466,47482,47499,47515,47532,47549,47566,47582,47599,47615,47632,47648,47665,47681,47699,47716,47732,47749,47765,47782,47798,47815,47831,47849,47866,47882,47899,47915,47931,47948,47965,47982,47999,48016,48032,48048,48065,48081,48099,48116,48132,48149,48165,48181,48198,48215,48232,48249,48265,48282,48299,48315,48332,48349,48368,48384,48400,48417,48433,48449,48466,48483,48499,48516,48532,48549,48565,48582,48599,48615,48632,48648,48666,48682,48699,48716,48732,48749,48766,48782,48799,48816,48832,48849,48866,48882,48899,48916,48932,48949,48965,48982,48999,49016,49032,49049,49066,49082,49099,49116,49132,49149,49166,49182,49199,49215,49232,49249,49265,49282,49299,49316,49332,49349,49366,49382,49399,49416,49432,49449,49465,49482,49499,49515,49532,49549,49565,49582,49599,49615,49632,49649,49665,49682,49698,49715,49732,49748,49767,49784,49800,49816,49833,49850,49866,49882,49899,49916,49932,49949,49965,49982,49999,50015,50032,50048,50065,50081,50099,50116,50132,50148,50165,50181,50198,50215,50232,50249,50266,50282,50299,50315,50332,50348,50366,50382,50399,50416,50432,50449,50465,50481,50499,50516,50532,50549,50566,50582,50599,50616,50632,50649,50666,50682,50698,50715,50731,50748,50766,50782,50799,50815,50832,50849,50865,50882,50899,50915,50932,50948,50965,50981,50999,51016,51032,51049,51066,51082,51099,51116,51132,51149,51168,51184,51201,51217,51234,51250,51267,51284,51300,51317,51334,51351,51367,51384,51401,51417,51434,51451,51467,51484,51501,51517,51534,51551,51567,51584,51601,51618,51635,51651,51668,51685,51702,51719,51736,51752,51769,51786,51803,51820,51837,51854,51870,51887,51903,51920,51937,51954,51971,51987,52004,52021,52038,52054,52071,52087,52104,52121,52137,52154,52170,52187,52204,52220,52237,52254,52270,52287,52303,52320,52337,52353,52370,52386,52403,52419,52436,52452,52469,52485,52502,52519,52535,52554,52571,52587,52604,52621,52637,52654,52670,52687,52703,52720,52737,52753,52770,52787,52804,52820,52837,52854,52871,52887,52904,52921,52938,52955,52972,52988,53005,53022,53038,53055,53072,53088,53105,53122,53138,53155,53171,53188,53204,53221,53237,53254,53270,53287,53304,53320,53337,53353,53370,53386,53402,53419,53435,53452,53468,53485,53501,53518,53534,53551,53567,53584,53600,53617,53633,53650,53666,53683,53700,53717,53733,53750,53766,53783,53800,53816,53833,53849,53866,53882,53899,53916,53934,53951,53968,53985,54001,54018,54034,54051,54067,54084,54100,54116,54133,54149,54166,54183,54199,54216,54232,54249,54266,54283,54299,54316,54332,54349,54366,54382,54399,54416,54432,54449,54466,54482,54499,54516,54532,54549,54566,54582,54599,54616,54632,54649,54666,54683,54699,54716,54733,54749,54766,54782,54799,54815,54832,54848,54865,54882,54899,54916,54933,54949,54966,54983,54999,55016,55033,55049,55066,55083,55099,55116,55133,55149,55166,55182,55199,55216,55232,55249,55266,55282,55299,55316,55332,55351,55368,55385,55401,55418,55435,55451,55468,55485,55501,55518,55535,55551,55568,55584,55601,55617,55634,55651,55667,55684,55700,55717,55734,55751,55768,55784,55801,55817,55834,55851,55867,55884,55901,55917,55934,55950,55967,55984,56001,56017,56034,56051,56067,56084,56101,56117,56134,56151,56167,56184,56201,56218,56234,56251,56267,56284,56301,56317,56334,56350,56367,56384,56400,56417,56434,56450,56467,56484,56500,56517,56534,56551,56567,56584,56601,56617,56634,56650,56667,56684,56700,56716,56733,56752,56768,56785,56802,56818,56835,56851,56868,56885,56901,56918,56934,56951,56968,56984,57001,57018,57034,57051,57068,57084,57101,57118,57135,57151,57168,57184,57201,57218,57234,57251,57268,57284,57301,57318,57335,57351,57368,57384,57401,57418,57434,57451,57467,57484,57501,57517,57534,57551,57567,57584,57601,57617,57634,57651,57667,57684,57701,57718,57735,57751,57768,57785,57801,57818,57835,57851,57868,57884,57901,57917,57934,57951,57967,57984,58001,58018,58034,58051,58067,58084,58101,58118,58135,58151,58170,58187,58204,58220,58237,58254,58271,58287,58304,58321,58338,58354,58371,58388,58404,58421,58438,58454,58471,58488,58504,58521,58538,58554,58571,58587,58604,58621,58638,58654,58671,58688,58704,58721,58737,58754,58771,58787,58804,58821,58837,58854,58871,58887,58904,58921,58938,58954,58971,58988,59005,59021,59038,59054,59071,59088,59105,59121,59138,59155,59171,59188,59204,59221,59238,59254,59271,59287,59304,59321,59337,59354,59370,59387,59404,59421,59437,59454,59471,59488,59504,59521,59538,59554,59571,59590,59606,59623,59639,59656,59672,59690,59707,59723,59740,59756,59773,59790,59807,59823,59840,59857,59873,59889,59906,59923,59940,59957,59973,59990,60006,60023,60040,60056,60072,60088,60105,60121,60138,60155,60171,60188,60204,60221,60237,60254,60271,60287,60304,60321,60337,60354,60371,60388,60404,60421,60438,60454,60471,60488,60504,60521,60538,60554,60571,60587,60604,60621,60638,60655,60671,60688,60705,60721,60738,60755,60771,60788,60804,60821,60838,60854,60871,60888,60904,60921,60938,60954,60971,60987,61007,61024,61040,61057,61074,61091,61108,61124,61141,61158,61175,61192,61208,61225,61242,61258,61275,61292,61311,61332,61348,61365,61382,61398,61415,61432,61449,61466,61483,61499,61516,61533,61550,61566,61583,61599,61616,61633,61649,61666,61682,61699,61716,61733,61749,61766,61782,61799,61816,61832,61849,61866,61883,61899,61916,61933,61950,61966,61983,62000,62017,62034,62050,62067,62084,62101,62118,62134,62151,62168,62185,62201,62218,62235,62252,62268,62285,62301,62318,62335,62352,62369,62386,62402,62419,62438,62454,62471,62487,62504,62520,62537,62554,62571,62587,62604,62620,62636,62653,62669,62687,62704,62721,62737,62754,62771,62788,62805,62821,62838,62855,62872,62888,62905,62922,62939,62956,62973,62989,63006,63023,63039,63056,63073,63089,63106,63123,63139,63156,63172,63189,63205,63222,63239,63256,63273,63289,63306,63323,63339,63356,63372,63389,63406,63422,63439,63456,63473,63489,63505,63522,63538,63555,63572,63588,63605,63622,63638,63655,63672,63689,63705,63722,63739,63756,63773,63789,63806,63822,63838,63857,63874,63891,63907,63924,63940,63957,63974,63991,64008,64025,64042,64058,64075,64092,64108,64125,64141,64158,64174,64190,64207,64224,64240,64257,64274,64290,64307,64324,64340,64357,64373,64390,64407,64423,64440,64457,64473,64490,64506,64523,64539,64556,64572,64589,64605,64622,64639,64655,64672,64688,64705,64722,64739,64755,64771,64788,64805,64821,64837,64854,64870,64887,64903,64919,64935,64952,64968,64985,65001,65017,65034,65050,65066,65083,65099,65116,65132,65148,65166,65182,65199,65216,65232,65249,65267,65284,65300,65317,65333,65350,65366,65382,65399,65416,65432,65449,65466,65482,65499,65516,65532,65549,65566,65582,65599,65616,65632,65649,65666,65682,65699,65716,65732,65749,65765,65782,65798,65815,65832,65849,65866,65882,65899,65915,65932,65948,65966,65982,65998,66016,66032,66049,66066,66082,66099,66116,66132,66149,66166,66182,66199,66216,66232,66249,66266,66282,66299,66316,66332,66349,66366,66382,66399,66416,66432,66449,66466,66482,66499,66516,66532,66549,66566,66582,66599,66616,66632,66649,66666,66684,66701,66717,66734,66750,66767,66783,66800,66816,66832,66849,66865,66882,66899,66916,66932,66949,66966,66982,66999,67015,67031,67049,67066,67082,67099,67115,67132,67148,67166,67182,67199,67216,67232,67249,67266,67282,67299,67316,67332,67349,67365,67382,67399,67416,67432,67449,67465,67482,67499,67516,67532,67549,67566,67582,67599,67616,67632,67649,67666,67682,67699,67716,67732,67749,67766,67782,67799,67816,67832,67849,67866,67882,67899,67915,67931,67948,67966,67983,67999,68016,68032,68048,68065,68081,68100,68117,68133,68150,68166,68183,68199,68216,68232,68249,68266,68282,68298,68315,68331,68349,68366,68382,68399,68416,68432,68449,68466,68482,68499,68516,68532,68549,68566,68582,68599,68615,68632,68648,68666,68682,68699,68715,68732,68748,68765,68783,68799,68815,68832,68848,68865,68881,68899,68916,68932,68949,68966,68982,68999,69016,69032,69049,69065,69082,69099,69115,69132,69148,69166,69182,69199,69215,69232,69248,69265,69282,69299,69316,69332,69349,69365,69382,69398,69415,69432,69449,69465,69482,69498,69517,69533,69550,69566,69583,69599,69616,69632,69649,69665,69682,69698,69715,69731,69749,69766,69782,69799,69816,69832,69849,69866,69882,69899,69916,69932,69949,69966,69982,69999,70016,70032,70048,70065,70082,70099,70116,70132,70149,70165,70182,70198,70215,70231,70248,70265,70282,70299,70315,70332,70349,70366,70382,70399,70415,70432,70448,70465,70482,70499,70516,70532,70549,70565,70582,70599,70615,70632,70649,70666,70682,70699,70715,70732,70748,70765,70782,70799,70815,70832,70849,70865,70883,70899,70916,70934,70951,70967,70984,71000,71017,71033,71050,71066,71083,71100,71116,71133,71149,71166,71182,71199,71215,71232,71249,71266,71282,71299,71316,71332,71349,71366,71382,71399,71415,71432,71448,71465,71483,71499,71516,71532,71549,71566,71582,71599,71616,71632,71649,71666,71682,71699,71716,71732,71749,71765,71782,71798,71815,71831,71848,71866,71882,71899,71916,71932,71949,71965,71983,71999,72016,72032,72049,72065,72081,72099,72116,72132,72149,72165,72182,72199,72215,72232,72249,72266,72282,72299,72316,72332,72350,72367,72383,72400,72416,72433,72449,72466,72482,72499,72515,72532,72549,72565,72582,72598,72615,72631,72648,72666,72682,72699,72715,72732,72748,72766,72782,72799,72816,72832,72849,72866,72882,72899,72915,72932,72948,72965,72981,72999,73016,73032,73049,73066,73082,73099,73115,73132,73149,73166,73182,73199,73216,73232,73249,73265,73283,73300,73317,73333,73349,73366,73382,73399,73415,73432,73449,73466,73482,73499,73515,73532,73548,73566,73582,73599,73616,73632,73649,73666,73682,73699,73716,73733,73750,73768,73785,73801,73818,73834,73851,73867,73884,73901,73917,73934,73950,73967,73983,73999,74016,74032,74049,74066,74082,74099,74116,74132,74149,74165,74182,74198,74215,74232,74249,74265,74282,74298,74315,74332,74349,74366,74382,74399,74415,74432,74448,74465,74481,74499,74515,74533,74549,74566,74582,74599,74616,74632,74649,74666,74682,74699,74715,74732,74748,74766,74782,74799,74815,74832,74848,74865,74883,74899,74915,74932,74949,74966,74984,75000,75017,75033,75050,75066,75083,75099,75116,75132,75149,75166,75182,75199,75215,75232,75248,75265,75281,75299,75315,75332,75349,75365,75382,75398,75416,75432,75449,75466,75482,75499,75516,75532,75549,75566,75582,75599,75616,75632,75649,75665,75682,75698,75715,75731,75748,75765,75781,75798,75815,75832,75849,75866,75882,75899,75916,75932,75949,75966,75982,75999,76016,76032,76049,76065,76082,76099,76115,76133,76149,76166,76182,76198,76215,76233,76249,76266,76282,76299,76316,76332,76348,76366,76385,76401,76418,76434,76450,76467,76483,76500,76516,76533,76549,76566,76583,76599,76616,76632,76649,76666,76682,76699,76716,76732,76749,76766,76782,76799,76815,76832,76848,76865,76881,76899,76916,76932,76949,76966,76982,76999,77016,77033,77049,77066,77082,77099,77116,77132,77149,77166,77182,77199,77216,77232,77248,77265,77281,77299,77316,77332,77349,77366,77382,77399,77415,77432,77449,77466,77482,77499,77516,77532,77549,77566,77582,77599,77616,77632,77649,77666,77682,77699,77715,77732,77749,77766,77782,77802,77818,77835,77851,77868,77884,77901,77917,77934,77950,77967,77984,78000,78017,78033,78050,78066,78083,78100,78116,78133,78149,78166,78182,78198,78215,78231,78248,78265,78283,78299,78316,78333,78349,78366,78382,78399,78416,78432,78449,78466,78482,78499,78516,78532,78549,78566,78582,78599,78615,78632,78649,78666,78682,78699,78715,78732,78748,78766,78782,78799,78815,78832,78848,78865,78881,78899,78916,78932,78949,78965,78982,78999,79016,79032,79049,79066,79082,79099,79116,79132,79149,79166,79182,79199,79217,79233,79250,79266,79282,79299,79316,79332,79349,79366,79382,79398,79415,79431,79448,79465,79481,79498,79515,79531,79549,79566,79582,79599,79616,79632,79649,79666,79682,79699,79716,79733,79749,79766,79782,79799,79816,79832,79849,79866,79882,79899,79915,79932,79948,79966,79982,79999,80016,80032,80049,80065,80082,80098,80116,80133,80149,80166,80182,80199,80215,80232,80249,80266,80282,80299,80315,80331,80349,80366,80382,80399,80416,80432,80449,80465,80482,80498,80516,80532,80549,80566,80582,80598,80615,80634,80651,80667,80684,80700,80717,80733,80750,80766,80783,80799,80815,80832,80849,80866,80882,80899,80916,80933,80949,80966,80982,80999,81016,81032,81049,81065,81082,81098,81115,81133,81149,81166,81182,81199,81215,81232,81248,81265,81281,81299,81316,81332,81349,81366,81382,81399,81416,81432,81449,81466,81482,81499,81515,81532,81548,81566,81583,81599,81616,81632,81648,81665,81681,81699,81716,81732,81749,81766,81782,81799,81816,81832,81849,81866,81882,81899,81916,81932,81949,81966,81982,81999,82016,82032,82051,82068,82085,82101,82118,82134,82150,82167,82183,82200,82216,82233,82250,82266,82283,82299,82316,82332,82349,82366,82382,82399,82415,82432,82448,82466,82482,82499,82516,82532,82549,82566,82582,82599,82616,82632,82649,82666,82682,82699,82716,82732,82749,82766,82782,82799,82816,82832,82849,82866,82882,82899,82916,82932,82949,82966,82982,82999,83016,83032,83049,83066,83082,83099,83116,83132,83149,83166,83182,83199,83216,83232,83249,83266,83282,83299,83316,83332,83349,83366,83382,83399,83416,83432,83449,83468,83484,83501,83517,83534,83550,83567,83583,83599,83616,83633,83650,83666,83682,83699,83716,83732,83749,83766,83782,83799,83816,83832,83849,83866,83882,83899,83916,83932,83949,83966,83982,83999,84015,84032,84048,84065,84081,84099,84116,84132,84149,84165,84182,84198,84215,84231,84249,84266,84282,84299,84315,84332,84349,84366,84382,84399,84416,84432,84449,84465,84482,84498,84516,84533,84549,84566,84582,84599,84616,84632,84649,84666,84682,84699,84715,84731,84748,84766,84783,84799,84816,84832,84849,84866,84884,84901,84917,84934,84950,84967,84983,85000,85016,85033,85050,85066,85083,85099,85116,85132,85149,85166,85182,85198,85216,85233,85250,85266,85283,85299,85316,85333,85349,85366,85382,85399,85416,85432,85449,85466,85482,85499,85516,85532,85548,85565,85582,85599,85616,85633,85649,85666,85682,85699,85716,85732,85749,85766,85782,85799,85816,85832,85849,85866,85882,85899,85915,85932,85948,85966,85982,85999,86016,86032,86049,86065,86082,86098,86115,86133,86149,86166,86182,86199,86215,86233,86249,86266,86282,86301,86317,86334,86350,86367,86384,86400,86416,86433,86450,86466,86483,86499,86516,86532,86549,86565,86582,86598,86615,86631,86649,86666,86682,86699,86716,86732,86749,86765,86782,86798,86816,86832,86849,86865,86882,86899,86916,86932,86948,86966,86982,86999,87015,87033,87049,87066,87082,87099,87115,87132,87149,87166,87182,87199,87215,87232,87248,87266,87282,87299,87316,87332,87349,87366,87382,87399,87415,87432,87449,87465,87482,87499,87515,87532,87549,87566,87582,87599,87616,87632,87649,87665,87681,87698,87717,87734,87750,87767,87783,87799,87816,87833,87849,87866,87882,87899,87915,87932,87948,87966,87982,87999,88016,88032,88049,88065,88083,88099,88116,88132,88149,88166,88182,88199,88215,88231,88249,88266,88282,88299,88316,88332,88349,88366,88382,88399,88415,88432,88448,88466,88482,88499,88516,88532,88549,88566,88582,88599,88615,88632,88649,88666,88682,88699,88716,88732,88749,88766,88782,88799,88816,88832,88849,88865,88883,88899,88916,88932,88949,88966,88982,88999,89015,89033,89049,89066,89082,89099,89116,89134,89151,89168,89184,89201,89217,89234,89250,89267,89283,89300,89316,89333,89349,89365,89382,89398,89415,89433,89449,89466,89482,89499,89516,89532,89549,89565,89583,89599,89616,89633,89649,89666,89682,89699,89716,89732,89749,89766,89782,89799,89816,89832,89849,89866,89882,89898,89915,89932,89949,89966,89983,89999,90016,90032,90049,90065,90082,90099,90116,90132,90149,90166,90182,90198,90215,90232,90249,90266,90282,90299,90315,90332,90349,90366,90382,90399,90416,90432,90449,90466,90482,90498,90516,90532,90551,90567,90584,90600,90617,90634,90650,90667,90683,90699,90716,90732,90755,90775,90795,90816,90833,90849,90865,90882,90899,90916,90932,90949,90966,90982,90999,91015,91032,91049,91066,91082,91099,91115,91132,91148,91166,91182,91199,91216,91232,91249,91265,91282,91298,91315,91333,91349,91366,91382,91399,91416,91433,91449,91465,91482,91499,91516,91532,91548,91565,91581,91599,91616,91632,91649,91665,91682,91699,91715,91733,91749,91766,91782,91799,91815,91832,91849,91866,91883,91899,91916,91932,91949,91966,91984,92001,92018,92034,92051,92067,92084,92100,92117,92133,92150,92166,92183,92199,92216,92232,92249,92265,92282,92298,92315,92332,92349,92366,92382,92399,92416,92432,92449,92466,92482,92499,92516,92532,92549,92566,92582,92599,92615,92632,92649,92666,92682,92699,92715,92732,92749,92766,92783,92799,92816,92832,92849,92865,92882,92898,92915,92931,92948,92966,92983,92999,93016,93032,93049,93065,93081,93098,93115,93132,93149,93166,93182,93199,93216,93233,93249,93266,93282,93299,93316,93333,93349,93366,93382,93401,93417,93434,93451,93467,93484,93500,93517,93533,93550,93566,93583,93599,93616,93633,93649,93665,93682,93699,93716,93732,93749,93765,93782,93799,93815,93833,93849,93866,93882,93899,93915,93932,93948,93966,93983,93999,94016,94032,94049,94065,94082,94099,94116,94132,94149,94165,94182,94198,94215,94233,94249,94266,94282,94299,94315,94332,94349,94366,94382,94399,94415,94432,94448,94465,94482,94499,94516,94533,94549,94566,94582,94599,94616,94632,94649,94666,94682,94699,94716,94733,94749,94766,94782,94799,94817,94834,94850,94867,94883,94900,94916,94933,94950,94966,94982,94999,95016,95032,95049,95066,95082,95099,95116,95132,95149,95166,95182,95199,95216,95232,95249,95266,95282,95298,95315,95332,95349,95366,95382,95399,95416,95432,95449,95465,95482,95499,95515,95532,95548,95566,95582,95599,95616,95632,95649,95666,95682,95699,95716,95732,95749,95766,95782,95799,95816,95832,95849,95866,95882,95899,95916,95932,95949,95966,95982,95999,96015,96033,96050,96066,96083,96099,96116,96132,96149,96166,96185,96201,96218,96234,96251,96267,96284,96300,96317,96333,96350,96366,96383,96400,96416,96433,96449,96466,96482,96499,96516,96532,96549,96565,96582,96598,96615,96633,96649,96666,96682,96699,96715,96732,96748,96766,96783,96799,96816,96832,96849,96865,96882,96899,96916,96932,96949,96965,96982,96998,97015,97033,97049,97066,97082,97099,97116,97132,97149,97166,97182,97199,97216,97232,97249,97266,97282,97299,97316,97332,97349,97366,97382,97399,97415,97432,97449,97466,97482,97499,97516,97532,97549,97566,97582,97601,97618,97634,97651,97667,97684,97700,97717,97733,97750,97766,97783,97799,97816,97832,97849,97866,97882,97899,97915,97932,97949,97965,97983,97999,98015,98032,98048,98066,98082,98099,98116,98133,98149,98166,98182,98199,98216,98232,98249,98266,98282,98299,98316,98332,98349,98366,98382,98399,98416,98432,98449,98466,98482,98499,98516,98532,98549,98566,98582,98599,98616,98632,98649,98666,98682,98699,98715,98732,98748,98766,98782,98799,98816,98832,98849,98866,98882,98899,98916,98932,98949,98966,98983,98999,99018,99034,99051,99067,99084,99100,99117,99133,99150,99166,99183,99199,99216,99232,99249,99265,99282,99299,99316,99332,99349,99366,99382,99398,99415,99431,99449,99466,99482,99499,99516,99532,99548,99566,99583,99599,99616,99633,99649,99665,99682,99699,99716,99732,99749,99765,99782,99798,99815,99832,99849,99866,99883,99899,99916,99932,99949,99966,99982,99999,100016,100032,100049,100065,100081,100099,100116,100132,100149,100166,100182,100199,100216,100232,100249,100266,100283,100299,100316,100332,100349,100366,100382,100399,100416,100435,100451,100468,100484,100501,100517,100534,100550,100567,100583,100600,100616,100633,100650,100666,100683,100700,100716,100733,100749,100766,100782,100799,100816,100832,100849,100866,100882,100899,100916,100932,100949,100966,100982,100999,101015,101033,101049,101065,101082,101099,101115,101132,101148,101165,101182,101199,101216,101232,101249,101265,101282,101298,101315,101333,101349,101366,101382,101399,101416,101432,101449,101465,101482,101499,101515,101531,101549,101566,101582,101599,101616,101632,101649,101666,101682,101699,101716,101732,101749,101766,101783,101800,101819,101835,101852,101868,101885,101902,101918,101935,101952,101968,101985,102002,102018,102035,102052,102068,102085,102102,102119,102135,102152,102168,102185,102202,102218,102235,102251,102268,102285,102301,102318,102335,102352,102368,102385,102402,102419,102435,102452,102468,102485,102501,102517,102534,102550,102566,102583,102600,102616,102633,102649,102666,102682,102699,102716,102732,102749,102765,102782,102798,102816,102833,102849,102866,102882,102899,102916,102932,102949,102966,102983,102999,103016,103032,103049,103066,103083,103099,103116,103132,103149,103166,103182,103199,103218,103235,103251,103268,103284,103301,103317,103334,103350,103367,103383,103400,103416,103433,103449,103466,103482,103499,103515,103532,103548,103566,103583,103599,103616,103632,103649,103665,103682,103698,103716,103732,103749,103765,103782,103798,103816,103832,103849,103866,103882,103899,103916,103932,103949,103966,103983,103999,104016,104032,104049,104065,104082,104099,104116,104132,104149,104166,104182,104198,104215,104232,104248,104265,104281,104298,104315,104333,104349,104366,104382,104399,104416,104432,104449,104465,104482,104499,104515,104532,104548,104565,104583,104599,104616,104634,104651,104668,104684,104701,104717,104734,104751,104767,104784,104800,104817,104833,104849,104866,104883,104899,104916,104932,104949,104966,104982,104999,105016,105032,105049,105066,105082,105099,105116,105132,105149,105166,105182,105199,105216,105233,105249,105266,105282,105299,105316,105332,105349,105366,105382,105399,105416,105432,105449,105466,105482,105499,105516,105532,105549,105565,105582,105599,105616,105632,105649,105665,105682,105699,105716,105732,105749,105765,105782,105798,105815,105833,105849,105866,105882,105899,105916,105933,105949,105966,105982,105998,106015,106033,106051,106068,106084,106101,106117,106134,106151,106167,106184,106201,106217,106234,106251,106268,106284,106301,106318,106334,106351,106368,106385,106401,106418,106435,106451,106467,106484,106501,106518,106534,106551,106568,106584,106601,106617,106634,106651,106667,106684,106700,106717,106734,106750,106767,106784,106800,106817,106834,106850,106867,106883,106900,106917,106933,106950,106966,106983,106999,107016,107033,107049,107066,107082,107099,107116,107132,107149,107166,107183,107199,107216,107233,107250,107266,107283,107300,107316,107333,107349,107366,107382,107399,107416,107432,107449,107468,107485,107501,107518,107535,107552,107569,107585,107602,107619,107635,107652,107669,107685,107702,107719,107735,107752,107769,107786,107802,107819,107835,107852,107869,107886,107902,107919,107936,107952,107969,107986,108002,108019,108036,108053,108069,108086,108103,108119,108136,108153,108169,108186,108203,108219,108236,108253,108270,108286,108303,108320,108336,108353,108370,108386,108403,108420,108436,108453,108470,108486,108503,108520,108536,108553,108569,108586,108602,108619,108636,108653,108669,108686,108703,108719,108736,108753,108769,108786,108802,108819,108836,108853,108869,108888,108904,108921,108938,108954,108971,108988,109004,109021,109038,109054,109071,109087,109104,109121,109138,109154,109171,109188,109204,109221,109237,109254,109270,109286,109303,109319,109336,109353,109369,109386,109402,109419,109436,109452,109468,109485,109502,109518,109535,109552,109568,109585,109602,109618,109635,109652,109668,109685,109701,109718,109735,109751,109768,109784,109801,109818,109834,109851,109867,109884,109901,109917,109934,109950,109967,109984,110001,110017,110034,110051,110067,110084,110101,110117,110134,110151,110167,110184,110201,110217,110234,110251,110268,110284,110303,110320,110336,110353,110370,110386,110403,110420,110436,110453,110470,110487,110503,110520,110537,110553,110570,110586,110603,110620,110636,110653,110670,110686,110703,110719,110737,110755,110771,110788,110804,110821,110838,110854,110871,110887,110904,110921,110937,110954,110971,110988,111004,111021,111038,111055,111071,111088,111104,111121,111138,111154,111171,111188,111205,111221,111238,111254,111271,111288,111304,111320,111337,111354,111370,111387,111403,111420,111436,111453,111470,111486,111503,111520,111536,111553,111570,111586,111603,111619,111636,111653,111669,111686,111703,111722,111738,111755,111771,111788,111804,111821,111838,111854,111871,111888,111904,111921,111938,111954,111971,111988,112004,112021,112038,112054,112071,112088,112104,112121,112138,112154,112171,112188,112204,112221,112238,112254,112271,112287,112304,112321,112337,112354,112370,112387,112403,112420,112437,112453,112470,112487,112503,112520,112536,112553,112569,112586,112603,112619,112636,112653,112669,112686,112702,112719,112735,112752,112769,112785,112802,112818,112835,112852,112868,112885,112902,112919,112935,112951,112968,112985,113002,113018,113035,113052,113068,113085,113102,113118,113137,113153,113170,113187,113203,113220,113236,113253,113270,113286,113303,113320,113337,113353,113370,113386,113403,113419,113436,113452,113469,113485,113502,113519,113535,113552,113568,113585,113602,113618,113635,113651,113668,113685,113701,113718,113734,113751,113767,113784,113800,113817,113834,113850,113867,113883,113900,113917,113933,113950,113966,113983,113999,114016,114033,114049,114065,114082,114099,114116,114133,114150,114167,114184,114201,114218,114235,114252,114269,114286,114303,114320,114336,114354,114371,114387,114404,114421,114438,114455,114472,114488,114505,114522,114542,114559,114576,114593,114610,114627,114644,114661,114678,114695,114716,114733,114750,114767,114783,114801,114817,114834,114852,114869,114885,114902,114919,114936,114952,114969,114986,115003,115019,115036,115053,115070,115087,115104,115121,115137,115154,115171,115187,115204,115221,115238,115254,115271,115287,115304,115320,115337,115354,115370,115387,115404,115421,115437,115454,115470,115487,115504,115520,115537,115554,115570,115587,115603,115620,115637,115653,115670,115686,115703,115720,115736,115753,115770,115786,115803,115820,115836,115853,115870,115887,115904,115923,115940,115956,115973,115989,116006,116023,116040,116056,116073,116089,116106,116122,116139,116156,116173,116189,116206,116223,116239,116256,116272,116289,116306,116323,116340,116356,116373,116389,116406,116422,116439,116456,116473,116489,116506,116522,116539,116555,116572,116589,116606,116622,116639,116656,116673,116689,116706,116722,116739,116755,116772,116789,116806,116822,116839,116856,116872,116889,116906,116922,116939,116956,116973,116990,117007,117023,117039,117055,117072,117088,117105,117121,117138,117154,117171,117187,117204,117220,117237,117254,117270,117287,117304,117320,117339,117356,117373,117389,117406,117423,117439,117456,117472,117489,117506,117523,117539,117556,117572,117589,117606,117622,117639,117656,117672,117689,117706,117723,117739,117756,117773,117789,117806,117822,117839,117856,117873,117889,117906,117923,117940,117956,117973,117989,118006,118023,118040,118056,118073,118089,118106,118123,118139,118156,118172,118189,118205,118222,118239,118255,118272,118288,118304,118321,118338,118354,118371,118388,118404,118421,118437,118454,118471,118487,118504,118520,118537,118553,118570,118586,118603,118620,118636,118653,118669,118686,118703,118719,118736,118755,118772,118788,118805,118822,118839,118856,118872,118889,118906,118923,118940,118956,118973,118989,119006,119023,119039,119056,119073,119090,119106,119123,119140,119157,119174,119191,119208,119224,119241,119258,119275,119292,119309,119327,119344,119361,119378,119399,119417,119434,119452,119469,119486,119504,119521,119539,119556,119574,119591,119607,119624,119641,119658,119675,119692,119708,119725,119742,119759,119776,119792,119809,119826,119842,119859,119876,119892,119909,119925,119942,119959,119975,119992,120009,120025,120042,120059,120075,120092,120109,120125,120142,120158,120175,120194,120210,120227,120244,120260,120277,120294,120310,120327,120344,120360,120377,120393,120410,120427,120443,120460,120476,120493,120509,120526,120542,120559,120575,120592,120609,120625,120642,120658,120675,120691,120708,120725,120742,120758,120775,120792,120808,120825,120842,120858,120875,120891,120908,120925,120942,120958,120975,120992,121008,121025,121042,121058,121075,121091,121108,121125,121142,121158,121175,121191,121208,121225,121242,121258,121275,121291,121308,121325,121342,121358,121375,121391,121408,121425,121441,121458,121474,121491,121508,121524,121541,121558,121574,121591,121609,121626,121643,121659,121676,121692,121709,121725,121742,121758,121775,121791,121808,121824,121841,121857,121874,121891,121908,121925,121942,121958,121975,121991,122008,122025,122042,122058,122075,122091,122108,122124,122141,122158,122174,122191,122208,122225,122241,122258,122275,122292,122308,122325,122342,122358,122375,122391,122408,122425,122442,122458,122475,122491,122508,122524,122541,122558,122575,122591,122608,122624,122641,122658,122674,122691,122708,122725,122741,122758,122775,122791,122808,122825,122841,122858,122875,122891,122908,122924,122942,122958,122975,122991,123008,123027,123043,123060,123077,123093,123110,123126,123143,123159,123176,123192,123209,123225,123242,123258,123275,123292,123308,123324,123341,123358,123374,123391,123408,123424,123441,123458,123474,123491,123508,123524,123541,123558,123574,123591,123608,123624,123641,123658,123674,123691,123708,123725,123741,123758,123774,123791,123808,123824,123841,123858,123874,123891,123907,123924,123941,123958,123974,123991,124008,124025,124041,124058,124075,124092,124108,124125,124141,124158,124174,124191,124208,124225,124241,124258,124274,124291,124308,124324,124341,124358,124374,124391,124408,124424,124443,124459,124476,124492,124509,124525,124541,124558,124575,124591,124608,124624,124641,124657,124674,124691,124708,124724,124741,124758,124774,124791,124808,124824,124841,124858,124875,124891,124908,124924,124941,124958,124974,124991,125008,125024,125041,125058,125074,125091,125108,125125,125141,125158,125175,125191,125208,125224,125241,125257,125274,125291,125308,125324,125341,125358,125374,125391,125408,125424,125441,125458,125474,125491,125508,125525,125541,125558,125575,125591,125608,125625,125641,125658,125675,125691,125708,125724,125741,125758,125774,125791,125808,125824,125841,125860,125876,125893,125909,125926,125942,125959,125975,125992,126008,126025,126041,126058,126074,126091,126108,126124,126141,126158,126174,126191,126208,126224,126241,126257,126274,126291,126307,126324,126341,126357,126374,126391,126408,126424,126441,126458,126475,126491,126508,126525,126541,126558,126575,126591,126608,126624,126641,126657,126674,126690,126707,126724,126741,126758,126774,126791,126807,126824,126841,126858,126875,126891,126908,126925,126941,126958,126975,126991,127008,127024,127041,127057,127074,127091,127108,127125,127141,127158,127174,127191,127208,127224,127241,127258,127277,127293,127310,127326,127343,127359,127376,127392,127409,127426,127443,127459,127476,127492,127508,127525,127542,127559,127576,127592,127609,127625,127642,127659,127675,127691,127708,127725,127741,127758,127775,127791,127808,127825,127841,127858,127874,127891,127908,127924,127941,127958,127975,127991,128008,128025,128041,128058,128075,128091,128108,128124,128141,128158,128174,128191,128208,128224,128241,128258,128274,128291,128308,128324,128341,128358,128374,128391,128408,128424,128441,128458,128474,128491,128508,128524,128541,128558,128575,128591,128608,128625,128641,128658,128675,128693,128709,128726,128742,128759,128775,128792,128808,128825,128841,128858,128874,128891,128908,128924,128941,128958,128975,128991,129008,129025,129041,129058,129075,129091,129108,129124,129141,129158,129174,129191,129208,129225,129242,129258,129275,129292,129308,129325,129341,129358,129375,129391,129408,129425,129441,129458,129475,129491,129508,129524,129541,129557,129574,129591,129608,129624,129641,129658,129675,129691,129708,129725,129741,129758,129774,129791,129807,129824,129841,129857,129874,129891,129907,129924,129941,129958,129974,129991,130008,130025,130041,130058,130074,130091,130110,130127,130143,130160,130177,130193,130210,130227,130243,130259,130276,130293,130309,130326,130342,130359,130375,130392,130408,130424,130441,130458,130474,130491,130508,130524,130541,130558,130574,130591,130608,130625,130641,130658,130674,130691,130708,130725,130741,130758,130775,130791,130808,130825,130841,130858,130874,130891,130907,130924,130941,130957,130974,130991,131007,131024,131041,131058,131074,131091,131108,131125,131141,131158,131175,131191,131208,131224,131241,131258,131274,131291,131308,131325,131341,131358,131375,131391,131408,131425,131441,131458,131475,131491,131508,131526,131543,131560,131577,131593,131610,131627,131643,131660,131676,131693,131709,131726,131743,131759,131776,131792,131809,131825,131842,131858,131875,131891,131908,131925,131941,131958,131975,131991,132008,132025,132041,132058,132074,132091,132108,132124,132141,132157,132174,132191,132208,132224,132241,132258,132275,132291,132308,132325,132341,132358,132374,132391,132408,132424,132441,132458,132474,132491,132508,132524,132541,132558,132574,132591,132608,132625,132641,132658,132675,132691,132708,132725,132741,132758,132774,132791,132808,132825,132841,132858,132874,132891,132908,132924,132944,132961,132977,132994,133010,133027,133044,133060,133077,133094,133110,133127,133143,133159,133176,133192,133208,133225,133241,133258,133275,133293,133311,133328,133349,133366,133383,133399,133416,133433,133449,133466,133482,133499,133515,133532,133549,133566,133583,133599,133616,133633,133649,133666,133683,133699,133716,133733,133749,133766,133783,133799,133816,133833,133849,133866,133882,133899,133916,133933,133949,133966,133982,133999,134016,134033,134049,134066,134083,134099,134116,134133,134149,134166,134182,134199,134215,134232,134249,134265,134282,134299,134315,134332,134349,134368,134385,134401,134418,134434,134451,134468,134484,134501,134518,134534,134551,134568,134584,134601,134617,134634,134650,134667,134683,134700,134716,134733,134750,134767,134783,134800,134817,134833,134850,134866,134883,134899,134916,134932,134949,134966,134982,134999,135016,135033,135049,135066,135083,135099,135116,135133,135149,135166,135183,135199,135216,135233,135249,135266,135282,135299,135316,135333,135349,135366,135383,135399,135416,135433,135449,135466,135482,135499,135515,135532,135548,135566,135583,135600,135616,135633,135649,135666,135683,135699,135716,135733,135749,135766,135784,135801,135817,135834,135851,135867,135884,135901,135917,135934,135950,135967,135984,136000,136017,136033,136050,136067,136083,136100,136117,136133,136150,136166,136183,136199,136216,136233,136250,136266,136283,136299,136316,136333,136349,136366,136383,136399,136416,136433,136449,136466,136482,136499,136516,136533,136549,136566,136583,136599,136616,136632,136649,136666,136683,136699,136716,136732,136749,136766,136783,136799,136816,136832,136849,136866,136882,136899,136915,136933,136950,136966,136983,136999,137016,137032,137049,137066,137083,137099,137116,137132,137149,137166,137183,137201,137218,137234,137251,137267,137284,137301,137317,137334,137350,137367,137383,137400,137416,137433,137450,137466,137483,137499,137516,137532,137549,137566,137582,137599,137616,137633,137649,137666,137682,137699,137716,137733,137749,137766,137782,137799,137815,137833,137849,137866,137883,137899,137916,137932,137949,137965,137982,137999,138015,138032,138048,138066,138083,138099,138116,138133,138149,138166,138182,138199,138215,138232,138248,138266,138283,138299,138316,138333,138349,138366,138383,138399,138416,138433,138449,138466,138483,138499,138516,138532,138549,138566,138582,138598,138617,138634,138650,138667,138683,138700,138716,138733,138750,138766,138783,138799,138816,138833,138849,138866,138882,138899,138916,138932,138949,138965,138983,139000,139016,139033,139049,139066,139082,139099,139116,139133,139149,139166,139183,139199,139216,139233,139249,139265,139282,139298,139316,139333,139349,139366,139383,139399,139416,139433,139449,139466,139483,139499,139516,139532,139549,139565,139582,139599,139615,139632,139648,139665,139682,139699,139716,139732,139749,139766,139782,139799,139816,139833,139849,139866,139883,139899,139915,139933,139949,139966,139983,139999,140016,140035,140051,140068,140085,140101,140118,140134,140151,140167,140184,140201,140217,140234,140250,140267,140283,140300,140316,140333,140350,140366,140383,140399,140416,140433,140449,140466,140483,140499,140516,140532,140549,140565,140582,140598,140616,140633,140650,140667,140683,140700,140717,140733,140750,140766,140783,140800,140816,140833,140850,140866,140883,140900,140916,140932,140949,140966,140982,140999,141015,141033,141049,141066,141083,141099,141116,141133,141149,141166,141183,141199,141216,141232,141249,141266,141283,141299,141316,141333,141349,141366,141383,141399,141416,141433,141451,141468,141485,141501,141518,141535,141551,141568,141584,141601,141617,141634,141651,141667,141684,141700,141717,141733,141750,141766,141783,141800,141817,141833,141850,141866,141883,141900,141916,141932,141949,141966,141983,141999,142016,142033,142049,142066,142083,142099,142116,142133,142149,142166,142183,142199,142216,142233,142250,142266,142283,142299,142316,142333,142349,142366,142383,142399,142416,142432,142449,142465,142482,142498,142515,142533,142549,142565,142582,142598,142616,142633,142649,142666,142683,142699,142716,142732,142749,142766,142783,142799,142816,142832,142849,142867,142884,142900,142917,142933,142950,142966,142983,142999,143016,143033,143049,143066,143082,143099,143115,143132,143148,143165,143182,143198,143215,143233,143249,143266,143282,143299,143316,143333,143349,143366,143382,143399,143415,143432,143449,143466,143483,143499,143516,143533,143549,143566,143582,143599,143616,143633,143649,143666,143683,143699,143716,143733,143749,143766,143783,143800,143816,143833,143849,143866,143883,143899,143915,143933,143949,143966,143983,144000,144016,144033,144049,144066,144082,144099,144115,144133,144149,144166,144183,144200,144216,144233,144249,144266,144285,144301,144318,144335,144351,144368,144385,144402,144419,144436,144453,144469,144486,144503,144520,144536,144553,144570,144587,144604,144620,144637,144654,144671,144688,144704,144721,144738,144755,144771,144788,144804,144821,144838,144854,144871,144888,144905,144921,144938,144955,144971,144988,145004,145021,145038,145054,145071,145087,145104,145120,145137,145153,145170,145186,145203,145219,145236,145252,145269,145285,145302,145319,145335,145352,145368,145385,145401,145418,145434,145451,145467,145484,145500,145517,145533,145550,145566,145583,145599,145616,145633,145649,145668,145684,145701,145718,145734,145751,145767,145784,145800,145817,145834,145850,145867,145884,145900,145917,145933,145950,145966,145983,145999,146016,146033,146049,146066,146083,146099,146116,146133,146150,146166,146183,146199,146216,146233,146249,146266,146283,146299,146316,146332,146349,146365,146383,146399,146416,146433,146449,146466,146483,146499,146515,146532,146549,146565,146582,146598,146616,146633,146649,146666,146683,146699,146716,146732,146749,146765,146782,146798,146816,146833,146849,146866,146882,146899,146916,146932,146949,146966,146983,146999,147016,147032,147049,147065,147084,147101,147117,147134,147150,147167,147183,147200,147217,147233,147249,147266,147282,147299,147316,147333,147349,147366,147383,147399,147416,147432,147449,147466,147483,147499,147515,147532,147548,147565,147583,147599,147616,147632,147649,147665,147683,147700,147716,147733,147749,147766,147782,147799,147815,147832,147849,147866,147882,147898,147915,147932,147949,147966,147982,147999,148016,148032,148048,148065,148082,148099,148116,148132,148149,148165,148183,148199,148216,148233,148249,148266,148283,148299,148316,148333,148349,148366,148383,148399,148416,148433,148449,148466,148483,148501,148517,148534,148550,148567,148583,148599,148616,148633,148649,148666,148682,148699,148715,148732,148748,148765,148782,148798,148816,148833,148849,148865,148882,148899,148916,148933,148949,148965,148982,148998,149015,149032,149050,149066,149082,149099,149115,149132,149148,149166,149183,149199,149215,149232,149248,149265,149283,149299,149316,149332,149349,149366,149383,149399,149416,149433,149449,149466,149483,149499,149516,149533,149549,149566,149583,149599,149616,149633,149649,149666,149683,149699,149716,149733,149749,149766,149782,149798,149816,149833,149849,149866,149883,149899,149918,149934,149950,149967,149983,149999,150016,150033,150049,150066,150083,150099,150116,150133,150149,150166,150183,150199,150216,150233,150249,150266,150283,150300,150316,150333,150349,150366,150383,150399,150416,150433,150449,150466,150483,150499,150516,150533,150550,150566,150583,150599,150616,150633,150650,150666,150683,150699,150716,150733,150749,150766,150783,150799,150817,150833,150850,150866,150883,150900,150917,150933,150950,150967,150984,151000,151017,151033,151050,151066,151083,151099,151116,151133,151149,151166,151183,151199,151216,151233,151249,151266,151283,151299,151317,151334,151350,151367,151383,151400,151416,151433,151450,151466,151483,151499,151516,151533,151549,151566,151583,151599,151616,151633,151650,151666,151683,151699,151716,151733,151749,151766,151782,151799,151816,151833,151849,151866,151883,151899,151916,151932,151949,151966,151983,151999,152016,152032,152049,152065,152082,152098,152116,152133,152149,152166,152182,152198,152215,152232,152248,152265,152282,152298,152315,152332,152350,152366,152382,152399,152416,152432,152448,152466,152483,152499,152516,152533,152549,152565,152582,152598,152615,152632,152649,152666,152685,152701,152718,152734,152751,152768,152784,152801,152818,152834,152851,152868,152884,152901,152917,152934,152951,152967,152984,153000,153016,153033,153049,153066,153083,153099,153116,153133,153149,153166,153183,153199,153216,153233,153250,153266,153283,153299,153316,153333,153349,153366,153383,153400,153416,153433,153449,153466,153483,153499,153516,153533,153550,153566,153583,153599,153616,153633,153650,153666,153683,153700,153717,153733,153750,153766,153783,153799,153816,153833,153849,153866,153882,153899,153915,153932,153949,153966,153983,154000,154017,154035,154052,154069,154086,154103,154120,154136,154153,154169,154186,154203,154219,154236,154253,154269,154286,154303,154319,154336,154352,154369,154385,154402,154418,154435,154451,154467,154484,154500,154516,154533,154549,154566,154582,154599,154616,154633,154649,154666,154682,154698,154715,154733,154749,154766,154782,154799,154815,154832,154850,154866,154883,154899,154915,154933,154949,154966,154983,154999,155016,155033,155049,155066,155083