[{"success":true,"trial_type":"fullscreen","trial_index":0,"time_elapsed":33584,"internal_node_id":"0.0-0.0","protocol_sum":"","subject_identifier":524,"subject_sum":[158,106,114,85,122,218,21,208,32,1,240,36,244,63,6,237,196,163,20,55,224,225,187,62,234,195,108,162,208,196,253,167],"subject_pair":262,"STUDY_ID":"66a3ed3c5d10d0e7d8a6b9da","PROLIFIC_PID":"6643ad1d6324582f8867c01a","SESSION_ID":"66a4523cae4aeed1d653199f","practice_instructions":1,"leaderboard_instructions":0,"bonus":1,"reveal_word":false,"self_rating":"2","confidence":"59"},{"view_history":"[{\"page_index\":0,\"viewing_time\":4505.20000000298}]","rt":4505.29999999702,"trial_type":"instructions","trial_index":1,"time_elapsed":38090,"internal_node_id":"0.0-1.0","protocol_sum":"","subject_identifier":524,"subject_sum":[158,106,114,85,122,218,21,208,32,1,240,36,244,63,6,237,196,163,20,55,224,225,187,62,234,195,108,162,208,196,253,167],"subject_pair":262,"STUDY_ID":"66a3ed3c5d10d0e7d8a6b9da","PROLIFIC_PID":"6643ad1d6324582f8867c01a","SESSION_ID":"66a4523cae4aeed1d653199f","practice_instructions":1,"leaderboard_instructions":0,"bonus":1,"reveal_word":false,"self_rating":"2","confidence":"59"},{"view_history":"[{\"page_index\":0,\"viewing_time\":37544.29999999702}]","rt":37544.29999999702,"trial_type":"instructions","trial_index":2,"time_elapsed":75635,"internal_node_id":"0.0-2.0-0.0","protocol_sum":"","subject_identifier":524,"subject_sum":[158,106,114,85,122,218,21,208,32,1,240,36,244,63,6,237,196,163,20,55,224,225,187,62,234,195,108,162,208,196,253,167],"subject_pair":262,"STUDY_ID":"66a3ed3c5d10d0e7d8a6b9da","PROLIFIC_PID":"6643ad1d6324582f8867c01a","SESSION_ID":"66a4523cae4aeed1d653199f","practice_instructions":1,"leaderboard_instructions":0,"bonus":1,"reveal_word":false,"self_rating":"2","confidence":"59"},{"rt":23169.20000000298,"responses":"{\"Q0\":\"... reveal the word with as <b>few letter guesses</b> as possible\"}","question_order":"[0]","trial_type":"survey-multi-choice","trial_index":3,"time_elapsed":98805,"internal_node_id":"0.0-2.0-1.0","protocol_sum":"","subject_identifier":524,"subject_sum":[158,106,114,85,122,218,21,208,32,1,240,36,244,63,6,237,196,163,20,55,224,225,187,62,234,195,108,162,208,196,253,167],"subject_pair":262,"correct":true,"test_part":"multichoice_nonpretend","STUDY_ID":"66a3ed3c5d10d0e7d8a6b9da","PROLIFIC_PID":"6643ad1d6324582f8867c01a","SESSION_ID":"66a4523cae4aeed1d653199f","practice_instructions":1,"leaderboard_instructions":0,"bonus":1,"reveal_word":false,"self_rating":"2","confidence":"59"},{"view_history":"[{\"page_index\":0,\"viewing_time\":1323.7000000029802}]","rt":1323.9000000059605,"trial_type":"instructions","trial_index":4,"time_elapsed":100130,"internal_node_id":"0.0-3.0","protocol_sum":"","subject_identifier":524,"subject_sum":[158,106,114,85,122,218,21,208,32,1,240,36,244,63,6,237,196,163,20,55,224,225,187,62,234,195,108,162,208,196,253,167],"subject_pair":262,"STUDY_ID":"66a3ed3c5d10d0e7d8a6b9da","PROLIFIC_PID":"6643ad1d6324582f8867c01a","SESSION_ID":"66a4523cae4aeed1d653199f","practice_instructions":1,"leaderboard_instructions":0,"bonus":1,"reveal_word":false,"self_rating":"2","confidence":"59"},{"word":"ZEBRA","click_log":{"letter":["","A","E","M","O","P","I","T","B","Z","R"],"t":[0,4534.4000000059605,7827.9000000059605,11260,12358.79999999702,13109.90000000596,13958.90000000596,15211.90000000596,16157.90000000596,19156.20000000298,20522],"hit":[null,1,1,0,0,0,0,0,1,1,1],"asked":["","A","AE","AEM","AEMO","AEMOP","AEMOPI","AEMOPIT","AEMOPITB","AEMOPITBZ","AEMOPITBZR"],"word_state":["_____","____A","_E__A","_E__A","_E__A","_E__A","_E__A","_E__A","_EB_A","ZEB_A","ZEBRA"]},"hover_log":{"letter":["?","?","?","?","?","?","?","?","?","?","?","?","?","?","?","?","?","?","?","?","?","?","?","?","?","?","?","?","?","?","?","?","?","?","?","?","?","?","?","?","?","?","?","?","?","?","?","?","?","?","?","?","?","?","?","?","?","?","?","?","?","?","?","?","?","?","?","?","?","?","?","?","?","?","?","?","?","X","X","X","X","X","?","?","?","?","?","?","?","?","?","?","?","?","?","?","?","?","?","?","?","?","?","?","N","N","N","N","N","N","N","N","N","N","N","N","N","N","N","N","N","N","N","N","N","N","N","N","N","N","N","N","N","N","N","N","N","N","N","N","N","N","N","N","N","N","N","N","N","N","N","N","N","N","N","N","N","N","N","N","N","N","N","N","N","?","?","?","?","?","?","?","?","?","?","?","?","?","?","?","?","?","?","?","?","?","?","?","?","?","?","?","?","?","?","?","?","?","?","?","?","?","?","?","?","?","?","?","?","?","?","D","D","?","?","?","?","?","?","?","?","?","?","?","?","?","?","?","?","?","?","?","?","?","?","?","?","?","?","?","?","?","?","?","?","?","?","?","?","?","?","?","?","?","?","?","?","?","D","D","D","?","?","?","?","?","?","?","?","?","?","?","?","?","?","?","?","?","?","?","?","?","?","?","?","?","?","?","?","?","?","?","?","?","?","?","?","D","D","?","C","B","B","?","A","A","A","A","A","A","A","A","A","A","A","A","A","A","A","A","A","A","A","A","A","A","A","A","A","A","A","A","A","A","A","A","A","A","A","A","A","A","A","A","A","A","A","A","A","A","A","A","A","A","A","A","A","A","A","A","A","A","A","A","A","A","A","A","A","A","A","A","A","A","A","A","A","A","A","A","A","A","A","A","A","A","A","A","A","A","A","A","A","A","A","A","A","A","A","A","A","A","A","A","A","A","A","A","A","A","A","A","A","A","A","A","A","A","A","A","A","A","A","A","A","A","A","A","A","A","A","A","A","A","A","A","A","A","A","A","A","A","A","A","A","A","A","A","A","A","A","A","A","A","A","A","A","A","A","A","A","A","A","A","A","A","A","A","A","A","A","A","A","A","A","A","A","A","A","A","A","A","A","A","A","A","A","A","A","A","A","A","A","A","A","?","B","B","?","C","?","?","?","?","?","?","?","?","?","?","?","?","?","?","?","?","?","?","?","?","?","?","?","?","?","C","C","C","C","C","C","C","C","?","?","D","D","D","D","D","D","D","D","?","?","?","?","?","E","E","E","E","E","E","E","E","E","E","E","E","E","E","E","E","E","E","E","E","E","E","E","E","E","E","E","E","E","E","E","E","E","E","E","E","E","E","E","E","E","E","E","E","E","E","E","E","E","E","E","E","E","E","E","E","E","E","E","E","E","E","E","E","E","E","E","E","E","E","E","E","E","E","E","E","E","E","E","E","E","E","E","E","E","?","?","?","?","?","?","?","?","?","?","?","?","?","?","?","?","?","?","?","?","?","?","?","?","?","?","?","?","?","?","P","P","P","P","P","P","P","P","P","P","P","P","P","P","P","P","P","P","P","P","P","P","P","P","P","P","P","P","P","P","P","P","P","P","P","P","P","P","P","P","P","P","P","P","P","P","P","P","P","P","P","P","P","P","P","P","P","P","P","P","P","P","P","P","P","P","P","P","P","P","P","P","P","P","P","P","P","P","P","P","P","P","P","P","P","P","P","P","P","P","P","P","P","P","P","P","P","P","P","P","P","P","P","P","P","P","?","?","?","?","?","?","O","O","O","O","O","O","O","?","?","?","?","?","N","N","N","N","?","M","M","M","M","M","M","M","M","M","M","M","M","M","M","M","M","M","M","M","M","M","M","M","M","M","M","M","M","M","M","M","M","M","M","M","M","M","M","M","M","M","M","M","M","M","M","M","?","?","N","N","N","?","?","?","?","?","?","?","?","?","?","?","?","?","?","?","?","?","?","?","?","?","?","?","?","?","?","?","?","?","?","?","O","O","O","O","O","O","O","O","O","O","O","O","O","O","O","O","O","O","O","O","O","O","O","O","O","O","O","O","O","O","O","O","O","O","O","O","?","?","?","P","P","P","P","P","P","P","?","?","?","?","?","?","?","?","?","?","?","P","P","P","P","P","P","P","P","P","P","P","P","P","P","P","P","P","P","P","P","P","P","P","P","P","P","P","P","P","P","P","P","P","?","Q","Q","Q","Q","Q","Q","Q","?","?","?","?","?","?","?","?","?","?","?","?","H","?","?","?","?","?","I","I","I","I","I","I","I","I","I","I","I","I","I","I","I","I","I","I","I","I","I","I","I","I","I","I","I","I","I","?","?","?","?","Q","?","?","?","Z","Z","Z","Z","?","Y","Y","Y","?","?","?","?","?","?","?","?","?","?","?","?","?","?","?","?","?","?","?","?","?","V","?","?","U","U","U","U","U","?","?","?","?","?","?","?","?","?","?","?","?","?","?","?","?","T","T","T","T","T","T","T","T","T","T","T","T","T","T","T","T","T","T","T","T","T","T","T","T","T","T","T","T","T","T","T","T","T","T","T","T","T","T","T","T","T","T","T","T","T","T","T","T","?","?","?","?","?","?","?","K","K","K","K","K","K","K","?","?","?","?","?","?","B","B","B","B","B","B","B","B","B","B","B","B","B","B","B","B","B","B","B","B","B","B","B","B","B","B","B","B","B","B","B","B","B","B","B","B","B","B","B","B","B","B","B","B","B","B","B","B","B","B","B","B","B","B","B","B","B","B","B","B","B","B","B","B","B","B","B","B","B","B","B","B","B","B","B","B","B","B","B","B","B","B","B","B","B","B","B","B","B","B","B","B","B","B","B","B","B","B","B","B","B","B","B","B","B","B","B","B","B","B","B","B","B","B","B","B","B","B","B","B","B","B","B","B","B","B","B","B","B","B","B","B","B","B","B","B","B","B","B","B","B","B","B","B","B","B","B","B","B","B","B","B","B","B","B","B","B","B","B","B","B","B","B","B","B","B","B","B","B","B","B","B","B","B","B","B","B","B","B","?","?","?","?","?","?","?","?","?","?","?","?","?","?","?","?","?","?","W","W","W","X","X","X","X","X","X","?","?","?","Y","Y","Y","Y","Y","Y","Y","?","?","Z","Z","Z","Z","Z","Z","Z","Z","Z","Z","Z","Z","Z","Z","Z","Z","Z","Z","Z","Z","Z","Z","Z","Z","Z","Z","Z","Z","Z","Z","Z","Z","Z","Z","Z","Z","Z","Z","Z","Z","Z","Z","Z","Z","Z","Z","Z","Z","Z","Z","Z","?","?","Y","Y","Y","Y","Y","Y","Y","?","?","?","?","?","?","?","?","?","?","?","?","?","?","?","?","?","?","?","?","?","?","?","?","?","?","?","?","Q","Q","Q","Q","Q","Q","Q","?","?","R","R","R","R","R","R","R","R","R","R","R","R","R","R","R","R","R","R","R","R","R","R","R","R","R","R","R","R","R","R","R","R","R","R","R","R","R","R","R","R","R","?","?","?","?","?","?","?","?","?","?","?","?","?","?","?","?","?","?","?","?","?","?","?","?","?","?","?","?","?","?","?","?","?","?","?","?","?","?","?","?","?","?","?","?","?","?","?","?","?","?","?","?","?","?","?","?","?","?","?","?","?","?","?","?","?","?","?","?","?","?","?","?","?","?","?","?","?","?","?","?","?","?","?","?","?","?","?","?","?","?","?","?","?","?","?","?","?","?","?","?","?","?","?","?","?","?","?","?","?","?","?","?","?","?","?","?","?"],"t":[24,29,43,57,71,85,99,112,126,140,154,168,182,197,210,224,237,251,265,279,293,307,321,335,349,363,376,390,404,418,432,445,459,473,487,501,515,530,543,557,571,584,598,612,626,640,654,668,682,695,709,723,737,751,765,780,793,807,820,834,848,862,876,890,904,918,933,947,959,973,987,1001,1015,1029,1043,1057,1071,1085,1099,1112,1126,1140,1154,1169,1182,1196,1209,1223,1237,1251,1265,1281,1293,1307,1321,1334,1348,1362,1376,1390,1404,1418,1432,1445,1460,1473,1487,1502,1515,1531,1543,1557,1570,1585,1598,1612,1626,1640,1654,1668,1682,1695,1710,1723,1737,1751,1765,1779,1793,1807,1820,1834,1848,1862,1876,1890,1904,1918,1933,1946,1960,1973,1987,2001,2015,2029,2043,2056,2070,2084,2098,2112,2126,2140,2154,2168,2182,2195,2210,2223,2237,2251,2265,2279,2293,2307,2320,2334,2348,2362,2376,2390,2404,2418,2432,2445,2459,2473,2487,2502,2515,2530,2543,2556,2570,2584,2598,2612,2626,2640,2654,2668,2682,2695,2710,2723,2737,2751,2765,2779,2793,2806,2820,2834,2848,2862,2876,2890,2904,2918,2933,2946,2959,2973,2987,3001,3015,3029,3043,3057,3070,3084,3098,3112,3126,3140,3154,3168,3182,3195,3210,3223,3237,3251,3265,3280,3294,3306,3320,3334,3348,3362,3376,3390,3404,3418,3432,3445,3460,3474,3487,3501,3515,3529,3543,3556,3570,3584,3598,3612,3626,3640,3654,3669,3682,3695,3709,3723,3737,3751,3765,3780,3793,3806,3820,3835,3848,3862,3876,3890,3904,3918,3932,3945,3960,3973,3987,4001,4016,4029,4044,4056,4070,4084,4098,4112,4126,4140,4154,4168,4182,4196,4209,4223,4237,4251,4265,4279,4293,4306,4321,4335,4348,4362,4376,4390,4404,4418,4431,4445,4459,4474,4487,4503,4515,4530,4543,4557,4571,4585,4598,4612,4626,4640,4654,4668,4682,4696,4711,4723,4737,4751,4766,4780,4793,4807,4820,4834,4849,4862,4876,4890,4904,4918,4932,4945,4959,4973,4987,5001,5015,5030,5043,5057,5070,5084,5098,5112,5126,5140,5154,5168,5182,5195,5210,5223,5237,5251,5265,5279,5293,5306,5321,5334,5348,5362,5376,5390,5404,5418,5432,5445,5459,5473,5487,5501,5515,5529,5543,5557,5570,5584,5598,5612,5626,5640,5654,5668,5682,5695,5709,5723,5737,5751,5765,5779,5793,5806,5820,5834,5848,5862,5876,5890,5904,5918,5930,5945,5959,5973,5987,6001,6015,6029,6043,6056,6070,6084,6098,6112,6126,6140,6154,6168,6182,6195,6209,6223,6237,6251,6265,6279,6293,6307,6320,6334,6349,6362,6376,6390,6404,6418,6432,6445,6459,6473,6487,6501,6515,6529,6543,6557,6570,6585,6599,6612,6627,6640,6654,6668,6682,6695,6709,6723,6737,6751,6765,6779,6793,6807,6820,6834,6848,6862,6876,6890,6904,6918,6932,6945,6959,6973,6987,7001,7015,7029,7043,7056,7071,7084,7098,7112,7126,7140,7154,7168,7182,7196,7210,7223,7237,7251,7265,7279,7293,7307,7321,7334,7348,7362,7376,7390,7404,7418,7432,7445,7459,7473,7487,7501,7515,7529,7543,7557,7571,7584,7598,7612,7626,7640,7654,7668,7681,7695,7709,7723,7737,7751,7765,7779,7793,7807,7821,7835,7848,7862,7876,7890,7904,7918,7932,7945,7959,7973,7987,8001,8015,8030,8043,8057,8071,8084,8098,8112,8126,8140,8154,8168,8181,8195,8209,8223,8239,8252,8265,8279,8293,8307,8320,8334,8348,8362,8376,8390,8404,8418,8431,8445,8459,8473,8487,8501,8515,8529,8543,8557,8571,8584,8598,8612,8626,8640,8654,8668,8682,8696,8709,8723,8737,8751,8765,8779,8793,8807,8821,8834,8850,8862,8876,8890,8904,8918,8931,8945,8959,8973,8987,9001,9015,9029,9043,9057,9070,9084,9098,9112,9126,9140,9154,9168,9183,9195,9209,9224,9237,9251,9265,9279,9293,9307,9321,9334,9348,9362,9376,9390,9404,9418,9433,9445,9459,9473,9488,9501,9515,9529,9543,9557,9570,9584,9598,9613,9626,9640,9654,9668,9682,9695,9709,9723,9737,9752,9765,9779,9793,9807,9821,9834,9848,9862,9876,9890,9904,9918,9932,9945,9959,9973,9987,10001,10015,10029,10043,10057,10071,10084,10098,10112,10126,10140,10154,10168,10181,10195,10209,10223,10237,10253,10265,10279,10293,10307,10321,10334,10348,10362,10376,10390,10404,10418,10432,10445,10459,10473,10487,10502,10515,10530,10543,10557,10570,10584,10598,10612,10626,10640,10654,10668,10682,10696,10709,10723,10737,10751,10765,10779,10793,10807,10821,10836,10848,10862,10876,10890,10904,10918,10932,10945,10959,10973,10987,11001,11015,11029,11043,11057,11071,11085,11098,11112,11126,11140,11154,11168,11182,11195,11209,11223,11237,11251,11267,11279,11293,11307,11321,11335,11348,11362,11376,11390,11404,11419,11432,11445,11459,11473,11487,11501,11515,11529,11543,11557,11571,11584,11598,11612,11626,11640,11654,11668,11682,11695,11709,11723,11737,11751,11765,11779,11793,11807,11821,11835,11848,11862,11876,11890,11904,11918,11932,11946,11959,11973,11987,12001,12015,12029,12043,12057,12070,12086,12098,12112,12126,12140,12154,12169,12182,12197,12209,12223,12237,12251,12265,12279,12293,12307,12321,12334,12348,12362,12376,12390,12404,12419,12432,12445,12459,12473,12487,12501,12515,12529,12543,12557,12571,12584,12598,12612,12626,12640,12654,12668,12682,12696,12709,12723,12737,12751,12765,12779,12793,12807,12821,12835,12850,12862,12876,12890,12904,12918,12932,12946,12959,12973,12987,13002,13015,13029,13043,13057,13071,13084,13098,13112,13126,13140,13154,13168,13182,13195,13209,13223,13237,13251,13265,13279,13293,13307,13321,13334,13349,13362,13376,13390,13404,13419,13432,13447,13459,13473,13487,13501,13516,13529,13543,13557,13571,13584,13598,13612,13626,13640,13655,13668,13682,13696,13709,13723,13737,13751,13765,13779,13793,13807,13821,13835,13848,13862,13876,13890,13904,13918,13932,13945,13960,13973,13987,14001,14015,14029,14043,14057,14071,14084,14098,14112,14126,14140,14154,14168,14182,14196,14209,14223,14237,14251,14265,14279,14293,14307,14321,14334,14348,14362,14376,14390,14404,14418,14432,14447,14459,14473,14487,14502,14515,14529,14543,14557,14572,14585,14598,14612,14626,14640,14654,14668,14682,14696,14710,14723,14737,14751,14765,14779,14793,14807,14821,14834,14848,14862,14876,14890,14904,14918,14932,14945,14959,14973,14987,15001,15015,15029,15043,15057,15071,15084,15098,15112,15126,15140,15154,15168,15182,15195,15209,15223,15237,15251,15265,15279,15293,15307,15320,15334,15348,15362,15376,15390,15404,15418,15432,15445,15459,15473,15487,15501,15515,15529,15543,15557,15570,15584,15598,15612,15626,15640,15654,15668,15682,15695,15709,15723,15738,15751,15765,15779,15793,15807,15821,15834,15848,15862,15876,15890,15904,15918,15932,15945,15959,15973,15987,16001,16015,16029,16043,16057,16070,16084,16098,16112,16126,16140,16154,16168,16181,16195,16209,16223,16238,16252,16265,16279,16293,16307,16321,16334,16348,16362,16376,16390,16404,16420,16432,16445,16459,16473,16488,16501,16515,16529,16543,16557,16571,16584,16598,16614,16626,16640,16654,16668,16682,16695,16709,16723,16737,16751,16765,16779,16793,16807,16820,16834,16848,16862,16876,16890,16904,16919,16932,16945,16959,16973,16987,17001,17015,17029,17043,17057,17071,17084,17098,17112,17126,17140,17154,17168,17182,17195,17209,17223,17237,17251,17265,17279,17293,17307,17321,17334,17348,17362,17376,17390,17404,17418,17432,17445,17459,17473,17487,17501,17515,17529,17543,17557,17571,17584,17598,17612,17626,17640,17654,17668,17682,17695,17709,17723,17737,17751,17765,17779,17793,17807,17821,17834,17848,17862,17876,17890,17904,17918,17932,17947,17959,17973,17987,18002,18015,18029,18043,18057,18071,18084,18098,18112,18126,18140,18154,18168,18182,18195,18209,18223,18237,18251,18265,18279,18293,18307,18320,18334,18348,18362,18376,18390,18404,18419,18432,18445,18459,18473,18487,18501,18515,18529,18543,18557,18571,18584,18598,18612,18626,18640,18654,18668,18682,18696,18710,18723,18737,18751,18765,18779,18793,18807,18821,18836,18848,18862,18876,18890,18904,18918,18932,18946,18959,18973,18987,19001,19015,19029,19043,19057,19070,19084,19098,19112,19126,19140,19154,19168,19182,19196,19209,19223,19237,19251,19265,19279,19293,19307,19321,19334,19348,19362,19376,19391,19404,19419,19432,19446,19459,19473,19487,19501,19515,19529,19543,19557,19571,19586,19598,19612,19626,19640,19654,19668,19682,19696,19709,19723,19737,19751,19765,19779,19793,19807,19821,19834,19848,19862,19876,19890,19904,19918,19931,19945,19959,19973,19987,20001,20015,20029,20043,20057,20071,20086,20098,20112,20126,20140,20154,20168,20182,20195,20209,20223,20237,20252,20265,20279,20293,20307,20321,20334,20348,20362,20376,20390,20404,20418,20431,20445,20459,20473,20487,20501,20515,20530,20543,20557,20571,20584,20598,20612,20626,20640,20654,20668,20681,20695,20709,20723,20737,20751,20765,20779,20793,20807,20821,20834,20848,20862,20876,20890,20904,20918,20932,20946,20960,20973,20987,21001,21015,21029,21043,21057,21071,21084,21098,21113,21126,21140,21154,21168,21182,21196,21209,21223,21239,21251,21265,21279,21293,21307,21321,21334,21348,21362,21376,21390,21404,21419,21432,21445,21459,21473,21489,21501,21515,21529,21543,21557,21571,21584,21598,21614,21626,21640,21654,21668,21682,21696,21709,21723,21738,21751,21765,21779,21793,21807,21821,21834,21848,21862,21876,21890,21904,21918,21932,21946,21960,21974,21987,22001,22015,22029,22043,22057,22071,22086,22098,22112,22126,22140,22154,22168,22182,22196,22209,22223,22237,22251,22265,22279,22293,22307,22321,22334,22348,22362,22376,22390,22404,22418,22432,22445,22459,22473,22487,22501,22515,22530],"hit":[null],"x":[-1.1428571428571428,-1.1428571428571428,-1.1428571428571428,-1.1428571428571428,-1.1428571428571428,-1.1428571428571428,-1.1428571428571428,-1.1428571428571428,-1.1428571428571428,-1.1428571428571428,-1.1428571428571428,-1.1428571428571428,1.5612244897959184,1.5748299319727892,1.58843537414966,1.6122448979591837,1.6360544217687074,1.6564625850340136,1.6564625850340136,1.6564625850340136,1.6564625850340136,1.6564625850340136,1.6564625850340136,1.6564625850340136,1.6564625850340136,1.6564625850340136,1.6564625850340136,1.6564625850340136,1.6564625850340136,1.6564625850340136,1.6564625850340136,1.6564625850340136,1.6564625850340136,1.6564625850340136,1.6564625850340136,1.653061224489796,1.629251700680272,1.598639455782313,1.5714285714285714,1.5408163265306123,1.5068027210884354,1.445578231292517,1.336734693877551,1.1938775510204083,1.064625850340136,0.9523809523809523,0.8741496598639455,0.8197278911564626,0.782312925170068,0.7687074829931972,0.7687074829931972,0.7687074829931972,0.7687074829931972,0.7687074829931972,0.7687074829931972,0.7687074829931972,0.7687074829931972,0.7687074829931972,0.7687074829931972,0.7687074829931972,0.7687074829931972,0.7687074829931972,0.7687074829931972,0.7755102040816326,0.7789115646258503,0.782312925170068,0.782312925170068,0.782312925170068,0.782312925170068,0.782312925170068,0.782312925170068,0.782312925170068,0.782312925170068,0.782312925170068,0.782312925170068,0.782312925170068,0.7755102040816326,0.7687074829931972,0.7482993197278912,0.7312925170068028,0.7142857142857143,0.6972789115646258,0.6768707482993197,0.6564625850340136,0.6326530612244898,0.6054421768707483,0.5850340136054422,0.5748299319727891,0.5714285714285714,0.5714285714285714,0.5748299319727891,0.5748299319727891,0.5748299319727891,0.5748299319727891,0.5748299319727891,0.5748299319727891,0.5748299319727891,0.5748299319727891,0.5748299319727891,0.5918367346938775,0.5986394557823129,0.6020408163265306,0.6054421768707483,0.608843537414966,0.608843537414966,0.608843537414966,0.608843537414966,0.608843537414966,0.608843537414966,0.608843537414966,0.608843537414966,0.608843537414966,0.608843537414966,0.608843537414966,0.608843537414966,0.608843537414966,0.608843537414966,0.608843537414966,0.608843537414966,0.608843537414966,0.608843537414966,0.608843537414966,0.608843537414966,0.608843537414966,0.608843537414966,0.608843537414966,0.608843537414966,0.608843537414966,0.608843537414966,0.608843537414966,0.608843537414966,0.608843537414966,0.608843537414966,0.608843537414966,0.608843537414966,0.608843537414966,0.608843537414966,0.608843537414966,0.608843537414966,0.608843537414966,0.608843537414966,0.608843537414966,0.608843537414966,0.608843537414966,0.608843537414966,0.608843537414966,0.608843537414966,0.608843537414966,0.608843537414966,0.608843537414966,0.608843537414966,0.608843537414966,0.608843537414966,0.608843537414966,0.608843537414966,0.608843537414966,0.608843537414966,0.608843537414966,0.608843537414966,0.6054421768707483,0.5986394557823129,0.5918367346938775,0.5816326530612245,0.5680272108843537,0.5578231292517006,0.54421768707483,0.5374149659863946,0.5306122448979592,0.5272108843537415,0.5204081632653061,0.5136054421768708,0.5102040816326531,0.5068027210884354,0.5068027210884354,0.5068027210884354,0.5068027210884354,0.5068027210884354,0.5068027210884354,0.5068027210884354,0.5068027210884354,0.5068027210884354,0.5068027210884354,0.5068027210884354,0.5068027210884354,0.5068027210884354,0.5068027210884354,0.5068027210884354,0.5068027210884354,0.5068027210884354,0.5068027210884354,0.5068027210884354,0.5068027210884354,0.5068027210884354,0.5068027210884354,0.5068027210884354,0.5068027210884354,0.5068027210884354,0.5068027210884354,0.5068027210884354,0.5068027210884354,0.5068027210884354,0.5068027210884354,0.5068027210884354,0.5068027210884354,0.5034013605442177,0.5,0.5,0.5,0.5,0.4965986394557823,0.4897959183673469,0.47959183673469385,0.46258503401360546,0.43537414965986393,0.41156462585034015,0.391156462585034,0.3741496598639456,0.35374149659863946,0.3435374149659864,0.3299319727891156,0.3231292517006803,0.3197278911564626,0.3163265306122449,0.3163265306122449,0.3163265306122449,0.3163265306122449,0.3163265306122449,0.3163265306122449,0.3163265306122449,0.3163265306122449,0.3163265306122449,0.3163265306122449,0.3163265306122449,0.3163265306122449,0.3163265306122449,0.3163265306122449,0.3163265306122449,0.3163265306122449,0.3163265306122449,0.3163265306122449,0.3163265306122449,0.3163265306122449,0.3163265306122449,0.3163265306122449,0.3163265306122449,0.3163265306122449,0.3163265306122449,0.3163265306122449,0.3163265306122449,0.3163265306122449,0.3163265306122449,0.3163265306122449,0.3163265306122449,0.3231292517006803,0.3333333333333333,0.3469387755102041,0.36394557823129253,0.3843537414965986,0.40476190476190477,0.42517006802721086,0.4387755102040816,0.4523809523809524,0.46258503401360546,0.46598639455782315,0.46938775510204084,0.46938775510204084,0.46938775510204084,0.46938775510204084,0.46938775510204084,0.46938775510204084,0.46938775510204084,0.46938775510204084,0.46938775510204084,0.46938775510204084,0.46938775510204084,0.47619047619047616,0.47959183673469385,0.48299319727891155,0.4931972789115646,0.5,0.5068027210884354,0.5102040816326531,0.5136054421768708,0.5136054421768708,0.5136054421768708,0.5136054421768708,0.5136054421768708,0.5136054421768708,0.5136054421768708,0.5136054421768708,0.5136054421768708,0.5136054421768708,0.5136054421768708,0.5136054421768708,0.5136054421768708,0.5068027210884354,0.48639455782312924,0.45918367346938777,0.41496598639455784,0.35374149659863946,0.2755102040816326,0.19047619047619047,0.12244897959183673,0.07142857142857142,0.034013605442176874,0.017006802721088437,0.006802721088435374,0.006802721088435374,0.006802721088435374,0.006802721088435374,0.006802721088435374,0.006802721088435374,0.006802721088435374,0.006802721088435374,0.006802721088435374,0.006802721088435374,0.006802721088435374,0.006802721088435374,0.006802721088435374,0.006802721088435374,0.006802721088435374,0.006802721088435374,0.006802721088435374,0.006802721088435374,0.006802721088435374,0.006802721088435374,0.006802721088435374,0.006802721088435374,0.006802721088435374,0.006802721088435374,0.006802721088435374,0.006802721088435374,0.006802721088435374,0.006802721088435374,0.006802721088435374,0.006802721088435374,0.006802721088435374,0.006802721088435374,0.006802721088435374,0.006802721088435374,0.006802721088435374,0.006802721088435374,0.006802721088435374,0.006802721088435374,0.006802721088435374,0.006802721088435374,0.006802721088435374,0.006802721088435374,0.006802721088435374,0.006802721088435374,0.006802721088435374,0.006802721088435374,0.006802721088435374,0.006802721088435374,0.006802721088435374,0.006802721088435374,0.006802721088435374,0.006802721088435374,0.006802721088435374,0.006802721088435374,0.006802721088435374,0.006802721088435374,0.006802721088435374,0.006802721088435374,0.006802721088435374,0.006802721088435374,0.006802721088435374,0.006802721088435374,0.006802721088435374,0.006802721088435374,0.006802721088435374,0.006802721088435374,0.006802721088435374,0.006802721088435374,0.006802721088435374,0.006802721088435374,0.006802721088435374,0.006802721088435374,0.006802721088435374,0.006802721088435374,0.006802721088435374,0.006802721088435374,0.006802721088435374,0.006802721088435374,0.006802721088435374,0.006802721088435374,0.006802721088435374,0.006802721088435374,0.006802721088435374,0.006802721088435374,0.006802721088435374,0.006802721088435374,0.006802721088435374,0.006802721088435374,0.006802721088435374,0.006802721088435374,0.006802721088435374,0.006802721088435374,0.006802721088435374,0.006802721088435374,0.006802721088435374,0.006802721088435374,0.006802721088435374,0.006802721088435374,0.006802721088435374,0.006802721088435374,0.006802721088435374,0.006802721088435374,0.006802721088435374,0.006802721088435374,0.006802721088435374,0.006802721088435374,0.006802721088435374,0.006802721088435374,0.006802721088435374,0.006802721088435374,0.006802721088435374,0.006802721088435374,0.006802721088435374,0.006802721088435374,0.006802721088435374,0.006802721088435374,0.006802721088435374,0.006802721088435374,0.006802721088435374,0.006802721088435374,0.006802721088435374,0.006802721088435374,0.006802721088435374,0.006802721088435374,0.006802721088435374,0.006802721088435374,0.006802721088435374,0.006802721088435374,0.006802721088435374,0.006802721088435374,0.006802721088435374,0.006802721088435374,0.006802721088435374,0.006802721088435374,0.006802721088435374,0.006802721088435374,0.006802721088435374,0.006802721088435374,0.006802721088435374,0.006802721088435374,0.006802721088435374,0.006802721088435374,0.006802721088435374,0.006802721088435374,0.006802721088435374,0.003401360544217687,-0.006802721088435374,-0.017006802721088437,-0.023809523809523808,-0.027210884353741496,-0.027210884353741496,-0.027210884353741496,-0.027210884353741496,-0.027210884353741496,-0.027210884353741496,-0.027210884353741496,-0.027210884353741496,-0.027210884353741496,-0.027210884353741496,-0.027210884353741496,-0.027210884353741496,-0.027210884353741496,-0.027210884353741496,-0.027210884353741496,-0.027210884353741496,-0.027210884353741496,-0.027210884353741496,-0.027210884353741496,-0.027210884353741496,-0.027210884353741496,-0.027210884353741496,-0.027210884353741496,-0.027210884353741496,-0.027210884353741496,-0.027210884353741496,-0.027210884353741496,-0.027210884353741496,-0.027210884353741496,-0.027210884353741496,-0.027210884353741496,-0.027210884353741496,-0.027210884353741496,-0.027210884353741496,-0.027210884353741496,-0.027210884353741496,-0.027210884353741496,-0.027210884353741496,-0.01020408163265306,0.027210884353741496,0.07482993197278912,0.11224489795918367,0.16326530612244897,0.21428571428571427,0.282312925170068,0.35714285714285715,0.42517006802721086,0.47959183673469385,0.5068027210884354,0.5238095238095238,0.5272108843537415,0.5272108843537415,0.5272108843537415,0.5272108843537415,0.5272108843537415,0.5136054421768708,0.48639455782312924,0.45918367346938777,0.4387755102040816,0.41836734693877553,0.3945578231292517,0.3673469387755102,0.3435374149659864,0.3231292517006803,0.3129251700680272,0.30612244897959184,0.30612244897959184,0.30612244897959184,0.30612244897959184,0.30612244897959184,0.30612244897959184,0.30272108843537415,0.30272108843537415,0.30272108843537415,0.30952380952380953,0.3163265306122449,0.32653061224489793,0.3401360544217687,0.35374149659863946,0.3673469387755102,0.37755102040816324,0.391156462585034,0.4013605442176871,0.41496598639455784,0.43197278911564624,0.4523809523809524,0.46938775510204084,0.48299319727891155,0.4931972789115646,0.5,0.5068027210884354,0.5102040816326531,0.5136054421768708,0.5204081632653061,0.5204081632653061,0.5238095238095238,0.5272108843537415,0.5340136054421769,0.5374149659863946,0.5374149659863946,0.5408163265306123,0.5408163265306123,0.5408163265306123,0.5408163265306123,0.5408163265306123,0.5408163265306123,0.5408163265306123,0.5408163265306123,0.5408163265306123,0.5408163265306123,0.5408163265306123,0.5408163265306123,0.5408163265306123,0.5408163265306123,0.5408163265306123,0.5408163265306123,0.5408163265306123,0.5408163265306123,0.5408163265306123,0.5408163265306123,0.5408163265306123,0.5408163265306123,0.5408163265306123,0.5408163265306123,0.5408163265306123,0.5408163265306123,0.5408163265306123,0.5408163265306123,0.5408163265306123,0.5408163265306123,0.5408163265306123,0.5408163265306123,0.5408163265306123,0.5408163265306123,0.5408163265306123,0.5408163265306123,0.5408163265306123,0.5408163265306123,0.5408163265306123,0.5408163265306123,0.5408163265306123,0.5408163265306123,0.5408163265306123,0.5408163265306123,0.5408163265306123,0.5408163265306123,0.5408163265306123,0.5408163265306123,0.5408163265306123,0.5408163265306123,0.5408163265306123,0.5408163265306123,0.5408163265306123,0.5408163265306123,0.5408163265306123,0.5408163265306123,0.5408163265306123,0.5408163265306123,0.5408163265306123,0.5408163265306123,0.5408163265306123,0.5408163265306123,0.5408163265306123,0.5408163265306123,0.5408163265306123,0.5408163265306123,0.5408163265306123,0.5408163265306123,0.5408163265306123,0.5408163265306123,0.5408163265306123,0.5408163265306123,0.5408163265306123,0.5408163265306123,0.5408163265306123,0.5510204081632653,0.564625850340136,0.5884353741496599,0.6122448979591837,0.6360544217687075,0.6564625850340136,0.673469387755102,0.6870748299319728,0.6972789115646258,0.7040816326530612,0.7074829931972789,0.7074829931972789,0.7108843537414966,0.7108843537414966,0.7108843537414966,0.7108843537414966,0.7108843537414966,0.7108843537414966,0.7108843537414966,0.7108843537414966,0.7108843537414966,0.7108843537414966,0.7108843537414966,0.7108843537414966,0.7142857142857143,0.7210884353741497,0.7278911564625851,0.7312925170068028,0.7448979591836735,0.7585034013605442,0.7721088435374149,0.7857142857142857,0.7959183673469388,0.8061224489795918,0.8163265306122449,0.8231292517006803,0.826530612244898,0.826530612244898,0.8299319727891157,0.8299319727891157,0.8299319727891157,0.8299319727891157,0.8299319727891157,0.8299319727891157,0.8299319727891157,0.8299319727891157,0.8299319727891157,0.8299319727891157,0.8299319727891157,0.8299319727891157,0.8299319727891157,0.8299319727891157,0.8299319727891157,0.8299319727891157,0.8299319727891157,0.8299319727891157,0.8299319727891157,0.8299319727891157,0.8299319727891157,0.8299319727891157,0.8299319727891157,0.8299319727891157,0.8299319727891157,0.8299319727891157,0.8299319727891157,0.8299319727891157,0.8299319727891157,0.8299319727891157,0.8299319727891157,0.8299319727891157,0.8299319727891157,0.8299319727891157,0.8299319727891157,0.8299319727891157,0.8299319727891157,0.8299319727891157,0.8299319727891157,0.8299319727891157,0.8299319727891157,0.8299319727891157,0.8299319727891157,0.8299319727891157,0.8299319727891157,0.8299319727891157,0.8299319727891157,0.8299319727891157,0.8299319727891157,0.8299319727891157,0.8299319727891157,0.8299319727891157,0.8299319727891157,0.8299319727891157,0.8299319727891157,0.8299319727891157,0.8299319727891157,0.8299319727891157,0.8299319727891157,0.8299319727891157,0.8299319727891157,0.8299319727891157,0.8299319727891157,0.8299319727891157,0.8299319727891157,0.8299319727891157,0.8299319727891157,0.8299319727891157,0.8299319727891157,0.8299319727891157,0.8299319727891157,0.8299319727891157,0.8299319727891157,0.8299319727891157,0.8299319727891157,0.8299319727891157,0.8299319727891157,0.8299319727891157,0.8299319727891157,0.8299319727891157,0.8299319727891157,0.8299319727891157,0.8299319727891157,0.8299319727891157,0.8299319727891157,0.8299319727891157,0.8299319727891157,0.8299319727891157,0.8299319727891157,0.8299319727891157,0.8299319727891157,0.8299319727891157,0.8299319727891157,0.8299319727891157,0.8299319727891157,0.8299319727891157,0.8299319727891157,0.8299319727891157,0.8299319727891157,0.8231292517006803,0.8163265306122449,0.8061224489795918,0.7993197278911565,0.7891156462585034,0.7789115646258503,0.7687074829931972,0.7585034013605442,0.7448979591836735,0.7346938775510204,0.7210884353741497,0.7108843537414966,0.7006802721088435,0.6938775510204082,0.6836734693877551,0.673469387755102,0.6632653061224489,0.6496598639455783,0.6360544217687075,0.6156462585034014,0.5918367346938775,0.5680272108843537,0.54421768707483,0.5238095238095238,0.5034013605442177,0.48299319727891155,0.46938775510204084,0.46258503401360546,0.4557823129251701,0.4523809523809524,0.4523809523809524,0.4523809523809524,0.4523809523809524,0.4523809523809524,0.4523809523809524,0.4523809523809524,0.4523809523809524,0.4523809523809524,0.4489795918367347,0.4489795918367347,0.4489795918367347,0.4489795918367347,0.4489795918367347,0.4489795918367347,0.4489795918367347,0.4489795918367347,0.4489795918367347,0.4489795918367347,0.4489795918367347,0.4489795918367347,0.4489795918367347,0.4489795918367347,0.4489795918367347,0.4489795918367347,0.4489795918367347,0.4489795918367347,0.4489795918367347,0.4489795918367347,0.4489795918367347,0.4489795918367347,0.4489795918367347,0.4489795918367347,0.4489795918367347,0.4489795918367347,0.4489795918367347,0.4489795918367347,0.4489795918367347,0.4489795918367347,0.4489795918367347,0.4489795918367347,0.4557823129251701,0.47278911564625853,0.4897959183673469,0.5136054421768708,0.5374149659863946,0.564625850340136,0.5918367346938775,0.6156462585034014,0.6292517006802721,0.6428571428571429,0.6462585034013606,0.6530612244897959,0.6564625850340136,0.6666666666666666,0.6768707482993197,0.6870748299319728,0.7006802721088435,0.717687074829932,0.7312925170068028,0.7448979591836735,0.7551020408163265,0.7653061224489796,0.7687074829931972,0.7755102040816326,0.782312925170068,0.7857142857142857,0.7925170068027211,0.7959183673469388,0.7959183673469388,0.7959183673469388,0.7959183673469388,0.7959183673469388,0.7959183673469388,0.7959183673469388,0.7891156462585034,0.782312925170068,0.7721088435374149,0.7619047619047619,0.7551020408163265,0.7448979591836735,0.7380952380952381,0.7346938775510204,0.7312925170068028,0.7312925170068028,0.7312925170068028,0.7312925170068028,0.7312925170068028,0.7312925170068028,0.7312925170068028,0.7312925170068028,0.7312925170068028,0.7312925170068028,0.7312925170068028,0.7312925170068028,0.7312925170068028,0.7312925170068028,0.7312925170068028,0.7312925170068028,0.7312925170068028,0.7312925170068028,0.7312925170068028,0.7312925170068028,0.7312925170068028,0.7312925170068028,0.7312925170068028,0.7312925170068028,0.7312925170068028,0.7312925170068028,0.7312925170068028,0.7312925170068028,0.7312925170068028,0.7312925170068028,0.7414965986394558,0.7551020408163265,0.7687074829931972,0.7857142857142857,0.7993197278911565,0.8197278911564626,0.8367346938775511,0.8537414965986394,0.8673469387755102,0.8809523809523809,0.891156462585034,0.8979591836734694,0.9081632653061225,0.9149659863945578,0.9217687074829932,0.9285714285714286,0.9319727891156463,0.9319727891156463,0.9319727891156463,0.935374149659864,0.935374149659864,0.9319727891156463,0.9217687074829932,0.9047619047619048,0.891156462585034,0.8809523809523809,0.8741496598639455,0.8707482993197279,0.8673469387755102,0.8673469387755102,0.8673469387755102,0.8673469387755102,0.8673469387755102,0.8673469387755102,0.8673469387755102,0.8673469387755102,0.8673469387755102,0.8673469387755102,0.8673469387755102,0.8673469387755102,0.8673469387755102,0.8673469387755102,0.8673469387755102,0.8673469387755102,0.8673469387755102,0.8673469387755102,0.8673469387755102,0.8673469387755102,0.8673469387755102,0.8673469387755102,0.8673469387755102,0.8673469387755102,0.8741496598639455,0.8843537414965986,0.8979591836734694,0.9149659863945578,0.9387755102040817,0.9625850340136054,0.9863945578231292,1,1.0170068027210883,1.0238095238095237,1.034013605442177,1.0408163265306123,1.0442176870748299,1.0476190476190477,1.0476190476190477,1.0510204081632653,1.0510204081632653,1.0510204081632653,1.0510204081632653,1.0510204081632653,1.0510204081632653,1.0510204081632653,1.0510204081632653,1.0510204081632653,1.054421768707483,1.0612244897959184,1.064625850340136,1.0680272108843538,1.0748299319727892,1.0816326530612246,1.0952380952380953,1.1054421768707483,1.119047619047619,1.1258503401360545,1.1326530612244898,1.1360544217687074,1.1360544217687074,1.1360544217687074,1.1360544217687074,1.1360544217687074,1.1360544217687074,1.1360544217687074,1.1360544217687074,1.1360544217687074,1.1360544217687074,1.1360544217687074,1.1360544217687074,1.1360544217687074,1.1360544217687074,1.1360544217687074,1.1360544217687074,1.1360544217687074,1.1360544217687074,1.1360544217687074,1.1326530612244898,1.1326530612244898,1.1258503401360545,1.1224489795918366,1.119047619047619,1.1088435374149659,1.098639455782313,1.0850340136054422,1.064625850340136,1.0476190476190477,1.034013605442177,1.0170068027210883,1,0.9863945578231292,0.9727891156462585,0.9591836734693877,0.9421768707482994,0.9217687074829932,0.9013605442176871,0.8775510204081632,0.8503401360544217,0.8299319727891157,0.8061224489795918,0.7891156462585034,0.7687074829931972,0.7517006802721088,0.7346938775510204,0.7210884353741497,0.7040816326530612,0.6904761904761905,0.6802721088435374,0.6700680272108843,0.6632653061224489,0.6564625850340136,0.6530612244897959,0.6428571428571429,0.6258503401360545,0.6054421768707483,0.5782312925170068,0.54421768707483,0.5034013605442177,0.46938775510204084,0.42857142857142855,0.3877551020408163,0.3469387755102041,0.3129251700680272,0.2891156462585034,0.2687074829931973,0.25510204081632654,0.24489795918367346,0.24149659863945577,0.23809523809523808,0.23809523809523808,0.23809523809523808,0.23809523809523808,0.23809523809523808,0.23809523809523808,0.23469387755102042,0.23469387755102042,0.23469387755102042,0.23129251700680273,0.22789115646258504,0.22448979591836735,0.21428571428571427,0.2108843537414966,0.20068027210884354,0.19387755102040816,0.1870748299319728,0.18027210884353742,0.17346938775510204,0.16666666666666666,0.16326530612244897,0.16326530612244897,0.16326530612244897,0.16326530612244897,0.16326530612244897,0.16326530612244897,0.16326530612244897,0.16326530612244897,0.16326530612244897,0.16326530612244897,0.16326530612244897,0.16326530612244897,0.16326530612244897,0.16326530612244897,0.16326530612244897,0.16326530612244897,0.16326530612244897,0.16326530612244897,0.16326530612244897,0.16326530612244897,0.16326530612244897,0.16326530612244897,0.16326530612244897,0.16326530612244897,0.16326530612244897,0.16326530612244897,0.16326530612244897,0.16326530612244897,0.16326530612244897,0.16326530612244897,0.16326530612244897,0.16326530612244897,0.16326530612244897,0.16326530612244897,0.16326530612244897,0.16326530612244897,0.16326530612244897,0.16326530612244897,0.16326530612244897,0.16666666666666666,0.16666666666666666,0.17006802721088435,0.17346938775510204,0.17687074829931973,0.17687074829931973,0.17687074829931973,0.17687074829931973,0.17687074829931973,0.17346938775510204,0.17346938775510204,0.17346938775510204,0.17346938775510204,0.17006802721088435,0.17006802721088435,0.17006802721088435,0.17006802721088435,0.17006802721088435,0.17006802721088435,0.17006802721088435,0.17006802721088435,0.17006802721088435,0.17006802721088435,0.17006802721088435,0.17006802721088435,0.17006802721088435,0.17006802721088435,0.17006802721088435,0.16666666666666666,0.16666666666666666,0.16666666666666666,0.16666666666666666,0.16666666666666666,0.16666666666666666,0.16666666666666666,0.16666666666666666,0.16666666666666666,0.16666666666666666,0.16666666666666666,0.16666666666666666,0.16666666666666666,0.16666666666666666,0.16666666666666666,0.16666666666666666,0.16666666666666666,0.16666666666666666,0.16666666666666666,0.16666666666666666,0.16666666666666666,0.16666666666666666,0.16666666666666666,0.16666666666666666,0.16666666666666666,0.16666666666666666,0.16666666666666666,0.16666666666666666,0.16666666666666666,0.16666666666666666,0.16666666666666666,0.16666666666666666,0.16666666666666666,0.16666666666666666,0.16666666666666666,0.16666666666666666,0.16666666666666666,0.16666666666666666,0.16666666666666666,0.16666666666666666,0.16666666666666666,0.16666666666666666,0.16666666666666666,0.16666666666666666,0.16666666666666666,0.16666666666666666,0.16666666666666666,0.16666666666666666,0.16666666666666666,0.16666666666666666,0.16666666666666666,0.16666666666666666,0.16666666666666666,0.16666666666666666,0.16666666666666666,0.16666666666666666,0.16666666666666666,0.16666666666666666,0.16666666666666666,0.16666666666666666,0.16666666666666666,0.16666666666666666,0.16666666666666666,0.16666666666666666,0.16666666666666666,0.16666666666666666,0.16666666666666666,0.16666666666666666,0.16666666666666666,0.16666666666666666,0.16666666666666666,0.16666666666666666,0.16666666666666666,0.16666666666666666,0.16666666666666666,0.16666666666666666,0.16666666666666666,0.16666666666666666,0.16666666666666666,0.16666666666666666,0.16666666666666666,0.16666666666666666,0.16666666666666666,0.16666666666666666,0.16666666666666666,0.16666666666666666,0.16666666666666666,0.16666666666666666,0.16666666666666666,0.16666666666666666,0.16666666666666666,0.16666666666666666,0.16666666666666666,0.16666666666666666,0.16666666666666666,0.16666666666666666,0.16666666666666666,0.16666666666666666,0.16666666666666666,0.16666666666666666,0.16666666666666666,0.16666666666666666,0.16666666666666666,0.16666666666666666,0.16666666666666666,0.16666666666666666,0.16666666666666666,0.16666666666666666,0.16666666666666666,0.16666666666666666,0.16666666666666666,0.16666666666666666,0.16666666666666666,0.16666666666666666,0.16666666666666666,0.16666666666666666,0.16666666666666666,0.16666666666666666,0.16666666666666666,0.16666666666666666,0.16666666666666666,0.16666666666666666,0.16666666666666666,0.16666666666666666,0.16666666666666666,0.16666666666666666,0.16666666666666666,0.16666666666666666,0.16666666666666666,0.16666666666666666,0.16666666666666666,0.16666666666666666,0.16666666666666666,0.16666666666666666,0.16666666666666666,0.16666666666666666,0.16666666666666666,0.16666666666666666,0.16666666666666666,0.16666666666666666,0.16666666666666666,0.16666666666666666,0.16666666666666666,0.16666666666666666,0.16666666666666666,0.16666666666666666,0.16666666666666666,0.16666666666666666,0.16666666666666666,0.16666666666666666,0.16666666666666666,0.16666666666666666,0.16666666666666666,0.16666666666666666,0.16666666666666666,0.16666666666666666,0.16666666666666666,0.16666666666666666,0.16666666666666666,0.16666666666666666,0.16666666666666666,0.16666666666666666,0.16666666666666666,0.16666666666666666,0.16666666666666666,0.16666666666666666,0.16666666666666666,0.16666666666666666,0.16666666666666666,0.16666666666666666,0.16666666666666666,0.16666666666666666,0.16666666666666666,0.17346938775510204,0.19387755102040816,0.22108843537414966,0.25510204081632654,0.2857142857142857,0.3129251700680272,0.336734693877551,0.35374149659863946,0.36054421768707484,0.36054421768707484,0.36054421768707484,0.36054421768707484,0.36054421768707484,0.36054421768707484,0.3673469387755102,0.37755102040816324,0.3979591836734694,0.43197278911564624,0.46938775510204084,0.5136054421768708,0.5510204081632653,0.5884353741496599,0.6258503401360545,0.6632653061224489,0.6938775510204082,0.717687074829932,0.7346938775510204,0.7482993197278912,0.7619047619047619,0.7721088435374149,0.7857142857142857,0.7993197278911565,0.8129251700680272,0.8299319727891157,0.8469387755102041,0.8639455782312925,0.8843537414965986,0.9013605442176871,0.9149659863945578,0.9217687074829932,0.9285714285714286,0.9455782312925171,0.9693877551020408,0.9931972789115646,1.0068027210884354,1.0170068027210883,1.0204081632653061,1.0238095238095237,1.0238095238095237,1.0238095238095237,1.0238095238095237,1.0238095238095237,1.0238095238095237,1.0238095238095237,1.0238095238095237,1.0238095238095237,1.0238095238095237,1.0238095238095237,1.0238095238095237,1.0238095238095237,1.0238095238095237,1.0238095238095237,1.0238095238095237,1.0238095238095237,1.0238095238095237,1.0238095238095237,1.0238095238095237,1.0238095238095237,1.0238095238095237,1.0238095238095237,1.0238095238095237,1.0238095238095237,1.0238095238095237,1.0238095238095237,1.0238095238095237,1.0238095238095237,1.0238095238095237,1.0238095238095237,1.0238095238095237,1.0238095238095237,1.0238095238095237,1.0238095238095237,1.0238095238095237,1.0238095238095237,1.0238095238095237,1.0204081632653061,1.0136054421768708,1.0068027210884354,0.9965986394557823,0.9829931972789115,0.9659863945578231,0.9523809523809523,0.935374149659864,0.9149659863945578,0.8979591836734694,0.8809523809523809,0.8639455782312925,0.8503401360544217,0.8401360544217688,0.8299319727891157,0.8197278911564626,0.8163265306122449,0.8061224489795918,0.8027210884353742,0.7993197278911565,0.7925170068027211,0.7891156462585034,0.7891156462585034,0.7857142857142857,0.7857142857142857,0.7857142857142857,0.7857142857142857,0.7857142857142857,0.7857142857142857,0.7857142857142857,0.7857142857142857,0.7857142857142857,0.7857142857142857,0.7925170068027211,0.8095238095238095,0.826530612244898,0.8401360544217688,0.8571428571428571,0.8673469387755102,0.8775510204081632,0.8877551020408163,0.8979591836734694,0.9149659863945578,0.935374149659864,0.9523809523809523,0.9693877551020408,0.9863945578231292,0.9965986394557823,1.010204081632653,1.0272108843537415,1.0476190476190477,1.064625850340136,1.0816326530612246,1.098639455782313,1.1122448979591837,1.1258503401360545,1.1428571428571428,1.153061224489796,1.1564625850340136,1.1598639455782314,1.1598639455782314,1.1598639455782314,1.1598639455782314,1.1598639455782314,1.1598639455782314,1.1598639455782314,1.1598639455782314,1.1598639455782314,1.1598639455782314,1.1598639455782314,1.1598639455782314,1.1598639455782314,1.1598639455782314,1.1598639455782314,1.1598639455782314,1.1598639455782314,1.1598639455782314,1.1598639455782314,1.1598639455782314,1.1598639455782314,1.1598639455782314,1.1598639455782314,1.1598639455782314,1.1598639455782314,1.1598639455782314,1.1598639455782314,1.1598639455782314,1.1598639455782314,1.1598639455782314,1.1598639455782314,1.163265306122449,1.1700680272108843,1.1802721088435375,1.1904761904761905,1.2006802721088434,1.2108843537414966,1.2210884353741496,1.227891156462585,1.2312925170068028,1.2312925170068028,1.2312925170068028,1.2312925170068028,1.2312925170068028,1.2312925170068028,1.2312925170068028,1.2312925170068028,1.2312925170068028,1.2312925170068028,1.2312925170068028,1.2312925170068028,1.2312925170068028,1.2312925170068028,1.2312925170068028,1.2312925170068028,1.2312925170068028,1.2312925170068028,1.2312925170068028,1.2312925170068028,1.2312925170068028,1.2312925170068028,1.2312925170068028,1.2312925170068028,1.2312925170068028,1.2312925170068028,1.2312925170068028,1.2312925170068028,1.2312925170068028,1.2312925170068028,1.2312925170068028,1.2312925170068028,1.2312925170068028,1.2312925170068028,1.2312925170068028,1.2312925170068028,1.2312925170068028,1.2312925170068028,1.2312925170068028,1.2312925170068028,1.2312925170068028,1.2312925170068028,1.2312925170068028,1.2312925170068028,1.2312925170068028,1.2312925170068028,1.2312925170068028,1.2312925170068028,1.2312925170068028,1.2312925170068028,1.2312925170068028,1.2312925170068028,1.2312925170068028,1.2312925170068028,1.2312925170068028,1.2312925170068028,1.2312925170068028,1.2312925170068028,1.2312925170068028,1.2346938775510203,1.2414965986394557,1.248299319727891,1.2619047619047619,1.2755102040816326,1.2925170068027212,1.316326530612245,1.336734693877551,1.3673469387755102,1.4047619047619047,1.4489795918367347,1.4863945578231292,1.5272108843537415,1.564625850340136,1.6054421768707483,1.6360544217687074,1.6666666666666667,1.6938775510204083,1.7210884353741496,1.7414965986394557,1.7585034013605443,1.7653061224489797,1.7653061224489797,1.7653061224489797,1.7653061224489797,1.7653061224489797,1.7653061224489797,1.7653061224489797,1.7653061224489797,1.7653061224489797,1.7653061224489797,1.7653061224489797,1.7653061224489797,1.7653061224489797,1.7653061224489797,1.7653061224489797,1.7653061224489797,1.7653061224489797,1.7653061224489797,1.7653061224489797,1.7653061224489797,1.7653061224489797,1.7653061224489797,1.7653061224489797,1.7653061224489797,1.7653061224489797,1.7653061224489797,1.7653061224489797,1.7653061224489797,1.7653061224489797,1.7653061224489797,1.7653061224489797,1.7653061224489797,1.7653061224489797],"y":[-2.511904761904762,-2.511904761904762,-2.511904761904762,-2.511904761904762,-2.511904761904762,-2.511904761904762,-2.511904761904762,-2.511904761904762,-2.511904761904762,-2.511904761904762,-2.511904761904762,-2.511904761904762,2.6880952380952383,2.6785714285714284,2.669047619047619,2.6595238095238094,2.6595238095238094,2.6595238095238094,2.6595238095238094,2.6595238095238094,2.6595238095238094,2.6595238095238094,2.6595238095238094,2.6595238095238094,2.6595238095238094,2.6595238095238094,2.6595238095238094,2.6595238095238094,2.6595238095238094,2.6595238095238094,2.6595238095238094,2.6595238095238094,2.6595238095238094,2.6595238095238094,2.6595238095238094,2.6595238095238094,2.6595238095238094,2.6595238095238094,2.6595238095238094,2.6595238095238094,2.6404761904761904,2.5833333333333335,2.4595238095238097,2.25,2.011904761904762,1.7547619047619047,1.5071428571428571,1.2880952380952382,1.1357142857142857,1.069047619047619,1.069047619047619,1.069047619047619,1.069047619047619,1.069047619047619,1.069047619047619,1.069047619047619,1.069047619047619,1.069047619047619,1.069047619047619,1.069047619047619,1.069047619047619,1.069047619047619,1.069047619047619,1.05,1.0119047619047619,0.9738095238095238,0.9547619047619048,0.9547619047619048,0.9452380952380952,0.9452380952380952,0.9452380952380952,0.9452380952380952,0.9452380952380952,0.9452380952380952,0.9452380952380952,0.9452380952380952,0.9452380952380952,0.9357142857142857,0.9166666666666666,0.9071428571428571,0.8976190476190476,0.888095238095238,0.8690476190476191,0.85,0.8214285714285714,0.7833333333333333,0.7452380952380953,0.7071428571428572,0.6976190476190476,0.6976190476190476,0.6976190476190476,0.6976190476190476,0.6976190476190476,0.6976190476190476,0.6976190476190476,0.6976190476190476,0.6976190476190476,0.6976190476190476,0.6976190476190476,0.6976190476190476,0.6976190476190476,0.6976190476190476,0.669047619047619,0.6309523809523809,0.6023809523809524,0.5833333333333334,0.5833333333333334,0.5833333333333334,0.5833333333333334,0.5833333333333334,0.5833333333333334,0.5833333333333334,0.5833333333333334,0.5833333333333334,0.5833333333333334,0.5833333333333334,0.5833333333333334,0.5833333333333334,0.5833333333333334,0.5833333333333334,0.5833333333333334,0.5833333333333334,0.5833333333333334,0.5833333333333334,0.5833333333333334,0.5833333333333334,0.5833333333333334,0.5833333333333334,0.5833333333333334,0.5833333333333334,0.5833333333333334,0.5833333333333334,0.5833333333333334,0.5833333333333334,0.5833333333333334,0.5833333333333334,0.5833333333333334,0.5833333333333334,0.5833333333333334,0.5833333333333334,0.5833333333333334,0.5833333333333334,0.5833333333333334,0.5833333333333334,0.5833333333333334,0.5833333333333334,0.5833333333333334,0.5833333333333334,0.5833333333333334,0.5833333333333334,0.5833333333333334,0.5833333333333334,0.5833333333333334,0.5833333333333334,0.5833333333333334,0.5833333333333334,0.5833333333333334,0.5738095238095238,0.5547619047619048,0.5452380952380952,0.5261904761904762,0.4976190476190476,0.4595238095238095,0.4119047619047619,0.36428571428571427,0.3261904761904762,0.2976190476190476,0.26904761904761904,0.25,0.22142857142857142,0.19285714285714287,0.1738095238095238,0.15476190476190477,0.14523809523809525,0.14523809523809525,0.1261904761904762,0.1261904761904762,0.11666666666666667,0.11666666666666667,0.11666666666666667,0.10714285714285714,0.10714285714285714,0.10714285714285714,0.10714285714285714,0.10714285714285714,0.10714285714285714,0.10714285714285714,0.10714285714285714,0.10714285714285714,0.10714285714285714,0.10714285714285714,0.10714285714285714,0.10714285714285714,0.10714285714285714,0.10714285714285714,0.10714285714285714,0.10714285714285714,0.10714285714285714,0.10714285714285714,0.10714285714285714,0.10714285714285714,0.10714285714285714,0.10714285714285714,0.10714285714285714,0.10714285714285714,0.10714285714285714,0.10714285714285714,0.10714285714285714,0.10714285714285714,0.0880952380952381,0.05,-0.007142857142857143,-0.08333333333333333,-0.17857142857142858,-0.27380952380952384,-0.3404761904761905,-0.40714285714285714,-0.4738095238095238,-0.5214285714285715,-0.5785714285714286,-0.6166666666666667,-0.6357142857142857,-0.6452380952380953,-0.6547619047619048,-0.6547619047619048,-0.6547619047619048,-0.6547619047619048,-0.6547619047619048,-0.6547619047619048,-0.6547619047619048,-0.6547619047619048,-0.6547619047619048,-0.6547619047619048,-0.6547619047619048,-0.6547619047619048,-0.6547619047619048,-0.6547619047619048,-0.6547619047619048,-0.6547619047619048,-0.6547619047619048,-0.6547619047619048,-0.6547619047619048,-0.6547619047619048,-0.6547619047619048,-0.6547619047619048,-0.6547619047619048,-0.6547619047619048,-0.6547619047619048,-0.6547619047619048,-0.6547619047619048,-0.6547619047619048,-0.6547619047619048,-0.6452380952380953,-0.5976190476190476,-0.530952380952381,-0.4357142857142857,-0.32142857142857145,-0.17857142857142858,-0.04523809523809524,0.05,0.1357142857142857,0.2119047619047619,0.25,0.26904761904761904,0.2785714285714286,0.2785714285714286,0.2785714285714286,0.2785714285714286,0.2785714285714286,0.2785714285714286,0.2785714285714286,0.2785714285714286,0.2785714285714286,0.2785714285714286,0.2785714285714286,0.25952380952380955,0.23095238095238096,0.19285714285714287,0.15476190476190477,0.1261904761904762,0.10714285714285714,0.0880952380952381,0.0880952380952381,0.07857142857142857,0.07857142857142857,0.07857142857142857,0.07857142857142857,0.07857142857142857,0.07857142857142857,0.07857142857142857,0.07857142857142857,0.07857142857142857,0.07857142857142857,0.07857142857142857,0.07857142857142857,0.07857142857142857,0.07857142857142857,0.0880952380952381,0.0880952380952381,0.0880952380952381,0.07857142857142857,0.05,0.030952380952380953,0.002380952380952381,-0.007142857142857143,-0.02619047619047619,-0.03571428571428571,-0.03571428571428571,-0.03571428571428571,-0.03571428571428571,-0.03571428571428571,-0.03571428571428571,-0.03571428571428571,-0.03571428571428571,-0.03571428571428571,-0.03571428571428571,-0.03571428571428571,-0.03571428571428571,-0.03571428571428571,-0.03571428571428571,-0.03571428571428571,-0.03571428571428571,-0.03571428571428571,-0.03571428571428571,-0.03571428571428571,-0.03571428571428571,-0.03571428571428571,-0.03571428571428571,-0.03571428571428571,-0.03571428571428571,-0.03571428571428571,-0.03571428571428571,-0.03571428571428571,-0.03571428571428571,-0.03571428571428571,-0.03571428571428571,-0.03571428571428571,-0.03571428571428571,-0.03571428571428571,-0.03571428571428571,-0.03571428571428571,-0.03571428571428571,-0.03571428571428571,-0.03571428571428571,-0.03571428571428571,-0.03571428571428571,-0.03571428571428571,-0.03571428571428571,-0.03571428571428571,-0.03571428571428571,-0.03571428571428571,-0.03571428571428571,-0.03571428571428571,-0.03571428571428571,-0.03571428571428571,-0.03571428571428571,-0.03571428571428571,-0.03571428571428571,-0.03571428571428571,-0.03571428571428571,-0.03571428571428571,-0.03571428571428571,-0.03571428571428571,-0.03571428571428571,-0.03571428571428571,-0.03571428571428571,-0.03571428571428571,-0.03571428571428571,-0.03571428571428571,-0.03571428571428571,-0.03571428571428571,-0.03571428571428571,-0.03571428571428571,-0.03571428571428571,-0.03571428571428571,-0.03571428571428571,-0.03571428571428571,-0.03571428571428571,-0.03571428571428571,-0.03571428571428571,-0.03571428571428571,-0.03571428571428571,-0.03571428571428571,-0.03571428571428571,-0.03571428571428571,-0.03571428571428571,-0.03571428571428571,-0.03571428571428571,-0.03571428571428571,-0.03571428571428571,-0.03571428571428571,-0.03571428571428571,-0.03571428571428571,-0.03571428571428571,-0.03571428571428571,-0.03571428571428571,-0.03571428571428571,-0.03571428571428571,-0.03571428571428571,-0.03571428571428571,-0.03571428571428571,-0.03571428571428571,-0.03571428571428571,-0.03571428571428571,-0.03571428571428571,-0.03571428571428571,-0.03571428571428571,-0.03571428571428571,-0.03571428571428571,-0.03571428571428571,-0.03571428571428571,-0.03571428571428571,-0.03571428571428571,-0.03571428571428571,-0.03571428571428571,-0.03571428571428571,-0.03571428571428571,-0.03571428571428571,-0.03571428571428571,-0.03571428571428571,-0.03571428571428571,-0.03571428571428571,-0.03571428571428571,-0.03571428571428571,-0.03571428571428571,-0.03571428571428571,-0.03571428571428571,-0.03571428571428571,-0.03571428571428571,-0.03571428571428571,-0.03571428571428571,-0.03571428571428571,-0.03571428571428571,-0.03571428571428571,-0.03571428571428571,-0.03571428571428571,-0.03571428571428571,-0.03571428571428571,-0.03571428571428571,-0.03571428571428571,-0.03571428571428571,-0.03571428571428571,-0.03571428571428571,-0.03571428571428571,-0.03571428571428571,-0.03571428571428571,-0.03571428571428571,-0.03571428571428571,-0.03571428571428571,-0.03571428571428571,-0.03571428571428571,-0.04523809523809524,-0.05476190476190476,-0.06428571428571428,-0.06428571428571428,-0.06428571428571428,-0.06428571428571428,-0.06428571428571428,-0.06428571428571428,-0.06428571428571428,-0.06428571428571428,-0.06428571428571428,-0.06428571428571428,-0.06428571428571428,-0.06428571428571428,-0.06428571428571428,-0.06428571428571428,-0.06428571428571428,-0.06428571428571428,-0.06428571428571428,-0.06428571428571428,-0.06428571428571428,-0.06428571428571428,-0.06428571428571428,-0.06428571428571428,-0.06428571428571428,-0.06428571428571428,-0.06428571428571428,-0.06428571428571428,-0.06428571428571428,-0.06428571428571428,-0.06428571428571428,-0.06428571428571428,-0.06428571428571428,-0.06428571428571428,-0.06428571428571428,-0.06428571428571428,-0.06428571428571428,-0.06428571428571428,-0.06428571428571428,-0.06428571428571428,-0.06428571428571428,-0.06428571428571428,-0.05476190476190476,-0.02619047619047619,0.011904761904761904,0.05,0.0880952380952381,0.1261904761904762,0.15476190476190477,0.19285714285714287,0.22142857142857142,0.23095238095238096,0.24047619047619048,0.24047619047619048,0.24047619047619048,0.24047619047619048,0.24047619047619048,0.24047619047619048,0.24047619047619048,0.24047619047619048,0.22142857142857142,0.2119047619047619,0.20238095238095238,0.19285714285714287,0.19285714285714287,0.18333333333333332,0.18333333333333332,0.1738095238095238,0.1738095238095238,0.1738095238095238,0.1738095238095238,0.1738095238095238,0.1738095238095238,0.16428571428571428,0.15476190476190477,0.14523809523809525,0.11666666666666667,0.10714285714285714,0.07857142857142857,0.06904761904761905,0.04047619047619048,0.02142857142857143,0.002380952380952381,-0.007142857142857143,-0.016666666666666666,-0.016666666666666666,-0.02619047619047619,-0.02619047619047619,-0.03571428571428571,-0.03571428571428571,-0.03571428571428571,-0.03571428571428571,-0.04523809523809524,-0.04523809523809524,-0.04523809523809524,-0.04523809523809524,-0.04523809523809524,-0.04523809523809524,-0.04523809523809524,-0.04523809523809524,-0.04523809523809524,-0.04523809523809524,-0.04523809523809524,-0.04523809523809524,-0.04523809523809524,-0.04523809523809524,-0.04523809523809524,-0.04523809523809524,-0.04523809523809524,-0.04523809523809524,-0.04523809523809524,-0.04523809523809524,-0.04523809523809524,-0.04523809523809524,-0.04523809523809524,-0.04523809523809524,-0.04523809523809524,-0.04523809523809524,-0.04523809523809524,-0.04523809523809524,-0.04523809523809524,-0.04523809523809524,-0.04523809523809524,-0.04523809523809524,-0.04523809523809524,-0.04523809523809524,-0.04523809523809524,-0.04523809523809524,-0.04523809523809524,-0.04523809523809524,-0.04523809523809524,-0.04523809523809524,-0.04523809523809524,-0.04523809523809524,-0.04523809523809524,-0.04523809523809524,-0.04523809523809524,-0.04523809523809524,-0.04523809523809524,-0.04523809523809524,-0.04523809523809524,-0.04523809523809524,-0.04523809523809524,-0.04523809523809524,-0.04523809523809524,-0.04523809523809524,-0.04523809523809524,-0.04523809523809524,-0.04523809523809524,-0.03571428571428571,-0.03571428571428571,-0.03571428571428571,-0.03571428571428571,-0.03571428571428571,-0.03571428571428571,-0.03571428571428571,-0.03571428571428571,-0.03571428571428571,-0.03571428571428571,-0.03571428571428571,-0.03571428571428571,-0.03571428571428571,-0.03571428571428571,-0.03571428571428571,-0.02619047619047619,-0.02619047619047619,-0.02619047619047619,-0.02619047619047619,-0.02619047619047619,-0.02619047619047619,-0.02619047619047619,-0.02619047619047619,-0.02619047619047619,-0.02619047619047619,-0.02619047619047619,-0.02619047619047619,-0.02619047619047619,-0.02619047619047619,-0.016666666666666666,0.011904761904761904,0.05,0.09761904761904762,0.1357142857142857,0.1738095238095238,0.20238095238095238,0.22142857142857142,0.24047619047619048,0.25952380952380955,0.25952380952380955,0.26904761904761904,0.26904761904761904,0.2785714285714286,0.2785714285714286,0.2785714285714286,0.2785714285714286,0.2785714285714286,0.2785714285714286,0.2785714285714286,0.2785714285714286,0.2785714285714286,0.2785714285714286,0.2785714285714286,0.2785714285714286,0.2785714285714286,0.28809523809523807,0.2976190476190476,0.3261904761904762,0.34523809523809523,0.38333333333333336,0.4119047619047619,0.44047619047619047,0.4595238095238095,0.4785714285714286,0.4880952380952381,0.4976190476190476,0.5071428571428571,0.5071428571428571,0.5071428571428571,0.5071428571428571,0.5071428571428571,0.5071428571428571,0.5071428571428571,0.5071428571428571,0.5071428571428571,0.5071428571428571,0.5071428571428571,0.5071428571428571,0.5071428571428571,0.5071428571428571,0.5071428571428571,0.5071428571428571,0.5071428571428571,0.5071428571428571,0.5071428571428571,0.5071428571428571,0.5071428571428571,0.5071428571428571,0.5071428571428571,0.5071428571428571,0.5071428571428571,0.5071428571428571,0.5071428571428571,0.5071428571428571,0.5071428571428571,0.5071428571428571,0.5071428571428571,0.5071428571428571,0.5071428571428571,0.5071428571428571,0.5071428571428571,0.5071428571428571,0.5071428571428571,0.5071428571428571,0.5071428571428571,0.5071428571428571,0.5071428571428571,0.5071428571428571,0.5071428571428571,0.5071428571428571,0.5071428571428571,0.5071428571428571,0.5071428571428571,0.5071428571428571,0.5071428571428571,0.5071428571428571,0.5071428571428571,0.5071428571428571,0.5071428571428571,0.5071428571428571,0.5071428571428571,0.5071428571428571,0.5071428571428571,0.5071428571428571,0.5071428571428571,0.5071428571428571,0.5071428571428571,0.5071428571428571,0.5071428571428571,0.5071428571428571,0.5071428571428571,0.5071428571428571,0.5071428571428571,0.5071428571428571,0.5071428571428571,0.5071428571428571,0.5071428571428571,0.5071428571428571,0.5071428571428571,0.5071428571428571,0.5071428571428571,0.5071428571428571,0.5071428571428571,0.5071428571428571,0.5071428571428571,0.5166666666666667,0.5261904761904762,0.5357142857142857,0.5547619047619048,0.5642857142857143,0.5642857142857143,0.5738095238095238,0.5738095238095238,0.5833333333333334,0.5833333333333334,0.5833333333333334,0.5833333333333334,0.5833333333333334,0.5833333333333334,0.5833333333333334,0.5833333333333334,0.5833333333333334,0.5833333333333334,0.5833333333333334,0.5833333333333334,0.5833333333333334,0.5833333333333334,0.5928571428571429,0.6023809523809524,0.611904761904762,0.6214285714285714,0.6214285714285714,0.6309523809523809,0.6404761904761904,0.6404761904761904,0.6404761904761904,0.6404761904761904,0.6404761904761904,0.6404761904761904,0.6404761904761904,0.6404761904761904,0.6404761904761904,0.6404761904761904,0.6309523809523809,0.6309523809523809,0.6214285714285714,0.611904761904762,0.5928571428571429,0.5738095238095238,0.5642857142857143,0.5452380952380952,0.5452380952380952,0.5357142857142857,0.5261904761904762,0.5166666666666667,0.5071428571428571,0.5071428571428571,0.5071428571428571,0.5071428571428571,0.5071428571428571,0.5071428571428571,0.5071428571428571,0.5071428571428571,0.5071428571428571,0.5071428571428571,0.5071428571428571,0.5071428571428571,0.5071428571428571,0.5071428571428571,0.5071428571428571,0.5071428571428571,0.5071428571428571,0.5071428571428571,0.5071428571428571,0.5071428571428571,0.5071428571428571,0.5071428571428571,0.5071428571428571,0.5071428571428571,0.5071428571428571,0.5071428571428571,0.5071428571428571,0.5071428571428571,0.5071428571428571,0.5071428571428571,0.5071428571428571,0.5071428571428571,0.5071428571428571,0.5071428571428571,0.5071428571428571,0.5071428571428571,0.5071428571428571,0.5071428571428571,0.5071428571428571,0.5071428571428571,0.5071428571428571,0.5071428571428571,0.5071428571428571,0.5166666666666667,0.5357142857142857,0.5547619047619048,0.5738095238095238,0.6023809523809524,0.6214285714285714,0.65,0.6595238095238095,0.669047619047619,0.669047619047619,0.6785714285714286,0.6785714285714286,0.6880952380952381,0.6880952380952381,0.6976190476190476,0.7071428571428572,0.7166666666666667,0.7166666666666667,0.7166666666666667,0.7166666666666667,0.7166666666666667,0.7166666666666667,0.7166666666666667,0.7166666666666667,0.7071428571428572,0.6976190476190476,0.6880952380952381,0.6785714285714286,0.6785714285714286,0.669047619047619,0.669047619047619,0.669047619047619,0.6595238095238095,0.65,0.6404761904761904,0.6214285714285714,0.611904761904762,0.6023809523809524,0.5833333333333334,0.5642857142857143,0.5547619047619048,0.5452380952380952,0.5452380952380952,0.5452380952380952,0.5452380952380952,0.5452380952380952,0.5452380952380952,0.5452380952380952,0.5452380952380952,0.5452380952380952,0.5452380952380952,0.5452380952380952,0.5452380952380952,0.5452380952380952,0.5452380952380952,0.5452380952380952,0.5452380952380952,0.5452380952380952,0.5452380952380952,0.5452380952380952,0.5452380952380952,0.5452380952380952,0.5452380952380952,0.5452380952380952,0.5452380952380952,0.5452380952380952,0.5452380952380952,0.5452380952380952,0.5452380952380952,0.5452380952380952,0.5452380952380952,0.5547619047619048,0.5642857142857143,0.5738095238095238,0.5833333333333334,0.5928571428571429,0.6023809523809524,0.6023809523809524,0.611904761904762,0.611904761904762,0.611904761904762,0.611904761904762,0.611904761904762,0.6023809523809524,0.6023809523809524,0.5833333333333334,0.5738095238095238,0.5738095238095238,0.5642857142857143,0.5642857142857143,0.5547619047619048,0.5452380952380952,0.5357142857142857,0.5166666666666667,0.4976190476190476,0.4880952380952381,0.46904761904761905,0.46904761904761905,0.46904761904761905,0.46904761904761905,0.46904761904761905,0.46904761904761905,0.46904761904761905,0.46904761904761905,0.46904761904761905,0.46904761904761905,0.46904761904761905,0.46904761904761905,0.46904761904761905,0.46904761904761905,0.46904761904761905,0.46904761904761905,0.46904761904761905,0.46904761904761905,0.46904761904761905,0.46904761904761905,0.46904761904761905,0.46904761904761905,0.46904761904761905,0.46904761904761905,0.46904761904761905,0.46904761904761905,0.46904761904761905,0.46904761904761905,0.4785714285714286,0.4785714285714286,0.4880952380952381,0.4976190476190476,0.4976190476190476,0.4976190476190476,0.4880952380952381,0.46904761904761905,0.45,0.42142857142857143,0.4023809523809524,0.3738095238095238,0.3547619047619048,0.3261904761904762,0.2976190476190476,0.25952380952380955,0.23095238095238096,0.19285714285714287,0.1738095238095238,0.15476190476190477,0.1357142857142857,0.10714285714285714,0.0880952380952381,0.05952380952380952,0.04047619047619048,0.02142857142857143,0.011904761904761904,-0.007142857142857143,-0.02619047619047619,-0.03571428571428571,-0.04523809523809524,-0.05476190476190476,-0.06428571428571428,-0.06428571428571428,-0.06428571428571428,-0.06428571428571428,-0.06428571428571428,-0.06428571428571428,-0.06428571428571428,-0.06428571428571428,-0.06428571428571428,-0.06428571428571428,-0.06428571428571428,-0.06428571428571428,-0.06428571428571428,-0.06428571428571428,-0.06428571428571428,-0.06428571428571428,-0.06428571428571428,-0.06428571428571428,-0.06428571428571428,-0.06428571428571428,-0.05476190476190476,-0.03571428571428571,-0.016666666666666666,0.02142857142857143,0.05,0.0880952380952381,0.14523809523809525,0.24047619047619048,0.34523809523809523,0.46904761904761905,0.5833333333333334,0.6785714285714286,0.7547619047619047,0.830952380952381,0.888095238095238,0.9261904761904762,0.9738095238095238,1.0119047619047619,1.05,1.088095238095238,1.1261904761904762,1.1547619047619047,1.1833333333333333,1.1928571428571428,1.2119047619047618,1.2119047619047618,1.2214285714285715,1.2214285714285715,1.2214285714285715,1.2214285714285715,1.2214285714285715,1.230952380952381,1.230952380952381,1.230952380952381,1.230952380952381,1.230952380952381,1.230952380952381,1.230952380952381,1.230952380952381,1.2214285714285715,1.2023809523809523,1.1928571428571428,1.1738095238095239,1.1642857142857144,1.1547619047619047,1.1452380952380952,1.1357142857142857,1.1261904761904762,1.1261904761904762,1.1261904761904762,1.1166666666666667,1.1166666666666667,1.1166666666666667,1.1166666666666667,1.1166666666666667,1.1166666666666667,1.1166666666666667,1.1166666666666667,1.1166666666666667,1.1166666666666667,1.1071428571428572,1.1071428571428572,1.0976190476190477,1.088095238095238,1.0785714285714285,1.069047619047619,1.0595238095238095,1.0404761904761906,1.0309523809523808,1.0214285714285714,1.0119047619047619,0.9928571428571429,0.9928571428571429,0.9833333333333333,0.9833333333333333,0.9833333333333333,0.9833333333333333,0.9833333333333333,0.9833333333333333,0.9833333333333333,0.9833333333333333,0.9833333333333333,0.9833333333333333,0.9833333333333333,0.9833333333333333,0.9833333333333333,0.9833333333333333,0.9833333333333333,0.9833333333333333,0.9833333333333333,0.9833333333333333,0.9833333333333333,0.9833333333333333,0.9833333333333333,0.9833333333333333,0.9833333333333333,0.9833333333333333,0.9833333333333333,0.9833333333333333,0.9833333333333333,0.9833333333333333,0.9833333333333333,0.9833333333333333,0.9833333333333333,0.9833333333333333,0.9833333333333333,0.9833333333333333,0.9833333333333333,0.9833333333333333,0.9833333333333333,0.9738095238095238,0.9547619047619048,0.9452380952380952,0.9166666666666666,0.8785714285714286,0.8595238095238096,0.8214285714285714,0.7833333333333333,0.7452380952380953,0.7071428571428572,0.6785714285714286,0.65,0.6214285714285714,0.5928571428571429,0.5547619047619048,0.5166666666666667,0.46904761904761905,0.430952380952381,0.38333333333333336,0.34523809523809523,0.31666666666666665,0.2785714285714286,0.24047619047619048,0.20238095238095238,0.16428571428571428,0.14523809523809525,0.1261904761904762,0.10714285714285714,0.0880952380952381,0.07857142857142857,0.07857142857142857,0.07857142857142857,0.07857142857142857,0.07857142857142857,0.07857142857142857,0.07857142857142857,0.07857142857142857,0.07857142857142857,0.07857142857142857,0.07857142857142857,0.07857142857142857,0.07857142857142857,0.07857142857142857,0.07857142857142857,0.07857142857142857,0.07857142857142857,0.07857142857142857,0.07857142857142857,0.07857142857142857,0.07857142857142857,0.07857142857142857,0.07857142857142857,0.07857142857142857,0.07857142857142857,0.07857142857142857,0.07857142857142857,0.07857142857142857,0.07857142857142857,0.07857142857142857,0.07857142857142857,0.07857142857142857,0.07857142857142857,0.07857142857142857,0.07857142857142857,0.07857142857142857,0.07857142857142857,0.07857142857142857,0.07857142857142857,0.07857142857142857,0.07857142857142857,0.07857142857142857,0.07857142857142857,0.07857142857142857,0.07857142857142857,0.07857142857142857,0.07857142857142857,0.07857142857142857,0.07857142857142857,0.07857142857142857,0.07857142857142857,0.07857142857142857,0.07857142857142857,0.07857142857142857,0.07857142857142857,0.07857142857142857,0.07857142857142857,0.07857142857142857,0.07857142857142857,0.07857142857142857,0.07857142857142857,0.07857142857142857,0.07857142857142857,0.07857142857142857,0.07857142857142857,0.07857142857142857,0.07857142857142857,0.07857142857142857,0.07857142857142857,0.07857142857142857,0.07857142857142857,0.07857142857142857,0.07857142857142857,0.07857142857142857,0.07857142857142857,0.07857142857142857,0.07857142857142857,0.07857142857142857,0.07857142857142857,0.07857142857142857,0.07857142857142857,0.07857142857142857,0.07857142857142857,0.07857142857142857,0.07857142857142857,0.07857142857142857,0.07857142857142857,0.07857142857142857,0.07857142857142857,0.07857142857142857,0.07857142857142857,0.07857142857142857,0.07857142857142857,0.07857142857142857,0.07857142857142857,0.07857142857142857,0.07857142857142857,0.07857142857142857,0.07857142857142857,0.07857142857142857,0.07857142857142857,0.07857142857142857,0.07857142857142857,0.07857142857142857,0.07857142857142857,0.07857142857142857,0.07857142857142857,0.07857142857142857,0.07857142857142857,0.07857142857142857,0.07857142857142857,0.07857142857142857,0.07857142857142857,0.07857142857142857,0.07857142857142857,0.07857142857142857,0.07857142857142857,0.07857142857142857,0.07857142857142857,0.07857142857142857,0.07857142857142857,0.07857142857142857,0.07857142857142857,0.07857142857142857,0.07857142857142857,0.07857142857142857,0.07857142857142857,0.07857142857142857,0.07857142857142857,0.07857142857142857,0.07857142857142857,0.07857142857142857,0.07857142857142857,0.07857142857142857,0.07857142857142857,0.07857142857142857,0.07857142857142857,0.07857142857142857,0.07857142857142857,0.07857142857142857,0.07857142857142857,0.07857142857142857,0.07857142857142857,0.07857142857142857,0.07857142857142857,0.07857142857142857,0.07857142857142857,0.07857142857142857,0.07857142857142857,0.07857142857142857,0.07857142857142857,0.07857142857142857,0.07857142857142857,0.07857142857142857,0.07857142857142857,0.07857142857142857,0.07857142857142857,0.07857142857142857,0.07857142857142857,0.07857142857142857,0.07857142857142857,0.07857142857142857,0.07857142857142857,0.07857142857142857,0.07857142857142857,0.07857142857142857,0.07857142857142857,0.07857142857142857,0.07857142857142857,0.07857142857142857,0.07857142857142857,0.07857142857142857,0.07857142857142857,0.07857142857142857,0.07857142857142857,0.11666666666666667,0.16428571428571428,0.2119047619047619,0.25952380952380955,0.30714285714285716,0.34523809523809523,0.3738095238095238,0.4023809523809524,0.44047619047619047,0.4880952380952381,0.5452380952380952,0.6023809523809524,0.65,0.7071428571428572,0.7642857142857142,0.8214285714285714,0.8785714285714286,0.9166666666666666,0.9547619047619048,0.9738095238095238,1.0023809523809524,1.0309523809523808,1.0404761904761906,1.05,1.0595238095238095,1.0595238095238095,1.0595238095238095,1.0595238095238095,1.0595238095238095,1.05,1.0404761904761906,1.0309523809523808,1.0119047619047619,1.0023809523809524,0.9928571428571429,0.9833333333333333,0.9833333333333333,0.9833333333333333,0.9738095238095238,0.9642857142857143,0.9642857142857143,0.9642857142857143,0.9642857142857143,0.9642857142857143,0.9642857142857143,0.9642857142857143,0.9642857142857143,0.9642857142857143,0.9642857142857143,0.9642857142857143,0.9642857142857143,0.9642857142857143,0.9642857142857143,0.9642857142857143,0.9642857142857143,0.9642857142857143,0.9642857142857143,0.9642857142857143,0.9642857142857143,0.9642857142857143,0.9642857142857143,0.9642857142857143,0.9642857142857143,0.9642857142857143,0.9642857142857143,0.9642857142857143,0.9642857142857143,0.9642857142857143,0.9642857142857143,0.9642857142857143,0.9642857142857143,0.9642857142857143,0.9642857142857143,0.9642857142857143,0.9642857142857143,0.9642857142857143,0.9642857142857143,0.9642857142857143,0.9642857142857143,0.9642857142857143,0.9642857142857143,0.9642857142857143,0.9642857142857143,0.9642857142857143,0.9642857142857143,0.9547619047619048,0.9547619047619048,0.9452380952380952,0.9357142857142857,0.9261904761904762,0.9166666666666666,0.9166666666666666,0.9071428571428571,0.8976190476190476,0.888095238095238,0.888095238095238,0.8785714285714286,0.8785714285714286,0.8785714285714286,0.8785714285714286,0.8785714285714286,0.8785714285714286,0.8785714285714286,0.8785714285714286,0.8785714285714286,0.8785714285714286,0.8785714285714286,0.8785714285714286,0.8785714285714286,0.8785714285714286,0.8785714285714286,0.8785714285714286,0.8785714285714286,0.8785714285714286,0.8690476190476191,0.8690476190476191,0.85,0.830952380952381,0.8023809523809524,0.7738095238095238,0.7547619047619047,0.7357142857142858,0.7166666666666667,0.6976190476190476,0.6880952380952381,0.65,0.6309523809523809,0.5928571428571429,0.5642857142857143,0.5357142857142857,0.5261904761904762,0.5166666666666667,0.4976190476190476,0.4880952380952381,0.4880952380952381,0.4785714285714286,0.4785714285714286,0.4785714285714286,0.4785714285714286,0.4785714285714286,0.4785714285714286,0.4785714285714286,0.4785714285714286,0.4785714285714286,0.4785714285714286,0.4785714285714286,0.4785714285714286,0.4785714285714286,0.4785714285714286,0.4785714285714286,0.4785714285714286,0.4785714285714286,0.4785714285714286,0.4785714285714286,0.4785714285714286,0.4785714285714286,0.4785714285714286,0.4785714285714286,0.4785714285714286,0.4785714285714286,0.4785714285714286,0.4785714285714286,0.4785714285714286,0.4785714285714286,0.4785714285714286,0.4785714285714286,0.4785714285714286,0.4785714285714286,0.4785714285714286,0.4785714285714286,0.4785714285714286,0.4785714285714286,0.4785714285714286,0.4785714285714286,0.4976190476190476,0.5071428571428571,0.5261904761904762,0.5452380952380952,0.5642857142857143,0.5833333333333334,0.5928571428571429,0.5928571428571429,0.5928571428571429,0.5928571428571429,0.5928571428571429,0.5928571428571429,0.5928571428571429,0.5928571428571429,0.5928571428571429,0.5928571428571429,0.5928571428571429,0.5928571428571429,0.5928571428571429,0.5928571428571429,0.5928571428571429,0.5928571428571429,0.5928571428571429,0.5928571428571429,0.5928571428571429,0.5928571428571429,0.5928571428571429,0.5928571428571429,0.5928571428571429,0.5928571428571429,0.5928571428571429,0.5928571428571429,0.5928571428571429,0.5928571428571429,0.5928571428571429,0.5928571428571429,0.5928571428571429,0.5928571428571429,0.5928571428571429,0.5928571428571429,0.5928571428571429,0.5928571428571429,0.5928571428571429,0.5928571428571429,0.5928571428571429,0.5928571428571429,0.5928571428571429,0.5928571428571429,0.5928571428571429,0.5928571428571429,0.5928571428571429,0.5928571428571429,0.5928571428571429,0.5928571428571429,0.5928571428571429,0.5928571428571429,0.5928571428571429,0.5928571428571429,0.5928571428571429,0.5928571428571429,0.5928571428571429,0.5928571428571429,0.5928571428571429,0.5928571428571429,0.5928571428571429,0.5928571428571429,0.5928571428571429,0.6023809523809524,0.6023809523809524,0.611904761904762,0.6214285714285714,0.6309523809523809,0.6404761904761904,0.65,0.669047619047619,0.6880952380952381,0.7071428571428572,0.7261904761904762,0.7357142857142858,0.7547619047619047,0.7738095238095238,0.7833333333333333,0.7928571428571428,0.8023809523809524,0.8119047619047619,0.830952380952381,0.830952380952381,0.830952380952381,0.830952380952381,0.830952380952381,0.830952380952381,0.830952380952381,0.830952380952381,0.830952380952381,0.830952380952381,0.830952380952381,0.830952380952381,0.830952380952381,0.830952380952381,0.830952380952381,0.830952380952381,0.830952380952381,0.830952380952381,0.830952380952381,0.830952380952381,0.830952380952381,0.830952380952381,0.830952380952381,0.830952380952381,0.830952380952381,0.830952380952381,0.830952380952381,0.830952380952381,0.830952380952381,0.830952380952381,0.830952380952381,0.830952380952381,0.830952380952381,0.830952380952381,0.830952380952381]},"final_keyboard_state":["A","E","M","O","P","I","T","B","Z","R"],"num_clicks":10,"points":10,"cheat":false,"trial_type":"Hangman","trial_index":5,"time_elapsed":122662,"internal_node_id":"0.0-4.0","protocol_sum":"","subject_identifier":524,"subject_sum":[158,106,114,85,122,218,21,208,32,1,240,36,244,63,6,237,196,163,20,55,224,225,187,62,234,195,108,162,208,196,253,167],"subject_pair":262,"STUDY_ID":"66a3ed3c5d10d0e7d8a6b9da","PROLIFIC_PID":"6643ad1d6324582f8867c01a","SESSION_ID":"66a4523cae4aeed1d653199f","practice_instructions":1,"leaderboard_instructions":0,"bonus":1,"reveal_word":false,"self_rating":"2","confidence":"59"},{"view_history":"[{\"page_index\":0,\"viewing_time\":483303.700000003},{\"page_index\":1,\"viewing_time\":27900}]","rt":511204.09999999404,"trial_type":"instructions","trial_index":6,"time_elapsed":633867,"internal_node_id":"0.0-5.0","protocol_sum":"","subject_identifier":524,"subject_sum":[158,106,114,85,122,218,21,208,32,1,240,36,244,63,6,237,196,163,20,55,224,225,187,62,234,195,108,162,208,196,253,167],"subject_pair":262,"STUDY_ID":"66a3ed3c5d10d0e7d8a6b9da","PROLIFIC_PID":"6643ad1d6324582f8867c01a","SESSION_ID":"66a4523cae4aeed1d653199f","practice_instructions":1,"leaderboard_instructions":0,"bonus":1,"reveal_word":false,"self_rating":"2","confidence":"59"},{"rt":5937.20000000298,"responses":"{\"Q0\":\"...from <b>a previous session</b> that is part of the upcoming tournament.\"}","question_order":"[0]","trial_type":"survey-multi-choice","trial_index":7,"time_elapsed":639805,"internal_node_id":"0.0-6.0","protocol_sum":"","subject_identifier":524,"subject_sum":[158,106,114,85,122,218,21,208,32,1,240,36,244,63,6,237,196,163,20,55,224,225,187,62,234,195,108,162,208,196,253,167],"subject_pair":262,"correct":false,"test_part":"multichoice_leaderboard","STUDY_ID":"66a3ed3c5d10d0e7d8a6b9da","PROLIFIC_PID":"6643ad1d6324582f8867c01a","SESSION_ID":"66a4523cae4aeed1d653199f","practice_instructions":1,"leaderboard_instructions":0,"bonus":1,"reveal_word":false,"self_rating":"2","confidence":"59"},{"view_history":"[{\"page_index\":0,\"viewing_time\":1623.9000000059605}]","rt":1624,"trial_type":"instructions","trial_index":8,"time_elapsed":641430,"internal_node_id":"0.0-7.0-0.0","protocol_sum":"","subject_identifier":524,"subject_sum":[158,106,114,85,122,218,21,208,32,1,240,36,244,63,6,237,196,163,20,55,224,225,187,62,234,195,108,162,208,196,253,167],"subject_pair":262,"STUDY_ID":"66a3ed3c5d10d0e7d8a6b9da","PROLIFIC_PID":"6643ad1d6324582f8867c01a","SESSION_ID":"66a4523cae4aeed1d653199f","practice_instructions":1,"leaderboard_instructions":0,"bonus":1,"reveal_word":false,"self_rating":"2","confidence":"59"},{"rt":6084.79999999702,"responses":"{\"Q0\":\"...from the <b>upcoming tournament</b>.\"}","question_order":"[0]","trial_type":"survey-multi-choice","trial_index":9,"time_elapsed":647515,"internal_node_id":"0.0-7.0-1.0","protocol_sum":"","subject_identifier":524,"subject_sum":[158,106,114,85,122,218,21,208,32,1,240,36,244,63,6,237,196,163,20,55,224,225,187,62,234,195,108,162,208,196,253,167],"subject_pair":262,"correct":false,"test_part":"multichoice_leaderboard","STUDY_ID":"66a3ed3c5d10d0e7d8a6b9da","PROLIFIC_PID":"6643ad1d6324582f8867c01a","SESSION_ID":"66a4523cae4aeed1d653199f","practice_instructions":1,"leaderboard_instructions":0,"bonus":1,"reveal_word":false,"self_rating":"2","confidence":"59"},{"view_history":"[{\"page_index\":0,\"viewing_time\":1819.2999999970198}]","rt":1819.4000000059605,"trial_type":"instructions","trial_index":10,"time_elapsed":649336,"internal_node_id":"0.0-7.1-0.1","protocol_sum":"","subject_identifier":524,"subject_sum":[158,106,114,85,122,218,21,208,32,1,240,36,244,63,6,237,196,163,20,55,224,225,187,62,234,195,108,162,208,196,253,167],"subject_pair":262,"STUDY_ID":"66a3ed3c5d10d0e7d8a6b9da","PROLIFIC_PID":"6643ad1d6324582f8867c01a","SESSION_ID":"66a4523cae4aeed1d653199f","practice_instructions":1,"leaderboard_instructions":0,"bonus":1,"reveal_word":false,"self_rating":"2","confidence":"59"},{"rt":2079.5,"responses":"{\"Q0\":\"...from <b>a previous session</b> that is not part of the upcoming tournament.\"}","question_order":"[0]","trial_type":"survey-multi-choice","trial_index":11,"time_elapsed":651416,"internal_node_id":"0.0-7.1-1.1","protocol_sum":"","subject_identifier":524,"subject_sum":[158,106,114,85,122,218,21,208,32,1,240,36,244,63,6,237,196,163,20,55,224,225,187,62,234,195,108,162,208,196,253,167],"subject_pair":262,"correct":true,"test_part":"multichoice_leaderboard","STUDY_ID":"66a3ed3c5d10d0e7d8a6b9da","PROLIFIC_PID":"6643ad1d6324582f8867c01a","SESSION_ID":"66a4523cae4aeed1d653199f","practice_instructions":1,"leaderboard_instructions":0,"bonus":1,"reveal_word":false,"self_rating":"2","confidence":"59"},{"view_history":"[{\"page_index\":0,\"viewing_time\":10507.29999999702}]","rt":10507.40000000596,"trial_type":"instructions","trial_index":12,"time_elapsed":661924,"internal_node_id":"0.0-8.0","protocol_sum":"","subject_identifier":524,"subject_sum":[158,106,114,85,122,218,21,208,32,1,240,36,244,63,6,237,196,163,20,55,224,225,187,62,234,195,108,162,208,196,253,167],"subject_pair":262,"STUDY_ID":"66a3ed3c5d10d0e7d8a6b9da","PROLIFIC_PID":"6643ad1d6324582f8867c01a","SESSION_ID":"66a4523cae4aeed1d653199f","practice_instructions":1,"leaderboard_instructions":0,"bonus":1,"reveal_word":false,"self_rating":"2","confidence":"59"},{"rt":5788.600000008941,"responses":"{\"Q0\":\"...players' leaderboard position (in terms of <b>points</b>) in an <b>upcoming tournament.</b>\"}","question_order":"[0]","trial_type":"survey-multi-choice","trial_index":13,"time_elapsed":667713,"internal_node_id":"0.0-9.0","protocol_sum":"","subject_identifier":524,"subject_sum":[158,106,114,85,122,218,21,208,32,1,240,36,244,63,6,237,196,163,20,55,224,225,187,62,234,195,108,162,208,196,253,167],"subject_pair":262,"correct":true,"test_part":"multichoice_tournament","STUDY_ID":"66a3ed3c5d10d0e7d8a6b9da","PROLIFIC_PID":"6643ad1d6324582f8867c01a","SESSION_ID":"66a4523cae4aeed1d653199f","practice_instructions":1,"leaderboard_instructions":0,"bonus":1,"reveal_word":false,"self_rating":"2","confidence":"59"},{"view_history":"[{\"page_index\":0,\"viewing_time\":37482.89999999106}]","rt":37483.09999999404,"trial_type":"instructions","trial_index":14,"time_elapsed":705197,"internal_node_id":"0.0-11.0","protocol_sum":"","subject_identifier":524,"subject_sum":[158,106,114,85,122,218,21,208,32,1,240,36,244,63,6,237,196,163,20,55,224,225,187,62,234,195,108,162,208,196,253,167],"subject_pair":262,"STUDY_ID":"66a3ed3c5d10d0e7d8a6b9da","PROLIFIC_PID":"6643ad1d6324582f8867c01a","SESSION_ID":"66a4523cae4aeed1d653199f","practice_instructions":1,"leaderboard_instructions":0,"bonus":1,"reveal_word":false,"self_rating":"2","confidence":"59"},{"view_history":"[{\"page_index\":0,\"viewing_time\":246886.20000000298}]","rt":246886.29999999702,"trial_type":"instructions","trial_index":15,"time_elapsed":952083,"internal_node_id":"0.0-12.0-0.0","protocol_sum":"","subject_identifier":524,"subject_sum":[158,106,114,85,122,218,21,208,32,1,240,36,244,63,6,237,196,163,20,55,224,225,187,62,234,195,108,162,208,196,253,167],"subject_pair":262,"STUDY_ID":"66a3ed3c5d10d0e7d8a6b9da","PROLIFIC_PID":"6643ad1d6324582f8867c01a","SESSION_ID":"66a4523cae4aeed1d653199f","practice_instructions":1,"leaderboard_instructions":0,"bonus":1,"reveal_word":false,"self_rating":"2","confidence":"59"},{"word":"WRIST","click_log":{"letter":["","T","M","H","A","B","C","D","E","F","G","I","P","R","W","S"],"t":[0,14317.70000000298,23123.29999999702,24164.60000000894,25650.70000000298,27025.79999999702,27623,28220.20000000298,28734,29234.10000000894,29761.79999999702,31671.60000000894,35949.29999999702,37102.10000000894,41699.29999999702,44018.79999999702],"hit":[null,1,0,0,0,0,0,0,0,0,0,1,0,1,1,1],"asked":["","T","TM","TMH","TMHA","TMHAB","TMHABC","TMHABCD","TMHABCDE","TMHABCDEF","TMHABCDEFG","TMHABCDEFGI","TMHABCDEFGIP","TMHABCDEFGIPR","TMHABCDEFGIPRW","TMHABCDEFGIPRWS"],"word_state":["_____","____T","____T","____T","____T","____T","____T","____T","____T","____T","____T","__I_T","__I_T","_RI_T","WRI_T","WRIST"]},"hover_log":{"letter":["?","?","?","?","?","?","?","?","?","?","?","?","?","?","?","?","?","?","?","?","?","?","?","?","?","?","?","?","?","?","?","?","?","?","?","?","?","?","?","?","?","?","?","?","?","?","?","?","?","?","?","?","?","?","?","?","?","?","?","?","?","?","?","?","?","?","?","?","?","?","?","?","?","?","?","?","?","?","?","?","?","?","?","?","?","?","?","?","?","?","?","?","?","?","?","?","?","?","?","?","?","?","?","?","?","?","?","?","?","?","?","?","?","?","?","?","?","?","?","?","?","?","?","?","?","?","?","?","?","?","?","?","?","?","?","?","?","?","?","?","?","?","?","?","?","?","?","?","?","?","?","?","?","?","?","?","?","?","?","?","?","?","?","?","?","?","?","?","?","?","?","?","?","?","?","?","?","?","?","?","?","?","?","?","?","?","?","?","?","?","?","?","?","?","?","?","?","?","?","?","?","?","?","?","?","?","?","?","?","?","?","?","?","?","?","?","?","?","?","?","?","?","?","?","?","?","?","?","?","?","?","?","?","?","?","?","?","?","?","?","?","?","?","?","?","?","?","?","?","?","?","?","?","?","?","?","?","?","?","?","?","?","?","?","?","?","?","?","?","?","?","?","?","?","?","?","?","?","?","?","?","?","?","?","?","?","?","?","?","?","?","?","?","?","?","?","?","?","?","?","?","?","?","?","?","?","?","?","?","?","?","?","?","?","?","?","?","?","?","?","?","?","?","?","?","?","?","?","?","?","?","?","?","?","?","?","?","?","?","?","?","?","?","?","?","?","?","?","?","?","?","?","?","?","?","?","?","?","?","?","?","?","?","?","?","?","?","?","?","?","?","?","?","?","?","?","?","?","?","?","?","?","?","?","?","?","?","?","?","?","?","?","?","?","?","?","?","?","?","?","?","?","?","?","?","?","?","?","?","?","?","?","?","?","?","?","?","?","?","?","?","?","?","?","?","?","?","?","?","?","?","?","?","?","?","?","?","?","?","?","?","?","?","?","?","?","?","?","?","?","?","?","?","?","?","?","?","?","?","?","?","?","?","?","?","?","?","?","?","?","?","?","?","?","?","?","?","?","?","?","?","?","?","?","?","?","?","?","?","?","?","?","?","?","?","?","?","?","?","?","?","?","?","?","?","?","?","?","?","?","?","?","?","?","?","?","?","?","?","?","?","?","?","?","?","?","?","?","?","?","?","?","?","?","?","?","?","?","?","?","?","?","?","?","?","?","?","?","?","?","?","?","?","?","?","?","?","?","?","?","?","?","?","?","?","?","?","?","?","?","?","?","?","?","?","?","?","?","?","?","?","?","?","?","?","?","?","?","?","?","?","?","?","?","?","?","?","?","?","?","?","?","?","?","?","?","?","?","?","?","?","?","?","?","?","?","?","?","?","?","?","?","?","?","?","?","?","?","?","?","?","?","?","?","?","?","?","?","?","?","?","?","?","?","?","?","?","?","?","?","?","?","?","?","?","?","?","?","?","?","?","?","?","?","?","?","?","?","?","?","?","?","?","?","?","?","?","?","?","?","?","?","?","?","?","?","?","?","?","?","?","?","?","?","?","?","?","?","?","?","?","?","?","?","?","?","?","?","?","?","?","?","?","?","?","?","?","?","?","?","?","?","?","?","?","?","?","?","?","?","?","?","?","?","?","?","?","?","?","?","?","?","?","?","?","?","?","?","?","?","?","?","?","?","?","?","?","?","?","?","?","?","?","?","?","?","?","?","?","?","?","?","?","?","?","?","?","?","?","?","?","?","?","?","?","?","?","?","?","?","?","?","?","?","?","?","?","?","?","?","?","?","?","?","?","?","?","?","?","?","?","?","?","?","?","?","?","?","?","?","?","?","?","?","?","?","?","?","?","?","?","?","?","?","?","?","?","?","?","?","?","?","?","?","?","?","?","?","?","?","?","?","?","?","?","?","?","?","?","?","?","?","?","?","?","?","?","?","?","?","?","?","?","?","?","?","?","?","?","?","?","?","?","?","?","?","?","?","?","?","?","?","?","?","?","?","?","?","?","?","?","?","?","?","?","?","?","?","?","?","?","?","?","?","?","?","?","?","?","?","?","?","?","?","?","?","?","?","?","?","?","?","?","?","?","?","?","?","?","?","?","?","?","?","?","?","?","?","?","?","?","?","?","?","?","?","?","?","?","?","?","?","?","?","?","?","?","?","?","?","?","?","?","?","?","?","?","?","?","?","?","?","?","?","?","?","?","?","?","?","?","?","?","?","?","?","?","?","?","?","?","?","?","?","?","?","?","?","?","?","?","?","?","?","?","?","?","?","?","?","?","?","?","?","?","?","?","?","?","?","?","?","?","?","?","?","?","?","?","?","?","?","?","?","?","?","?","?","?","?","?","?","?","?","?","?","?","?","?","?","?","?","?","?","?","?","?","?","?","?","?","?","?","?","?","?","?","?","?","?","?","?","?","?","?","?","?","?","?","?","?","?","?","?","?","?","?","?","?","?","?","?","?","?","?","?","?","?","?","?","?","?","?","?","?","?","?","?","?","?","?","?","?","?","?","?","?","?","?","?","?","?","?","?","?","?","?","?","?","?","?","?","?","?","?","?","?","?","?","?","?","?","?","?","?","?","?","?","?","?","?","?","?","?","?","?","?","?","?","?","?","?","?","?","?","?","?","?","?","?","?","?","?","?","?","?","?","?","?","?","?","?","?","?","?","?","?","?","?","?","?","?","?","?","?","?","?","?","?","?","?","?","?","?","?","?","?","?","?","?","?","Z","?","?","?","?","?","?","?","?","?","?","?","?","?","?","O","?","?","?","?","?","?","?","?","?","?","?","?","?","?","?","E","?","?","?","?","?","?","?","?","?","?","?","?","?","?","?","?","?","?","?","?","?","?","?","?","?","?","?","?","?","?","?","?","?","?","?","?","?","?","?","?","?","?","?","?","?","?","?","?","?","?","?","?","?","?","?","?","?","?","?","?","?","?","?","?","?","?","?","?","?","?","?","?","?","?","?","?","?","?","?","?","?","?","?","?","?","?","?","?","?","?","?","?","?","?","?","?","?","?","?","?","?","?","?","?","?","?","?","?","?","?","?","?","?","?","?","?","?","?","?","?","?","?","?","?","?","?","?","?","?","?","?","?","?","?","?","?","?","?","?","?","?","?","?","?","?","?","?","?","?","?","?","?","?","?","?","E","?","?","?","?","?","?","?","?","?","?","?","?","?","?","?","?","?","?","?","?","?","?","?","?","?","E","?","?","?","?","?","?","?","?","?","?","?","?","?","?","?","?","?","?","?","?","?","?","?","?","?","E","?","?","?","?","?","?","?","?","?","?","?","?","?","?","?","?","?","?","?","?","?","?","?","?","?","E","?","?","?","?","?","?","?","?","?","?","?","?","?","?","?","?","?","?","?","?","?","?","?","?","?","E","?","?","?","?","?","?","?","?","?","?","?","?","?","?","?","?","?","?","?","?","?","?","?","?","?","E","?","?","?","?","?","?","?","?","?","?","?","?","?","?","?","?","?","?","?","?","?","?","?","?","?","E","?","?","?","?","?","?","?","?","?","?","?","?","?","?","?","?","?","?","?","?","?","?","?","?","?","E","?","?","?","?","?","?","?","?","?","?","?","?","?","?","?","?","?","?","?","?","?","?","?","?","?","E","?","?","?","?","?","?","?","?","?","?","?","?","?","?","?","?","?","?","?","?","?","?","?","?","?","E","?","?","?","?","?","?","?","?","?","?","?","?","?","?","?","?","?","?","?","?","?","?","?","?","?","E","?","?","?","?","?","?","?","?","?","?","?","?","?","?","?","?","?","?","?","?","?","?","?","?","?","E","?","?","?","?","?","?","?","?","?","?","?","?","?","?","?","?","?","?","?","?","?","?","?","?","?","E","?","?","?","?","?","?","?","?","?","?","?","?","?","?","?","?","?","?","?","?","?","?","?","?","?","E","?","?","?","?","?","?","?","?","?","?","?","?","?","?","?","?","?","?","?","?","?","?","?","?","?","E","?","?","?","?","?","?","?","?","?","?","?","?","?","?","?","?","?","?","?","?","?","?","?","?","?","E","?","?","?","?","?","?","?","?","?","?","?","?","?","?","?","?","?","?","?","?","?","?","?","?","?","E","?","?","?","?","?","?","?","?","?","?","?","?","?","?","?","?","?","?","?","?","?","?","?","?","?","E","?","?","?","?","?","?","?","?","?","?","?","?","?","?","?","?","?","?","?","?","?","?","?","?","?","E","?","?","?","?","?","?","?","?","?","?","?","?","?","?","?","?","?","?","?","?","?","?","?","?","?","E","?","?","?","?","?","?","?","?","?","?","?","?","?","?","?","?","?","?","?","?","?","?","?","?","?","E","?","?","?","?","?","?","?","?","?","?","?","?","?","?","?","?","?","?","?","?","?","?","?","?","?","E","?","?","?","?","?","?","?","?","?","?","?","?","?","?","?","?","?","?","?","?","?","?","?","?","?","E","?","?","?","?","?","?","?","?","?","?","?","?","?","?","?","?","?","?","?","?","?","?","?","?","?","E","?","?","?","?","?","?","?","?","?","?","?","?","?","?","?","?","?","?","?","?","?","?","?","?","?","E","?","?","?","?","?","?","?","?","?","?","?","?","?","?","?","?","?","?","?","?","?","?","?","?","?","E","?","?","?","?","?","?","?","?","?","?","?","?","?","?","?","?","?","?","?","?","?","?","?","?","?","E","?","?","?","?","?","?","?","?","?","?","?","?","?","?","?","?","?","?","?","?","?","?","?","?","?","E","?","?","?","?","?","?","?","?","?","?","?","?","?","?","?","?","?","?","?","?","?","?","?","?","?","E","?","?","?","?","?","?","?","?","?","?","?","?","?","?","?","?","?","?","?","?","?","?","?","?","?","E","?","?","?","?","?","?","?","?","?","?","?","?","?","?","?","?","?","?","?","?","?","?","?","?","?","E","?","?","?","?","?","?","?","?","?","?","?","?","?","?","?","?","?","?","?","?","?","?","?","?","?","E","?","?","?","?","?","?","?","?","?","?","?","?","?","?","?","?","?","?","?","?","?","?","?","?","?","E","?","?","?","?","?","?","?","?","?","?","?","?","?","?","?","?","?","?","?","?","?","?","?","?","?","E","?","?","?","?","?","?","?","?","?","?","?","?","?","?","?","?","?","?","?","?","?","?","?","?","?","E","?","?","?","?","?","?","?","?","?","?","?","?","?","?","?","?","?","?","?","?","?","?","?","?","?","E","?","?","?","?","?","?","?","?","?","?","?","?","?","?","?","?","?","?","?","?","?","?","?","?","?","E","?","?","?","?","?","?","?","?","?","?","?","?","?","?","?","?","?","?","?","?","?","?","?","?","?","E","?","?","?","?","?","?","?","?","?","?","?","?","?","?","?","?","?","?","?","?","?","?","?","?","?","E","?","?","?","?","?","?","?","?","?","?","?","?","?","?","?","?","?","?","?","?","?","?","?","?","?","E","?","?","?","?","?","?","?","?","?","?","?","?","?","?","?","?","?","?","?","?","?","?","?","?","?","E","?","?","?","?","?","?","?","?","?","?","?","?","?","?","?","?","?","?","?","?","?","?","?","?","?","E","?","?","?","?","?"