[{"success":true,"trial_type":"fullscreen","trial_index":0,"time_elapsed":4287,"internal_node_id":"0.0-0.0","protocol_sum":"","subject_identifier":111,"subject_sum":[2,210,11,189,126,57,74,213,153,154,76,235,171,172,150,25,115,44,52,58,76,172,153,71,12,3,226,59,162,189,194,188],"subject_pair":55,"STUDY_ID":"669a702db1122fc5150a13ce","PROLIFIC_PID":"612e44861dc0709ab9f444ba","SESSION_ID":"669ab90668d743ae4dbb18e5","practice_instructions":1,"leaderboard_instructions":0,"bonus":0,"reveal_word":true,"self_rating":"3","confidence":"68"},{"view_history":"[{\"page_index\":0,\"viewing_time\":4444.199999999953}]","rt":4444.399999999907,"trial_type":"instructions","trial_index":1,"time_elapsed":8732,"internal_node_id":"0.0-1.0","protocol_sum":"","subject_identifier":111,"subject_sum":[2,210,11,189,126,57,74,213,153,154,76,235,171,172,150,25,115,44,52,58,76,172,153,71,12,3,226,59,162,189,194,188],"subject_pair":55,"STUDY_ID":"669a702db1122fc5150a13ce","PROLIFIC_PID":"612e44861dc0709ab9f444ba","SESSION_ID":"669ab90668d743ae4dbb18e5","practice_instructions":1,"leaderboard_instructions":0,"bonus":0,"reveal_word":true,"self_rating":"3","confidence":"68"},{"view_history":"[{\"page_index\":0,\"viewing_time\":4828.300000000047}]","rt":4828.5,"trial_type":"instructions","trial_index":2,"time_elapsed":13561,"internal_node_id":"0.0-2.0-0.0","protocol_sum":"","subject_identifier":111,"subject_sum":[2,210,11,189,126,57,74,213,153,154,76,235,171,172,150,25,115,44,52,58,76,172,153,71,12,3,226,59,162,189,194,188],"subject_pair":55,"STUDY_ID":"669a702db1122fc5150a13ce","PROLIFIC_PID":"612e44861dc0709ab9f444ba","SESSION_ID":"669ab90668d743ae4dbb18e5","practice_instructions":1,"leaderboard_instructions":0,"bonus":0,"reveal_word":true,"self_rating":"3","confidence":"68"},{"rt":9843.400000000023,"responses":"{\"Q0\":\"... reveal the word with as <b>few letter guesses</b> as possible\"}","question_order":"[0]","trial_type":"survey-multi-choice","trial_index":3,"time_elapsed":23405,"internal_node_id":"0.0-2.0-1.0","protocol_sum":"","subject_identifier":111,"subject_sum":[2,210,11,189,126,57,74,213,153,154,76,235,171,172,150,25,115,44,52,58,76,172,153,71,12,3,226,59,162,189,194,188],"subject_pair":55,"correct":true,"test_part":"multichoice_nonpretend","STUDY_ID":"669a702db1122fc5150a13ce","PROLIFIC_PID":"612e44861dc0709ab9f444ba","SESSION_ID":"669ab90668d743ae4dbb18e5","practice_instructions":1,"leaderboard_instructions":0,"bonus":0,"reveal_word":true,"self_rating":"3","confidence":"68"},{"view_history":"[{\"page_index\":0,\"viewing_time\":1103.2000000000698}]","rt":1103.2000000000698,"trial_type":"instructions","trial_index":4,"time_elapsed":24509,"internal_node_id":"0.0-3.0","protocol_sum":"","subject_identifier":111,"subject_sum":[2,210,11,189,126,57,74,213,153,154,76,235,171,172,150,25,115,44,52,58,76,172,153,71,12,3,226,59,162,189,194,188],"subject_pair":55,"STUDY_ID":"669a702db1122fc5150a13ce","PROLIFIC_PID":"612e44861dc0709ab9f444ba","SESSION_ID":"669ab90668d743ae4dbb18e5","practice_instructions":1,"leaderboard_instructions":0,"bonus":0,"reveal_word":true,"self_rating":"3","confidence":"68"},{"word":"ZEBRA","click_log":{"letter":["","S","T","A","G","H","W","M","C","B","Z","E","R"],"t":[0,21364.29999999993,25597,31736.400000000023,35167.29999999993,38364.29999999993,41820.19999999995,43419.19999999995,45361,46736.79999999993,53589.09999999998,55024.09999999998,57722.59999999998],"hit":[null,0,0,1,0,0,0,0,0,1,1,1,1],"asked":["","S","ST","STA","STAG","STAGH","STAGHW","STAGHWM","STAGHWMC","STAGHWMCB","STAGHWMCBZ","STAGHWMCBZE","STAGHWMCBZER"],"word_state":["_____","_____","_____","____A","____A","____A","____A","____A","____A","__B_A","Z_B_A","ZEB_A","ZEBRA"]},"hover_log":{"letter":["?","?","?","?","?","?","?","?","?","?","?","?","?","?","?","?","?","?","?","?","?","?","?","?","?","?","?","?","?","?","?","?","?","?","?","?","?","?","?","?","?","?","?","?","?","?","?","?","?","?","?","?","?","?","?","?","?","?","?","?","?","?","?","?","?","?","?","?","?","?","?","?","?","?","?","?","?","?","?","?","?","?","?","?","?","?","?","?","?","?","?","?","?","?","?","?","?","?","?","?","?","?","?","?","?","?","?","?","?","?","?","?","?","?","?","?","?","?","?","?","?","?","?","?","?","?","?","?","?","?","?","?","?","?","?","?","?","?","?","?","?","?","?","?","?","?","?","?","?","?","?","?","?","?","?","?","?","?","?","?","?","?","?","?","?","?","?","?","?","?","?","?","?","?","?","?","?","?","?","?","?","?","?","?","?","?","?","?","?","?","?","?","?","?","?","?","?","?","?","?","?","?","?","?","?","?","?","?","?","?","?","?","?","?","?","?","?","?","?","?","?","?","?","?","?","?","?","?","?","?","?","?","?","?","?","?","?","?","?","?","?","?","?","?","?","?","?","?","?","?","?","?","?","?","?","?","?","?","?","?","?","?","?","?","?","?","?","?","?","?","H","?","?","G","G","?","?","?","?","?","?","?","?","?","?","?","?","?","?","?","?","?","?","?","?","?","?","?","?","?","?","?","?","?","?","?","?","?","?","?","?","?","?","?","?","M","M","M","?","?","?","?","?","?","?","?","?","?","?","?","?","?","?","?","?","?","?","?","?","?","?","?","?","?","?","?","?","?","?","?","?","?","?","?","?","?","?","?","?","?","?","?","?","?","?","?","?","?","?","?","?","?","?","?","?","?","?","?","?","?","?","?","?","?","?","?","?","?","?","?","?","?","?","?","?","?","?","?","?","?","?","?","?","?","?","?","?","?","?","?","?","?","?","?","?","?","?","?","?","?","?","?","?","?","?","?","?","?","?","?","?","?","?","?","?","?","?","?","?","Y","?","?","?","?","?","?","?","?","?","?","?","?","?","?","?","?","?","?","?","?","?","?","?","?","?","?","?","?","?","?","?","?","?","?","?","?","?","?","?","?","?","?","?","?","?","?","?","?","?","?","?","?","?","?","?","?","?","?","?","?","?","?","?","?","?","?","?","?","?","?","?","?","?","?","?","?","?","?","?","?","?","?","?","?","?","?","?","?","?","?","?","?","?","?","?","?","?","?","?","?","?","?","?","?","?","?","?","?","?","?","?","?","?","?","?","?","?","?","?","?","?","?","?","?","?","?","?","?","?","?","?","?","?","?","?","?","?","?","?","?","?","?","?","?","?","?","?","?","?","?","?","?","?","?","?","?","?","?","?","?","?","?","?","?","?","?","?","?","?","?","?","?","?","?","?","?","?","?","?","?","?","?","?","?","?","?","?","?","?","?","?","?","?","?","?","?","?","?","?","?","?","?","?","?","?","?","?","?","?","?","?","?","?","?","?","?","?","?","?","?","?","?","?","?","?","?","?","?","?","?","?","?","?","?","?","?","?","?","?","?","?","?","?","?","?","?","?","?","?","?","?","?","?","?","?","?","?","?","?","?","?","?","?","?","?","?","?","?","?","?","?","?","?","?","?","?","?","?","?","?","?","?","?","?","?","?","?","?","?","?","?","?","?","?","?","?","?","?","?","?","?","?","?","?","?","?","?","?","?","?","?","?","?","?","?","?","?","?","?","?","?","?","?","?","?","?","?","?","?","?","?","?","?","?","?","?","?","?","?","?","?","?","?","?","?","?","?","?","?","?","?","?","?","?","?","?","?","?","?","?","?","?","?","?","?","?","?","?","?","?","?","?","?","?","?","?","?","?","?","?","?","?","?","?","?","?","?","?","?","?","?","?","?","?","?","?","?","?","?","?","?","?","?","?","?","?","?","?","?","?","?","?","?","?","?","?","?","?","?","?","?","?","?","?","?","?","?","?","?","?","?","?","?","?","?","?","?","?","?","?","?","?","?","?","?","?","?","?","?","?","?","?","?","?","?","?","?","?","?","?","?","?","?","?","?","?","?","?","?","?","?","?","?","?","?","?","?","?","?","?","?","?","?","?","?","?","?","?","?","?","?","?","?","?","?","?","?","?","?","?","?","?","?","?","?","?","?","?","?","?","?","?","?","?","?","?","?","?","?","?","?","?","?","?","?","?","?","?","?","?","?","?","?","?","?","?","?","?","?","?","?","?","?","?","?","?","?","?","?","?","?","?","?","?","?","?","?","?","?","?","?","?","?","?","?","?","?","?","?","?","?","?","?","?","?","?","?","?","?","?","?","?","?","?","?","?","?","?","?","?","?","?","?","?","?","?","?","?","?","?","?","?","?","?","?","?","?","?","?","?","?","?","?","?","?","?","?","?","?","?","?","?","?","?","?","?","?","?","?","?","?","?","?","?","?","?","?","?","?","?","?","?","?","?","?","?","?","?","?","?","?","?","?","?","?","?","?","?","?","?","?","?","?","?","?","?","?","?","?","?","?","?","?","?","?","?","?","?","?","?","?","?","?","?","?","?","?","?","?","?","?","?","?","?","?","?","?","?","?","?","?","?","?","Y","?","N","?","?","?","?","?","?","?","?","?","?","?","?","?","?","?","?","?","?","?","?","?","?","?","?","?","?","?","?","?","?","?","?","?","?","?","?","?","?","?","?","?","?","?","?","?","?","?","?","?","?","?","?","?","?","?","?","?","?","?","?","?","?","?","?","?","?","?","?","?","?","?","?","?","?","?","?","?","?","?","?","?","?","?","?","?","?","?","?","?","?","?","?","?","?","?","?","?","?","?","?","?","?","?","?","?","?","?","?","?","?","?","?","?","?","?","?","?","?","?","?","?","?","?","?","?","?","?","?","?","?","?","?","?","?","?","?","?","?","?","?","?","?","?","?","?","?","?","?","?","?","?","?","?","?","?","?","?","?","?","?","?","?","?","?","?","?","?","?","?","?","?","?","?","?","?","?","?","?","?","?","?","?","?","?","?","?","?","?","?","?","?","?","?","?","?","?","?","?","?","?","?","?","?","?","?","?","?","?","?","?","?","?","?","?","?","?","?","?","?","?","?","?","?","?","?","?","?","?","?","?","?","?","?","?","?","?","?","?","?","?","?","?","?","?","?","?","?","?","?","?","?","?","?","?","?","?","?","?","?","?","?","?","?","?","?","?","?","?","?","?","?","?","?","?","?","?","?","?","?","?","?","?","?","?","?","?","?","?","?","?","X","X","X","X","X","X","X","X","X","?","?","?","?","?","?","?","?","?","?","?","?","?","?","K","K","K","?","?","?","?","?","?","?","?","?","?","?","?","?","?","?","?","?","?","?","?","?","?","?","?","?","?","?","?","?","?","?","?","?","?","?","?","T","T","T","T","T","?","?","?","?","?","?","?","?","?","S","S","S","S","S","S","S","S","S","S","S","S","S","S","S","S","S","S","S","S","S","S","S","S","S","S","S","S","S","S","S","S","S","S","S","S","S","S","S","S","S","S","S","S","S","S","S","S","S","S","S","S","S","S","S","S","S","S","S","S","S","S","S","S","S","S","S","S","S","S","S","S","S","S","S","S","S","S","S","S","S","S","S","S","S","S","S","S","S","S","S","S","S","S","S","S","S","S","S","S","S","S","S","S","S","S","S","S","S","S","S","S","S","S","S","S","S","S","S","S","S","S","S","S","?","?","?","?","?","?","?","?","?","?","?","?","?","?","?","?","?","?","?","?","?","?","?","?","?","?","?","?","?","?","?","?","?","?","?","?","?","?","?","?","?","?","?","?","?","?","?","?","?","?","?","?","?","?","?","?","?","?","?","?","?","?","?","?","?","?","?","?","?","?","?","?","?","?","?","?","?","?","?","?","?","?","?","?","?","?","?","?","?","?","?","?","?","?","?","?","?","?","?","?","?","?","?","?","?","?","?","?","?","?","?","?","?","?","?","?","?","?","?","?","?","?","?","?","?","?","?","?","?","?","?","?","?","?","?","?","?","?","?","?","?","?","?","?","?","?","?","?","?","?","?","?","?","?","?","?","?","?","?","?","?","?","?","?","?","?","?","?","?","?","?","?","?","?","?","?","?","?","?","?","T","T","T","T","T","T","T","T","T","T","T","T","T","T","T","T","T","T","T","T","T","T","T","T","T","T","T","T","T","T","T","T","T","T","T","T","T","T","T","T","T","T","T","T","T","T","U","U","?","?","?","?","?","?","?","?","?","?","?","?","?","?","?","?","?","?","?","?","?","?","?","?","?","?","?","?","?","?","?","?","?","?","?","?","?","?","?","?","?","?","?","?","?","?","?","?","?","?","?","?","?","?","?","?","?","?","?","?","?","?","?","?","?","?","?","?","?","?","?","?","?","?","?","?","?","?","?","?","?","?","?","?","?","?","?","?","?","?","?","?","?","?","?","?","?","?","?","?","?","?","?","?","?","?","?","?","?","?","?","?","?","?","?","?","?","?","?","?","?","?","?","?","?","?","?","?","?","?","?","?","?","?","?","?","?","?","?","?","?","?","?","?","?","?","?","?","?","?","?","?","?","?","?","?","?","?","?","?","?","?","?","?","?","?","?","?","?","?","?","?","?","?","?","?","?","?","?","?","?","?","?","?","?","?","?","?","?","?","?","?","?","?","?","?","?","?","?","?","?","?","?","?","?","?","?","?","?","?","?","?","?","?","?","?","?","?","?","?","?","?","?","?","?","?","?","?","?","?","?","?","?","?","?","?","?","?","?","?","?","?","?","?","?","?","?","?","?","?","?","?","?","?","?","?","?","?","?","?","?","?","?","?","?","?","?","?","?","?","?","?","?","?","?","?","?","?","?","?","?","?","?","?","?","?","?","?","?","?","?","?","?","?","?","?","?","?","?","?","?","?","?","?","?","?","?","?","?","A","A","A","A","A","A","A","A","A","A","A","A","A","A","A","A","?","?","?","?","?","?","?","?","?","?","?","?","?","?","?","?","?","?","?","?","?","?","?","?","?","?","?","?","?","A","A","A","A","A","A","A","A","A","A","A","A","A","A","?","?","?","?","?","?","?","?","?","?","?","?","?","?","?","?","?","?","?","?","?","?","?","?","?","?","?","?","?","?","A","A","A","A","A","A","A","A","A","A","A","A","A","A","A","A","A","A","A","A","A","A","A","A","A","A","A","A","A","A","A","A","A","A","A","A","A","A","A","A","A","A","A","A","A","A","A","A","A","A","A","A","A","A","A","A","A","A","A","A","A","A","B","B","?","C","D","?","E","?","F","H","?","?","?","?","?","?","?","?","?","?","?","?","?","?","?","?","?","?","?","?","?","?","?","?","?","?","?","?","?","?","?","?","?","?","?","?","?","?","?","?","?","?","?","?","?","?","?","?","?","?","?","?","?","?","?","?","?","?","?","?","?","?","?","Z","Z","Z","Z","Z","?","?","Y","?","?","?","?","?","?","?","?","?","?","?","?","?","?","?","?","?","?","Q","Q","Q","Q","Q","Q","Q","Q","Q","Q","Q","Q","Q","Q","Q","Q","Q","Q","Q","Q","Q","Q","Q","Q","Q","Q","Q","Q","Q","Q","Q","Q","Q","Q","Q","Q","Q","Q","Q","?","?","?","?","?","?","?","?","?","?","?","?","?","?","?","?","?","?","?","?","?","?","?","?","?","?","G","G","G","G","G","G","G","G","G","G","G","G","G","G","G","G","G","G","G","G","G","G","G","G","G","G","G","G","G","G","G","G","G","G","G","G","G","G","G","G","G","G","G","G","G","G","G","G","G","G","G","G","G","G","G","G","G","G","G","G","G","G","G","G","G","G","G","G","G","G","G","G","G","G","G","G","G","G","G","G","G","G","G","G","G","G","G","G","G","G","G","G","?","?","Q","?","?","?","?","?","?","?","?","?","?","?","?","?","?","?","?","?","?","?","?","?","?","?","?","?","?","?","?","?","?","?","?","?","?","?","?","?","?","?","?","?","?","?","?","?","?","?","?","?","?","?","?","?","?","?","?","?","?","?","?","?","?","?","?","?","?","?","?","?","?","?","?","?","?","?","?","?","?","?","?","?","?","?","?","?","?","?","?","?","?","?","?","?","?","?","?","?","?","?","?","?","?","?","?","?","?","?","?","?","?","?","?","?","?","?","?","?","?","?","?","?","?","?","?","?","?","?","?","?","?","R","R","R","?","I","I","I","I","I","I","?","?","?","?","?","?","?","?","?","?","?","H","H","H","H","H","H","H","H","H","H","H","H","H","H","H","H","H","H","H","H","H","H","H","H","H","H","H","H","H","H","H","H","H","H","H","H","H","H","H","H","H","H","H","H","H","H","H","H","H","H","H","H","H","H","H","H","H","H","H","H","H","H","H","?","?","R","R","?","?","?","?","?","?","?","?","?","?","?","?","?","?","?","?","?","?","?","?","?","?","?","?","?","?","?","?","?","?","?","?","?","?","?","?","?","?","?","?","?","?","?","?","?","?","?","?","?","?","?","?","?","?","?","?","?","?","?","?","?","?","Z","Z","Z","Z","Z","Z","Z","Z","Z","Z","?","?","?","?","?","?","?","?","?","?","?","?","?","?","?","?","?","?","?","?","?","?","?","?","?","?","?","?","?","?","?","?","?","?","?","?","?","?","Z","Z","Z","Z","Z","Z","?","?","?","Y","Y","Y","Y","Y","Y","Y","Y","Y","Y","Y","Y","Y","Y","Y","Y","Y","Y","Y","Y","Y","Y","Y","Y","Y","Y","Y","Y","Y","Y","Y","Y","Y","Y","Y","Y","Y","?","?","?","?","X","X","?","?","?","?","?","?","?","?","?","?","?","?","?","?","?","?","?","?","?","?","?","W","W","W","W","W","W","W","W","W","W","W","W","W","W","W","W","W","W","W","W","W","W","W","W","W","W","W","W","W","W","W","W","W","W","W","W","W","W","W","W","W","W","W","W","W","W","W","W","W","W","W","W","W","W","W","W","W","W","W","W","W","W","?","?","?","?","?","?","?","?","?","?","?","?","?","?","?","?","?","?","?","?","?","?","?","?","?","?","?","?","?","?","?","?","?","?","U","U","U","U","U","?","?","?","?","?","?","?","?","?","?","?","?","?","M","M","M","M","M","M","M","M","M","M","M","M","M","M","M","M","M","M","M","M","M","M","M","M","M","M","M","M","M","M","M","M","M","M","M","M","M","M","M","M","M","M","M","M","M","M","M","M","M","M","M","M","M","M","M","M","M","M","M","M","M","M","M","M","M","?","?","?","?","?","?","?","?","?","?","?","?","?","?","?","?","?","?","?","?","?","?","?","?","?","?","?","?","?","?","?","L","L","L","L","L","L","L","L","L","?","?","?","?","?","?","?","?","?","?","?","?","?","?","?","?","?","?","?","?","?","?","?","?","?","?","?","?","?","?","?","?","C","C","C","C","C","C","C","C","C","C","C","C","C","C","C","C","C","C","C","C","C","C","C","C","C","C","C","C","C","C","C","C","C","C","C","C","C","C","C","C","C","C","C","C","C","C","C","C","C","C","C","C","C","C","C","C","C","C","C","C","C","C","C","C","C","C","C","C","C","C","C","C","C","C","C","C","C","C","C","C","C","C","C","C","C","C","C","?","?","?","B","B","B","B","B","B","B","B","B","B","B","B","B","B","B","B","B","B","B","B","B","B","B","B","B","B","B","B","B","B","B","B","B","B","B","B","B","B","B","B","B","B","B","B","B","B","B","B","B","B","B","B","B","B","B","B","B","B","B","B","B","B","B","B","B","B","B","B","B","B","B","B","B","B","B","B","B","B","B","B","B","B","B","B","B","?","?","?","?","K","K","K","K","K","K","K","K","K","K","K","K","K","K","K","K","K","K","K","K","K","K","K","K","K","K","?","?","?","?","U","V","V","V","?","?","?","?","?","?","?","?","?","?","?","?","?","?","?","?","?","?","?","?","?","?","?","?","?","?","?","?","?","?","?","?","?","?","?","?","?","?","?","?","?","?","?","?","?","?","?","?","?","?","?","?","?","?","?","?","?","?","?","?","?","?","?","?","?","?","?","?","?","?","?","?","?","?","?","?","?","?","?","?","?","?","?","?","?","?","?","?","?","?","?","?","?","?","?","?","?","?","?","?","?","?","?","?","?","?","?","?","?","?","?","?","?","?","?","?","?","?","?","?","?","?","?","?","?","?","?","?","?","?","?","?","?","?","?","?","?","?","?","?","?","?","?","?","?","?","?","?","?","?","?","?","?","?","?","?","?","?","?","?","?","?","?","?","?","?","?","?","?","?","?","?","?","?","?","?","?","?","?","?","?","?","?","?","?","?","?","?","?","?","?","?","?","?","?","?","?","?","?","?","?","?","?","?","?","?","?","?","?","?","?","?","?","?","?","?","?","?","?","?","?","?","?","?","?","?","?","?","?","?","?","?","?","?","?","?","?","?","?","?","?","?","?","?","?","?","?","?","?","?","?","?","?","?","?","?","?","?","?","?","?","?","?","?","?","?","Y","Y","Y","Y","Y","?","?","?","?","?","?","?","?","?","?","?","?","?","?","?","?","?","?","?","?","?","?","?","?","?","?","?","?","?","?","?","?","?","?","?","?","?","?","?","?","?","?","?","?","?","?","?","?","?","?","?","?","?","?","?","?","?","?","?","?","?","?","?","?","?","?","?","?","?","?","?","?","?","?","?","?","?","?","Y","Y","Y","Y","Y","Y","Y","Y","Y","Y","Y","Y","Y","Y","Y","Y","Y","Y","Y","Y","Y","Y","Y","?","?","?","?","?","?","Z","Z","Z","Z","Z","Z","Z","Z","Z","Z","Z","Z","Z","Z","Z","Z","Z","Z","Z","Z","Z","Z","Z","Z","Z","Z","Z","Z","Z","Z","Z","Z","Z","Z","Z","Z","Z","Z","Z","Z","Z","Z","Z","Z","Z","Z","Z","Z","Z","Z","Z","Z","?","?","?","?","?","?","?","?","?","?","?","?","?","?","?","?","?","W","?","M","M","M","M","M","M","M","M","M","M","?","?","?","?","?","?","?","?","?","?","?","?","D","?","?","D","D","D","D","D","D","D","D","?","?","E","E","E","E","E","E","E","E","E","E","E","E","E","E","E","E","E","E","E","E","E","E","E","E","E","E","E","E","E","E","E","E","E","E","E","E","E","E","E","E","E","E","E","E","E","E","E","E","E","E","E","?","O","O","?","?","Y","?","?","?","?","?","?","?","?","?","?","?","?","?","?","?","?","?","?","?","?","?","?","?","?","?","?","?","?","?","?","?","?","?","?","?","?","?","?","?","?","?","?","?","?","?","?","?","?","?","?","?","?","?","?","?","?","?","?","?","?","?","?","?","?","?","?","?","?","?","?","?","?","?","?","?","?","?","?","?","?","?","?","?","?","?","?","?","?","?","?","?","?","?","?","?","?","?","?","?","?","?","?","Z","?","?","?","?","?","?","?","?","?","?","?","?","?","?","?","?","?","?","?","?","?","?","?","?","?","?","?","?","?","?","?","?","?","R","R","R","R","R","R","R","R","R","R","R","R","R","R","R","R","R","R","R","R","R","R","R","R","R","R","R","R","R","R","R","R","R","R","R","R","R","R","R","R","R","R","R","R","R","R","R","?","?","?","?","?","?","?","?","?","?","?","?","?","?","?","?","?","?","?","?","?","?","?","?","?","?","?","?","?","?","?","?","?","?","?","?","?","?","?","?","?","?","?","?","?","?","?","?","?","?","?","?","?","?","?","?","?","?","?","?","?","?","?","?","?","?","?","?","?","?","?","?","?","?","?","?","?","?","?","?","?","?","?","?","?","?","?","?","?","?","?","?","?","?","?","?","?","?","?","?","?","?","?","?","?","?","?","?","?","?","?","?","?","?","?","?","?","?","?","?","?","?","?","?","?"],"t":[28,40,54,66,82,98,118,131,143,159,173,185,199,213,227,242,257,269,283,296,311,326,339,353,365,381,394,407,422,436,449,464,479,492,506,517,533,547,561,575,587,602,616,629,643,658,670,686,700,714,727,741,755,769,783,797,811,824,839,851,865,880,893,908,922,936,950,962,977,992,1005,1020,1032,1047,1060,1073,1088,1101,1115,1131,1144,1158,1172,1184,1200,1214,1227,1241,1254,1269,1284,1303,1316,1331,1344,1359,1375,1387,1401,1414,1428,1443,1456,1472,1484,1498,1512,1525,1539,1553,1566,1581,1596,1609,1622,1637,1651,1664,1679,1692,1706,1721,1734,1748,1761,1775,1789,1804,1817,1831,1843,1859,1873,1887,1900,1914,1928,1943,1955,1969,1983,1997,2012,2026,2040,2053,2067,2081,2096,2109,2122,2136,2151,2164,2177,2193,2205,2219,2234,2248,2262,2277,2296,2311,2324,2339,2352,2365,2380,2394,2407,2421,2435,2448,2463,2477,2490,2504,2518,2534,2547,2561,2574,2587,2602,2616,2629,2644,2657,2672,2685,2698,2712,2727,2740,2754,2769,2783,2796,2811,2824,2837,2851,2865,2879,2894,2907,2922,2935,2949,2963,2977,2990,3004,3018,3032,3046,3060,3073,3087,3102,3115,3129,3143,3157,3171,3184,3199,3213,3227,3241,3254,3268,3282,3296,3309,3323,3338,3352,3366,3381,3393,3408,3421,3435,3449,3462,3477,3490,3504,3517,3532,3546,3559,3573,3588,3602,3615,3629,3643,3657,3671,3686,3698,3713,3726,3740,3754,3767,3782,3796,3811,3823,3838,3852,3866,3879,3893,3907,3921,3934,3949,3963,3977,3991,4004,4018,4032,4046,4060,4073,4087,4102,4115,4129,4142,4156,4170,4184,4198,4212,4226,4240,4254,4268,4281,4295,4310,4324,4337,4351,4365,4379,4393,4407,4422,4434,4449,4462,4476,4490,4504,4518,4532,4546,4560,4574,4587,4601,4615,4629,4643,4657,4672,4685,4699,4713,4727,4740,4754,4768,4782,4796,4810,4823,4838,4852,4866,4879,4893,4908,4921,4935,4948,4962,4976,4990,5003,5017,5031,5046,5060,5074,5087,5101,5115,5129,5143,5156,5170,5184,5198,5212,5226,5239,5253,5267,5281,5295,5309,5323,5337,5351,5365,5379,5394,5407,5422,5436,5448,5462,5476,5490,5504,5518,5532,5545,5559,5573,5587,5601,5616,5628,5643,5657,5671,5685,5698,5712,5726,5740,5754,5768,5781,5796,5810,5823,5838,5853,5865,5880,5893,5908,5921,5935,5949,5962,5976,5990,6005,6018,6031,6046,6060,6074,6087,6101,6115,6130,6143,6157,6171,6185,6199,6212,6226,6241,6255,6267,6282,6295,6309,6323,6338,6351,6365,6379,6393,6407,6421,6435,6449,6462,6476,6490,6504,6518,6531,6546,6561,6574,6587,6601,6615,6629,6643,6656,6671,6684,6699,6712,6726,6740,6754,6768,6782,6796,6811,6824,6837,6851,6865,6878,6892,6906,6920,6934,6948,6962,6976,6990,7004,7018,7033,7045,7059,7073,7087,7101,7115,7129,7143,7157,7171,7184,7198,7212,7226,7240,7254,7268,7281,7295,7309,7323,7337,7351,7365,7379,7393,7407,7420,7434,7448,7462,7476,7490,7504,7518,7532,7545,7559,7574,7587,7601,7615,7629,7642,7657,7673,7685,7698,7712,7726,7740,7754,7768,7781,7796,7810,7823,7837,7852,7865,7878,7893,7907,7920,7935,7948,7962,7976,7990,8004,8018,8035,8047,8061,8075,8087,8101,8115,8129,8142,8156,8170,8184,8199,8212,8226,8240,8254,8268,8282,8296,8310,8324,8337,8351,8365,8379,8392,8406,8420,8434,8448,8462,8476,8489,8503,8517,8532,8545,8559,8574,8588,8601,8615,8629,8643,8657,8671,8684,8699,8712,8727,8740,8754,8768,8782,8796,8809,8823,8837,8851,8865,8880,8893,8907,8920,8934,8948,8963,8976,8990,9004,9018,9032,9045,9061,9073,9088,9101,9115,9129,9142,9156,9170,9184,9198,9212,9226,9240,9254,9268,9282,9296,9309,9323,9338,9351,9364,9378,9392,9407,9420,9434,9448,9462,9476,9490,9504,9518,9531,9545,9560,9573,9587,9601,9615,9630,9642,9656,9670,9684,9698,9712,9726,9740,9754,9767,9781,9795,9809,9823,9837,9851,9865,9878,9893,9906,9920,9934,9948,9962,9976,9990,10005,10017,10031,10045,10059,10073,10087,10101,10116,10129,10143,10156,10170,10184,10198,10212,10227,10240,10254,10267,10281,10295,10309,10323,10337,10351,10365,10380,10392,10406,10421,10434,10448,10462,10476,10490,10503,10517,10535,10552,10566,10580,10594,10608,10622,10635,10649,10663,10677,10691,10705,10719,10733,10746,10760,10774,10788,10802,10817,10830,10845,10858,10871,10885,10899,10913,10927,10941,10955,10969,10982,10997,11011,11024,11038,11052,11071,11087,11101,11115,11129,11142,11156,11170,11184,11198,11212,11227,11240,11253,11267,11281,11295,11309,11323,11337,11351,11365,11378,11392,11406,11420,11434,11448,11462,11476,11491,11504,11518,11532,11547,11560,11573,11587,11601,11615,11630,11644,11657,11671,11684,11698,11712,11726,11740,11754,11768,11782,11796,11809,11823,11837,11851,11865,11879,11892,11906,11920,11934,11948,11962,11976,11990,12004,12018,12032,12046,12060,12073,12087,12101,12114,12128,12143,12156,12170,12185,12198,12212,12226,12240,12254,12267,12281,12295,12309,12324,12337,12351,12365,12379,12393,12406,12420,12434,12448,12462,12475,12489,12503,12517,12531,12545,12560,12574,12587,12601,12615,12629,12642,12658,12670,12684,12698,12713,12727,12740,12754,12767,12782,12795,12810,12824,12838,12852,12865,12879,12893,12907,12921,12934,12949,12963,12975,12990,13003,13017,13031,13046,13059,13074,13087,13101,13115,13128,13142,13156,13171,13184,13199,13212,13226,13240,13254,13268,13281,13295,13309,13323,13338,13351,13365,13379,13392,13407,13421,13435,13449,13462,13476,13490,13505,13518,13531,13545,13559,13573,13587,13601,13614,13628,13642,13656,13671,13684,13698,13712,13726,13739,13755,13768,13781,13795,13809,13823,13837,13851,13865,13878,13892,13906,13920,13934,13949,13962,13976,13990,14003,14017,14031,14045,14059,14074,14087,14101,14114,14128,14142,14156,14170,14184,14198,14212,14226,14239,14253,14267,14281,14297,14310,14323,14337,14351,14364,14378,14392,14407,14420,14434,14449,14463,14476,14489,14503,14517,14531,14546,14560,14574,14587,14601,14615,14629,14643,14657,14671,14685,14698,14712,14726,14739,14753,14767,14781,14795,14809,14823,14837,14851,14865,14879,14892,14906,14921,14934,14948,14962,14976,14990,15004,15018,15031,15045,15059,15073,15088,15101,15114,15128,15143,15157,15170,15185,15198,15212,15226,15240,15254,15268,15281,15295,15309,15323,15337,15351,15365,15379,15393,15406,15420,15434,15448,15462,15476,15490,15504,15517,15531,15545,15559,15573,15587,15601,15615,15629,15642,15656,15670,15684,15698,15712,15726,15740,15753,15767,15782,15795,15810,15823,15838,15851,15865,15879,15893,15906,15920,15934,15949,15962,15976,15990,16004,16018,16031,16046,16059,16073,16088,16101,16115,16129,16143,16156,16170,16184,16198,16212,16226,16240,16254,16267,16281,16296,16309,16323,16337,16351,16366,16379,16392,16406,16421,16435,16448,16462,16476,16490,16504,16519,16532,16546,16560,16573,16587,16601,16615,16629,16643,16657,16671,16685,16698,16712,16726,16740,16754,16768,16782,16796,16809,16823,16837,16851,16865,16879,16893,16907,16921,16935,16949,16962,16976,16990,17004,17018,17032,17046,17060,17075,17087,17102,17115,17128,17142,17156,17170,17184,17198,17212,17226,17239,17253,17267,17282,17296,17310,17324,17337,17351,17365,17379,17393,17408,17421,17435,17448,17462,17476,17490,17504,17518,17532,17546,17560,17573,17587,17601,17615,17629,17643,17658,17671,17684,17698,17712,17726,17740,17754,17768,17782,17796,17810,17823,17837,17851,17865,17879,17893,17907,17921,17934,17948,17962,17976,17990,18004,18018,18032,18045,18059,18073,18087,18101,18115,18129,18143,18158,18170,18184,18198,18212,18226,18240,18254,18268,18281,18295,18309,18323,18337,18351,18365,18379,18392,18406,18420,18434,18448,18463,18477,18490,18504,18518,18531,18545,18559,18573,18587,18601,18615,18629,18643,18656,18670,18684,18698,18713,18726,18740,18754,18768,18781,18795,18809,18823,18837,18851,18865,18879,18893,18906,18920,18934,18949,18962,18976,18990,19004,19018,19031,19045,19059,19073,19087,19101,19115,19129,19143,19157,19171,19185,19198,19212,19226,19240,19254,19268,19282,19296,19310,19323,19337,19351,19365,19379,19393,19407,19421,19434,19448,19462,19476,19490,19504,19518,19531,19545,19559,19574,19588,19601,19615,19629,19643,19656,19671,19684,19698,19712,19726,19740,19754,19768,19781,19796,19809,19823,19837,19852,19865,19879,19893,19907,19920,19934,19948,19963,19976,19991,20004,20019,20031,20045,20059,20073,20087,20101,20115,20129,20143,20157,20171,20184,20198,20212,20226,20240,20254,20268,20282,20295,20309,20323,20337,20351,20365,20379,20393,20406,20420,20434,20448,20462,20476,20490,20504,20518,20531,20545,20559,20574,20587,20601,20615,20629,20643,20656,20670,20684,20698,20712,20727,20740,20754,20768,20781,20795,20809,20823,20837,20851,20865,20879,20893,20907,20920,20934,20949,20962,20976,20990,21004,21018,21032,21046,21059,21074,21087,21101,21115,21129,21143,21157,21171,21185,21199,21212,21226,21240,21254,21268,21282,21296,21310,21323,21337,21351,21365,21379,21393,21408,21421,21434,21448,21462,21476,21490,21505,21518,21532,21546,21559,21573,21587,21601,21615,21629,21643,21657,21671,21684,21698,21712,21726,21740,21754,21768,21782,21795,21809,21823,21837,21851,21865,21879,21893,21906,21921,21935,21949,21963,21976,21990,22004,22018,22032,22046,22059,22074,22088,22101,22115,22129,22144,22157,22171,22184,22198,22212,22226,22240,22254,22268,22282,22295,22309,22323,22337,22351,22365,22379,22393,22407,22420,22434,22448,22462,22476,22490,22504,22518,22531,22545,22559,22573,22587,22601,22615,22629,22642,22656,22670,22684,22698,22712,22726,22740,22754,22767,22782,22796,22809,22823,22837,22851,22866,22879,22893,22907,22920,22934,22948,22962,22976,22990,23004,23018,23032,23045,23059,23073,23087,23101,23115,23129,23143,23156,23170,23184,23198,23212,23226,23240,23254,23268,23281,23295,23309,23323,23337,23351,23365,23379,23393,23407,23421,23435,23449,23463,23476,23490,23504,23518,23532,23546,23560,23574,23587,23601,23615,23629,23643,23657,23671,23684,23698,23712,23726,23740,23754,23769,23781,23795,23809,23824,23837,23851,23865,23879,23893,23906,23920,23935,23948,23962,23976,23990,24004,24018,24032,24045,24059,24073,24087,24101,24115,24129,24143,24156,24170,24184,24198,24213,24227,24241,24254,24268,24282,24295,24310,24323,24337,24351,24365,24378,24393,24407,24420,24434,24449,24462,24477,24490,24504,24519,24531,24545,24559,24573,24587,24601,24616,24629,24642,24656,24670,24684,24698,24713,24726,24740,24754,24767,24781,24795,24809,24823,24837,24851,24865,24878,24893,24906,24920,24934,24948,24962,24976,24992,25003,25017,25031,25045,25060,25074,25088,25102,25115,25129,25143,25157,25171,25185,25199,25213,25226,25240,25254,25268,25282,25296,25310,25324,25339,25351,25365,25379,25393,25407,25421,25435,25449,25462,25476,25490,25504,25518,25532,25546,25560,25574,25587,25601,25615,25629,25643,25657,25671,25685,25699,25712,25726,25740,25754,25768,25782,25796,25810,25823,25837,25851,25865,25879,25893,25907,25921,25936,25948,25962,25976,25990,26004,26018,26032,26045,26059,26074,26088,26101,26115,26129,26143,26157,26170,26184,26198,26213,26226,26240,26254,26268,26282,26295,26309,26323,26338,26351,26365,26379,26393,26407,26420,26435,26449,26462,26477,26490,26504,26518,26532,26546,26560,26574,26588,26601,26615,26629,26643,26657,26671,26685,26699,26713,26726,26740,26754,26769,26782,26795,26809,26823,26837,26851,26865,26879,26893,26907,26920,26934,26948,26962,26976,26990,27004,27018,27034,27052,27067,27080,27094,27109,27122,27136,27150,27164,27178,27192,27205,27219,27233,27247,27261,27275,27289,27303,27317,27330,27344,27358,27372,27386,27400,27413,27427,27441,27455,27469,27483,27497,27511,27526,27538,27552,27566,27581,27594,27608,27622,27636,27650,27664,27677,27691,27705,27719,27733,27747,27761,27775,27788,27802,27816,27830,27844,27858,27872,27886,27901,27913,27927,27941,27955,27969,27983,27997,28011,28026,28038,28052,28066,28080,28094,28108,28122,28137,28149,28163,28177,28191,28206,28220,28233,28247,28261,28275,28289,28303,28317,28331,28345,28358,28372,28386,28400,28414,28428,28442,28456,28469,28483,28497,28511,28525,28539,28553,28567,28581,28594,28608,28622,28636,28650,28664,28678,28692,28705,28719,28733,28747,28761,28775,28789,28803,28818,28830,28844,28858,28872,28886,28900,28914,28927,28941,28955,28969,28983,28997,29011,29025,29039,29052,29066,29080,29094,29108,29122,29137,29150,29164,29178,29192,29206,29219,29233,29247,29261,29275,29289,29303,29317,29331,29344,29358,29372,29386,29400,29414,29428,29442,29456,29469,29483,29497,29511,29525,29539,29553,29567,29580,29594,29608,29622,29636,29651,29664,29678,29691,29705,29719,29734,29747,29761,29774,29788,29802,29816,29830,29844,29858,29872,29886,29900,29914,29927,29941,29955,29969,29983,29997,30011,30025,30039,30054,30067,30080,30094,30108,30122,30136,30150,30164,30178,30192,30205,30219,30233,30248,30261,30275,30289,30303,30317,30331,30345,30358,30372,30386,30400,30414,30428,30442,30456,30469,30483,30497,30511,30525,30539,30553,30567,30581,30594,30608,30622,30637,30650,30664,30678,30692,30705,30719,30733,30747,30761,30775,30788,30802,30816,30830,30844,30858,30872,30886,30899,30913,30927,30941,30955,30969,30983,30997,31011,31025,31039,31053,31067,31080,31094,31108,31122,31136,31150,31164,31178,31192,31205,31219,31233,31247,31261,31275,31289,31303,31316,31330,31344,31358,31372,31386,31400,31414,31427,31441,31455,31469,31483,31497,31511,31525,31540,31552,31566,31580,31594,31608,31622,31636,31650,31664,31677,31691,31705,31719,31733,31749,31761,31775,31788,31802,31817,31830,31844,31858,31872,31886,31900,31914,31928,31942,31956,31970,31984,31998,32011,32025,32039,32053,32067,32081,32095,32109,32122,32136,32150,32164,32178,32192,32206,32220,32235,32247,32261,32275,32290,32303,32317,32331,32346,32358,32372,32386,32400,32414,32428,32441,32455,32469,32483,32498,32512,32524,32539,32553,32566,32580,32594,32608,32622,32636,32650,32664,32677,32691,32705,32719,32733,32747,32761,32775,32788,32802,32816,32831,32845,32858,32872,32886,32900,32914,32928,32942,32956,32971,32983,32997,33011,33025,33039,33052,33066,33080,33095,33108,33122,33137,33150,33164,33178,33191,33206,33219,33233,33247,33261,33275,33289,33302,33317,33330,33344,33358,33372,33386,33400,33414,33427,33441,33455,33469,33483,33497,33511,33525,33540,33553,33566,33580,33594,33608,33622,33636,33650,33663,33677,33691,33705,33720,33733,33747,33761,33774,33788,33802,33816,33830,33844,33858,33872,33886,33900,33913,33927,33941,33955,33969,33983,33997,34011,34024,34038,34053,34066,34080,34094,34108,34122,34136,34150,34164,34178,34191,34205,34219,34233,34247,34261,34275,34289,34302,34317,34330,34344,34358,34372,34386,34400,34414,34427,34441,34455,34469,34483,34497,34511,34525,34539,34552,34566,34580,34594,34608,34622,34636,34650,34664,34677,34691,34705,34719,34733,34747,34761,34776,34788,34802,34816,34830,34845,34859,34872,34886,34899,34913,34927,34941,34955,34969,34983,34997,35011,35024,35039,35053,35066,35080,35094,35108,35122,35136,35150,35164,35178,35191,35205,35219,35233,35247,35261,35277,35288,35302,35316,35330,35344,35359,35372,35386,35400,35413,35428,35442,35456,35470,35484,35497,35511,35525,35539,35553,35567,35581,35595,35608,35622,35636,35650,35665,35678,35692,35706,35720,35733,35747,35761,35775,35789,35803,35817,35832,35845,35858,35872,35886,35900,35914,35928,35942,35955,35969,35983,35997,36011,36025,36039,36054,36066,36080,36094,36108,36122,36136,36150,36164,36177,36191,36205,36219,36233,36247,36261,36275,36289,36302,36316,36330,36344,36358,36372,36386,36400,36414,36427,36441,36455,36469,36483,36497,36511,36525,36538,36553,36567,36582,36594,36608,36622,36636,36650,36664,36678,36692,36705,36719,36733,36747,36761,36775,36789,36803,36816,36830,36844,36858,36872,36886,36900,36914,36927,36941,36955,36969,36983,36998,37011,37024,37039,37053,37066,37081,37094,37109,37122,37136,37150,37163,37177,37191,37205,37219,37233,37247,37262,37274,37289,37302,37317,37331,37345,37359,37372,37386,37399,37413,37428,37442,37456,37470,37484,37497,37511,37525,37539,37554,37567,37581,37595,37608,37622,37636,37650,37664,37678,37692,37706,37720,37733,37747,37761,37775,37789,37803,37817,37831,37844,37858,37872,37886,37900,37914,37928,37942,37955,37969,37983,37997,38011,38025,38039,38053,38067,38080,38094,38108,38122,38136,38150,38164,38179,38191,38205,38219,38233,38247,38261,38275,38289,38302,38316,38330,38344,38358,38372,38386,38400,38414,38427,38441,38455,38469,38483,38497,38511,38525,38539,38552,38566,38580,38594,38608,38622,38636,38650,38663,38677,38691,38705,38719,38733,38747,38761,38775,38788,38802,38816,38831,38844,38858,38872,38886,38900,38915,38928,38941,38955,38969,38983,38997,39011,39025,39039,39053,39066,39080,39094,39108,39122,39136,39150,39164,39179,39191,39206,39219,39233,39248,39262,39275,39288,39303,39317,39331,39346,39359,39372,39386,39400,39414,39428,39442,39456,39470,39484,39497,39511,39525,39539,39553,39567,39581,39594,39608,39622,39636,39650,39664,39678,39692,39706,39719,39733,39747,39761,39775,39789,39803,39817,39831,39844,39858,39872,39886,39900,39914,39928,39942,39955,39969,39983,39997,40011,40025,40039,40053,40067,40080,40095,40108,40122,40136,40150,40164,40178,40192,40206,40220,40234,40247,40261,40275,40289,40303,40316,40330,40345,40359,40373,40386,40400,40414,40428,40442,40456,40470,40484,40498,40511,40525,40539,40553,40566,40580,40594,40608,40623,40636,40650,40664,40678,40692,40706,40720,40733,40747,40761,40775,40789,40803,40817,40831,40845,40858,40872,40887,40899,40913,40927,40941,40956,40970,40983,40998,41013,41025,41039,41053,41067,41081,41096,41108,41122,41136,41150,41164,41178,41192,41206,41220,41233,41247,41261,41275,41289,41303,41317,41330,41344,41358,41372,41386,41400,41414,41428,41441,41455,41469,41483,41497,41512,41525,41539,41553,41566,41580,41594,41609,41622,41636,41650,41664,41678,41691,41705,41719,41733,41748,41761,41775,41789,41803,41816,41830,41844,41858,41872,41886,41900,41914,41928,41941,41955,41969,41983,41997,42011,42025,42039,42053,42066,42080,42094,42108,42122,42136,42150,42164,42178,42192,42206,42219,42233,42247,42261,42275,42289,42303,42317,42330,42344,42358,42372,42386,42400,42414,42429,42443,42455,42469,42484,42497,42511,42525,42539,42554,42567,42580,42594,42609,42622,42636,42650,42664,42678,42692,42705,42719,42733,42747,42761,42775,42789,42803,42817,42830,42845,42858,42873,42886,42900,42914,42928,42942,42955,42969,42983,42997,43011,43025,43039,43053,43066,43080,43094,43108,43122,43136,43150,43164,43177,43191,43205,43219,43233,43247,43261,43275,43289,43302,43316,43330,43344,43358,43372,43386,43400,43414,43429,43441,43455,43469,43483,43497,43511,43525,43538,43552,43566,43580,43594,43608,43622,43636,43650,43664,43678,43692,43706,43720,43733,43747,43761,43775,43789,43803,43817,43831,43844,43858,43872,43886,43900,43914,43928,43942,43956,43969,43983,43997,44011,44025,44039,44053,44067,44080,44094,44108,44122,44136,44150,44164,44178,44192,44206,44220,44233,44247,44261,44275,44289,44302,44316,44330,44345,44359,44372,44386,44400,44414,44428,44442,44456,44469,44483,44497,44511,44525,44539,44553,44567,44582,44594,44608,44622,44636,44650,44664,44678,44692,44705,44720,44734,44748,44762,44775,44789,44803,44817,44831,44846,44859,44873,44886,44900,44914,44928,44942,44956,44970,44984,44998,45011,45025,45039,45053,45067,45080,45094,45108,45122,45136,45150,45164,45178,45191,45205,45219,45233,45247,45261,45275,45289,45304,45316,45330,45344,45358,45373,45386,45400,45414,45427,45441,45455,45469,45483,45497,45512,45525,45539,45552,45566,45580,45594,45608,45622,45636,45650,45663,45677,45691,45706,45719,45733,45747,45761,45775,45788,45802,45816,45830,45844,45858,45872,45886,45900,45913,45927,45942,45957,45970,45984,45997,46012,46025,46039,46053,46067,46081,46095,46109,46122,46136,46150,46165,46178,46192,46206,46220,46234,46248,46261,46275,46289,46303,46317,46330,46344,46358,46372,46386,46400,46414,46428,46442,46455,46469,46483,46497,46511,46526,46538,46553,46567,46580,46594,46609,46623,46636,46650,46665,46678,46692,46706,46720,46734,46747,46761,46775,46789,46803,46817,46831,46845,46859,46872,46886,46900,46915,46928,46942,46956,46969,46983,46997,47011,47025,47039,47053,47067,47080,47094,47108,47122,47136,47150,47164,47178,47192,47206,47220,47234,47247,47261,47275,47289,47303,47317,47331,47345,47358,47372,47386,47400,47414,47428,47442,47456,47470,47483,47497,47511,47525,47539,47553,47567,47581,47594,47608,47622,47636,47650,47664,47678,47691,47706,47720,47734,47747,47761,47775,47789,47803,47817,47831,47845,47859,47872,47886,47900,47914,47929,47942,47956,47970,47983,47997,48011,48025,48039,48054,48067,48081,48095,48108,48122,48136,48150,48164,48178,48192,48206,48220,48233,48247,48261,48275,48289,48303,48317,48331,48344,48358,48372,48386,48400,48414,48428,48442,48456,48469,48483,48497,48511,48525,48539,48554,48567,48580,48594,48608,48622,48636,48650,48664,48678,48691,48705,48719,48733,48747,48761,48775,48789,48803,48816,48830,48844,48858,48872,48886,48900,48914,48928,48941,48955,48969,48983,48997,49011,49025,49039,49052,49066,49080,49094,49108,49122,49136,49150,49164,49177,49191,49206,49219,49234,49248,49262,49276,49288,49302,49316,49331,49344,49358,49373,49386,49401,49414,49428,49443,49455,49469,49483,49498,49511,49526,49540,49553,49567,49580,49594,49608,49622,49636,49650,49664,49678,49693,49706,49719,49733,49747,49761,49775,49789,49803,49816,49831,49844,49858,49872,49886,49900,49914,49928,49942,49956,49969,49983,49997,50011,50025,50039,50053,50067,50080,50094,50108,50122,50136,50150,50164,50178,50192,50205,50219,50233,50247,50261,50275,50289,50303,50316,50330,50344,50358,50372,50386,50400,50414,50428,50441,50455,50469,50483,50497,50511,50525,50539,50553,50567,50581,50595,50609,50623,50636,50650,50665,50678,50692,50706,50720,50734,50749,50761,50775,50789,50803,50817,50831,50845,50859,50873,50886,50900,50914,50928,50942,50956,50970,50984,50997,51011,51025,51039,51053,51067,51081,51095,51109,51122,51136,51150,51164,51178,51192,51206,51220,51234,51248,51261,51275,51289,51304,51317,51331,51345,51359,51373,51387,51400,51415,51428,51442,51456,51470,51484,51498,51512,51525,51539,51553,51567,51581,51595,51609,51623,51636,51650,51664,51678,51692,51706,51719,51734,51747,51761,51775,51789,51803,51817,51832,51844,51858,51872,51886,51900,51914,51928,51941,51955,51969,51983,51998,52011,52025,52040,52052,52067,52081,52094,52108,52122,52136,52150,52164,52178,52191,52205,52219,52233,52247,52261,52275,52289,52302,52316,52330,52344,52358,52372,52386,52400,52415,52427,52442,52456,52469,52483,52497,52512,52526,52539,52553,52567,52581,52596,52609,52623,52637,52650,52664,52678,52692,52706,52720,52734,52748,52762,52776,52789,52803,52817,52831,52845,52859,52873,52887,52900,52914,52928,52942,52956,52970,52984,52998,53012,53025,53039,53053,53067,53081,53095,53109,53123,53136,53150,53164,53178,53192,53206,53220,53234,53248,53261,53275,53289,53303,53317,53331,53344,53358,53372,53386,53400,53414,53428,53443,53455,53469,53483,53497,53512,53525,53539,53553,53567,53580,53594,53608,53622,53636,53650,53664,53678,53692,53705,53719,53733,53747,53761,53775,53789,53803,53816,53830,53844,53858,53872,53886,53900,53914,53928,53941,53955,53969,53983,53997,54012,54027,54039,54054,54067,54081,54094,54108,54123,54136,54150,54164,54178,54193,54206,54221,54233,54247,54261,54275,54289,54303,54317,54331,54345,54359,54372,54386,54400,54414,54428,54442,54456,54470,54485,54497,54511,54525,54539,54553,54567,54581,54595,54608,54622,54636,54650,54664,54678,54692,54706,54720,54733,54747,54761,54775,54789,54803,54817,54831,54844,54858,54872,54886,54900,54914,54928,54942,54956,54969,54984,54997,55011,55025,55039,55053,55066,55080,55094,55108,55122,55136,55150,55164,55178,55191,55205,55219,55233,55247,55261,55275,55289,55303,55316,55330,55344,55359,55373,55386,55401,55415,55428,55442,55456,55469,55484,55497,55511,55525,55539,55553,55567,55581,55594,55608,55622,55636,55650,55664,55678,55692,55706,55719,55733,55747,55761,55775,55789,55803,55817,55830,55844,55858,55872,55886,55900,55914,55928,55942,55956,55969,55983,55997,56012,56025,56039,56053,56067,56081,56094,56109,56122,56137,56150,56164,56178,56192,56206,56219,56233,56247,56261,56275,56289,56303,56317,56332,56345,56358,56372,56386,56400,56414,56428,56443,56457,56469,56483,56497,56511,56525,56539,56553,56567,56581,56595,56609,56622,56636,56650,56664,56678,56693,56706,56720,56733,56747,56761,56775,56789,56803,56817,56831,56845,56858,56872,56886,56900,56914,56928,56942,56955,56969,56983,56998,57011,57026,57039,57053,57067,57081,57095,57109,57123,57136,57150,57164,57178,57192,57207,57220,57234,57248,57262,57276,57290,57303,57317,57331,57345,57359,57373,57387,57401,57414,57428,57442,57456,57470,57484,57498,57512,57526,57540,57553,57567,57581,57595,57609,57623,57637,57651,57664,57678,57692,57706,57720,57735,57748,57762,57775,57789,57803,57817,57830,57844,57858,57872,57886,57900,57914,57928,57942,57955,57969,57983,57997,58012,58027,58039,58053,58066,58081,58095,58108,58122,58137,58150,58164,58178,58193,58206,58220,58234,58248,58261,58275,58289,58303,58317,58331,58345,58359,58372,58386,58400,58414,58428,58442,58456,58469,58483,58497,58511,58526,58539,58553,58567,58581,58595,58608,58622,58636,58650,58664,58678,58692,58706,58719,58733,58747,58761,58775,58790,58803,58817,58830,58844,58858,58873,58886,58900,58914,58928,58942,58956,58970,58983,58997,59011,59025,59039,59053,59067,59081,59094,59108,59122,59136,59150,59164,59178,59192,59205,59219,59233,59248,59262,59275,59289,59304,59317,59331,59345,59359,59373,59387,59400,59414,59428,59442,59456,59470,59483,59497,59511,59525,59539,59553,59567,59581,59596,59608,59622,59636,59650,59664,59678,59692,59707,59719,59734],"hit":[null],"x":[0.0935374149659864,0.0935374149659864,0.0935374149659864,0.0935374149659864,0.0935374149659864,0.0935374149659864,0.0935374149659864,0.0935374149659864,0.0935374149659864,0.0935374149659864,0.0935374149659864,0.0935374149659864,0.0935374149659864,0.0935374149659864,0.0935374149659864,0.0935374149659864,0.0935374149659864,0.10034013605442177,0.11054421768707483,0.12074829931972789,0.13095238095238096,0.14795918367346939,0.1683673469387755,0.195578231292517,0.21258503401360543,0.23299319727891157,0.25,0.2602040816326531,0.28741496598639454,0.31802721088435376,0.3554421768707483,0.3826530612244898,0.4200680272108844,0.4370748299319728,0.44727891156462585,0.4574829931972789,0.467687074829932,0.467687074829932,0.467687074829932,0.467687074829932,0.467687074829932,0.467687074829932,0.467687074829932,0.467687074829932,0.467687074829932,0.467687074829932,0.467687074829932,0.467687074829932,0.467687074829932,0.467687074829932,0.467687074829932,0.467687074829932,0.467687074829932,0.467687074829932,0.467687074829932,0.467687074829932,0.467687074829932,0.467687074829932,0.467687074829932,0.467687074829932,0.467687074829932,0.467687074829932,0.467687074829932,0.467687074829932,0.467687074829932,0.467687074829932,0.4608843537414966,0.4608843537414966,0.4608843537414966,0.4608843537414966,0.4608843537414966,0.4608843537414966,0.4608843537414966,0.4608843537414966,0.467687074829932,0.467687074829932,0.4744897959183674,0.4846938775510204,0.4846938775510204,0.5119047619047619,0.532312925170068,0.5493197278911565,0.5697278911564626,0.5799319727891157,0.6343537414965986,0.6989795918367347,0.7738095238095238,0.858843537414966,0.8860544217687075,0.8860544217687075,0.8860544217687075,0.8860544217687075,0.8860544217687075,0.8860544217687075,0.8860544217687075,0.8860544217687075,0.8860544217687075,0.8860544217687075,0.8860544217687075,0.8860544217687075,0.8860544217687075,0.8860544217687075,0.8860544217687075,0.8860544217687075,0.8860544217687075,0.8860544217687075,0.8860544217687075,0.8860544217687075,0.8860544217687075,0.8860544217687075,0.8860544217687075,0.8860544217687075,0.8860544217687075,0.8962585034013606,0.8962585034013606,0.8962585034013606,0.8962585034013606,0.8962585034013606,0.8962585034013606,0.9064625850340136,0.923469387755102,0.9438775510204082,0.9608843537414966,0.9812925170068028,0.9982993197278912,1.0085034013605443,1.0085034013605443,1.0085034013605443,1.0085034013605443,1.0085034013605443,1.0085034013605443,1.0187074829931972,1.0187074829931972,1.0187074829931972,1.0187074829931972,1.0187074829931972,1.0187074829931972,1.0187074829931972,1.0119047619047619,1.0119047619047619,1.0119047619047619,1.0119047619047619,1.0119047619047619,1.0119047619047619,1.0119047619047619,1.0119047619047619,1.0119047619047619,1.0119047619047619,1.0119047619047619,1.0119047619047619,1.0119047619047619,1.0119047619047619,1.0119047619047619,1.0119047619047619,1.0119047619047619,1.0119047619047619,1.0119047619047619,1.0119047619047619,1.0119047619047619,1.0119047619047619,1.0119047619047619,1.0119047619047619,1.0119047619047619,1.0119047619047619,1.0119047619047619,1.001700680272109,1.001700680272109,1.001700680272109,0.9914965986394558,0.9914965986394558,0.9846938775510204,0.9744897959183674,0.9642857142857143,0.9540816326530612,0.9472789115646258,0.9370748299319728,0.9370748299319728,0.9370748299319728,0.9268707482993197,0.9268707482993197,0.9268707482993197,0.9166666666666666,0.9166666666666666,0.9166666666666666,0.9166666666666666,0.9166666666666666,0.9166666666666666,0.9166666666666666,0.9166666666666666,0.9166666666666666,0.9166666666666666,0.9166666666666666,0.9166666666666666,0.9166666666666666,0.9166666666666666,0.9166666666666666,0.9166666666666666,0.9166666666666666,0.9166666666666666,0.9166666666666666,0.9098639455782312,0.9098639455782312,0.9098639455782312,0.9166666666666666,0.9336734693877551,0.9438775510204082,0.9540816326530612,0.9540816326530612,0.9540816326530612,0.9608843537414966,0.9710884353741497,0.9982993197278912,1.0459183673469388,1.0833333333333333,1.1411564625850341,1.195578231292517,1.2704081632653061,1.3656462585034013,1.4404761904761905,1.5527210884353742,1.6547619047619047,1.7568027210884354,1.8588435374149659,1.9438775510204083,2.0289115646258504,2.1037414965986394,2.151360544217687,2.2159863945578233,2.2636054421768708,2.2908163265306123,2.318027210884354,2.328231292517007,2.3384353741496597,2.3554421768707483,2.3656462585034013,2.3758503401360542,2.3758503401360542,2.3758503401360542,2.3758503401360542,2.3758503401360542,2.3758503401360542,2.3758503401360542,2.3758503401360542,2.3758503401360542,2.3758503401360542,2.3758503401360542,2.3758503401360542,2.3758503401360542,2.3758503401360542,2.3758503401360542,2.3758503401360542,2.3758503401360542,2.3758503401360542,2.3758503401360542,2.358843537414966,2.3384353741496597,2.3010204081632653,2.2363945578231292,2.1615646258503403,2.076530612244898,1.9948979591836735,1.9948979591836735,1.9948979591836735,1.9948979591836735,1.9948979591836735,1.9948979591836735,1.9948979591836735,1.9948979591836735,1.9948979591836735,1.0595238095238095,0.9846938775510204,0.9472789115646258,0.9098639455782312,0.8792517006802721,0.8622448979591837,0.814625850340136,0.7772108843537415,0.7295918367346939,0.685374149659864,0.6479591836734694,0.6275510204081632,0.5901360544217688,0.5799319727891157,0.5731292517006803,0.5527210884353742,0.5425170068027211,0.5425170068027211,0.5153061224489796,0.49829931972789115,0.477891156462585,0.45068027210884354,0.4302721088435374,0.413265306122449,0.413265306122449,0.39285714285714285,0.38605442176870747,0.38605442176870747,0.38605442176870747,0.38605442176870747,0.38605442176870747,0.38605442176870747,0.38605442176870747,0.38605442176870747,0.38605442176870747,0.38605442176870747,0.38605442176870747,0.3656462585034014,0.3554421768707483,0.3486394557823129,0.3486394557823129,0.3486394557823129,0.3486394557823129,0.3486394557823129,0.3486394557823129,0.3622448979591837,0.39285714285714285,0.4098639455782313,0.4370748299319728,0.467687074829932,0.5051020408163265,0.532312925170068,0.5425170068027211,0.5425170068027211,0.5425170068027211,0.5425170068027211,0.5425170068027211,0.5425170068027211,0.5425170068027211,0.5425170068027211,0.5425170068027211,0.5425170068027211,0.5425170068027211,0.5425170068027211,0.5425170068027211,0.5425170068027211,0.5425170068027211,0.5425170068027211,0.5425170068027211,0.5425170068027211,0.5425170068027211,0.5425170068027211,0.5425170068027211,0.5425170068027211,0.5425170068027211,0.5425170068027211,0.5425170068027211,0.5425170068027211,0.5425170068027211,0.5425170068027211,0.5425170068027211,0.5425170068027211,0.5425170068027211,0.5425170068027211,0.5425170068027211,0.5425170068027211,0.5425170068027211,0.5425170068027211,0.5425170068027211,0.5425170068027211,0.5425170068027211,0.5425170068027211,0.5425170068027211,0.5425170068027211,0.5425170068027211,0.5425170068027211,0.5425170068027211,0.5425170068027211,0.5425170068027211,0.5425170068027211,0.5425170068027211,0.5425170068027211,0.5425170068027211,0.5425170068027211,0.5425170068027211,0.5425170068027211,0.5425170068027211,0.5425170068027211,0.5425170068027211,0.5425170068027211,0.5425170068027211,0.5425170068027211,0.5425170068027211,0.5425170068027211,0.5425170068027211,0.5425170068027211,0.5425170068027211,0.5425170068027211,0.5425170068027211,0.5425170068027211,0.5425170068027211,0.5425170068027211,0.5425170068027211,0.5425170068027211,0.5425170068027211,0.5425170068027211,0.5425170068027211,0.5425170068027211,0.5425170068027211,0.5425170068027211,0.5425170068027211,0.5425170068027211,0.5425170068027211,0.5425170068027211,0.5425170068027211,0.5425170068027211,0.5425170068027211,0.5425170068027211,0.5425170068027211,0.5425170068027211,0.5425170068027211,0.5425170068027211,0.5425170068027211,0.5425170068027211,0.5425170068027211,0.5425170068027211,0.5425170068027211,0.5425170068027211,0.5425170068027211,0.5425170068027211,0.5425170068027211,0.5425170068027211,0.5425170068027211,0.5425170068027211,0.5425170068027211,0.5425170068027211,0.5425170068027211,0.5425170068027211,0.5425170068027211,0.5425170068027211,0.5425170068027211,0.5425170068027211,0.5425170068027211,0.5425170068027211,0.5425170068027211,0.5425170068027211,0.5425170068027211,0.5425170068027211,0.5425170068027211,0.7568027210884354,0.8112244897959183,0.858843537414966,0.8962585034013606,0.923469387755102,0.9540816326530612,0.9812925170068028,0.9982993197278912,1.0187074829931972,1.0561224489795917,1.0731292517006803,1.1037414965986394,1.120748299319728,1.1411564625850341,1.1683673469387754,1.185374149659864,1.195578231292517,1.2329931972789117,1.2534013605442176,1.280612244897959,1.3180272108843538,1.3554421768707483,1.3928571428571428,1.4302721088435375,1.467687074829932,1.5051020408163265,1.532312925170068,1.5425170068027212,1.5425170068027212,1.5425170068027212,1.5425170068027212,1.5425170068027212,1.5425170068027212,1.5425170068027212,1.5527210884353742,1.5527210884353742,1.5527210884353742,1.5527210884353742,1.5527210884353742,1.5527210884353742,1.5527210884353742,1.5527210884353742,1.5527210884353742,1.5527210884353742,1.5527210884353742,1.5527210884353742,1.5527210884353742,1.5527210884353742,1.5527210884353742,1.5527210884353742,1.5527210884353742,1.5527210884353742,1.5527210884353742,1.5527210884353742,1.5527210884353742,1.5527210884353742,1.5527210884353742,1.5527210884353742,1.5595238095238095,1.5697278911564625,1.5799319727891157,1.596938775510204,1.6071428571428572,1.6275510204081634,1.6343537414965987,1.6445578231292517,1.6649659863945578,1.6649659863945578,1.6717687074829932,1.6921768707482994,1.7091836734693877,1.7295918367346939,1.7465986394557824,1.7772108843537415,1.7942176870748299,1.8214285714285714,1.8418367346938775,1.8588435374149659,1.8894557823129252,1.933673469387755,2.056122448979592,2.2261904761904763,2.4200680272108843,2.552721088435374,2.7193877551020407,2.8316326530612246,2.9166666666666665,2.954081632653061,2.991496598639456,3.0493197278911564,3.1139455782312924,3.188775510204082,3.253401360544218,3.311224489795918,3.3554421768707483,3.4030612244897958,3.423469387755102,3.4506802721088436,3.498299319727891,3.5255102040816326,3.552721088435374,3.5799319727891157,3.6003401360544216,3.6003401360544216,3.610544217687075,3.610544217687075,3.610544217687075,3.61734693877551,3.627551020408163,3.6479591836734695,3.6479591836734695,3.6479591836734695,3.6479591836734695,3.6479591836734695,3.6479591836734695,3.6479591836734695,3.6479591836734695,3.6479591836734695,3.6479591836734695,3.6479591836734695,3.6479591836734695,3.6479591836734695,3.6479591836734695,3.6479591836734695,3.6479591836734695,3.6479591836734695,3.6479591836734695,3.6479591836734695,3.6479591836734695,3.6479591836734695,3.6479591836734695,3.6479591836734695,3.6479591836734695,3.6479591836734695,3.6479591836734695,3.6479591836734695,3.6479591836734695,3.6479591836734695,3.6479591836734695,3.6479591836734695,3.6479591836734695,3.6479591836734695,3.6479591836734695,3.6479591836734695,3.6479591836734695,3.6479591836734695,3.6479591836734695,3.6479591836734695,3.6479591836734695,3.6479591836734695,3.6479591836734695,3.6479591836734695,3.6479591836734695,3.6479591836734695,3.6479591836734695,3.6479591836734695,3.6479591836734695,3.6479591836734695,3.6479591836734695,3.6479591836734695,3.6479591836734695,3.6479591836734695,3.6479591836734695,3.6479591836734695,3.6479591836734695,3.6479591836734695,3.6479591836734695,3.6479591836734695,3.6479591836734695,3.6479591836734695,3.6479591836734695,3.6479591836734695,3.6479591836734695,3.6479591836734695,3.6479591836734695,3.6479591836734695,3.6479591836734695,3.6479591836734695,3.6479591836734695,3.6479591836734695,3.6479591836734695,3.6479591836734695,3.6479591836734695,3.6479591836734695,3.6479591836734695,3.6479591836734695,3.6479591836734695,3.6479591836734695,3.6479591836734695,3.6479591836734695,3.6479591836734695,3.6479591836734695,3.6479591836734695,3.6479591836734695,3.6479591836734695,3.6479591836734695,3.6479591836734695,3.6479591836734695,3.6479591836734695,3.6479591836734695,3.6479591836734695,3.6479591836734695,3.6479591836734695,3.6479591836734695,3.6479591836734695,3.6479591836734695,3.6479591836734695,3.6479591836734695,3.6479591836734695,3.6479591836734695,3.6479591836734695,3.6479591836734695,3.6479591836734695,3.6479591836734695,3.6479591836734695,3.6479591836734695,3.6479591836734695,3.6479591836734695,3.6479591836734695,3.6479591836734695,3.6479591836734695,3.6479591836734695,3.6479591836734695,3.6479591836734695,3.6479591836734695,3.6479591836734695,3.6479591836734695,3.6479591836734695,3.6479591836734695,3.6479591836734695,3.6479591836734695,3.6479591836734695,3.6479591836734695,3.6479591836734695,3.6479591836734695,3.6479591836734695,3.6479591836734695,3.6479591836734695,3.6479591836734695,3.6479591836734695,3.6479591836734695,3.6479591836734695,3.6479591836734695,3.6479591836734695,3.6479591836734695,3.6479591836734695,3.6479591836734695,3.6479591836734695,3.6479591836734695,3.6479591836734695,3.6479591836734695,3.6479591836734695,3.6479591836734695,3.6479591836734695,3.6479591836734695,3.6479591836734695,3.6479591836734695,3.6479591836734695,3.6479591836734695,3.6479591836734695,3.6479591836734695,3.6479591836734695,3.6479591836734695,3.6479591836734695,3.6479591836734695,3.6479591836734695,3.6479591836734695,3.6479591836734695,3.6479591836734695,3.6479591836734695,3.6479591836734695,3.6479591836734695,3.6479591836734695,3.6479591836734695,3.6479591836734695,3.6479591836734695,3.6479591836734695,3.6479591836734695,3.6479591836734695,3.6479591836734695,3.6479591836734695,3.6479591836734695,3.6479591836734695,3.6479591836734695,3.6479591836734695,3.6479591836734695,3.6479591836734695,3.6479591836734695,3.6479591836734695,3.6479591836734695,3.6479591836734695,3.6479591836734695,3.6479591836734695,3.6479591836734695,3.6479591836734695,3.6479591836734695,3.6479591836734695,3.6479591836734695,3.6479591836734695,3.6479591836734695,3.6479591836734695,3.6479591836734695,3.6479591836734695,3.6479591836734695,3.6479591836734695,3.6479591836734695,3.6479591836734695,3.6479591836734695,3.6479591836734695,3.6479591836734695,3.6479591836734695,3.6479591836734695,3.6479591836734695,3.6479591836734695,3.6479591836734695,3.6479591836734695,3.6479591836734695,3.6479591836734695,3.6479591836734695,3.6479591836734695,3.6479591836734695,3.6479591836734695,3.6479591836734695,3.6479591836734695,3.6479591836734695,3.6479591836734695,3.6479591836734695,3.6479591836734695,3.6479591836734695,3.6479591836734695,3.6479591836734695,3.6479591836734695,3.6479591836734695,3.6479591836734695,3.6479591836734695,3.6479591836734695,3.6479591836734695,3.6479591836734695,3.6479591836734695,3.6479591836734695,3.6479591836734695,3.6479591836734695,3.6479591836734695,3.6479591836734695,3.6479591836734695,3.6479591836734695,3.6479591836734695,3.6479591836734695,3.6479591836734695,3.6479591836734695,3.6479591836734695,3.6479591836734695,3.6479591836734695,3.6479591836734695,3.6479591836734695,3.6479591836734695,3.6479591836734695,3.6479591836734695,3.6479591836734695,3.6479591836734695,3.6479591836734695,3.6479591836734695,3.6479591836734695,3.6479591836734695,3.6479591836734695,3.6479591836734695,3.6479591836734695,3.6479591836734695,3.6479591836734695,3.6479591836734695,3.6479591836734695,3.6479591836734695,3.6479591836734695,3.6479591836734695,3.6479591836734695,3.6479591836734695,3.6479591836734695,3.6479591836734695,3.6479591836734695,3.6479591836734695,3.6479591836734695,3.6479591836734695,3.6479591836734695,3.6479591836734695,3.6479591836734695,3.6479591836734695,3.6479591836734695,3.6479591836734695,3.6479591836734695,3.6479591836734695,3.6479591836734695,3.6479591836734695,3.6479591836734695,3.6479591836734695,3.6479591836734695,3.6479591836734695,3.6479591836734695,3.6479591836734695,3.6479591836734695,3.6479591836734695,3.6479591836734695,3.6479591836734695,3.6479591836734695,3.6479591836734695,3.6479591836734695,3.6479591836734695,3.6479591836734695,3.6479591836734695,3.6479591836734695,3.6479591836734695,3.6479591836734695,3.6479591836734695,3.6479591836734695,3.6479591836734695,3.6479591836734695,3.6479591836734695,3.6479591836734695,3.6479591836734695,3.6479591836734695,3.6479591836734695,3.6479591836734695,3.6479591836734695,3.6479591836734695,3.6479591836734695,3.6479591836734695,3.6479591836734695,3.6479591836734695,3.6479591836734695,3.6479591836734695,3.6479591836734695,3.6479591836734695,3.6479591836734695,3.6479591836734695,3.6479591836734695,3.6479591836734695,3.6479591836734695,3.6479591836734695,3.6479591836734695,3.6479591836734695,3.6479591836734695,3.6479591836734695,3.6479591836734695,3.6479591836734695,3.6479591836734695,3.6479591836734695,3.6479591836734695,3.6479591836734695,3.6479591836734695,3.6479591836734695,3.6479591836734695,3.6479591836734695,3.6479591836734695,3.6479591836734695,3.6479591836734695,3.6479591836734695,3.6479591836734695,3.6479591836734695,3.6479591836734695,3.6479591836734695,3.6479591836734695,3.6479591836734695,3.6479591836734695,3.6479591836734695,3.6479591836734695,3.6479591836734695,3.6479591836734695,3.6479591836734695,3.6479591836734695,3.6479591836734695,3.6479591836734695,3.6479591836734695,3.6479591836734695,3.6479591836734695,3.6479591836734695,3.6479591836734695,3.6479591836734695,3.6479591836734695,3.6479591836734695,3.6479591836734695,3.6479591836734695,3.6479591836734695,3.6479591836734695,3.6479591836734695,3.6479591836734695,3.6479591836734695,3.6479591836734695,3.6479591836734695,3.6479591836734695,3.6479591836734695,3.6479591836734695,3.6479591836734695,3.6479591836734695,3.6479591836734695,3.6479591836734695,3.6479591836734695,3.6479591836734695,3.6479591836734695,3.6479591836734695,3.6479591836734695,3.6479591836734695,3.6479591836734695,3.6479591836734695,3.6479591836734695,3.6479591836734695,3.6479591836734695,3.6479591836734695,3.6479591836734695,3.6479591836734695,3.6479591836734695,3.6479591836734695,3.6479591836734695,3.6479591836734695,3.6479591836734695,3.6479591836734695,3.6479591836734695,3.6479591836734695,3.6479591836734695,3.6479591836734695,3.6479591836734695,3.6479591836734695,3.6479591836734695,3.6479591836734695,3.6479591836734695,3.6479591836734695,3.6479591836734695,3.6479591836734695,3.6479591836734695,3.6479591836734695,3.6479591836734695,3.6479591836734695,3.6479591836734695,3.6479591836734695,3.6479591836734695,3.6479591836734695,3.6479591836734695,3.6479591836734695,3.6479591836734695,3.6479591836734695,3.6479591836734695,3.6479591836734695,3.6479591836734695,3.6479591836734695,3.6479591836734695,3.6479591836734695,3.6479591836734695,3.6479591836734695,3.6479591836734695,3.6479591836734695,3.6479591836734695,3.6479591836734695,3.6479591836734695,3.6479591836734695,3.6479591836734695,3.6479591836734695,3.6479591836734695,3.6479591836734695,3.6479591836734695,3.6479591836734695,3.6479591836734695,3.6479591836734695,3.6479591836734695,3.6479591836734695,3.6479591836734695,3.6479591836734695,3.6479591836734695,3.6479591836734695,3.6479591836734695,3.6479591836734695,3.6479591836734695,3.6479591836734695,3.6479591836734695,3.6479591836734695,3.6479591836734695,3.6479591836734695,3.6479591836734695,3.6479591836734695,3.6479591836734695,3.6479591836734695,3.6479591836734695,3.6479591836734695,3.6479591836734695,3.6479591836734695,3.6479591836734695,3.6479591836734695,3.6479591836734695,3.6479591836734695,3.6479591836734695,3.6479591836734695,3.6479591836734695,3.6479591836734695,3.6479591836734695,3.6479591836734695,3.6479591836734695,3.6479591836734695,3.6479591836734695,3.6479591836734695,3.6479591836734695,3.6479591836734695,3.6479591836734695,3.6479591836734695,3.6479591836734695,3.6479591836734695,3.6479591836734695,3.6479591836734695,3.6479591836734695,3.6479591836734695,3.6479591836734695,3.6479591836734695,3.6479591836734695,3.6479591836734695,3.6479591836734695,3.6479591836734695,3.6479591836734695,3.6479591836734695,3.6479591836734695,3.6479591836734695,3.6479591836734695,3.6479591836734695,3.6479591836734695,3.6479591836734695,3.6479591836734695,3.6479591836734695,3.6479591836734695,3.6479591836734695,3.6479591836734695,3.6479591836734695,3.6479591836734695,3.6479591836734695,3.6479591836734695,3.6479591836734695,3.6479591836734695,3.6479591836734695,3.6479591836734695,3.6479591836734695,3.6479591836734695,3.6479591836734695,3.6479591836734695,3.6479591836734695,3.6479591836734695,3.6479591836734695,3.6479591836734695,3.6479591836734695,3.6479591836734695,3.6479591836734695,3.6479591836734695,3.6479591836734695,3.6479591836734695,3.6479591836734695,3.6479591836734695,3.6479591836734695,3.6479591836734695,3.6479591836734695,3.6479591836734695,3.6479591836734695,3.6479591836734695,3.6479591836734695,3.6479591836734695,3.6479591836734695,3.6479591836734695,3.6479591836734695,3.6479591836734695,3.6479591836734695,3.6479591836734695,3.6479591836734695,3.6479591836734695,3.6479591836734695,3.6479591836734695,3.6479591836734695,3.6479591836734695,3.6479591836734695,3.6479591836734695,3.6479591836734695,3.6479591836734695,1.2108843537414966,1.2108843537414966,1.2312925170068028,1.2312925170068028,1.2312925170068028,1.2312925170068028,1.2312925170068028,1.2312925170068028,1.2312925170068028,1.2312925170068028,1.2312925170068028,1.2312925170068028,1.2312925170068028,1.2312925170068028,1.2312925170068028,1.2312925170068028,1.2312925170068028,1.2312925170068028,1.2312925170068028,1.2312925170068028,1.2312925170068028,1.2312925170068028,1.251700680272109,1.251700680272109,1.2653061224489797,1.2653061224489797,1.2653061224489797,1.2380952380952381,1.1768707482993197,1.08843537414966,1.0136054421768708,0.9387755102040817,0.8231292517006803,0.7142857142857143,0.6190476190476191,0.564625850340136,0.5034013605442177,0.4489795918367347,0.42857142857142855,0.3945578231292517,0.35374149659863946,0.3401360544217687,0.29931972789115646,0.2789115646258503,0.24489795918367346,0.24489795918367346,0.24489795918367346,0.24489795918367346,0.24489795918367346,0.24489795918367346,0.24489795918367346,0.24489795918367346,0.24489795918367346,0.24489795918367346,0.24489795918367346,0.24489795918367346,0.24489795918367346,0.24489795918367346,0.24489795918367346,0.24489795918367346,0.24489795918367346,0.2585034013605442,0.2789115646258503,0.3129251700680272,0.3333333333333333,0.3673469387755102,0.3877551020408163,0.40816326530612246,0.40816326530612246,0.42857142857142855,0.42857142857142855,0.42857142857142855,0.46258503401360546,0.46258503401360546,0.5034013605442177,0.5034013605442177,0.5034013605442177,0.5034013605442177,0.5034013605442177,0.5034013605442177,0.5034013605442177,0.5034013605442177,0.5034013605442177,0.5034013605442177,0.5034013605442177,0.5034013605442177,0.5034013605442177,0.5034013605442177,0.5034013605442177,0.5034013605442177,0.5034013605442177,0.5034013605442177,0.5034013605442177,0.5034013605442177,0.5170068027210885,0.5170068027210885,0.5374149659863946,0.5578231292517006,0.5578231292517006,0.5782312925170068,0.5782312925170068,0.5918367346938775,0.5918367346938775,0.6122448979591837,0.6122448979591837,0.6326530612244898,0.6326530612244898,0.6326530612244898,0.6326530612244898,0.6326530612244898,0.6326530612244898,0.6326530612244898,0.6530612244897959,0.6530612244897959,0.6666666666666666,0.7074829931972789,0.7619047619047619,0.782312925170068,0.8027210884353742,0.8163265306122449,0.8367346938775511,0.8775510204081632,0.891156462585034,0.891156462585034,0.891156462585034,0.891156462585034,0.891156462585034,0.891156462585034,0.891156462585034,0.891156462585034,0.891156462585034,0.891156462585034,0.891156462585034,0.891156462585034,0.891156462585034,0.891156462585034,0.891156462585034,0.891156462585034,0.891156462585034,0.891156462585034,0.891156462585034,0.891156462585034,0.9115646258503401,0.9319727891156463,0.9523809523809523,0.9659863945578231,0.9863945578231292,1.0068027210884354,1.0272108843537415,1.0408163265306123,1.0816326530612246,1.1156462585034013,1.1360544217687074,1.1768707482993197,1.2108843537414966,1.2312925170068028,1.251700680272109,1.2653061224489797,1.2857142857142858,1.3265306122448979,1.3401360544217686,1.380952380952381,1.435374149659864,1.510204081632653,1.5510204081632653,1.5850340136054422,1.6258503401360545,1.6598639455782314,1.7006802721088434,1.7551020408163265,1.7891156462585034,1.8503401360544218,1.8843537414965987,1.9795918367346939,2.054421768707483,2.183673469387755,2.3741496598639458,2.63265306122449,2.761904761904762,2.7823129251700682,2.7823129251700682,2.7823129251700682,2.7823129251700682,2.7823129251700682,2.7823129251700682,2.7823129251700682,2.7823129251700682,2.7823129251700682,2.7823129251700682,2.7823129251700682,2.7823129251700682,2.7823129251700682,2.7823129251700682,2.7823129251700682,2.7823129251700682,2.7823129251700682,2.7823129251700682,2.7823129251700682,2.7823129251700682,2.7823129251700682,2.7823129251700682,2.7823129251700682,2.7823129251700682,2.7823129251700682,2.7823129251700682,2.7823129251700682,2.7823129251700682,2.7823129251700682,2.7823129251700682,2.7823129251700682,2.7823129251700682,2.7823129251700682,2.7823129251700682,2.7687074829931975,2.748299319727891,2.7142857142857144,2.7142857142857144,2.693877551020408,2.693877551020408,2.693877551020408,2.673469387755102,2.673469387755102,2.673469387755102,2.6598639455782314,2.639455782312925,2.639455782312925,2.639455782312925,2.619047619047619,2.619047619047619,2.598639455782313,2.598639455782313,2.598639455782313,2.598639455782313,2.598639455782313,2.598639455782313,2.598639455782313,2.598639455782313,2.5850340136054424,2.5850340136054424,2.5850340136054424,2.5850340136054424,2.564625850340136,2.564625850340136,2.564625850340136,2.564625850340136,2.564625850340136,2.564625850340136,2.54421768707483,2.54421768707483,2.54421768707483,2.5238095238095237,2.5238095238095237,2.5238095238095237,2.510204081632653,2.510204081632653,2.489795918367347,2.489795918367347,2.489795918367347,2.4693877551020407,2.4693877551020407,2.4489795918367347,2.4489795918367347,2.4489795918367347,2.435374149659864,2.435374149659864,2.4149659863945576,2.4149659863945576,2.3945578231292517,2.3741496598639458,2.3741496598639458,2.3741496598639458,2.3741496598639458,2.3741496598639458,2.3741496598639458,2.360544217687075,2.360544217687075,2.3401360544217686,2.3197278911564627,2.2857142857142856,2.2448979591836733,2.2244897959183674,2.1700680272108843,2.1496598639455784,2.1156462585034013,2.0952380952380953,2.074829931972789,2.061224489795918,2.020408163265306,1.9863945578231292,1.9863945578231292,1.945578231292517,1.9251700680272108,1.91156462585034,1.8911564625850341,1.870748299319728,1.8503401360544218,1.836734693877551,1.816326530612245,1.7755102040816326,1.7619047619047619,1.7210884353741496,1.7006802721088434,1.7006802721088434,1.7006802721088434,1.7006802721088434,1.6870748299319729,1.6870748299319729,1.6870748299319729,1.6870748299319729,1.6870748299319729,1.6666666666666667,1.6258503401360545,1.5918367346938775,1.5374149659863945,1.4421768707482994,1.3673469387755102,1.2925170068027212,1.217687074829932,1.1224489795918366,1.0680272108843538,0.9727891156462585,0.9387755102040817,0.8435374149659864,0.8027210884353742,0.7482993197278912,0.7278911564625851,0.7278911564625851,0.7278911564625851,0.7278911564625851,0.7142857142857143,0.7142857142857143,0.7142857142857143,0.7142857142857143,0.6938775510204082,0.6530612244897959,0.6394557823129252,0.6190476190476191,0.5986394557823129,0.5782312925170068,0.5782312925170068,0.5782312925170068,0.564625850340136,0.5238095238095238,0.4897959183673469,0.42857142857142855,0.3945578231292517,0.3401360544217687,0.24489795918367346,0.17006802721088435,0.11564625850340136,0.09523809523809523,0.05442176870748299,0.04081632653061224,0.04081632653061224,0.02040816326530612,0.02040816326530612,0.02040816326530612,0.02040816326530612,0.02040816326530612,0.02040816326530612,0.02040816326530612,0.02040816326530612,0.02040816326530612,0.02040816326530612,0.02040816326530612,0.034013605442176874,0.06802721088435375,0.06802721088435375,0.06802721088435375,0.08843537414965986,0.08843537414965986,0.08843537414965986,0.08843537414965986,0.08843537414965986,0.08843537414965986,0.08843537414965986,0.08843537414965986,0.08843537414965986,0.08843537414965986,0.08843537414965986,0.08843537414965986,0.08843537414965986,0.08843537414965986,0.08843537414965986,0.08843537414965986,0.08843537414965986,0.08843537414965986,0.08843537414965986,0.08843537414965986,0.08843537414965986,0.08843537414965986,0.08843537414965986,0.07482993197278912,0.07482993197278912,0.07482993197278912,0.05442176870748299,0.05442176870748299,0.05442176870748299,0.05442176870748299,0.05442176870748299,0.05442176870748299,0.04081632653061224,0.04081632653061224,0.04081632653061224,0.02040816326530612,0.02040816326530612,0.02040816326530612,0.02040816326530612,0.02040816326530612,0.02040816326530612,0.02040816326530612,0.02040816326530612,0.02040816326530612,0.02040816326530612,0.02040816326530612,0.02040816326530612,0.02040816326530612,0.02040816326530612,0.02040816326530612,0.02040816326530612,0.02040816326530612,0.02040816326530612,0.02040816326530612,0.02040816326530612,0.02040816326530612,0.02040816326530612,0.02040816326530612,0.02040816326530612,0.02040816326530612,0.02040816326530612,0.02040816326530612,0.02040816326530612,0.02040816326530612,0.02040816326530612,0.02040816326530612,0.02040816326530612,0.02040816326530612,0.02040816326530612,0.02040816326530612,0.02040816326530612,0.02040816326530612,0.02040816326530612,0.02040816326530612,0.02040816326530612,0.02040816326530612,0.02040816326530612,0.02040816326530612,0.02040816326530612,0.02040816326530612,0.02040816326530612,0.02040816326530612,0.02040816326530612,0.02040816326530612,0.02040816326530612,0.02040816326530612,0.02040816326530612,0.02040816326530612,0.02040816326530612,0.02040816326530612,0.02040816326530612,0.02040816326530612,0.02040816326530612,0.02040816326530612,0.02040816326530612,0.02040816326530612,0.02040816326530612,0.02040816326530612,0.02040816326530612,0.02040816326530612,0.02040816326530612,0.02040816326530612,0.02040816326530612,0.02040816326530612,0.02040816326530612,0.02040816326530612,0.02040816326530612,0.02040816326530612,0.02040816326530612,0.02040816326530612,0.02040816326530612,0.02040816326530612,0.02040816326530612,0.02040816326530612,0.02040816326530612,0.02040816326530612,0.02040816326530612,0.02040816326530612,0.02040816326530612,0.02040816326530612,0.02040816326530612,0.02040816326530612,0.02040816326530612,0.02040816326530612,0.02040816326530612,0.02040816326530612,0.02040816326530612,0.02040816326530612,0.02040816326530612,0.02040816326530612,0.02040816326530612,0.02040816326530612,0.02040816326530612,0.02040816326530612,0.02040816326530612,0.02040816326530612,0.02040816326530612,0.02040816326530612,0.02040816326530612,0.02040816326530612,0.02040816326530612,0.02040816326530612,0.02040816326530612,0.02040816326530612,0.02040816326530612,0.02040816326530612,0.02040816326530612,0.02040816326530612,0.02040816326530612,0.02040816326530612,0.02040816326530612,0.02040816326530612,0.02040816326530612,0.02040816326530612,0.02040816326530612,0.02040816326530612,0.05442176870748299,0.06802721088435375,0.08843537414965986,0.1292517006802721,0.16326530612244897,0.21768707482993196,0.2585034013605442,0.3129251700680272,0.42857142857142855,0.5578231292517006,0.6666666666666666,0.8027210884353742,0.8775510204081632,0.9523809523809523,0.9863945578231292,1.0612244897959184,1.1020408163265305,1.1768707482993197,1.2108843537414966,1.2653061224489797,1.3061224489795917,1.3401360544217686,1.380952380952381,1.4149659863945578,1.4557823129251701,1.4761904761904763,1.4761904761904763,1.489795918367347,1.530612244897959,1.530612244897959,1.530612244897959,1.530612244897959,1.5510204081632653,1.5510204081632653,1.5510204081632653,1.5510204081632653,1.5510204081632653,1.5510204081632653,1.5510204081632653,1.5510204081632653,1.5510204081632653,1.5510204081632653,1.5510204081632653,1.5510204081632653,1.5510204081632653,1.5510204081632653,1.5510204081632653,1.5510204081632653,1.5510204081632653,1.5510204081632653,1.5510204081632653,1.5510204081632653,1.5510204081632653,1.5510204081632653,1.5510204081632653,1.5510204081632653,1.5510204081632653,1.5510204081632653,1.5510204081632653,1.5510204081632653,1.5510204081632653,1.5510204081632653,1.5510204081632653,1.5510204081632653,1.5510204081632653,1.5510204081632653,1.5510204081632653,1.5510204081632653,1.5510204081632653,1.5510204081632653,1.5510204081632653,1.5510204081632653,1.5510204081632653,1.5510204081632653,1.5510204081632653,1.5510204081632653,1.5510204081632653,1.5510204081632653,1.5510204081632653,1.5510204081632653,1.5510204081632653,1.5374149659863945,1.4965986394557824,1.4217687074829932,1.3673469387755102,1.3265306122448979,1.272108843537415,1.272108843537415,1.272108843537415,1.272108843537415,1.272108843537415,1.272108843537415,1.272108843537415,1.217687074829932,1.1768707482993197,1.1428571428571428,1.1020408163265305,1.0272108843537415,0.9727891156462585,0.8775510204081632,0.8027210884353742,0.7482993197278912,0.6530612244897959,0.564625850340136,0.4897959183673469,0.42857142857142855,0.3945578231292517,0.35374149659863946,0.3197278911564626,0.29931972789115646,0.2789115646258503,0.2789115646258503,0.2653061224489796,0.2653061224489796,0.24489795918367346,0.24489795918367346,0.24489795918367346,0.24489795918367346,0.24489795918367346,0.24489795918367346,0.24489795918367346,0.24489795918367346,0.24489795918367346,0.24489795918367346,0.24489795918367346,0.24489795918367346,0.24489795918367346,0.24489795918367346,0.24489795918367346,0.24489795918367346,0.24489795918367346,0.24489795918367346,0.24489795918367346,0.24489795918367346,0.24489795918367346,0.24489795918367346,0.24489795918367346,0.24489795918367346,0.24489795918367346,0.24489795918367346,0.24489795918367346,0.24489795918367346,0.24489795918367346,0.24489795918367346,0.24489795918367346,0.24489795918367346,0.24489795918367346,0.24489795918367346,0.24489795918367346,0.24489795918367346,0.24489795918367346,0.24489795918367346,0.24489795918367346,0.24489795918367346,0.24489795918367346,0.24489795918367346,0.24489795918367346,0.24489795918367346,0.24489795918367346,0.22448979591836735,0.22448979591836735,0.22448979591836735,0.22448979591836735,0.20408163265306123,0.20408163265306123,0.17006802721088435,0.17006802721088435,0.17006802721088435,0.14965986394557823,0.14965986394557823,0.14965986394557823,0.14965986394557823,0.14965986394557823,0.14965986394557823,0.14965986394557823,0.14965986394557823,0.14965986394557823,0.14965986394557823,0.14965986394557823,0.14965986394557823,0.14965986394557823,0.14965986394557823,0.14965986394557823,0.14965986394557823,0.14965986394557823,0.14965986394557823,0.14965986394557823,0.14965986394557823,0.14965986394557823,0.14965986394557823,0.14965986394557823,0.14965986394557823,0.14965986394557823,0.14965986394557823,0.14965986394557823,0.14965986394557823,0.14965986394557823,0.14965986394557823,0.14965986394557823,0.14965986394557823,0.14965986394557823,0.14965986394557823,0.14965986394557823,0.14965986394557823,0.14965986394557823,0.14965986394557823,0.14965986394557823,0.14965986394557823,0.14965986394557823,0.14965986394557823,0.14965986394557823,0.14965986394557823,0.14965986394557823,0.14965986394557823,0.14965986394557823,0.14965986394557823,0.14965986394557823,0.14965986394557823,0.14965986394557823,0.14965986394557823,0.14965986394557823,0.14965986394557823,0.14965986394557823,0.14965986394557823,0.16326530612244897,0.1836734693877551,0.23809523809523808,0.2789115646258503,0.3333333333333333,0.3673469387755102,0.3877551020408163,0.42857142857142855,0.48299319727891155,0.5374149659863946,0.5918367346938775,0.6326530612244898,0.6870748299319728,0.7278911564625851,0.7414965986394558,0.7619047619047619,0.782312925170068,0.782312925170068,0.782312925170068,0.8027210884353742,0.8163265306122449,0.8163265306122449,0.8163265306122449,0.8367346938775511,0.8367346938775511,0.8367346938775511,0.8367346938775511,0.8367346938775511,0.8775510204081632,0.8775510204081632,0.9115646258503401,0.9115646258503401,0.9523809523809523,0.9863945578231292,1.0068027210884354,1.0408163265306123,1.1020408163265305,1.1564625850340136,1.2108843537414966,1.2653061224489797,1.3265306122448979,1.4149659863945578,1.4761904761904763,1.5510204081632653,1.5850340136054422,1.6258503401360545,1.6258503401360545,1.6258503401360545,1.6258503401360545,1.6258503401360545,1.6258503401360545,1.6258503401360545,1.6258503401360545,1.6258503401360545,1.6258503401360545,1.6258503401360545,1.6258503401360545,1.6258503401360545,1.6258503401360545,1.6258503401360545,1.6258503401360545,1.6258503401360545,1.6258503401360545,1.6258503401360545,1.6258503401360545,1.6258503401360545,1.6258503401360545,1.6258503401360545,1.6122448979591837,1.6122448979591837,1.6122448979591837,1.5918367346938775,1.5918367346938775,1.5918367346938775,1.5918367346938775,1.5918367346938775,1.5918367346938775,1.5918367346938775,1.5714285714285714,1.5714285714285714,1.5510204081632653,1.5510204081632653,1.5510204081632653,1.5374149659863945,1.5170068027210883,1.5170068027210883,1.5170068027210883,1.4965986394557824,1.4965986394557824,1.4965986394557824,1.4965986394557824,1.4965986394557824,1.4965986394557824,1.4965986394557824,1.4761904761904763,1.4761904761904763,1.4761904761904763,1.4761904761904763,1.4625850340136055,1.4625850340136055,1.4625850340136055,1.4625850340136055,1.4625850340136055,1.4625850340136055,1.4625850340136055,1.4625850340136055,1.4421768707482994,1.4421768707482994,1.4421768707482994,1.4421768707482994,1.4421768707482994,1.4421768707482994,1.4421768707482994,1.4421768707482994,1.4421768707482994,1.4421768707482994,1.4421768707482994,1.4421768707482994,1.4421768707482994,1.4421768707482994,1.4421768707482994,1.4421768707482994,1.4421768707482994,1.4421768707482994,1.4421768707482994,1.4217687074829932,1.4217687074829932,1.4217687074829932,1.4217687074829932,1.4217687074829932,1.4217687074829932,1.4217687074829932,1.4217687074829932,1.4217687074829932,1.4217687074829932,1.4217687074829932,1.4217687074829932,1.4217687074829932,1.4217687074829932,1.4217687074829932,1.4217687074829932,1.4217687074829932,1.4217687074829932,1.4217687074829932,1.4217687074829932,1.4217687074829932,1.4217687074829932,1.4217687074829932,1.4217687074829932,1.4217687074829932,1.4217687074829932,1.4217687074829932,1.4217687074829932,1.4217687074829932,1.4217687074829932,1.4217687074829932,1.4217687074829932,1.4217687074829932,1.4217687074829932,1.4217687074829932,1.4217687074829932,1.4217687074829932,1.4217687074829932,1.4217687074829932,1.4217687074829932,1.4217687074829932,1.4217687074829932,1.4217687074829932,1.4217687074829932,1.4217687074829932,1.4217687074829932,1.4217687074829932,1.4217687074829932,1.4217687074829932,1.4217687074829932,1.4217687074829932,1.4217687074829932,1.4217687074829932,1.4217687074829932,1.4217687074829932,1.4217687074829932,1.4217687074829932,1.4217687074829932,1.4217687074829932,1.4217687074829932,1.4217687074829932,1.4217687074829932,1.4217687074829932,1.4217687074829932,1.4217687074829932,1.4217687074829932,1.4217687074829932,1.4217687074829932,1.4217687074829932,1.4217687074829932,1.4217687074829932,1.435374149659864,1.435374149659864,1.435374149659864,1.435374149659864,1.435374149659864,1.435374149659864,1.435374149659864,1.435374149659864,1.435374149659864,1.435374149659864,1.435374149659864,1.435374149659864,1.435374149659864,1.435374149659864,1.435374149659864,1.435374149659864,1.435374149659864,1.435374149659864,1.435374149659864,1.435374149659864,1.435374149659864,1.4557823129251701,1.4557823129251701,1.4761904761904763,1.4761904761904763,1.4761904761904763,1.489795918367347,1.489795918367347,1.489795918367347,1.510204081632653,1.510204081632653,1.510204081632653,1.510204081632653,1.510204081632653,1.510204081632653,1.510204081632653,1.510204081632653,1.510204081632653,1.510204081632653,1.510204081632653,1.510204081632653,1.510204081632653,1.510204081632653,1.510204081632653,1.510204081632653,1.510204081632653,1.510204081632653,1.510204081632653,1.510204081632653,1.510204081632653,1.510204081632653,1.510204081632653,1.510204081632653,1.510204081632653,1.510204081632653,1.510204081632653,1.510204081632653,1.510204081632653,1.510204081632653,1.510204081632653,1.510204081632653,1.510204081632653,1.510204081632653,1.510204081632653,1.510204081632653,1.510204081632653,1.510204081632653,1.510204081632653,1.4965986394557824,1.4421768707482994,1.3877551020408163,1.272108843537415,1.1972789115646258,1.1020408163265305,0.9727891156462585,0.8639455782312925,0.7482993197278912,0.673469387755102,0.6190476190476191,0.54421768707483,0.3945578231292517,0.29931972789115646,0.20408163265306123,0.1292517006802721,0.09523809523809523,0.07482993197278912,0.02040816326530612,-0.02040816326530612,-0.05442176870748299,-0.07482993197278912,-0.09523809523809523,-0.09523809523809523,-0.10884353741496598,-0.10884353741496598,-0.10884353741496598,-0.10884353741496598,-0.10884353741496598,-0.10884353741496598,-0.10884353741496598,-0.10884353741496598,-0.10884353741496598,-0.10884353741496598,-0.10884353741496598,-0.09523809523809523,-0.09523809523809523,-0.08163265306122448,-0.08163265306122448,-0.061224489795918366,-0.061224489795918366,-0.061224489795918366,-0.061224489795918366,-0.061224489795918366,-0.061224489795918366,-0.061224489795918366,-0.061224489795918366,-0.061224489795918366,-0.061224489795918366,-0.04081632653061224,-0.04081632653061224,-0.04081632653061224,-0.04081632653061224,-0.04081632653061224,-0.02040816326530612,-0.02040816326530612,-0.006802721088435374,-0.006802721088435374,0.013605442176870748,0.034013605442176874,0.034013605442176874,0.034013605442176874,0.034013605442176874,0.034013605442176874,0.034013605442176874,0.05442176870748299,0.05442176870748299,0.05442176870748299,0.05442176870748299,0.05442176870748299,0.05442176870748299,0.05442176870748299,0.05442176870748299,0.05442176870748299,0.05442176870748299,0.05442176870748299,0.05442176870748299,0.05442176870748299,0.05442176870748299,0.05442176870748299,0.05442176870748299,0.05442176870748299,0.05442176870748299,0.05442176870748299,0.05442176870748299,0.05442176870748299,0.05442176870748299,0.05442176870748299,0.05442176870748299,0.05442176870748299,0.05442176870748299,0.05442176870748299,0.05442176870748299,0.05442176870748299,0.05442176870748299,0.05442176870748299,0.05442176870748299,0.05442176870748299,0.04081632653061224,0.02040816326530612,0.02040816326530612,0.02040816326530612,0,0,0,0,-0.02040816326530612,-0.034013605442176874,-0.05442176870748299,-0.05442176870748299,-0.05442176870748299,-0.05442176870748299,-0.05442176870748299,-0.05442176870748299,-0.05442176870748299,-0.05442176870748299,-0.05442176870748299,-0.05442176870748299,-0.05442176870748299,-0.05442176870748299,-0.05442176870748299,-0.05442176870748299,-0.05442176870748299,-0.05442176870748299,-0.05442176870748299,-0.05442176870748299,-0.05442176870748299,-0.05442176870748299,-0.05442176870748299,-0.05442176870748299,-0.05442176870748299,-0.05442176870748299,-0.05442176870748299,-0.05442176870748299,-0.04081632653061224,-0.04081632653061224,-0.04081632653061224,-0.04081632653061224,-0.02040816326530612,-0.02040816326530612,-0.02040816326530612,-0.006802721088435374,-0.006802721088435374,-0.006802721088435374,-0.006802721088435374,-0.006802721088435374,0.013605442176870748,0.013605442176870748,0.013605442176870748,0.013605442176870748,0.013605442176870748,0.013605442176870748,0.013605442176870748,0.013605442176870748,0.013605442176870748,0.013605442176870748,0.013605442176870748,0.013605442176870748,0.013605442176870748,0.013605442176870748,0.013605442176870748,0.013605442176870748,0.013605442176870748,0.013605442176870748,0.013605442176870748,0.013605442176870748,0.013605442176870748,0.013605442176870748,0.013605442176870748,0.013605442176870748,0.013605442176870748,0.013605442176870748,0.013605442176870748,0.013605442176870748,0.013605442176870748,0.013605442176870748,0.013605442176870748,0.013605442176870748,0.013605442176870748,0.013605442176870748,0.013605442176870748,0.013605442176870748,0.013605442176870748,0.013605442176870748,0.013605442176870748,0.013605442176870748,0.013605442176870748,0.013605442176870748,0.013605442176870748,0.013605442176870748,0.013605442176870748,0.013605442176870748,0.013605442176870748,0.013605442176870748,0.013605442176870748,0.013605442176870748,0.013605442176870748,0.013605442176870748,0.013605442176870748,0.013605442176870748,0.08843537414965986,0.1292517006802721,0.21768707482993196,0.3333333333333333,0.42857142857142855,0.5034013605442177,0.5578231292517006,0.6530612244897959,0.7414965986394558,0.9863945578231292,1.3265306122448979,1.7551020408163265,2.129251700680272,2.3741496598639458,2.707482993197279,2.82312925170068,2.857142857142857,2.857142857142857,2.857142857142857,2.857142857142857,2.857142857142857,2.857142857142857,2.857142857142857,2.857142857142857,2.857142857142857,2.857142857142857,2.857142857142857,2.857142857142857,2.857142857142857,2.857142857142857,2.857142857142857,2.857142857142857,2.857142857142857,2.857142857142857,2.8435374149659864,2.8095238095238093,2.7891156462585034,2.7687074829931975,2.7142857142857144,2.693877551020408,2.639455782312925,2.598639455782313,2.564625850340136,2.489795918367347,2.435374149659864,2.4149659863945576,2.360544217687075,2.3401360544217686,2.3197278911564627,2.3197278911564627,2.2993197278911564,2.2653061224489797,2.2108843537414966,2.1700680272108843,2.0952380952380953,2.020408163265306,1.945578231292517,1.8911564625850341,1.816326530612245,1.7210884353741496,1.6462585034013606,1.5714285714285714,1.4761904761904763,1.3877551020408163,1.346938775510204,1.3265306122448979,1.272108843537415,1.2380952380952381,1.217687074829932,1.1768707482993197,1.1224489795918366,1.08843537414966,1.0680272108843538,1.0476190476190477,1.0136054421768708,1.0136054421768708,0.9727891156462585,0.9523809523809523,0.9387755102040817,0.9183673469387755,0.8979591836734694,0.8979591836734694,0.8775510204081632,0.8775510204081632,0.8775510204081632,0.8775510204081632,0.8775510204081632,0.8775510204081632,0.8775510204081632,0.8775510204081632,0.891156462585034,0.9115646258503401,0.9115646258503401,0.9319727891156463,0.9319727891156463,0.9319727891156463,0.9523809523809523,0.9523809523809523,0.9523809523809523,0.9523809523809523,0.9659863945578231,0.9659863945578231,0.9659863945578231,0.9659863945578231,0.9659863945578231,0.9659863945578231,0.9659863945578231,0.9659863945578231,0.9659863945578231,0.9659863945578231,0.9659863945578231,0.9659863945578231,0.9659863945578231,0.9659863945578231,0.9659863945578231,0.9659863945578231,0.9659863945578231,0.9659863945578231,0.9659863945578231,0.9659863945578231,0.9659863945578231,0.9659863945578231,0.9659863945578231,0.9659863945578231,0.9659863945578231,0.9659863945578231,0.9659863945578231,0.9659863945578231,0.9659863945578231,0.9659863945578231,0.9659863945578231,0.9659863945578231,0.9659863945578231,0.9659863945578231,0.9659863945578231,0.9659863945578231,0.9659863945578231,0.9523809523809523,0.9387755102040817,0.9387755102040817,0.9183673469387755,0.9183673469387755,0.9183673469387755,0.9183673469387755,0.9183673469387755,0.9183673469387755,0.9183673469387755,0.9183673469387755,0.9183673469387755,0.9183673469387755,0.9183673469387755,0.9183673469387755,0.9183673469387755,0.9183673469387755,0.9183673469387755,0.9183673469387755,0.9183673469387755,0.9183673469387755,0.9183673469387755,0.9183673469387755,0.9183673469387755,0.8979591836734694,0.8979591836734694,0.8979591836734694,0.8979591836734694,0.8979591836734694,0.8775510204081632,0.8775510204081632,0.8639455782312925,0.8639455782312925,0.8639455782312925,0.8639455782312925,0.8639455782312925,0.8639455782312925,0.8639455782312925,0.8639455782312925,0.8639455782312925,0.8639455782312925,0.8639455782312925,0.8639455782312925,0.8639455782312925,0.8639455782312925,0.8639455782312925,0.8639455782312925,0.8639455782312925,0.8639455782312925,0.8639455782312925,0.8639455782312925,0.8639455782312925,0.8639455782312925,0.8639455782312925,0.8639455782312925,0.8639455782312925,0.8639455782312925,0.8639455782312925,0.8639455782312925,0.8639455782312925,0.8639455782312925,0.8639455782312925,0.8639455782312925,0.8639455782312925,0.8639455782312925,0.8639455782312925,0.8639455782312925,0.8639455782312925,0.8639455782312925,0.8639455782312925,0.8639455782312925,0.8639455782312925,0.8639455782312925,0.8639455782312925,0.8639455782312925,0.8639455782312925,0.8639455782312925,0.8639455782312925,0.8639455782312925,0.8639455782312925,0.8639455782312925,0.8639455782312925,0.8639455782312925,0.8639455782312925,0.8639455782312925,0.8639455782312925,0.8639455782312925,0.8639455782312925,0.8639455782312925,0.8639455782312925,0.8639455782312925,0.8639455782312925,0.8639455782312925,0.8639455782312925,0.8639455782312925,0.8639455782312925,0.8639455782312925,0.8639455782312925,0.8639455782312925,0.8639455782312925,0.8639455782312925,0.8639455782312925,0.8639455782312925,0.8639455782312925,0.8639455782312925,0.8639455782312925,0.8639455782312925,0.8639455782312925,0.8639455782312925,0.8639455782312925,0.8639455782312925,0.8639455782312925,0.8639455782312925,0.8639455782312925,0.8639455782312925,0.8639455782312925,0.8639455782312925,0.8639455782312925,0.8639455782312925,0.8775510204081632,0.9115646258503401,0.9659863945578231,1.0272108843537415,1.0612244897959184,1.1020408163265305,1.1360544217687074,1.1564625850340136,1.1768707482993197,1.1768707482993197,1.1768707482993197,1.1768707482993197,1.1768707482993197,1.1768707482993197,1.1768707482993197,1.1768707482993197,1.1768707482993197,1.1768707482993197,1.1768707482993197,1.1768707482993197,1.1768707482993197,1.1768707482993197,1.1768707482993197,1.1768707482993197,1.1768707482993197,1.1768707482993197,1.1768707482993197,1.1768707482993197,1.1768707482993197,1.1768707482993197,1.1768707482993197,1.1768707482993197,1.1768707482993197,1.1768707482993197,1.1768707482993197,1.1768707482993197,1.1768707482993197,1.1768707482993197,1.1768707482993197,1.1768707482993197,1.1768707482993197,1.1768707482993197,1.1768707482993197,1.1768707482993197,1.1904761904761905,1.1904761904761905,1.1904761904761905,1.1904761904761905,1.1904761904761905,1.1904761904761905,1.1904761904761905,1.1904761904761905,1.1904761904761905,1.1904761904761905,1.1904761904761905,1.1904761904761905,1.1904761904761905,1.1904761904761905,1.1904761904761905,1.1904761904761905,1.1904761904761905,1.1904761904761905,1.1904761904761905,1.1904761904761905,1.1904761904761905,1.1904761904761905,1.1904761904761905,1.1904761904761905,1.1904761904761905,1.1904761904761905,1.1904761904761905,1.1904761904761905,1.1904761904761905,1.1904761904761905,1.1904761904761905,1.1904761904761905,1.1904761904761905,1.1904761904761905,1.1904761904761905,1.1904761904761905,1.1904761904761905,1.1904761904761905,1.1904761904761905,1.1904761904761905,1.1904761904761905,1.1904761904761905,1.1904761904761905,1.1904761904761905,1.1904761904761905,1.1904761904761905,1.1904761904761905,1.1904761904761905,1.1904761904761905,1.1904761904761905,1.1904761904761905,1.1904761904761905,1.1904761904761905,1.1904761904761905,1.1904761904761905,1.1904761904761905,1.1904761904761905,1.1904761904761905,1.1904761904761905,1.1904761904761905,1.1904761904761905,1.1904761904761905,1.1904761904761905,1.1904761904761905,1.1904761904761905,1.1904761904761905,1.1904761904761905,1.1904761904761905,1.1904761904761905,1.1904761904761905,1.1904761904761905,1.1904761904761905,1.1904761904761905,1.1904761904761905,1.1904761904761905,1.1904761904761905,1.1904761904761905,1.1904761904761905,1.1904761904761905,1.1904761904761905,1.1904761904761905,1.1904761904761905,1.1904761904761905,1.1904761904761905,1.1904761904761905,1.1904761904761905,1.1904761904761905,1.1904761904761905,1.1768707482993197,1.1768707482993197,1.1768707482993197,1.163265306122449,1.163265306122449,1.1428571428571428,1.1224489795918366,1.1224489795918366,1.1020408163265305,1.1020408163265305,1.1020408163265305,1.08843537414966,1.0680272108843538,1.0680272108843538,1.0680272108843538,1.0680272108843538,1.0476190476190477,1.0476190476190477,1.0476190476190477,1.0476190476190477,1.0476190476190477,1.0476190476190477,1.0272108843537415,1.0136054421768708,1.0136054421768708,1.0136054421768708,0.9931972789115646,0.9931972789115646,0.9931972789115646,0.9931972789115646,0.9931972789115646,0.9931972789115646,0.9931972789115646,0.9931972789115646,0.9931972789115646,0.9931972789115646,0.9931972789115646,0.9931972789115646,0.9931972789115646,0.9931972789115646,0.9931972789115646,0.9931972789115646,0.9931972789115646,0.9931972789115646,0.9931972789115646,0.9931972789115646,0.9931972789115646,0.9931972789115646,0.9931972789115646,0.9931972789115646,0.9931972789115646,0.9931972789115646,0.9931972789115646,0.9931972789115646,0.9931972789115646,0.9931972789115646,0.9931972789115646,0.9931972789115646,0.9931972789115646,0.9931972789115646,0.9931972789115646,0.9931972789115646,0.9931972789115646,0.9931972789115646,0.9931972789115646,0.9931972789115646,0.9931972789115646,0.9931972789115646,0.9931972789115646,0.9931972789115646,0.9931972789115646,0.9931972789115646,0.9931972789115646,0.9931972789115646,0.9931972789115646,0.9931972789115646,0.9931972789115646,0.9931972789115646,0.9931972789115646,0.9931972789115646,0.9931972789115646,0.9931972789115646,0.9931972789115646,1.0068027210884354,1.0272108843537415,1.0408163265306123,1.0816326530612246,1.1156462585034013,1.1564625850340136,1.1768707482993197,1.1904761904761905,1.2312925170068028,1.251700680272109,1.2653061224489797,1.2857142857142858,1.3061224489795917,1.3061224489795917,1.3265306122448979,1.3265306122448979,1.3265306122448979,1.3265306122448979,1.3265306122448979,1.3265306122448979,1.3265306122448979,1.3265306122448979,1.3265306122448979,1.3265306122448979,1.3265306122448979,1.3265306122448979,1.3265306122448979,1.3265306122448979,1.3265306122448979,1.3265306122448979,1.3265306122448979,1.3265306122448979,1.3265306122448979,1.3265306122448979,1.3