[{"success":true,"trial_type":"fullscreen","trial_index":0,"time_elapsed":3961,"internal_node_id":"0.0-0.0","protocol_sum":"","subject_identifier":25,"subject_sum":[107,81,212,49,223,93,127,20,28,190,206,204,247,158,223,61,216,97,195,180,6,159,11,17,102,26,62,239,172,187,169,24],"subject_pair":12,"STUDY_ID":"669a58f4f17d67c0aba4c4d3","PROLIFIC_PID":"65cba5290b9dca9291cd76ac","SESSION_ID":"669a6953f0d486b10e4b9fc3","practice_instructions":1,"leaderboard_instructions":0,"bonus":1,"reveal_word":true,"self_rating":"6","confidence":"100"},{"view_history":"[{\"page_index\":0,\"viewing_time\":5593.899999976158}]","rt":5594.299999952316,"trial_type":"instructions","trial_index":1,"time_elapsed":9557,"internal_node_id":"0.0-1.0","protocol_sum":"","subject_identifier":25,"subject_sum":[107,81,212,49,223,93,127,20,28,190,206,204,247,158,223,61,216,97,195,180,6,159,11,17,102,26,62,239,172,187,169,24],"subject_pair":12,"STUDY_ID":"669a58f4f17d67c0aba4c4d3","PROLIFIC_PID":"65cba5290b9dca9291cd76ac","SESSION_ID":"669a6953f0d486b10e4b9fc3","practice_instructions":1,"leaderboard_instructions":0,"bonus":1,"reveal_word":true,"self_rating":"6","confidence":"100"},{"view_history":"[{\"page_index\":0,\"viewing_time\":21595.200000047684}]","rt":21595.600000023842,"trial_type":"instructions","trial_index":2,"time_elapsed":31154,"internal_node_id":"0.0-2.0-0.0","protocol_sum":"","subject_identifier":25,"subject_sum":[107,81,212,49,223,93,127,20,28,190,206,204,247,158,223,61,216,97,195,180,6,159,11,17,102,26,62,239,172,187,169,24],"subject_pair":12,"STUDY_ID":"669a58f4f17d67c0aba4c4d3","PROLIFIC_PID":"65cba5290b9dca9291cd76ac","SESSION_ID":"669a6953f0d486b10e4b9fc3","practice_instructions":1,"leaderboard_instructions":0,"bonus":1,"reveal_word":true,"self_rating":"6","confidence":"100"},{"rt":16149.200000047684,"responses":"{\"Q0\":\"... reveal the word with as <b>few letter guesses</b> as possible\"}","question_order":"[0]","trial_type":"survey-multi-choice","trial_index":3,"time_elapsed":47312,"internal_node_id":"0.0-2.0-1.0","protocol_sum":"","subject_identifier":25,"subject_sum":[107,81,212,49,223,93,127,20,28,190,206,204,247,158,223,61,216,97,195,180,6,159,11,17,102,26,62,239,172,187,169,24],"subject_pair":12,"correct":true,"test_part":"multichoice_nonpretend","STUDY_ID":"669a58f4f17d67c0aba4c4d3","PROLIFIC_PID":"65cba5290b9dca9291cd76ac","SESSION_ID":"669a6953f0d486b10e4b9fc3","practice_instructions":1,"leaderboard_instructions":0,"bonus":1,"reveal_word":true,"self_rating":"6","confidence":"100"},{"view_history":"[{\"page_index\":0,\"viewing_time\":2834.5}]","rt":2834.899999976158,"trial_type":"instructions","trial_index":4,"time_elapsed":50147,"internal_node_id":"0.0-3.0","protocol_sum":"","subject_identifier":25,"subject_sum":[107,81,212,49,223,93,127,20,28,190,206,204,247,158,223,61,216,97,195,180,6,159,11,17,102,26,62,239,172,187,169,24],"subject_pair":12,"STUDY_ID":"669a58f4f17d67c0aba4c4d3","PROLIFIC_PID":"65cba5290b9dca9291cd76ac","SESSION_ID":"669a6953f0d486b10e4b9fc3","practice_instructions":1,"leaderboard_instructions":0,"bonus":1,"reveal_word":true,"self_rating":"6","confidence":"100"},{"word":"ZEBRA","click_log":{"letter":["","T","I","G","E","R","L","D","W","P","N","B","Z","A"],"t":[0,9328.700000047684,11457.400000095367,13595.800000071526,16508.200000047684,18552.300000071526,27602.100000023842,29695.400000095367,31300.700000047684,43588.5,44999.700000047684,46842.90000009537,50281,52593],"hit":[null,0,0,0,1,1,0,0,0,0,0,1,1,1],"asked":["","T","TI","TIG","TIGE","TIGER","TIGERL","TIGERLD","TIGERLDW","TIGERLDWP","TIGERLDWPN","TIGERLDWPNB","TIGERLDWPNBZ","TIGERLDWPNBZA"],"word_state":["_____","_____","_____","_____","_E___","_E_R_","_E_R_","_E_R_","_E_R_","_E_R_","_E_R_","_EBR_","ZEBR_","ZEBRA"]},"hover_log":{"letter":["?","?","?","?","?","?","?","?","?","?","?","?","?","?","?","?","?","?","?","?","?","?","?","?","?","?","?","?","?","?","?","?","?","?","?","?","?","?","?","?","?","?","?","?","?","?","?","?","?","?","?","?","?","?","?","?","?","?","?","?","?","?","?","?","?","?","?","?","?","?","?","?","?","?","?","?","?","?","?","?","?","?","?","?","?","?","?","?","?","?","?","?","?","?","?","?","?","?","?","?","?","?","?","?","?","?","?","?","?","?","?","?","?","?","?","?","?","?","?","?","?","?","?","?","?","?","?","?","?","?","?","?","?","?","?","?","?","?","?","?","?","?","?","?","?","?","?","?","?","?","?","?","?","?","?","?","?","?","?","?","?","?","?","?","?","?","?","?","?","?","?","?","?","?","?","?","?","?","?","?","?","?","?","?","?","?","?","?","?","?","?","?","?","?","?","?","?","?","?","?","?","?","?","?","?","?","?","?","?","?","?","?","?","?","?","?","?","?","?","?","?","?","?","?","?","?","?","?","?","?","?","?","?","?","?","?","?","?","?","?","?","?","?","?","?","?","?","?","?","?","?","?","?","?","?","?","?","?","?","?","?","?","?","?","?","?","?","?","?","?","?","?","?","?","?","J","?","?","?","?","?","?","?","?","?","?","?","?","?","?","?","?","?","?","?","?","C","C","C","C","C","C","C","C","C","C","C","?","?","?","?","?","?","?","?","?","?","?","?","?","?","?","?","?","?","?","D","D","D","D","D","D","D","D","D","D","D","D","D","D","D","D","D","D","D","D","D","D","D","D","D","D","D","D","D","D","D","D","D","D","D","D","D","D","D","D","D","D","D","D","D","D","D","D","D","D","D","D","D","D","D","D","D","D","D","D","D","D","D","D","D","D","D","D","D","D","D","D","D","D","D","D","D","D","D","D","D","D","D","D","D","D","D","D","D","D","D","D","D","D","D","D","D","D","D","D","D","D","D","D","D","D","D","?","?","?","?","?","?","?","?","?","?","?","C","C","C","C","C","C","C","C","C","C","C","?","?","?","?","?","?","L","L","L","L","L","L","L","L","L","L","?","?","K","K","K","K","K","K","K","?","L","M","M","N","N","N","N","N","?","?","?","?","?","?","?","N","N","N","N","?","M","?","?","?","?","?","?","?","U","U","U","U","U","U","U","U","?","?","T","T","T","T","T","T","T","T","T","T","T","T","T","T","T","T","T","T","T","T","T","T","T","T","T","T","T","T","T","T","T","T","T","T","T","T","T","T","T","T","T","T","T","T","T","T","T","T","T","T","T","T","T","T","T","T","T","T","T","T","T","T","T","T","T","T","T","T","T","T","T","T","T","T","T","T","T","T","T","T","T","T","T","T","T","T","T","T","T","T","U","V","?","?","O","O","O","O","?","?","?","?","?","?","?","?","?","?","?","?","?","G","G","G","G","?","H","H","H","H","H","H","H","H","?","I","I","I","I","I","I","I","I","I","I","I","I","I","I","I","I","I","I","I","I","I","I","I","I","I","I","I","I","I","I","I","I","I","I","I","I","I","I","I","I","I","I","I","I","I","I","I","I","I","I","I","I","I","I","I","I","I","I","I","I","I","I","I","I","I","I","I","I","I","I","I","I","I","I","I","I","I","I","I","I","I","I","H","?","E","D","?","?","?","?","?","?","?","?","?","?","?","?","?","?","?","?","?","?","?","?","?","?","?","?","?","?","?","?","?","?","?","?","?","?","?","?","?","?","?","?","F","F","F","F","F","F","F","F","F","F","F","?","G","G","G","G","G","G","G","G","G","G","G","G","G","G","G","G","G","G","G","G","G","G","G","G","G","G","G","G","G","G","G","G","G","G","G","G","G","G","G","G","G","G","G","G","G","G","G","G","G","G","G","G","G","G","G","G","G","G","G","G","G","G","G","G","G","G","G","G","G","G","G","G","G","G","G","G","G","G","G","G","G","G","G","G","G","G","G","G","G","G","G","G","G","G","G","G","G","G","G","G","G","G","G","G","G","G","G","G","G","G","G","G","G","G","G","G","G","G","G","G","G","G","G","G","G","G","?","F","F","E","E","?","D","D","?","?","C","C","?","?","?","?","?","?","?","?","?","?","?","?","?","?","?","C","C","C","?","D","D","D","D","D","D","D","D","D","?","?","?","?","?","?","?","E","E","E","E","E","E","E","E","E","E","E","E","E","E","E","E","E","E","E","E","E","E","E","E","E","E","E","E","E","E","E","E","E","E","E","E","E","E","E","E","E","E","E","E","E","E","E","E","E","E","E","E","E","E","E","E","E","?","D","D","D","D","D","?","C","C","C","C","C","C","C","C","C","C","?","M","N","N","N","N","N","?","?","?","?","O","O","O","O","O","O","O","O","O","O","O","O","O","O","O","?","?","?","?","?","P","P","?","?","Q","Q","Q","?","?","?","?","?","?","?","?","R","R","R","R","R","R","R","R","R","R","R","R","R","R","R","R","R","R","R","R","R","R","R","R","R","R","R","R","R","R","R","R","R","R","R","R","R","R","R","R","R","R","R","R","R","R","R","R","R","R","R","R","R","R","R","R","R","R","R","R","R","R","R","R","R","R","R","R","R","R","R","R","R","R","R","R","R","R","R","R","R","R","R","R","R","R","R","R","R","R","R","R","R","R","R","R","R","R","R","R","R","R","R","R","R","R","R","R","R","R","R","R","R","R","R","R","R","R","R","R","R","R","R","R","R","R","R","R","R","R","R","R","R","R","R","R","R","R","R","R","R","R","R","R","R","R","R","R","R","R","R","R","R","R","R","R","R","R","R","R","R","R","R","R","R","R","R","R","R","R","R","R","R","R","R","R","R","R","R","R","R","R","R","R","R","R","R","R","R","R","R","R","R","R","R","R","R","R","R","R","R","R","R","R","R","R","R","R","R","R","R","R","R","R","R","R","R","R","R","R","R","R","R","R","R","R","R","R","R","R","R","R","R","R","R","R","R","R","R","R","R","R","R","R","R","R","R","R","R","R","R","R","R","R","R","R","R","R","R","R","R","R","R","R","R","R","R","R","R","R","R","R","R","R","R","R","R","R","R","R","R","R","R","R","R","R","R","R","R","R","R","R","R","R","R","R","R","R","R","R","R","R","R","R","R","R","R","R","R","R","R","R","R","R","R","R","R","R","R","R","R","R","R","R","R","R","R","R","R","R","R","R","R","R","R","R","?","Q","?","P","?","O","O","N","N","?","?","M","M","M","M","M","M","M","M","M","M","M","M","M","M","M","M","M","M","M","?","?","N","N","N","N","N","N","N","N","N","N","N","N","N","N","N","N","N","N","N","N","N","N","N","N","N","N","N","N","N","N","N","N","N","N","N","N","N","N","N","N","N","N","N","N","N","N","N","N","N","N","N","N","N","N","N","N","N","N","N","N","N","N","N","N","N","N","N","N","N","N","N","N","N","N","N","N","N","N","N","N","N","N","N","N","N","N","N","N","N","N","N","N","N","N","N","N","N","N","N","N","N","N","N","N","N","N","N","N","N","N","N","N","N","N","N","N","N","N","N","N","N","N","N","N","N","N","N","N","N","N","?","M","M","L","L","L","?","K","K","K","K","K","K","K","K","K","K","K","K","K","K","K","K","K","K","K","K","K","K","K","K","K","K","K","K","K","K","K","K","K","K","K","K","K","K","K","?","?","L","L","L","L","L","L","L","L","L","L","L","L","L","L","L","L","L","L","L","L","L","L","L","L","L","L","L","L","L","L","L","L","L","L","L","L","L","L","L","L","L","L","L","L","L","L","L","L","L","L","L","L","L","L","L","L","L","L","L","L","L","L","L","L","L","L","L","L","L","L","L","L","L","L","L","L","L","L","L","L","L","L","L","L","L","L","L","L","L","L","L","L","L","L","L","L","L","L","L","L","L","L","L","L","L","L","L","L","L","L","?","?","?","?","?","?","?","?","?","?","D","D","D","D","D","D","D","D","D","D","D","D","D","D","D","D","D","D","D","D","D","D","D","D","D","D","D","D","D","D","D","D","D","D","D","D","D","D","D","D","D","D","D","D","D","D","D","D","D","D","D","D","D","D","D","D","D","D","D","D","D","D","D","D","D","D","D","D","D","D","D","D","D","D","D","D","D","D","D","D","D","D","D","?","M","M","M","M","?","?","?","?","?","?","?","?","?","?","?","?","?","W","W","W","W","W","W","W","W","W","W","W","W","W","W","W","W","W","W","W","W","W","W","W","W","W","W","W","W","W","W","W","W","W","W","W","W","W","W","W","W","W","W","W","W","W","W","W","W","W","W","W","W","W","W","W","W","W","W","W","W","W","W","W","W","W","W","W","W","W","W","W","W","W","W","W","W","W","W","W","W","W","W","W","W","W","W","W","W","W","W","W","W","W","W","W","W","W","W","W","W","W","W","W","W","W","W","W","W","W","W","W","W","W","W","W","W","W","W","W","W","W","W","W","W","W","W","W","W","W","W","?","M","L","?","?","?","B","B","B","B","B","B","B","B","?","?","?","?","?","?","A","A","A","A","A","A","A","A","A","A","A","A","A","A","A","A","A","A","A","A","A","A","A","A","A","A","A","A","A","A","A","A","A","A","A","A","A","A","A","A","A","A","A","A","A","A","A","A","A","A","A","A","A","A","A","A","A","A","A","A","A","A","A","A","A","A","A","A","A","A","A","A","A","A","B","?","?","?","?","?","?","?","?","?","?","?","?","?","?","?","?","?","?","?","?","?","L","?","?","?","?","?","?","?","?","?","?","?","?","?","?","?","?","?","?","?","?","?","?","?","?","?","?","?","?","?","?","?","?","?","?","?","?","?","?","?","?","?","?","?","?","?","?","?","?","?","?","?","?","?","?","?","L","L","L","L","L","L","L","?","M","M","M","M","?","?","?","?","?","?","?","?","?","?","?","?","?","?","?","?","?","?","?","?","?","?","?","?","?","?","?","?","?","?","?","?","?","?","?","?","?","?","?","?","?","?","?","?","?","?","?","?","?","?","?","?","?","?","?","?","?","?","?","?","?","?","?","?","?","?","?","?","?","?","?","?","?","?","?","?","?","?","?","?","?","?","?","?","?","?","?","?","?","?","?","?","?","?","?","?","?","?","?","?","?","?","?","?","?","?","?","?","?","?","?","?","?","?","?","?","?","?","?","?","?","?","?","?","?","?","?","?","?","?","?","?","?","?","?","?","?","?","?","?","?","?","?","?","?","?","?","?","?","?","?","?","?","?","?","?","?","?","?","?","?","?","?","?","?","?","?","?","?","?","?","?","?","?","?","?","?","?","?","?","?","?","?","?","?","?","?","?","?","?","?","?","?","?","?","?","?","?","?","?","?","?","?","?","?","?","?","?","?","?","?","?","?","?","?","?","?","?","?","?","?","?","?","?","?","?","?","?","?","?","?","?","?","?","?","?","?","?","?","?","?","?","?","?","?","?","?","?","?","?","?","?","?","?","?","?","?","?","?","?","?","?","?","?","?","?","?","?","?","?","?","?","?","?","?","?","?","?","?","?","?","?","?","?","?","?","?","?","?","?","?","?","?","?","?","?","?","?","?","?","?","?","?","?","?","?","?","?","?","?","?","?","?","?","?","?","?","?","?","?","?","?","?","?","?","?","?","?","?","?","?","?","?","?","?","?","?","?","?","?","?","?","?","?","?","?","?","?","?","?","?","?","?","?","?","?","?","?","?","?","?","?","?","?","?","?","?","N","N","N","N","N","N","N","N","?","?","?","?","?","?","?","?","?","?","O","O","O","O","O","O","O","O","O","O","O","O","O","O","O","O","O","O","?","?","?","?","?","?","?","?","?","?","?","?","?","?","?","?","P","P","P","P","P","P","P","P","P","P","P","P","P","P","P","P","P","P","P","P","P","P","P","P","P","P","P","P","P","P","P","P","P","P","P","P","P","P","P","P","P","P","P","P","P","P","P","P","P","P","P","P","P","P","P","P","P","P","P","P","P","P","P","P","P","P","P","P","P","P","P","P","P","P","P","P","P","P","?","O","O","O","O","O","O","O","?","?","N","N","N","N","N","N","N","N","N","N","N","N","N","N","N","N","N","N","N","N","N","N","N","N","N","N","N","N","N","N","N","N","N","N","N","N","N","N","N","N","N","N","N","N","N","N","N","N","N","N","N","N","N","N","N","N","N","N","N","N","N","N","N","N","N","N","N","N","N","N","N","N","N","N","N","N","N","N","N","N","N","N","N","N","N","N","N","N","N","N","N","N","N","N","N","N","N","N","?","?","C","?","B","B","B","B","B","B","B","B","B","B","B","B","B","B","B","B","B","B","B","B","B","B","B","B","B","B","B","B","B","B","B","B","B","B","B","B","B","B","B","B","B","B","B","B","B","B","B","B","B","B","B","B","B","B","B","B","B","B","B","B","B","B","B","B","B","B","B","B","B","B","B","B","B","B","B","B","B","B","B","B","B","B","B","B","B","B","B","B","B","B","B","B","B","B","B","B","B","B","B","B","B","B","B","B","B","B","B","B","B","B","B","B","B","B","B","B","B","B","B","B","B","B","B","B","B","B","B","B","B","B","B","B","B","B","B","B","B","B","B","B","B","?","?","?","?","?","?","?","?","?","?","?","?","?","?","?","?","J","?","?","?","?","?","?","?","?","?","?","?","?","?","?","?","?","?","S","S","S","S","S","?","T","T","?","U","?","?","V","V","V","V","V","?","?","?","W","W","W","?","?","X","?","?","?","?","?","?","Y","Y","Y","Y","?","?","?","?","?","?","?","?","?","?","?","?","Z","Z","Z","Z","Z","Z","Z","Z","Z","Z","Z","Z","Z","Z","Z","Z","Z","Z","Z","Z","Z","Z","Z","Z","Z","Z","Z","Z","Z","Z","Z","Z","Z","Z","Z","Z","Z","Z","Z","Z","Z","Z","Z","Z","Z","Z","Z","Z","Z","Z","Z","Z","Z","Z","O","?","E","D","?","?","?","?","?","?","?","?","?","?","?","?","?","?","?","B","B","B","B","?","A","A","A","A","A","A","A","A","?","?","?","?","?","?","?","?","?","?","?","?","?","?","?","?","?","?","?","?","?","?","?","?","?","?","?","?","?","?","?","?","?","?","?","?","?","?","?","?","?","?","?","?","?","?","?","A","A","A","A","A","A","A","A","A","A","A","A","A","A","A","A","A","A","A","A","A","A","A","A","A","A","A","A","A","A","A","A","A","A","A","A","A","A","A","A","A","A","A","A","A","A","A","A","A","A","A","A","A","A","A","A","A","A","A","A","A","A","A","A","A","A","?","?","V","?","?","?","?","?","?","?","?","?","?","?","?","?","?","?","?","?","?","?","?","?","?","?","?","?","?","?","?","?","?","?","?","?","?","?","?","?","?","?","?","?","?","?","?","?","?","?","?","?","?","?","?","?","?","?","?","?","?","?","?","?","?","?","?","?","?","?","?","?","?","?","?","?","?","?","?","?","?","?","?","?","?","?","?","?","?","?"],"t":[46,53,78,94,110,127,144,160,178,194,210,227,243,260,277,293,310,327,344,360,377,393,408,426,442,460,476,492,508,526,542,559,576,592,609,626,642,659,676,692,710,725,742,760,776,792,809,826,841,859,875,892,909,926,943,958,975,992,1008,1025,1042,1059,1076,1092,1108,1126,1141,1159,1174,1192,1209,1225,1242,1259,1275,1292,1309,1325,1342,1358,1375,1391,1408,1425,1443,1458,1475,1491,1508,1525,1541,1559,1575,1591,1608,1625,1642,1659,1675,1691,1708,1725,1742,1758,1775,1792,1808,1824,1841,1857,1874,1890,1907,1924,1940,1958,1975,1991,2008,2024,2041,2057,2074,2090,2108,2124,2141,2157,2173,2190,2208,2224,2240,2257,2274,2290,2307,2324,2341,2357,2374,2390,2406,2424,2440,2457,2473,2490,2508,2523,2540,2557,2573,2590,2607,2623,2640,2657,2674,2689,2707,2724,2739,2756,2773,2790,2807,2823,2840,2857,2874,2890,2907,2924,2942,2956,2973,2990,3007,3023,3040,3057,3074,3090,3107,3124,3143,3157,3173,3189,3206,3223,3240,3256,3273,3289,3306,3323,3339,3357,3373,3388,3407,3423,3439,3457,3472,3489,3506,3523,3539,3556,3572,3589,3606,3623,3639,3655,3673,3689,3707,3723,3739,3756,3772,3789,3806,3822,3838,3856,3871,3889,3905,3922,3940,3956,3973,3989,4005,4022,4039,4056,4072,4090,4106,4123,4138,4156,4171,4188,4205,4222,4239,4256,4272,4289,4305,4322,4341,4355,4372,4389,4405,4423,4439,4456,4472,4490,4505,4522,4539,4555,4572,4589,4606,4631,4639,4656,4672,4689,4706,4722,4739,4756,4772,4789,4806,4823,4839,4856,4873,4889,4906,4923,4939,4955,4972,4989,5006,5022,5039,5056,5072,5089,5105,5123,5139,5155,5172,5189,5205,5221,5238,5255,5271,5289,5305,5321,5338,5355,5371,5389,5404,5422,5439,5456,5472,5488,5505,5521,5538,5555,5571,5588,5605,5621,5638,5655,5671,5688,5704,5721,5738,5755,5771,5787,5805,5820,5838,5854,5870,5887,5904,5921,5938,5954,5970,5986,6004,6020,6037,6054,6071,6087,6105,6120,6137,6154,6170,6187,6204,6221,6236,6253,6270,6287,6304,6320,6338,6354,6371,6387,6403,6420,6437,6454,6470,6487,6504,6520,6537,6553,6569,6587,6603,6620,6636,6653,6669,6687,6703,6719,6737,6753,6770,6786,6803,6820,6836,6853,6870,6886,6903,6920,6936,6952,6969,6986,7003,7019,7036,7054,7069,7087,7103,7119,7136,7153,7169,7186,7203,7222,7236,7254,7270,7286,7304,7320,7337,7353,7369,7388,7403,7424,7437,7453,7470,7486,7503,7520,7536,7554,7570,7586,7603,7620,7637,7653,7669,7687,7702,7720,7737,7752,7769,7786,7803,7819,7836,7853,7869,7886,7903,7919,7936,7952,7969,7986,8002,8020,8036,8052,8070,8086,8103,8120,8135,8153,8169,8185,8203,8217,8236,8251,8268,8285,8302,8319,8336,8352,8369,8385,8402,8419,8435,8452,8469,8486,8502,8519,8536,8551,8569,8585,8601,8621,8635,8652,8670,8686,8702,8719,8735,8752,8768,8785,8802,8819,8836,8852,8868,8885,8902,8919,8935,8952,8968,8985,9002,9018,9034,9051,9068,9083,9101,9118,9134,9151,9168,9185,9201,9218,9235,9252,9267,9285,9300,9318,9335,9352,9368,9384,9401,9418,9434,9450,9468,9484,9501,9518,9535,9551,9567,9584,9601,9617,9634,9650,9668,9684,9701,9717,9733,9750,9766,9783,9801,9817,9834,9849,9867,9884,9900,9916,9934,9950,9967,9983,10000,10016,10033,10052,10067,10084,10100,10117,10133,10150,10168,10184,10201,10217,10234,10251,10267,10284,10305,10317,10334,10350,10368,10384,10401,10418,10435,10451,10467,10484,10500,10517,10535,10550,10567,10584,10600,10618,10634,10650,10667,10684,10700,10718,10733,10751,10768,10783,10801,10817,10834,10850,10867,10884,10900,10917,10933,10950,10967,10982,10999,11016,11032,11049,11066,11083,11099,11116,11132,11149,11166,11183,11203,11217,11233,11249,11266,11282,11299,11316,11333,11349,11366,11383,11399,11416,11433,11450,11466,11483,11500,11516,11533,11549,11566,11583,11599,11616,11633,11650,11666,11683,11699,11716,11732,11749,11766,11783,11800,11815,11833,11849,11865,11882,11899,11916,11932,11950,11965,11982,11998,12015,12032,12049,12066,12082,12099,12116,12132,12149,12167,12182,12200,12216,12233,12249,12265,12283,12299,12315,12332,12349,12366,12383,12398,12415,12432,12449,12466,12481,12499,12515,12532,12549,12565,12583,12598,12615,12632,12649,12666,12682,12699,12716,12732,12749,12766,12781,12798,12815,12832,12849,12865,12882,12899,12915,12932,12948,12965,12982,12998,13015,13033,13049,13065,13081,13099,13115,13131,13148,13165,13181,13198,13214,13231,13248,13264,13281,13298,13314,13331,13348,13364,13381,13397,13414,13431,13448,13464,13480,13497,13514,13531,13548,13564,13580,13598,13614,13630,13647,13664,13680,13697,13714,13730,13747,13764,13780,13797,13813,13830,13847,13864,13880,13897,13914,13930,13946,13964,13979,13997,14013,14030,14046,14063,14080,14096,14114,14129,14147,14163,14180,14197,14213,14229,14246,14263,14279,14297,14313,14333,14347,14363,14380,14397,14413,14430,14447,14463,14480,14496,14513,14530,14547,14563,14580,14597,14614,14630,14646,14663,14679,14696,14712,14729,14745,14763,14779,14796,14813,14832,14846,14862,14879,14895,14912,14929,14946,14962,14979,14996,15012,15029,15045,15063,15079,15095,15113,15129,15146,15163,15179,15196,15213,15230,15246,15263,15280,15296,15313,15329,15345,15363,15379,15396,15413,15428,15446,15462,15479,15496,15512,15529,15545,15562,15579,15596,15613,15629,15646,15663,15679,15696,15712,15729,15746,15762,15779,15796,15812,15829,15846,15863,15879,15895,15912,15928,15945,15962,15978,15996,16012,16029,16046,16062,16079,16095,16112,16128,16144,16161,16178,16195,16212,16228,16244,16261,16277,16295,16311,16329,16345,16361,16378,16394,16411,16428,16444,16461,16478,16494,16513,16527,16544,16561,16578,16594,16611,16628,16644,16661,16678,16694,16711,16728,16745,16761,16778,16794,16811,16828,16845,16862,16878,16895,16911,16928,16945,16961,16978,16995,17011,17029,17044,17061,17078,17094,17111,17128,17145,17162,17177,17195,17213,17228,17245,17261,17278,17295,17311,17328,17344,17361,17378,17394,17411,17427,17444,17461,17478,17494,17511,17528,17544,17560,17578,17594,17610,17627,17644,17661,17677,17695,17710,17727,17744,17761,17777,17794,17811,17827,17843,17860,17878,17894,17910,17927,17944,17960,17977,17993,18010,18027,18043,18060,18077,18094,18110,18127,18143,18159,18177,18193,18210,18226,18243,18260,18276,18293,18309,18326,18342,18360,18376,18393,18409,18426,18442,18460,18476,18492,18509,18526,18542,18559,18576,18595,18609,18626,18643,18660,18676,18693,18710,18726,18743,18760,18776,18793,18809,18826,18843,18860,18876,18893,18909,18926,18942,18959,18976,18992,19009,19026,19042,19059,19076,19092,19109,19125,19142,19158,19175,19192,19209,19225,19245,19258,19275,19292,19308,19326,19342,19358,19375,19391,19408,19425,19442,19459,19475,19491,19509,19525,19542,19558,19575,19591,19608,19625,19642,19659,19675,19692,19708,19725,19742,19758,19775,19792,19808,19825,19842,19858,19874,19891,19908,19925,19942,19958,19974,19991,20009,20025,20041,20058,20075,20092,20109,20125,20141,20158,20175,20191,20208,20224,20242,20258,20275,20291,20308,20325,20342,20357,20374,20390,20408,20424,20441,20458,20474,20490,20508,20524,20540,20558,20574,20590,20608,20624,20640,20658,20674,20690,20707,20724,20741,20757,20774,20790,20808,20823,20840,20857,20874,20890,20907,20923,20940,20958,20974,20991,21007,21024,21040,21056,21073,21089,21107,21124,21140,21157,21174,21190,21206,21223,21239,21256,21273,21289,21306,21324,21339,21357,21374,21389,21406,21425,21440,21457,21473,21490,21507,21523,21540,21557,21573,21589,21607,21623,21639,21656,21673,21689,21706,21723,21739,21756,21773,21790,21806,21822,21839,21856,21873,21890,21906,21923,21939,21957,21972,21989,22006,22023,22040,22056,22072,22089,22105,22122,22139,22156,22172,22189,22206,22222,22239,22256,22272,22289,22306,22322,22338,22355,22372,22389,22406,22422,22439,22456,22472,22488,22505,22522,22539,22555,22572,22589,22606,22622,22638,22655,22672,22688,22705,22722,22738,22756,22772,22788,22805,22823,22839,22856,22872,22889,22906,22923,22939,22956,22973,22989,23006,23022,23039,23056,23072,23088,23105,23122,23139,23155,23171,23189,23205,23222,23238,23255,23272,23288,23305,23321,23338,23355,23372,23388,23405,23422,23438,23455,23471,23488,23505,23521,23539,23555,23571,23589,23605,23621,23639,23654,23672,23689,23705,23722,23738,23755,23772,23788,23805,23821,23838,23855,23871,23888,23905,23921,23938,23954,23972,23988,24005,24021,24038,24055,24072,24088,24105,24121,24138,24154,24171,24188,24204,24223,24238,24254,24271,24288,24305,24320,24338,24354,24370,24387,24404,24420,24438,24454,24470,24488,24504,24521,24536,24553,24570,24587,24604,24620,24637,24654,24670,24687,24703,24720,24737,24754,24770,24787,24803,24819,24838,24853,24870,24886,24903,24919,24937,24953,24970,24986,25003,25019,25037,25052,25070,25087,25103,25120,25137,25153,25169,25186,25203,25220,25236,25253,25269,25286,25303,25319,25337,25352,25370,25387,25403,25419,25436,25453,25470,25486,25503,25519,25536,25552,25569,25586,25603,25621,25636,25653,25669,25686,25703,25719,25736,25752,25769,25785,25802,25819,25836,25853,25869,25886,25902,25919,25935,25952,25969,25985,26002,26019,26036,26052,26068,26085,26102,26119,26135,26152,26168,26185,26202,26219,26237,26253,26270,26286,26302,26320,26335,26353,26370,26386,26403,26418,26436,26453,26469,26485,26502,26519,26535,26552,26569,26585,26602,26618,26634,26652,26668,26685,26702,26718,26735,26751,26768,26785,26801,26818,26835,26851,26869,26885,26902,26919,26935,26952,26969,26986,27002,27020,27035,27052,27069,27086,27102,27118,27135,27152,27169,27185,27202,27218,27235,27252,27268,27285,27302,27319,27335,27351,27367,27384,27401,27417,27435,27450,27467,27484,27501,27518,27534,27550,27568,27585,27601,27618,27634,27651,27668,27684,27700,27718,27734,27751,27767,27784,27800,27817,27834,27851,27867,27884,27900,27917,27934,27950,27968,27984,28001,28017,28033,28049,28067,28084,28100,28117,28134,28150,28167,28183,28200,28217,28233,28250,28267,28283,28299,28316,28333,28350,28366,28383,28400,28416,28435,28450,28467,28483,28499,28517,28534,28550,28567,28584,28599,28617,28634,28650,28667,28683,28700,28717,28734,28750,28767,28784,28800,28816,28834,28850,28867,28884,28900,28917,28933,28950,28967,28983,29000,29017,29033,29050,29067,29083,29100,29116,29133,29150,29166,29183,29200,29216,29233,29250,29265,29283,29299,29315,29333,29349,29366,29382,29399,29416,29433,29449,29466,29482,29499,29516,29533,29549,29566,29583,29599,29616,29633,29649,29666,29682,29699,29716,29732,29749,29768,29783,29799,29816,29833,29849,29866,29882,29899,29915,29932,29949,29966,29982,29999,30015,30032,30049,30065,30082,30099,30116,30132,30148,30165,30182,30198,30215,30232,30248,30265,30281,30299,30315,30332,30348,30365,30381,30398,30416,30432,30449,30466,30482,30499,30515,30532,30549,30565,30582,30598,30615,30632,30648,30666,30682,30699,30716,30732,30749,30765,30782,30799,30815,30832,30848,30865,30882,30898,30915,30931,30948,30964,30981,30998,31014,31031,31048,31065,31081,31097,31114,31131,31147,31164,31181,31199,31214,31231,31248,31264,31281,31298,31315,31331,31348,31365,31381,31398,31414,31430,31448,31464,31480,31498,31515,31531,31547,31564,31580,31597,31613,31630,31647,31664,31681,31697,31713,31730,31747,31764,31780,31797,31814,31830,31847,31863,31880,31897,31914,31931,31947,31964,31980,31997,32014,32030,32047,32064,32080,32097,32114,32131,32148,32164,32180,32197,32214,32231,32247,32264,32280,32298,32314,32330,32347,32363,32380,32396,32413,32429,32447,32463,32479,32496,32513,32530,32546,32563,32579,32596,32615,32630,32646,32662,32679,32697,32713,32730,32745,32763,32779,32796,32813,32830,32846,32863,32880,32897,32913,32930,32946,32962,32980,32996,33013,33030,33046,33063,33079,33096,33113,33129,33146,33162,33179,33196,33213,33229,33245,33263,33279,33296,33312,33329,33345,33362,33379,33395,33412,33428,33445,33462,33479,33495,33512,33529,33545,33562,33578,33596,33612,33629,33646,33662,33679,33695,33712,33728,33745,33762,33778,33795,33812,33828,33845,33862,33878,33895,33911,33929,33945,33961,33978,33997,34012,34028,34045,34062,34078,34095,34112,34129,34145,34162,34179,34195,34212,34228,34245,34261,34278,34295,34311,34328,34345,34362,34378,34395,34412,34428,34444,34461,34478,34495,34512,34528,34545,34563,34578,34594,34611,34628,34645,34661,34678,34694,34711,34729,34745,34762,34778,34794,34812,34828,34845,34862,34879,34895,34911,34928,34943,34961,34977,34994,35010,35027,35045,35061,35076,35094,35111,35127,35145,35160,35177,35195,35210,35228,35243,35261,35278,35294,35311,35327,35344,35360,35379,35394,35410,35427,35444,35461,35477,35494,35510,35528,35544,35560,35577,35594,35610,35627,35644,35660,35677,35694,35710,35727,35744,35760,35777,35794,35810,35827,35844,35860,35877,35893,35910,35927,35943,35961,35976,35993,36009,36026,36043,36059,36077,36093,36109,36127,36143,36159,36176,36193,36209,36226,36243,36259,36276,36292,36309,36326,36343,36360,36376,36392,36409,36426,36442,36459,36476,36492,36510,36526,36543,36559,36576,36592,36609,36626,36642,36659,36676,36692,36709,36726,36742,36759,36778,36793,36810,36826,36843,36859,36876,36893,36909,36926,36942,36959,36976,36993,37009,37026,37043,37059,37076,37092,37109,37126,37142,37159,37176,37193,37208,37225,37242,37259,37275,37292,37308,37325,37341,37358,37376,37392,37408,37425,37442,37458,37475,37491,37508,37526,37542,37558,37574,37592,37608,37626,37642,37658,37675,37691,37708,37725,37742,37759,37775,37792,37808,37824,37841,37858,37875,37892,37908,37924,37941,37958,37974,37991,38008,38024,38041,38058,38075,38091,38108,38125,38141,38157,38174,38191,38209,38225,38241,38258,38275,38291,38309,38325,38341,38358,38374,38391,38408,38425,38441,38457,38474,38491,38508,38524,38540,38557,38575,38591,38607,38624,38641,38657,38674,38690,38708,38724,38740,38757,38774,38790,38807,38824,38840,38857,38873,38890,38907,38924,38940,38957,38973,38990,39007,39024,39040,39057,39074,39090,39107,39124,39141,39159,39173,39190,39206,39223,39239,39257,39273,39289,39307,39323,39339,39357,39374,39389,39406,39424,39440,39457,39473,39489,39507,39523,39539,39556,39573,39589,39607,39623,39639,39657,39673,39689,39707,39723,39739,39757,39773,39790,39807,39823,39840,39856,39873,39891,39907,39923,39940,39957,39973,39990,40005,40022,40039,40056,40073,40089,40105,40122,40139,40156,40173,40189,40206,40222,40239,40256,40273,40292,40306,40323,40339,40356,40372,40389,40406,40423,40439,40455,40472,40489,40505,40522,40538,40556,40572,40588,40605,40622,40638,40655,40672,40689,40705,40722,40738,40755,40772,40789,40805,40822,40838,40855,40872,40888,40905,40922,40938,40956,40971,40988,41007,41022,41038,41055,41072,41089,41105,41122,41139,41155,41172,41189,41205,41222,41241,41255,41272,41289,41305,41322,41338,41355,41371,41388,41404,41422,41438,41455,41471,41488,41505,41521,41537,41554,41570,41588,41604,41621,41638,41654,41672,41688,41705,41721,41738,41754,41771,41788,41804,41820,41837,41854,41870,41887,41905,41920,41941,41954,41971,41987,42004,42021,42038,42055,42071,42088,42105,42121,42138,42154,42171,42189,42204,42221,42238,42254,42270,42287,42304,42321,42338,42355,42370,42387,42405,42420,42438,42454,42470,42488,42504,42521,42538,42554,42571,42587,42604,42621,42637,42654,42671,42688,42703,42720,42737,42753,42771,42787,42803,42820,42836,42854,42870,42887,42903,42920,42937,42953,42970,42986,43004,43019,43037,43053,43070,43087,43103,43120,43137,43153,43170,43187,43203,43220,43237,43253,43269,43287,43304,43320,43337,43354,43369,43386,43403,43420,43436,43452,43469,43486,43503,43520,43536,43553,43569,43586,43603,43620,43636,43652,43669,43686,43703,43719,43736,43753,43769,43787,43802,43819,43836,43852,43869,43886,43902,43918,43936,43952,43969,43986,44002,44019,44035,44052,44068,44085,44102,44119,44136,44153,44168,44186,44202,44219,44236,44252,44269,44286,44302,44320,44336,44352,44369,44385,44403,44419,44436,44453,44469,44486,44502,44519,44536,44552,44569,44585,44602,44618,44635,44652,44669,44685,44702,44718,44735,44752,44768,44784,44802,44818,44835,44851,44868,44885,44904,44918,44935,44951,44968,44985,45002,45018,45035,45051,45069,45085,45102,45118,45135,45151,45169,45188,45202,45218,45235,45251,45268,45284,45301,45318,45335,45351,45368,45385,45401,45418,45435,45451,45468,45485,45501,45517,45534,45551,45568,45584,45601,45617,45634,45651,45668,45684,45701,45717,45733,45750,45767,45784,45801,45817,45833,45851,45867,45884,45900,45917,45934,45951,45967,45984,46000,46018,46034,46050,46068,46085,46100,46118,46134,46151,46167,46184,46201,46218,46234,46250,46267,46284,46300,46317,46334,46350,46367,46387,46400,46416,46433,46450,46467,46483,46499,46517,46533,46550,46567,46584,46600,46617,46633,46650,46667,46683,46699,46716,46733,46749,46766,46783,46800,46816,46833,46849,46866,46883,46900,46916,46933,46949,46967,46982,46999,47016,47032,47049,47066,47082,47099,47115,47132,47149,47166,47183,47200,47216,47233,47249,47265,47282,47299,47316,47332,47349,47366,47382,47399,47416,47433,47449,47466,47483,47499,47515,47532,47549,47566,47582,47599,47616,47633,47649,47666,47682,47698,47715,47732,47748,47765,47782,47799,47815,47831,47849,47865,47881,47899,47915,47934,47949,47965,47982,47999,48015,48032,48049,48066,48082,48099,48116,48132,48149,48165,48182,48199,48215,48232,48249,48265,48282,48298,48315,48331,48348,48365,48382,48398,48416,48432,48449,48466,48482,48499,48515,48532,48548,48565,48581,48598,48615,48632,48648,48665,48682,48699,48715,48731,48749,48765,48782,48798,48815,48832,48849,48864,48881,48898,48915,48932,48948,48965,48982,48999,49016,49031,49049,49065,49081,49099,49114,49131,49148,49165,49182,49198,49215,49232,49248,49265,49282,49298,49315,49331,49348,49365,49381,49398,49414,49431,49448,49464,49481,49498,49515,49531,49547,49565,49581,49598,49615,49631,49648,49664,49681,49698,49714,49731,49748,49765,49782,49797,49814,49831,49847,49863,49880,49897,49914,49930,49947,49963,49980,49997,50014,50030,50047,50063,50080,50096,50113,50130,50147,50163,50180,50197,50213,50230,50246,50263,50279,50296,50313,50330,50347,50363,50379,50397,50413,50430,50446,50463,50479,50496,50513,50529,50547,50563,50580,50596,50614,50629,50646,50663,50680,50696,50714,50730,50746,50763,50780,50797,50813,50830,50847,50863,50880,50897,50912,50930,50947,50963,50980,50996,51013,51030,51047,51063,51079,51096,51113,51129,51147,51163,51179,51201,51228,51243,51260,51277,51294,51310,51327,51344,51360,51377,51394,51410,51427,51444,51460,51477,51493,51510,51527,51543,51560,51577,51594,51609,51627,51643,51660,51677,51693,51710,51727,51743,51760,51777,51793,51809,51827,51844,51859,51876,51892,51910,51926,51943,51960,51976,51993,52010,52026,52043,52059,52076,52093,52109,52126,52142,52159,52176,52193,52210,52227,52243,52260,52276,52293,52309,52326,52342,52359,52376,52393,52409,52426,52443,52460,52476,52493,52510,52526,52542,52559,52576,52593,52612,52626,52642,52659,52675,52692,52709,52725,52742,52759,52776,52793,52810,52826,52843,52859,52876,52893,52909,52925,52942,52959,52976,52992,53009,53025,53042,53059,53075,53092,53109,53125,53142,53158,53176,53192,53208,53225,53242,53258,53276,53292,53308,53325,53342,53359,53376,53393,53409,53426,53443,53459,53476,53493,53509,53526,53542,53559,53576,53593,53608,53626,53642,53658,53675,53692,53708,53724,53741,53758,53775,53792,53808,53825,53842,53858,53875,53891,53908,53925,53942,53958,53974,53990,54008,54024,54041,54058,54075,54092,54108,54125,54141,54158,54175,54192,54207,54224,54241,54257,54275,54291,54307,54324,54341,54358,54374,54391,54408,54424,54441,54457,54474,54491,54507,54524,54541,54557,54574,54591,54608],"hit":[null],"x":[-1.6054421768707483,-1.6054421768707483,-1.6054421768707483,-1.6054421768707483,-1.6054421768707483,-1.6054421768707483,-1.6054421768707483,-1.6054421768707483,-1.6054421768707483,-1.6054421768707483,-1.6054421768707483,-1.6054421768707483,-1.6054421768707483,-1.6054421768707483,-1.6054421768707483,-1.6054421768707483,-1.6054421768707483,-1.6054421768707483,-1.6054421768707483,-1.6054421768707483,-1.6054421768707483,-1.6054421768707483,-1.6054421768707483,-1.6054421768707483,-1.6054421768707483,-1.6054421768707483,-1.6054421768707483,-1.6054421768707483,-1.6054421768707483,-1.6054421768707483,-1.6054421768707483,-1.6054421768707483,-1.6054421768707483,-1.6054421768707483,-1.6054421768707483,-1.6054421768707483,-1.6054421768707483,-1.6054421768707483,-1.6054421768707483,-1.6054421768707483,-1.6054421768707483,-1.6054421768707483,-1.6054421768707483,-1.6054421768707483,-1.6054421768707483,-1.6054421768707483,-1.6054421768707483,-1.6054421768707483,-1.6054421768707483,-1.6054421768707483,-1.6054421768707483,-1.6054421768707483,-1.6054421768707483,-1.6054421768707483,-1.6054421768707483,-1.6054421768707483,-1.6054421768707483,-1.6054421768707483,-1.6054421768707483,-1.6054421768707483,-1.6054421768707483,-1.6054421768707483,-1.6054421768707483,-1.6054421768707483,-1.6054421768707483,-1.6054421768707483,-1.6054421768707483,-1.6054421768707483,-1.6054421768707483,-1.6054421768707483,-1.6054421768707483,-1.6054421768707483,-1.6054421768707483,-1.6054421768707483,-1.6054421768707483,-1.6054421768707483,-1.6054421768707483,-1.6054421768707483,-1.6054421768707483,-1.6054421768707483,-1.6054421768707483,-1.6054421768707483,-1.6054421768707483,-1.6054421768707483,-1.6054421768707483,-1.6054421768707483,-1.6054421768707483,-1.6054421768707483,-1.6054421768707483,-1.6054421768707483,-1.6054421768707483,-1.6054421768707483,-1.6054421768707483,-1.6054421768707483,-1.6054421768707483,-1.6054421768707483,-1.6054421768707483,-1.6054421768707483,-1.6054421768707483,-1.6054421768707483,-1.6054421768707483,-1.6054421768707483,-1.6054421768707483,-1.6054421768707483,-1.6054421768707483,-1.6054421768707483,-1.6054421768707483,-1.6054421768707483,-1.6054421768707483,-1.6054421768707483,-1.6054421768707483,-1.6054421768707483,-1.6054421768707483,-1.6054421768707483,-1.6054421768707483,-1.6054421768707483,-1.6054421768707483,-1.6054421768707483,-1.6054421768707483,-1.6054421768707483,-1.6054421768707483,-1.6054421768707483,-1.6054421768707483,-1.6054421768707483,-1.6054421768707483,-1.6054421768707483,-1.6054421768707483,-1.6054421768707483,-1.6054421768707483,-1.6054421768707483,-1.6054421768707483,-1.6054421768707483,-1.6054421768707483,-1.6054421768707483,-1.6054421768707483,-1.6054421768707483,-1.6054421768707483,-1.6054421768707483,-1.6054421768707483,-1.6054421768707483,-1.6054421768707483,-1.6054421768707483,-1.6054421768707483,-1.6054421768707483,-1.6054421768707483,-1.6054421768707483,-1.6054421768707483,-1.6054421768707483,-1.6054421768707483,-1.6054421768707483,-1.6054421768707483,-1.6054421768707483,-1.6054421768707483,-1.6054421768707483,-1.6054421768707483,-1.6054421768707483,-1.6054421768707483,-1.6054421768707483,-1.6054421768707483,-1.6054421768707483,-1.6054421768707483,-1.6054421768707483,-1.6054421768707483,-1.6054421768707483,-1.6054421768707483,-1.6054421768707483,-1.6054421768707483,-1.6054421768707483,-1.6054421768707483,-1.6054421768707483,-1.6054421768707483,-1.6054421768707483,-1.6054421768707483,-1.6054421768707483,-1.6054421768707483,-1.6054421768707483,-1.6054421768707483,-1.6054421768707483,-1.6054421768707483,-1.6054421768707483,-1.6054421768707483,-1.6054421768707483,-1.6054421768707483,-1.6054421768707483,-1.6054421768707483,-1.6054421768707483,-1.6054421768707483,-1.6054421768707483,-1.6054421768707483,-1.6054421768707483,-1.6054421768707483,-1.6054421768707483,-1.6054421768707483,-1.6054421768707483,-1.6054421768707483,-1.6054421768707483,-1.6054421768707483,-1.6054421768707483,-1.6054421768707483,-1.6054421768707483,-1.6054421768707483,-1.6054421768707483,-1.6054421768707483,-1.6054421768707483,-1.6054421768707483,-1.6054421768707483,-1.6054421768707483,-1.6054421768707483,-1.6054421768707483,-1.6054421768707483,-1.6054421768707483,-1.6054421768707483,-1.6054421768707483,-1.6054421768707483,-1.6054421768707483,-1.6054421768707483,-1.6054421768707483,-1.6054421768707483,-1.6054421768707483,-1.6054421768707483,-1.6054421768707483,-1.6054421768707483,-1.6054421768707483,-1.6054421768707483,-1.6054421768707483,-1.6054421768707483,-1.6054421768707483,-1.6054421768707483,-1.6054421768707483,-1.6054421768707483,-1.6054421768707483,-1.6054421768707483,-1.6054421768707483,-1.6054421768707483,-1.6054421768707483,-1.6054421768707483,-1.6054421768707483,-1.6054421768707483,-1.6054421768707483,-1.6054421768707483,-1.6054421768707483,-1.6054421768707483,-1.6054421768707483,-1.6054421768707483,-1.6054421768707483,-1.6054421768707483,-1.6054421768707483,-1.6054421768707483,-1.6054421768707483,-1.6054421768707483,-1.6054421768707483,-1.6054421768707483,-1.6054421768707483,-1.6054421768707483,-1.6054421768707483,-1.6054421768707483,-1.6054421768707483,-1.6054421768707483,-1.6054421768707483,-1.6054421768707483,-1.6054421768707483,-1.6054421768707483,-1.6054421768707483,-1.6054421768707483,-1.6054421768707483,-1.6054421768707483,-1.6054421768707483,-1.6054421768707483,-1.6054421768707483,-1.6054421768707483,-1.6054421768707483,-1.6054421768707483,-1.6054421768707483,-1.6054421768707483,-1.6054421768707483,0.01020408163265306,0.047619047619047616,0.07482993197278912,0.11224489795918367,0.1360544217687075,0.14965986394557823,0.17006802721088435,0.1836734693877551,0.1870748299319728,0.19727891156462585,0.20408163265306123,0.2108843537414966,0.21768707482993196,0.22448979591836735,0.22789115646258504,0.23129251700680273,0.23809523809523808,0.24489795918367346,0.25510204081632654,0.2653061224489796,0.2687074829931973,0.2789115646258503,0.282312925170068,0.2857142857142857,0.2925170068027211,0.29931972789115646,0.29931972789115646,0.30952380952380953,0.3129251700680272,0.3163265306122449,0.3231292517006803,0.32653061224489793,0.3333333333333333,0.3333333333333333,0.3401360544217687,0.3401360544217687,0.3435374149659864,0.3469387755102041,0.3469387755102041,0.3469387755102041,0.35034013605442177,0.35034013605442177,0.35034013605442177,0.35374149659863946,0.35374149659863946,0.35374149659863946,0.35374149659863946,0.35374149659863946,0.36054421768707484,0.36054421768707484,0.3673469387755102,0.3741496598639456,0.38095238095238093,0.3877551020408163,0.3877551020408163,0.3945578231292517,0.3979591836734694,0.4013605442176871,0.4013605442176871,0.4013605442176871,0.4013605442176871,0.4013605442176871,0.40476190476190477,0.40476190476190477,0.40476190476190477,0.40476190476190477,0.40476190476190477,0.40476190476190477,0.40476190476190477,0.40476190476190477,0.40476190476190477,0.40476190476190477,0.40476190476190477,0.40476190476190477,0.40476190476190477,0.40476190476190477,0.40476190476190477,0.40476190476190477,0.40476190476190477,0.40476190476190477,0.40476190476190477,0.40476190476190477,0.40476190476190477,0.40476190476190477,0.40476190476190477,0.40476190476190477,0.40476190476190477,0.40476190476190477,0.40476190476190477,0.40476190476190477,0.40476190476190477,0.40476190476190477,0.40476190476190477,0.40476190476190477,0.40476190476190477,0.40476190476190477,0.40476190476190477,0.40476190476190477,0.40476190476190477,0.40476190476190477,0.40476190476190477,0.40476190476190477,0.40476190476190477,0.40476190476190477,0.40476190476190477,0.40476190476190477,0.40476190476190477,0.40476190476190477,0.40476190476190477,0.40476190476190477,0.40476190476190477,0.40476190476190477,0.40476190476190477,0.40476190476190477,0.40476190476190477,0.40476190476190477,0.40476190476190477,0.40476190476190477,0.40476190476190477,0.40476190476190477,0.40476190476190477,0.40476190476190477,0.40476190476190477,0.40476190476190477,0.40476190476190477,0.40476190476190477,0.40476190476190477,0.40476190476190477,0.40476190476190477,0.40476190476190477,0.40476190476190477,0.40476190476190477,0.40476190476190477,0.40476190476190477,0.40476190476190477,0.40476190476190477,0.40476190476190477,0.40476190476190477,0.40476190476190477,0.40476190476190477,0.40476190476190477,0.40476190476190477,0.40476190476190477,0.40476190476190477,0.40476190476190477,0.40476190476190477,0.40476190476190477,0.40476190476190477,0.40476190476190477,0.40476190476190477,0.40476190476190477,0.40476190476190477,0.40476190476190477,0.40476190476190477,0.40476190476190477,0.3945578231292517,0.38095238095238093,0.37755102040816324,0.3741496598639456,0.3707482993197279,0.3673469387755102,0.36394557823129253,0.36394557823129253,0.36394557823129253,0.36054421768707484,0.36054421768707484,0.35374149659863946,0.3469387755102041,0.336734693877551,0.3197278911564626,0.29931972789115646,0.2891156462585034,0.2789115646258503,0.272108843537415,0.2653061224489796,0.2585034013605442,0.2585034013605442,0.2585034013605442,0.2585034013605442,0.2585034013605442,0.2653061224489796,0.2687074829931973,0.272108843537415,0.282312925170068,0.2857142857142857,0.2891156462585034,0.2925170068027211,0.2925170068027211,0.2925170068027211,0.2925170068027211,0.2891156462585034,0.2857142857142857,0.2789115646258503,0.2687074829931973,0.25510204081632654,0.24489795918367346,0.22448979591836735,0.21428571428571427,0.20068027210884354,0.19727891156462585,0.19047619047619047,0.1836734693877551,0.1836734693877551,0.1836734693877551,0.19047619047619047,0.2108843537414966,0.3163265306122449,0.3877551020408163,0.46938775510204084,0.5578231292517006,0.5918367346938775,0.6156462585034014,0.6190476190476191,0.6258503401360545,0.6326530612244898,0.6326530612244898,0.6326530612244898,0.6360544217687075,0.6360544217687075,0.6360544217687075,0.6360544217687075,0.6292517006802721,0.6156462585034014,0.5748299319727891,0.5272108843537415,0.4931972789115646,0.4523809523809524,0.40816326530612246,0.3979591836734694,0.37755102040816324,0.3673469387755102,0.35374149659863946,0.3469387755102041,0.3333333333333333,0.3197278911564626,0.30612244897959184,0.2925170068027211,0.282312925170068,0.272108843537415,0.2585034013605442,0.24489795918367346,0.23129251700680273,0.2108843537414966,0.20408163265306123,0.19047619047619047,0.1836734693877551,0.18027210884353742,0.17006802721088435,0.17006802721088435,0.16666666666666666,0.16326530612244897,0.1598639455782313,0.1564625850340136,0.15306122448979592,0.14965986394557823,0.14965986394557823,0.14965986394557823,0.14965986394557823,0.14965986394557823,0.14965986394557823,0.14965986394557823,0.14965986394557823,0.14965986394557823,0.14965986394557823,0.14965986394557823,0.14965986394557823,0.14965986394557823,0.14965986394557823,0.14965986394557823,0.14965986394557823,0.14965986394557823,0.14965986394557823,0.14965986394557823,0.14965986394557823,0.14965986394557823,0.14965986394557823,0.14965986394557823,0.14965986394557823,0.14965986394557823,0.14965986394557823,0.14965986394557823,0.14965986394557823,0.14965986394557823,0.14965986394557823,0.14965986394557823,0.14965986394557823,0.14965986394557823,0.14965986394557823,0.14965986394557823,0.14965986394557823,0.14965986394557823,0.14965986394557823,0.14965986394557823,0.14965986394557823,0.14965986394557823,0.14965986394557823,0.14965986394557823,0.14965986394557823,0.14965986394557823,0.14965986394557823,0.14965986394557823,0.14965986394557823,0.14965986394557823,0.14965986394557823,0.14965986394557823,0.14965986394557823,0.14965986394557823,0.14965986394557823,0.14965986394557823,0.14965986394557823,0.14965986394557823,0.14965986394557823,0.14965986394557823,0.14965986394557823,0.14965986394557823,0.14965986394557823,0.14965986394557823,0.14965986394557823,0.14965986394557823,0.14965986394557823,0.14965986394557823,0.14965986394557823,0.14965986394557823,0.14965986394557823,0.14965986394557823,0.14965986394557823,0.14965986394557823,0.14965986394557823,0.14965986394557823,0.14965986394557823,0.14965986394557823,0.14965986394557823,0.14965986394557823,0.14965986394557823,0.3231292517006803,0.43537414965986393,0.5374149659863946,0.6394557823129252,0.6904761904761905,0.7346938775510204,0.7482993197278912,0.7551020408163265,0.7619047619047619,0.7653061224489796,0.7687074829931972,0.7721088435374149,0.7755102040816326,0.7755102040816326,0.7755102040816326,0.7789115646258503,0.782312925170068,0.782312925170068,0.782312925170068,0.7891156462585034,0.7959183673469388,0.8163265306122449,0.8299319727891157,0.8639455782312925,0.8979591836734694,0.935374149659864,0.9523809523809523,0.9659863945578231,0.9863945578231292,0.9931972789115646,1,1.0204081632653061,1.030612244897959,1.054421768707483,1.0680272108843538,1.0850340136054422,1.1088435374149659,1.1224489795918366,1.129251700680272,1.1428571428571428,1.1462585034013606,1.1496598639455782,1.1564625850340136,1.1564625850340136,1.1598639455782314,1.163265306122449,1.163265306122449,1.163265306122449,1.163265306122449,1.163265306122449,1.163265306122449,1.163265306122449,1.163265306122449,1.163265306122449,1.163265306122449,1.163265306122449,1.163265306122449,1.163265306122449,1.163265306122449,1.163265306122449,1.163265306122449,1.163265306122449,1.163265306122449,1.163265306122449,1.163265306122449,1.163265306122449,1.163265306122449,1.163265306122449,1.163265306122449,1.163265306122449,1.163265306122449,1.163265306122449,1.163265306122449,1.163265306122449,1.163265306122449,1.163265306122449,1.163265306122449,1.163265306122449,1.163265306122449,1.163265306122449,1.163265306122449,1.163265306122449,1.163265306122449,1.163265306122449,1.163265306122449,1.163265306122449,1.163265306122449,1.163265306122449,1.163265306122449,1.163265306122449,1.163265306122449,1.163265306122449,1.163265306122449,1.163265306122449,1.163265306122449,1.163265306122449,1.163265306122449,1.163265306122449,1.163265306122449,1.163265306122449,1.163265306122449,1.163265306122449,1.163265306122449,1.163265306122449,1.163265306122449,1.163265306122449,1.163265306122449,1.163265306122449,1.163265306122449,1.163265306122449,1.163265306122449,1.163265306122449,1.163265306122449,1.163265306122449,1.163265306122449,1.163265306122449,1.163265306122449,0.9897959183673469,0.7585034013605442,0.608843537414966,0.48299319727891155,0.3673469387755102,0.30612244897959184,0.25170068027210885,0.24489795918367346,0.24149659863945577,0.23809523809523808,0.23809523809523808,0.23809523809523808,0.23809523809523808,0.24489795918367346,0.2653061224489796,0.2789115646258503,0.29591836734693877,0.32653061224489793,0.3401360544217687,0.3707482993197279,0.3843537414965986,0.3945578231292517,0.4013605442176871,0.40816326530612246,0.41496598639455784,0.4217687074829932,0.42857142857142855,0.43537414965986393,0.4421768707482993,0.4557823129251701,0.46938775510204084,0.48299319727891155,0.5102040816326531,0.5272108843537415,0.5578231292517006,0.5748299319727891,0.5884353741496599,0.608843537414966,0.6190476190476191,0.6360544217687075,0.6428571428571429,0.6530612244897959,0.6700680272108843,0.6802721088435374,0.6836734693877551,0.6938775510204082,0.7006802721088435,0.7074829931972789,0.7142857142857143,0.717687074829932,0.7210884353741497,0.7278911564625851,0.7380952380952381,0.7482993197278912,0.7585034013605442,0.782312925170068,0.8027210884353742,0.8231292517006803,0.8367346938775511,0.8435374149659864,0.8571428571428571,0.8571428571428571,0.8639455782312925,0.8639455782312925,0.8639455782312925,0.8639455782312925,0.8639455782312925,0.8639455782312925,0.8639455782312925,0.8639455782312925,0.8639455782312925,0.8639455782312925,0.8639455782312925,0.8639455782312925,0.8639455782312925,0.8639455782312925,0.8639455782312925,0.8639455782312925,0.8639455782312925,0.8639455782312925,0.8639455782312925,0.8639455782312925,0.8639455782312925,0.8639455782312925,0.8639455782312925,0.8639455782312925,0.8639455782312925,0.8639455782312925,0.8639455782312925,0.8639455782312925,0.8639455782312925,0.8639455782312925,0.8639455782312925,0.8639455782312925,0.8639455782312925,0.8639455782312925,0.8639455782312925,0.8639455782312925,0.8639455782312925,0.8639455782312925,0.8639455782312925,0.8639455782312925,0.8639455782312925,0.8639455782312925,0.8639455782312925,0.8639455782312925,0.8639455782312925,0.8639455782312925,0.8639455782312925,0.8639455782312925,0.8639455782312925,0.8639455782312925,0.8639455782312925,0.8639455782312925,0.8639455782312925,0.8639455782312925,0.8639455782312925,0.8639455782312925,0.8639455782312925,0.8639455782312925,0.8639455782312925,0.8639455782312925,0.8639455782312925,0.8639455782312925,0.8639455782312925,0.8639455782312925,0.8639455782312925,0.8639455782312925,0.8639455782312925,0.8639455782312925,0.8639455782312925,0.8639455782312925,0.8639455782312925,0.8639455782312925,0.8639455782312925,0.8639455782312925,0.8639455782312925,0.8639455782312925,0.8639455782312925,0.8639455782312925,0.8639455782312925,0.8639455782312925,0.8639455782312925,0.8639455782312925,0.8639455782312925,0.8639455782312925,0.8639455782312925,0.8639455782312925,0.8639455782312925,0.8639455782312925,0.8639455782312925,0.8639455782312925,0.8639455782312925,0.8639455782312925,0.8639455782312925,0.8639455782312925,0.8639455782312925,0.8639455782312925,0.8639455782312925,0.8639455782312925,0.8639455782312925,0.8639455782312925,0.8639455782312925,0.8639455782312925,0.8639455782312925,0.8639455782312925,0.8639455782312925,0.8639455782312925,0.8639455782312925,0.8639455782312925,0.8639455782312925,0.8639455782312925,0.8639455782312925,0.8639455782312925,0.8639455782312925,0.8639455782312925,0.8639455782312925,0.8639455782312925,0.8639455782312925,0.8639455782312925,0.8639455782312925,0.8469387755102041,0.782312925170068,0.7142857142857143,0.6700680272108843,0.6054421768707483,0.564625850340136,0.5170068027210885,0.4489795918367347,0.40816326530612246,0.3673469387755102,0.3197278911564626,0.29931972789115646,0.282312925170068,0.2619047619047619,0.24489795918367346,0.23129251700680273,0.22448979591836735,0.21428571428571427,0.20748299319727892,0.20408163265306123,0.19727891156462585,0.19727891156462585,0.19047619047619047,0.19047619047619047,0.19047619047619047,0.19047619047619047,0.19727891156462585,0.21768707482993196,0.2653061224489796,0.29931972789115646,0.3401360544217687,0.3707482993197279,0.3979591836734694,0.42857142857142855,0.4421768707482993,0.4557823129251701,0.46258503401360546,0.46598639455782315,0.47619047619047616,0.48299319727891155,0.48639455782312924,0.4897959183673469,0.4931972789115646,0.4965986394557823,0.5,0.5034013605442177,0.5068027210884354,0.5102040816326531,0.5136054421768708,0.5170068027210885,0.5238095238095238,0.5306122448979592,0.5374149659863946,0.5476190476190477,0.5510204081632653,0.5578231292517006,0.5578231292517006,0.5578231292517006,0.5578231292517006,0.5578231292517006,0.5578231292517006,0.5578231292517006,0.5578231292517006,0.5578231292517006,0.5578231292517006,0.5578231292517006,0.5578231292517006,0.5578231292517006,0.5578231292517006,0.5578231292517006,0.5578231292517006,0.5578231292517006,0.5578231292517006,0.5578231292517006,0.5578231292517006,0.5578231292517006,0.5578231292517006,0.5578231292517006,0.5578231292517006,0.5578231292517006,0.5578231292517006,0.5578231292517006,0.5578231292517006,0.5578231292517006,0.5578231292517006,0.5578231292517006,0.5578231292517006,0.5578231292517006,0.5578231292517006,0.5578231292517006,0.5578231292517006,0.5578231292517006,0.5578231292517006,0.5578231292517006,0.5578231292517006,0.5578231292517006,0.5578231292517006,0.5578231292517006,0.5578231292517006,0.5578231292517006,0.5578231292517006,0.5578231292517006,0.5578231292517006,0.5510204081632653,0.5170068027210885,0.4965986394557823,0.46938775510204084,0.4421768707482993,0.41836734693877553,0.3945578231292517,0.3741496598639456,0.36054421768707484,0.3401360544217687,0.3299319727891156,0.3197278911564626,0.30612244897959184,0.29931972789115646,0.2925170068027211,0.2891156462585034,0.2857142857142857,0.2925170068027211,0.30952380952380953,0.3945578231292517,0.45918367346938777,0.5374149659863946,0.564625850340136,0.5850340136054422,0.6054421768707483,0.6258503401360545,0.6360544217687075,0.6428571428571429,0.6496598639455783,0.6530612244897959,0.6598639455782312,0.6632653061224489,0.6700680272108843,0.673469387755102,0.6802721088435374,0.6870748299319728,0.6938775510204082,0.7040816326530612,0.7108843537414966,0.717687074829932,0.7244897959183674,0.7278911564625851,0.7380952380952381,0.7448979591836735,0.7482993197278912,0.7653061224489796,0.7755102040816326,0.7925170068027211,0.7993197278911565,0.8197278911564626,0.8401360544217688,0.8673469387755102,0.9183673469387755,0.9523809523809523,0.9761904761904762,1.010204081632653,1.0272108843537415,1.0476190476190477,1.0612244897959184,1.064625850340136,1.0714285714285714,1.0748299319727892,1.0816326530612246,1.0816326530612246,1.08843537414966,1.0918367346938775,1.0918367346938775,1.0952380952380953,1.098639455782313,1.1020408163265305,1.1088435374149659,1.1088435374149659,1.1122448979591837,1.1156462585034013,1.119047619047619,1.119047619047619,1.1224489795918366,1.1224489795918366,1.1224489795918366,1.1224489795918366,1.1224489795918366,1.1224489795918366,1.1224489795918366,1.1224489795918366,1.1224489795918366,1.1224489795918366,1.1224489795918366,1.1224489795918366,1.1224489795918366,1.1224489795918366,1.1224489795918366,1.1224489795918366,1.1224489795918366,1.1224489795918366,1.1224489795918366,1.1224489795918366,1.1224489795918366,1.1224489795918366,1.1224489795918366,1.1224489795918366,1.1224489795918366,1.1224489795918366,1.1224489795918366,1.1224489795918366,1.1224489795918366,1.1224489795918366,1.1224489795918366,1.1224489795918366,1.1224489795918366,1.1224489795918366,1.1224489795918366,1.1224489795918366,1.1224489795918366,1.1224489795918366,1.1224489795918366,1.1224489795918366,1.1224489795918366,1.1224489795918366,1.1224489795918366,1.1224489795918366,1.1224489795918366,1.1224489795918366,1.1224489795918366,1.1224489795918366,1.1224489795918366,1.1224489795918366,1.1224489795918366,1.1224489795918366,1.1224489795918366,1.1224489795918366,1.1224489795918366,1.1224489795918366,1.1224489795918366,1.1224489795918366,1.1224489795918366,1.1224489795918366,1.1224489795918366,1.1224489795918366,1.1224489795918366,1.1224489795918366,1.1224489795918366,1.1224489795918366,1.1224489795918366,1.1224489795918366,1.1224489795918366,1.1224489795918366,1.1224489795918366,1.1224489795918366,1.1224489795918366,1.1224489795918366,1.1224489795918366,1.1224489795918366,1.1224489795918366,1.1224489795918366,1.1224489795918366,1.1224489795918366,1.1224489795918366,1.1224489795918366,1.1224489795918366,1.1224489795918366,1.1224489795918366,1.1224489795918366,1.1224489795918366,1.1224489795918366,1.1224489795918366,1.1224489795918366,1.1224489795918366,1.1224489795918366,1.1224489795918366,1.1224489795918366,1.1224489795918366,1.1224489795918366,1.1224489795918366,1.1224489795918366,1.1224489795918366,1.1224489795918366,1.1224489795918366,1.1224489795918366,1.1224489795918366,1.1224489795918366,1.1224489795918366,1.1224489795918366,1.1224489795918366,1.1224489795918366,1.1224489795918366,1.1224489795918366,1.1224489795918366,1.1224489795918366,1.1224489795918366,1.1224489795918366,1.1224489795918366,1.1224489795918366,1.1224489795918366,1.1224489795918366,1.1224489795918366,1.1224489795918366,1.1224489795918366,1.1224489795918366,1.1224489795918366,1.1224489795918366,1.1224489795918366,1.1224489795918366,1.1224489795918366,1.1224489795918366,1.1224489795918366,1.1224489795918366,1.1224489795918366,1.1224489795918366,1.1224489795918366,1.1224489795918366,1.1224489795918366,1.1224489795918366,1.1224489795918366,1.1224489795918366,1.1224489795918366,1.1224489795918366,1.1224489795918366,1.1224489795918366,1.1224489795918366,1.1224489795918366,1.1224489795918366,1.1224489795918366,1.1224489795918366,1.1224489795918366,1.1224489795918366,1.1224489795918366,1.1224489795918366,1.1224489795918366,1.1224489795918366,1.1224489795918366,1.1224489795918366,1.1224489795918366,1.1224489795918366,1.1224489795918366,1.1224489795918366,1.1224489795918366,1.1224489795918366,1.1224489795918366,1.1224489795918366,1.1224489795918366,1.1224489795918366,1.1224489795918366,1.1224489795918366,1.1224489795918366,1.1224489795918366,1.1224489795918366,1.1224489795918366,1.1224489795918366,1.1224489795918366,1.1224489795918366,1.1224489795918366,1.1224489795918366,1.1224489795918366,1.1224489795918366,1.1224489795918366,1.1224489795918366,1.1224489795918366,1.1224489795918366,1.1224489795918366,1.1224489795918366,1.1224489795918366,1.1224489795918366,1.1224489795918366,1.1224489795918366,1.1224489795918366,1.1224489795918366,1.1224489795918366,1.1224489795918366,1.1224489795918366,1.1224489795918366,1.1224489795918366,1.1224489795918366,1.1224489795918366,1.1224489795918366,1.1224489795918366,1.1224489795918366,1.1224489795918366,1.1224489795918366,1.1224489795918366,1.1224489795918366,1.1224489795918366,1.1224489795918366,1.1224489795918366,1.1224489795918366,1.1224489795918366,1.1224489795918366,1.1224489795918366,1.1224489795918366,1.1224489795918366,1.1224489795918366,1.1224489795918366,1.1224489795918366,1.1224489795918366,1.1224489795918366,1.1224489795918366,1.1224489795918366,1.1224489795918366,1.1224489795918366,1.1224489795918366,1.1224489795918366,1.1224489795918366,1.1224489795918366,1.1224489795918366,1.1224489795918366,1.1224489795918366,1.1224489795918366,1.1224489795918366,1.1224489795918366,1.1224489795918366,1.1224489795918366,1.1224489795918366,1.1224489795918366,1.1224489795918366,1.1224489795918366,1.1224489795918366,1.1224489795918366,1.1224489795918366,1.1224489795918366,1.1224489795918366,1.1224489795918366,1.1224489795918366,1.1224489795918366,1.1224489795918366,1.1224489795918366,1.1224489795918366,1.1224489795918366,1.1224489795918366,1.1224489795918366,1.1224489795918366,1.1224489795918366,1.1224489795918366,1.1224489795918366,1.1224489795918366,1.1224489795918366,1.1224489795918366,1.1224489795918366,1.1224489795918366,1.1224489795918366,1.1224489795918366,1.1224489795918366,1.1224489795918366,1.1224489795918366,1.1224489795918366,1.1224489795918366,1.1224489795918366,1.1224489795918366,1.1224489795918366,1.1224489795918366,1.1224489795918366,1.1224489795918366,1.1224489795918366,1.1224489795918366,1.1224489795918366,1.1224489795918366,1.1224489795918366,1.1224489795918366,1.1224489795918366,1.1224489795918366,1.1224489795918366,1.1224489795918366,1.1224489795918366,1.1224489795918366,1.1224489795918366,1.1224489795918366,1.1224489795918366,1.1224489795918366,1.1224489795918366,1.1224489795918366,1.1224489795918366,1.1224489795918366,1.1224489795918366,1.1224489795918366,1.1224489795918366,1.1224489795918366,1.1224489795918366,1.1224489795918366,1.1224489795918366,1.1224489795918366,1.1224489795918366,1.1224489795918366,1.1224489795918366,1.1224489795918366,1.1224489795918366,1.1224489795918366,1.1224489795918366,1.1224489795918366,1.1224489795918366,1.1224489795918366,1.1224489795918366,1.1224489795918366,1.1224489795918366,1.1224489795918366,1.1224489795918366,1.1224489795918366,1.1224489795918366,1.1224489795918366,1.1224489795918366,1.1224489795918366,1.1224489795918366,1.1224489795918366,1.1224489795918366,1.0748299319727892,1.0272108843537415,0.9251700680272109,0.8571428571428571,0.7959183673469388,0.7074829931972789,0.6666666666666666,0.5918367346938775,0.5408163265306123,0.5068027210884354,0.47959183673469385,0.46938775510204084,0.4557823129251701,0.445578231292517,0.4387755102040816,0.43197278911564624,0.42857142857142855,0.4217687074829932,0.4217687074829932,0.41836734693877553,0.41496598639455784,0.41496598639455784,0.41156462585034015,0.41156462585034015,0.41496598639455784,0.42517006802721086,0.4387755102040816,0.4489795918367347,0.47278911564625853,0.48639455782312924,0.5,0.5068027210884354,0.5136054421768708,0.5170068027210885,0.5238095238095238,0.5306122448979592,0.5306122448979592,0.5374149659863946,0.5408163265306123,0.54421768707483,0.5476190476190477,0.5578231292517006,0.5612244897959183,0.564625850340136,0.564625850340136,0.564625850340136,0.564625850340136,0.564625850340136,0.564625850340136,0.564625850340136,0.564625850340136,0.564625850340136,0.564625850340136,0.564625850340136,0.564625850340136,0.564625850340136,0.564625850340136,0.564625850340136,0.564625850340136,0.564625850340136,0.564625850340136,0.564625850340136,0.564625850340136,0.564625850340136,0.564625850340136,0.564625850340136,0.564625850340136,0.564625850340136,0.564625850340136,0.564625850340136,0.564625850340136,0.564625850340136,0.564625850340136,0.564625850340136,0.564625850340136,0.564625850340136,0.564625850340136,0.564625850340136,0.564625850340136,0.564625850340136,0.564625850340136,0.564625850340136,0.564625850340136,0.564625850340136,0.564625850340136,0.564625850340136,0.564625850340136,0.564625850340136,0.564625850340136,0.564625850340136,0.564625850340136,0.564625850340136,0.564625850340136,0.564625850340136,0.564625850340136,0.564625850340136,0.564625850340136,0.564625850340136,0.564625850340136,0.564625850340136,0.564625850340136,0.564625850340136,0.564625850340136,0.564625850340136,0.564625850340136,0.564625850340136,0.564625850340136,0.564625850340136,0.564625850340136,0.564625850340136,0.564625850340136,0.564625850340136,0.564625850340136,0.564625850340136,0.564625850340136,0.564625850340136,0.564625850340136,0.564625850340136,0.564625850340136,0.564625850340136,0.564625850340136,0.564625850340136,0.564625850340136,0.564625850340136,0.564625850340136,0.564625850340136,0.564625850340136,0.564625850340136,0.564625850340136,0.564625850340136,0.564625850340136,0.564625850340136,0.564625850340136,0.564625850340136,0.564625850340136,0.564625850340136,0.564625850340136,0.564625850340136,0.564625850340136,0.564625850340136,0.564625850340136,0.564625850340136,0.564625850340136,0.564625850340136,0.564625850340136,0.564625850340136,0.564625850340136,0.564625850340136,0.564625850340136,0.564625850340136,0.564625850340136,0.564625850340136,0.564625850340136,0.564625850340136,0.564625850340136,0.564625850340136,0.564625850340136,0.564625850340136,0.564625850340136,0.564625850340136,0.564625850340136,0.5340136054421769,0.5,0.43537414965986393,0.38095238095238093,0.30952380952380953,0.272108843537415,0.23469387755102042,0.20748299319727892,0.17006802721088435,0.14625850340136054,0.1292517006802721,0.12244897959183673,0.12244897959183673,0.11564625850340136,0.11224489795918367,0.10884353741496598,0.10884353741496598,0.10884353741496598,0.1054421768707483,0.1054421768707483,0.1054421768707483,0.1054421768707483,0.1054421768707483,0.1054421768707483,0.1054421768707483,0.1054421768707483,0.1054421768707483,0.1054421768707483,0.1054421768707483,0.1054421768707483,0.1054421768707483,0.1054421768707483,0.1054421768707483,0.1054421768707483,0.1054421768707483,0.1054421768707483,0.1054421768707483,0.1054421768707483,0.1054421768707483,0.1054421768707483,0.1054421768707483,0.1054421768707483,0.1054421768707483,0.11564625850340136,0.13945578231292516,0.16666666666666666,0.19387755102040816,0.2108843537414966,0.22448979591836735,0.23129251700680273,0.23809523809523808,0.24489795918367346,0.24829931972789115,0.25510204081632654,0.2585034013605442,0.2653061224489796,0.2687074829931973,0.272108843537415,0.2789115646258503,0.2789115646258503,0.2789115646258503,0.2789115646258503,0.2789115646258503,0.2789115646258503,0.2789115646258503,0.2789115646258503,0.2789115646258503,0.2789115646258503,0.2789115646258503,0.2789115646258503,0.2789115646258503,0.2789115646258503,0.2789115646258503,0.2789115646258503,0.2789115646258503,0.2789115646258503,0.2789115646258503,0.2789115646258503,0.2789115646258503,0.2789115646258503,0.2789115646258503,0.2789115646258503,0.2789115646258503,0.2789115646258503,0.2789115646258503,0.2789115646258503,0.2789115646258503,0.2789115646258503,0.2789115646258503,0.2789115646258503,0.2789115646258503,0.2789115646258503,0.2789115646258503,0.2789115646258503,0.2789115646258503,0.2789115646258503,0.2789115646258503,0.2789115646258503,0.2789115646258503,0.2789115646258503,0.2789115646258503,0.2789115646258503,0.2789115646258503,0.2789115646258503,0.2789115646258503,0.2789115646258503,0.2789115646258503,0.2789115646258503,0.2789115646258503,0.2789115646258503,0.2789115646258503,0.2789115646258503,0.2789115646258503,0.2789115646258503,0.2789115646258503,0.2789115646258503,0.2789115646258503,0.2789115646258503,0.2789115646258503,0.2789115646258503,0.2789115646258503,0.2789115646258503,0.2789115646258503,0.2789115646258503,0.2789115646258503,0.2789115646258503,0.2789115646258503,0.2789115646258503,0.2789115646258503,0.2789115646258503,0.2789115646258503,0.2789115646258503,0.2789115646258503,0.2789115646258503,0.2789115646258503,0.2789115646258503,0.2789115646258503,0.2789115646258503,0.2789115646258503,0.2789115646258503,0.2789115646258503,0.2789115646258503,0.2789115646258503,0.2789115646258503,0.2789115646258503,0.2789115646258503,0.2789115646258503,0.2789115646258503,0.2789115646258503,0.2789115646258503,0.2789115646258503,0.2789115646258503,0.2789115646258503,0.2857142857142857,0.2925170068027211,0.29591836734693877,0.29931972789115646,0.30612244897959184,0.3129251700680272,0.3231292517006803,0.3333333333333333,0.3401360544217687,0.35374149659863946,0.36394557823129253,0.3707482993197279,0.37755102040816324,0.3877551020408163,0.3945578231292517,0.3979591836734694,0.4013605442176871,0.40476190476190477,0.40816326530612246,0.40816326530612246,0.41156462585034015,0.41156462585034015,0.41156462585034015,0.41156462585034015,0.41156462585034015,0.41156462585034015,0.41156462585034015,0.41156462585034015,0.41156462585034015,0.41156462585034015,0.41156462585034015,0.41156462585034015,0.41156462585034015,0.41156462585034015,0.41156462585034015,0.41156462585034015,0.41156462585034015,0.41156462585034015,0.41156462585034015,0.41156462585034015,0.41156462585034015,0.41156462585034015,0.41156462585034015,0.41156462585034015,0.41156462585034015,0.41156462585034015,0.41156462585034015,0.41156462585034015,0.41156462585034015,0.41156462585034015,0.41156462585034015,0.41156462585034015,0.41156462585034015,0.41156462585034015,0.41156462585034015,0.41156462585034015,0.41156462585034015,0.41156462585034015,0.41156462585034015,0.41156462585034015,0.41156462585034015,0.41156462585034015,0.41156462585034015,0.41156462585034015,0.41156462585034015,0.41156462585034015,0.41156462585034015,0.41156462585034015,0.41156462585034015,0.41156462585034015,0.41156462585034015,0.41156462585034015,0.41156462585034015,0.41156462585034015,0.41156462585034015,0.41156462585034015,0.41156462585034015,0.41156462585034015,0.41156462585034015,0.41156462585034015,0.41156462585034015,0.41156462585034015,0.41156462585034015,0.41156462585034015,0.41156462585034015,0.41156462585034015,0.41156462585034015,0.41156462585034015,0.41156462585034015,0.41156462585034015,0.41156462585034015,0.41156462585034015,0.41156462585034015,0.41156462585034015,0.41156462585034015,0.41156462585034015,0.41156462585034015,0.41156462585034015,0.41496598639455784,0.43197278911564624,0.4557823129251701,0.46258503401360546,0.46938775510204084,0.48299319727891155,0.4897959183673469,0.4965986394557823,0.5,0.5068027210884354,0.5136054421768708,0.5170068027210885,0.5204081632653061,0.5306122448979592,0.5340136054421769,0.5408163265306123,0.54421768707483,0.5476190476190477,0.5544217687074829,0.5578231292517006,0.5612244897959183,0.564625850340136,0.5680272108843537,0.5680272108843537,0.5680272108843537,0.5714285714285714,0.5714285714285714,0.5714285714285714,0.5714285714285714,0.5714285714285714,0.5714285714285714,0.5714285714285714,0.5714285714285714,0.5714285714285714,0.5714285714285714,0.5714285714285714,0.5714285714285714,0.5714285714285714,0.5714285714285714,0.5714285714285714,0.5714285714285714,0.5714285714285714,0.5714285714285714,0.5714285714285714,0.5714285714285714,0.5714285714285714,0.5714285714285714,0.5714285714285714,0.5714285714285714,0.5714285714285714,0.5714285714285714,0.5714285714285714,0.5714285714285714,0.5714285714285714,0.5714285714285714,0.5714285714285714,0.5714285714285714,0.5714285714285714,0.5714285714285714,0.5714285714285714,0.5714285714285714,0.5714285714285714,0.5714285714285714,0.5714285714285714,0.5714285714285714,0.5714285714285714,0.5714285714285714,0.5714285714285714,0.5714285714285714,0.5714285714285714,0.5714285714285714,0.5714285714285714,0.5714285714285714,0.5714285714285714,0.5714285714285714,0.5714285714285714,0.5714285714285714,0.5714285714285714,0.5714285714285714,0.5714285714285714,0.5714285714285714,0.5714285714285714,0.5714285714285714,0.5714285714285714,0.5714285714285714,0.5714285714285714,0.5714285714285714,0.5714285714285714,0.5714285714285714,0.5714285714285714,0.5714285714285714,0.5714285714285714,0.5714285714285714,0.5714285714285714,0.5714285714285714,0.5714285714285714,0.5714285714285714,0.5714285714285714,0.5714285714285714,0.5714285714285714,0.5714285714285714,0.5714285714285714,0.5714285714285714,0.5714285714285714,0.5714285714285714,0.5714285714285714,0.5714285714285714,0.5714285714285714,0.5714285714285714,0.5714285714285714,0.5714285714285714,0.5714285714285714,0.5714285714285714,0.5714285714285714,0.5714285714285714,0.5714285714285714,0.5714285714285714,0.5714285714285714,0.5714285714285714,0.5714285714285714,0.5714285714285714,0.5714285714285714,0.5714285714285714,0.5714285714285714,0.5714285714285714,0.5714285714285714,0.5714285714285714,0.5714285714285714,0.5714285714285714,0.5714285714285714,0.5714285714285714,0.5714285714285714,0.5714285714285714,0.5714285714285714,0.5714285714285714,0.5714285714285714,0.5714285714285714,0.5714285714285714,0.5714285714285714,0.5714285714285714,0.5714285714285714,0.5714285714285714,0.5714285714285714,0.5714285714285714,0.5714285714285714,0.5714285714285714,0.5714285714285714,0.5714285714285714,0.5578231292517006,0.46938775510204084,0.40476190476190477,0.30612244897959184,0.25510204081632654,0.19727891156462585,0.17346938775510204,0.14965986394557823,0.1360544217687075,0.12244897959183673,0.11564625850340136,0.10884353741496598,0.10204081632653061,0.09183673469387756,0.08843537414965986,0.08503401360544217,0.0782312925170068,0.07482993197278912,0.06802721088435375,0.06462585034013606,0.061224489795918366,0.05782312925170068,0.05442176870748299,0.05442176870748299,0.05102040816326531,0.05102040816326531,0.05102040816326531,0.05102040816326531,0.05102040816326531,0.05102040816326531,0.05102040816326531,0.05102040816326531,0.05102040816326531,0.05102040816326531,0.05102040816326531,0.05102040816326531,0.05102040816326531,0.05102040816326531,0.05102040816326531,0.05102040816326531,0.05102040816326531,0.05102040816326531,0.05102040816326531,0.05102040816326531,0.05102040816326531,0.05102040816326531,0.05102040816326531,0.05102040816326531,0.05102040816326531,0.05102040816326531,0.05102040816326531,0.05102040816326531,0.05102040816326531,0.05102040816326531,0.05102040816326531,0.05102040816326531,0.05102040816326531,0.05102040816326531,0.05102040816326531,0.05102040816326531,0.05102040816326531,0.05102040816326531,0.05102040816326531,0.05102040816326531,0.05102040816326531,0.05102040816326531,0.05102040816326531,0.05102040816326531,0.05102040816326531,0.05102040816326531,0.05102040816326531,0.05102040816326531,0.05102040816326531,0.05102040816326531,0.05102040816326531,0.05102040816326531,0.05102040816326531,0.05102040816326531,0.05102040816326531,0.05102040816326531,0.05102040816326531,0.05102040816326531,0.05102040816326531,0.05102040816326531,0.05102040816326531,0.05102040816326531,0.05102040816326531,0.05102040816326531,0.05102040816326531,0.05102040816326531,0.05102040816326531,0.05102040816326531,0.05102040816326531,0.05102040816326531,0.05102040816326531,0.13945578231292516,0.32653061224489793,0.43197278911564624,0.5578231292517006,0.6224489795918368,0.6938775510204082,0.7210884353741497,0.7278911564625851,0.7346938775510204,0.7346938775510204,0.7380952380952381,0.7380952380952381,0.7380952380952381,0.7380952380952381,0.7380952380952381,0.7346938775510204,0.7244897959183674,0.6972789115646258,0.54421768707483,0.46258503401360546,0.3707482993197279,0.32653061224489793,0.2789115646258503,0.24149659863945577,0.23129251700680273,0.22448979591836735,0.21768707482993196,0.21428571428571427,0.2108843537414966,0.20748299319727892,0.20748299319727892,0.20408163265306123,0.20408163265306123,0.20068027210884354,0.20068027210884354,0.19727891156462585,0.19727891156462585,0.19727891156462585,0.19727891156462585,0.19727891156462585,0.19727891156462585,0.19727891156462585,0.19727891156462585,0.19727891156462585,0.19727891156462585,0.20068027210884354,0.20068027210884354,0.20408163265306123,0.20408163265306123,0.20408163265306123,0.20748299319727892,0.2108843537414966,0.2108843537414966,0.2108843537414966,0.2108843537414966,0.2108843537414966,0.2108843537414966,0.2108843537414966,0.2108843537414966,0.2108843537414966,0.2108843537414966,0.2108843537414966,0.2108843537414966,0.2108843537414966,0.2108843537414966,0.2108843537414966,0.2108843537414966,0.2108843537414966,0.2108843537414966,0.2108843537414966,0.2108843537414966,0.2108843537414966,0.2108843537414966,0.2108843537414966,0.2108843537414966,0.21768707482993196,0.23129251700680273,0.24489795918367346,0.25510204081632654,0.272108843537415,0.282312925170068,0.2925170068027211,0.30612244897959184,0.3197278911564626,0.3333333333333333,0.36054421768707484,0.38095238095238093,0.4217687074829932,0.4489795918367347,0.47619047619047616,0.5,0.5102040816326531,0.5102040816326531,0.5102040816326531,0.5102040816326531,0.5102040816326531,0.5102040816326531,0.5102040816326531,0.5102040816326531,0.5102040816326531,0.5102040816326531,0.5102040816326531,0.5102040816326531,0.5102040816326531,0.5102040816326531,0.5102040816326531,0.5102040816326531,0.5102040816326531,0.5102040816326531,0.5102040816326531,0.5102040816326531,0.5102040816326531,0.5102040816326531,0.5102040816326531,0.5102040816326531,0.5102040816326531,0.5102040816326531,0.5102040816326531,0.5102040816326531,0.5102040816326531,0.5102040816326531,0.5102040816326531,0.5102040816326531,0.5102040816326531,0.5102040816326531,0.5102040816326531,0.5102040816326531,0.5102040816326531,0.5102040816326531,0.5102040816326531,0.5102040816326531,0.5102040816326531,0.5102040816326531,0.5102040816326531,0.5102040816326531,0.5102040816326531,0.5102040816326531,0.5102040816326531,0.5102040816326531,0.5102040816326531,0.5102040816326531,0.5102040816326531,0.5102040816326531,0.5102040816326531,0.5102040816326531,0.5102040816326531,0.5102040816326531,0.5102040816326531,0.5102040816326531,0.5102040816326531,0.5102040816326531,0.5102040816326531,0.5102040816326531,0.5102040816326531,0.5102040816326531,0.5102040816326531,0.5102040816326531,0.5102040816326531,0.5102040816326531,0.5102040816326531,0.5102040816326531,0.5102040816326531,0.5102040816326531,0.5102040816326531,0.5102040816326531,0.5102040816326531,0.5102040816326531,0.5102040816326531,0.5102040816326531,0.5102040816326531,0.5102040816326531,0.5102040816326531,0.5102040816326531,0.5102040816326531,0.5102040816326531,0.5102040816326531,0.5102040816326531,0.5102040816326531,0.5102040816326531,0.5102040816326531,0.5102040816326531,0.5102040816326531,0.5102040816326531,0.5102040816326531,0.5102040816326531,0.5102040816326531,0.5102040816326531,0.5102040816326531,0.5102040816326531,0.5102040816326531,0.5102040816326531,0.5102040816326531,0.5102040816326531,0.5102040816326531,0.5102040816326531,0.5102040816326531,0.5102040816326531,0.5102040816326531,0.5102040816326531,0.5102040816326531,0.5102040816326531,0.5102040816326531,0.5102040816326531,0.5102040816326531,0.5102040816326531,0.5102040816326531,0.5102040816326531,0.5102040816326531,0.5102040816326531,0.5102040816326531,0.5102040816326531,0.5102040816326531,0.5102040816326531,0.5102040816326531,0.5102040816326531,0.5102040816326531,0.5102040816326531,0.5102040816326531,0.5102040816326531,0.5102040816326531,0.5102040816326531,0.5102040816326531,0.5102040816326531,0.5102040816326531,0.5102040816326531,0.5102040816326531,0.5102040816326531,0.5102040816326531,0.5102040816326531,0.5102040816326531,0.5102040816326531,0.5102040816326531,0.5102040816326531,0.5102040816326531,0.5102040816326531,0.5102040816326531,0.5102040816326531,0.5102040816326531,0.5102040816326531,0.5102040816326531,0.5102040816326531,0.5102040816326531,0.5102040816326531,0.5102040816326531,0.5102040816326531,0.5102040816326531,0.5102040816326531,0.5102040816326531,0.5102040816326531,0.5102040816326531,0.5102040816326531,0.5102040816326531,0.5102040816326531,0.5102040816326531,0.5102040816326531,0.5102040816326531,0.5102040816326531,0.5102040816326531,0.5102040816326531,0.5102040816326531,0.5102040816326531,0.5102040816326531,0.5102040816326531,0.5102040816326531,0.5102040816326531,0.5102040816326531,0.5102040816326531,0.5102040816326531,0.5102040816326531,0.5102040816326531,0.5102040816326531,0.5102040816326531,0.5102040816326531,0.5102040816326531,0.5102040816326531,0.5102040816326531,0.5102040816326531,0.5102040816326531,0.5102040816326531,0.5102040816326531,0.5102040816326531,0.5102040816326531,0.5102040816326531,0.5102040816326531,0.5102040816326531,0.5102040816326531,0.5102040816326531,0.5102040816326531,0.5102040816326531,0.5102040816326531,0.5102040816326531,0.5102040816326531,0.5102040816326531,0.5102040816326531,0.5102040816326531,0.5102040816326531,0.5102040816326531,0.5102040816326531,0.5102040816326531,0.5102040816326531,0.5102040816326531,0.5102040816326531,0.5102040816326531,0.5102040816326531,0.5102040816326531,0.5102040816326531,0.5102040816326531,0.5102040816326531,0.5102040816326531,0.5102040816326531,0.5102040816326531,0.5102040816326531,0.5102040816326531,0.5102040816326531,0.5102040816326531,0.5102040816326531,0.5102040816326531,0.5102040816326531,0.5102040816326531,0.5102040816326531,0.5102040816326531,0.5102040816326531,0.5102040816326531,0.5102040816326531,0.5102040816326531,0.5102040816326531,0.5102040816326531,0.5102040816326531,0.5102040816326531,0.5102040816326531,0.5102040816326531,0.5102040816326531,0.5102040816326531,0.5102040816326531,0.5102040816326531,0.5102040816326531,0.5102040816326531,0.5102040816326531,0.5102040816326531,0.5102040816326531,0.5102040816326531,0.5102040816326531,0.5102040816326531,0.5102040816326531,0.5102040816326531,0.5102040816326531,0.5102040816326531,0.5102040816326531,0.5102040816326531,0.5102040816326531,0.5102040816326531,0.5102040816326531,0.5102040816326531,0.5102040816326531,0.5102040816326531,0.5102040816326531,0.5102040816326531,0.5102040816326531,0.5102040816326531,0.5102040816326531,0.5102040816326531,0.5102040816326531,0.5102040816326531,0.5102040816326531,0.5102040816326531,0.5102040816326531,0.5102040816326531,0.5102040816326531,0.5102040816326531,0.5102040816326531,0.5102040816326531,0.5102040816326531,0.5102040816326531,0.5102040816326531,0.5102040816326531,0.5102040816326531,0.5102040816326531,0.5102040816326531,0.5102040816326531,0.5102040816326531,0.5102040816326531,0.5102040816326531,0.5102040816326531,0.5102040816326531,0.5102040816326531,0.5102040816326531,0.5102040816326531,0.5102040816326531,0.5102040816326531,0.5102040816326531,0.5102040816326531,0.5102040816326531,0.5102040816326531,0.5102040816326531,0.5102040816326531,0.5102040816326531,0.5102040816326531,0.5102040816326531,0.5102040816326531,0.5102040816326531,0.5102040816326531,0.5102040816326531,0.5102040816326531,0.5102040816326531,0.5102040816326531,0.5102040816326531,0.5102040816326531,0.5102040816326531,0.5102040816326531,0.5102040816326531,0.5102040816326531,0.5102040816326531,0.5102040816326531,0.5102040816326531,0.5102040816326531,0.5102040816326531,0.5102040816326531,0.5102040816326531,0.5102040816326531,0.5102040816326531,0.5102040816326531,0.5102040816326531,0.5102040816326531,0.5102040816326531,0.5102040816326531,0.5102040816326531,0.5102040816326531,0.5102040816326531,0.5102040816326531,0.5102040816326531,0.5102040816326531,0.5102040816326531,0.5102040816326531,0.5102040816326531,0.5102040816326531,0.5102040816326531,0.5102040816326531,0.5102040816326531,0.5102040816326531,0.5102040816326531,0.5102040816326531,0.5102040816326531,0.5102040816326531,0.5102040816326531,0.5102040816326531,0.5102040816326531,0.5102040816326531,0.5102040816326531,0.5102040816326531,0.5102040816326531,0.5102040816326531,0.5102040816326531,0.5102040816326531,0.5102040816326531,0.5102040816326531,0.5102040816326531,0.5102040816326531,0.5272108843537415,0.5510204081632653,0.5850340136054422,0.5952380952380952,0.608843537414966,0.6122448979591837,0.6190476190476191,0.6292517006802721,0.6326530612244898,0.6326530612244898,0.6394557823129252,0.6428571428571429,0.6428571428571429,0.6462585034013606,0.6462585034013606,0.6496598639455783,0.6496598639455783,0.6530612244897959,0.6564625850340136,0.6598639455782312,0.6632653061224489,0.6666666666666666,0.6700680272108843,0.673469387755102,0.6802721088435374,0.6870748299319728,0.6938775510204082,0.7040816326530612,0.7210884353741497,0.7278911564625851,0.7414965986394558,0.7482993197278912,0.7551020408163265,0.7619047619047619,0.7687074829931972,0.7721088435374149,0.7755102040816326,0.7789115646258503,0.782312925170068,0.782312925170068,0.782312925170068,0.7857142857142857,0.7857142857142857,0.7891156462585034,0.7891156462585034,0.7891156462585034,0.7891156462585034,0.7891156462585034,0.7925170068027211,0.7925170068027211,0.7959183673469388,0.7959183673469388,0.8027210884353742,0.8061224489795918,0.8095238095238095,0.8095238095238095,0.8095238095238095,0.8129251700680272,0.8163265306122449,0.8163265306122449,0.8231292517006803,0.8231292517006803,0.826530612244898,0.8299319727891157,0.8299319727891157,0.8299319727891157,0.8367346938775511,0.8367346938775511,0.8367346938775511,0.8367346938775511,0.8367346938775511,0.8367346938775511,0.8367346938775511,0.8367346938775511,0.8367346938775511,0.8367346938775511,0.8367346938775511,0.8367346938775511,0.8367346938775511,0.8367346938775511,0.8367346938775511,0.8367346938775511,0.8367346938775511,0.8367346938775511,0.8367346938775511,0.8367346938775511,0.8367346938775511,0.8367346938775511,0.8367346938775511,0.8367346938775511,0.8367346938775511,0.8367346938775511,0.8367346938775511,0.8367346938775511,0.8367346938775511,0.8367346938775511,0.8367346938775511,0.8367346938775511,0.8367346938775511,0.8367346938775511,0.8367346938775511,0.8367346938775511,0.8367346938775511,0.8367346938775511,0.8367346938775511,0.8367346938775511,0.8367346938775511,0.8367346938775511,0.8367346938775511,0.8367346938775511,0.8367346938775511,0.8367346938775511,0.8367346938775511,0.8367346938775511,0.8367346938775511,0.8367346938775511,0.8367346938775511,0.8367346938775511,0.8367346938775511,0.8367346938775511,0.8367346938775511,0.8367346938775511,0.8367346938775511,0.8367346938775511,0.8367346938775511,0.8367346938775511,0.8367346938775511,0.8367346938775511,0.8367346938775511,0.8299319727891157,0.7891156462585034,0.7687074829931972,0.7414965986394558,0.7244897959183674,0.7108843537414966,0.6870748299319728,0.6768707482993197,0.6666666666666666,0.6462585034013606,0.6394557823129252,0.6258503401360545,0.6156462585034014,0.608843537414966,0.5986394557823129,0.5918367346938775,0.5850340136054422,0.5782312925170068,0.5782312925170068,0.5714285714285714,0.5714285714285714,0.5680272108843537,0.5680272108843537,0.5680272108843537,0.5680272108843537,0.5680272108843537,0.5680272108843537,0.5680272108843537,0.5680272108843537,0.5680272108843537,0.5680272108843537,0.5680272108843537,0.5680272108843537,0.5680272108843537,0.5680272108843537,0.5680272108843537,0.5680272108843537,0.5680272108843537,0.5680272108843537,0.5680272108843537,0.5680272108843537,0.5680272108843537,0.5680272108843537,0.5680272108843537,0.5680272108843537,0.5680272108843537,0.5680272108843537,0.5680272108843537,0.5680272108843537,0.5680272108843537,0.5680272108843537,0.5680272108843537,0.5680272108843537,0.5680272108843537,0.5680272108843537,0.5680272108843537,0.5680272108843537,0.5680272108843537,0.5680272108843537,0.5680272108843537,0.5680272108843537,0.5680272108843537,0.5680272108843537,0.5680272108843537,0.5680272108843537,0.5680272108843537,0.5680272108843537,0.5680272108843537,0.5680272108843537,0.5680272108843537,0.5680272108843537,0.5680272108843537,0.5680272108843537,0.5680272108843537,0.5680272108843537,0.5680272108843537,0.5680272108843537,0.5680272108843537,0.5680272108843537,0.5680272108843537,0.5680272108843537,0.5680272108843537,0.5680272108843537,0.5680272108843537,0.5680272108843537,0.5680272108843537,0.5680272108843537,0.5680272108843537,0.5680272108843537,0.5680272108843537,0.5680272108843537,0.5680272108843537,0.5680272108843537,0.5680272108843537,0.5680272108843537,0.5680272108843537,0.5680272108843537,0.5680272108843537,0.5680272108843537,0.5680272108843537,0.5680272108843537,0.5680272108843537,0.5680272108843537,0.5680272108843537,0.5680272108843537,0.5680272108843537,0.5680272108843537,0.5680272108843537,0.5680272108843537,0.4489795918367347,0.36054421768707484,0.3129251700680272,0.23469387755102042,0.19727891156462585,0.16326530612244897,0.1564625850340136,0.14625850340136054,0.1360544217687075,0.1326530612244898,0.1292517006802721,0.12244897959183673,0.12244897959183673,0.12244897959183673,0.11904761904761904,0.11904761904761904,0.11564625850340136,0.11564625850340136,0.11564625850340136,0.11564625850340136,0.11564625850340136,0.11564625850340136,0.11564625850340136,0.11564625850340136,0.11564625850340136,0.11564625850340136,0.11564625850340136,0.11564625850340136,0.11564625850340136,0.11564625850340136,0.11564625850340136,0.11564625850340136,0.11564625850340136,0.11564625850340136,0.11564625850340136,0.11564625850340136,0.11564625850340136,0.11564625850340136,0.11564625850340136,0.11564625850340136,0.11564625850340136,0.11564625850340136,0.11564625850340136,0.11564625850340136,0.11564625850340136,0.11564625850340136,0.11564625850340136,0.11564625850340136,0.11564625850340136,0.11564625850340136,0.11564625850340136,0.11564625850340136,0.11564625850340136,0.11564625850340136,0.11564625850340136,0.11564625850340136,0.11564625850340136,0.11564625850340136,0.11564625850340136,0.11564625850340136,0.11564625850340136,0.11564625850340136,0.11564625850340136,0.11564625850340136,0.11564625850340136,0.11564625850340136,0.11564625850340136,0.11564625850340136,0.11564625850340136,0.11564625850340136,0.11564625850340136,0.11564625850340136,0.11564625850340136,0.11564625850340136,0.11564625850340136,0.11564625850340136,0.11564625850340136,0.11564625850340136,0.11564625850340136,0.11564625850340136,0.11564625850340136,0.11564625850340136,0.11564625850340136,0.11564625850340136,0.11564625850340136,0.11564625850340136,0.11564625850340136,0.11564625850340136,0.11564625850340136,0.11564625850340136,0.11564625850340136,0.11564625850340136,0.11564625850340136,0.11564625850340136,0.11564625850340136,0.11564625850340136,0.11564625850340136,0.11564625850340136,0.11564625850340136,0.11564625850340136,0.11564625850340136,0.11564625850340136,0.11564625850340136,0.11564625850340136,0.11564625850340136,0.11564625850340136,0.11564625850340136,0.11564625850340136,0.11564625850340136,0.11564625850340136,0.11564625850340136,0.11564625850340136,0.11564625850340136,0.11564625850340136,0.11564625850340136,0.11564625850340136,0.11564625850340136,0.11564625850340136,0.11564625850340136,0.11564625850340136,0.11564625850340136,0.11564625850340136,0.11564625850340136,0.11564625850340136,0.11564625850340136,0.11564625850340136,0.11564625850340136,0.11564625850340136,0.11564625850340136,0.11564625850340136,0.11564625850340136,0.11564625850340136,0.11564625850340136,0.11564625850340136,0.11564625850340136,0.11564625850340136,0.11564625850340136,0.11564625850340136,0.11564625850340136,0.11564625850340136,0.11564625850340136,0.11564625850340136,0.12244897959183673,0.1326530612244898,0.14285714285714285,0.14965986394557823,0.14965986394557823,0.15306122448979592,0.1564625850340136,0.1564625850340136,0.1564625850340136,0.1564625850340136,0.1564625850340136,0.1564625850340136,0.1564625850340136,0.1564625850340136,0.1564625850340136,0.1564625850340136,0.1564625850340136,0.15306122448979592,0.1326530612244898,-0.02040816326530612,-0.10884353741496598,-0.16326530612244897,-0.17346938775510204,-0.18027210884353742,-0.1836734693877551,-0.1836734693877551,-0.1870748299319728,-0.1870748299319728,-0.1836734693877551,-0.16326530612244897,-0.14625850340136054,-0.1292517006802721,-0.10884353741496598,-0.09863945578231292,-0.08163265306122448,-0.06802721088435375,-0.05782312925170068,-0.04081632653061224,-0.027210884353741496,-0.013605442176870748,0,0.013605442176870748,0.05782312925170068,0.10204081632653061,0.1564625850340136,0.23809523809523808,0.2925170068027211,0.3469387755102041,0.38095238095238093,0.4013605442176871,0.42857142857142855,0.4421768707482993,0.46258503401360546,0.47619047619047616,0.48639455782312924,0.5034013605442177,0.5170068027210885,0.5340136054421769,0.5578231292517006,0.5850340136054422,0.6224489795918368,0.673469387755102,0.7006802721088435,0.7380952380952381,0.7619047619047619,0.7891156462585034,0.8095238095238095,0.8299319727891157,0.8367346938775511,0.8537414965986394,0.8707482993197279,0.8809523809523809,0.8843537414965986,0.8945578231292517,0.8979591836734694,0.9047619047619048,0.9115646258503401,0.9115646258503401,0.9183673469387755,0.9217687074829932,0.9285714285714286,0.9319727891156463,0.9387755102040817,0.9455782312925171,0.9523809523809523,0.9591836734693877,0.9625850340136054,0.9659863945578231,0.9693877551020408,0.9693877551020408,0.9693877551020408,0.9693877551020408,0.9693877551020408,0.9693877551020408,0.9693877551020408,0.9693877551020408,0.9693877551020408,0.9693877551020408,0.9693877551020408,0.9693877551020408,0.9693877551020408,0.9693877551020408,0.9693877551020408,0.9693877551020408,0.9693877551020408,0.9693877551020408,0.9693877551020408,0.9693877551020408,0.9693877551020408,0.9693877551020408,0.9693877551020408,0.9693877551020408,0.9693877551020408,0.9693877551020408,0.9693877551020408,0.9693877551020408,0.9693877551020408,0.9693877551020408,0.9693877551020408,0.9693877551020408,0.9693877551020408,0.9693877551020408,0.9693877551020408,0.9693877551020408,0.9693877551020408,0.9693877551020408,0.9693877551020408,0.9693877551020408,0.9693877551020408,0.9693877551020408,0.9693877551020408,0.9693877551020408,0.9693877551020408,0.9693877551020408,0.9693877551020408,0.9693877551020408,0.9693877551020408,0.9693877551020408,0.9693877551020408,0.7619047619047619,0.6258503401360545,0.5340136054421769,0.4013605442176871,0.35034013605442177,0.30612244897959184,0.25170068027210885,0.22448979591836735,0.19727891156462585,0.19047619047619047,0.18027210884353742,0.17687074829931973,0.17006802721088435,0.1598639455782313,0.1564625850340136,0.14965986394557823,0.14285714285714285,0.14285714285714285,0.13945578231292516,0.1360544217687075,0.1292517006802721,0.11564625850340136,0.10204081632653061,0.08163265306122448,0.047619047619047616,0.030612244897959183,0,-0.006802721088435374,-0.017006802721088437,-0.02040816326530612,-0.027210884353741496,-0.030612244897959183,-0.034013605442176874,-0.03741496598639456,-0.03741496598639456,-0.04081632653061224,-0.04081632653061224,-0.04081632653061224,-0.04081632653061224,-0.04081632653061224,-0.04081632653061224,-0.04081632653061224,-0.04081632653061224,-0.04081632653061224,-0.04081632653061224,-0.04081632653061224,-0.04081632653061224,-0.04081632653061224,-0.04081632653061224,-0.04081632653061224,-0.04081632653061224,-0.04081632653061224,-0.04081632653061224,-0.04081632653061224,-0.04081632653061224,-0.04081632653061224,-0.04081632653061224,-0.04081632653061224,-0.04081632653061224,-0.04081632653061224,-0.04081632653061224,-0.04081632653061224,-0.04081632653061224,-0.04081632653061224,-0.04081632653061224,-0.04081632653061224,-0.04081632653061224,-0.04081632653061224,-0.04081632653061224,-0.04081632653061224,-0.04081632653061224,-0.04081632653061224,-0.04081632653061224,-0.04081632653061224,-0.04081632653061224,-0.04081632653061224,-0.04081632653061224,-0.04081632653061224,-0.04081632653061224,-0.034013605442176874,-0.030612244897959183,-0.023809523809523808,-0.02040816326530612,-0.02040816326530612,-0.013605442176870748,-0.013605442176870748,-0.01020408163265306,-0.006802721088435374,-0.006802721088435374,-0.006802721088435374,-0.006802721088435374,-0.006802721088435374,-0.006802721088435374,-0.006802721088435374,-0.006802721088435374,-0.006802721088435374,-0.006802721088435374,-0.006802721088435374,-0.006802721088435374,-0.006802721088435374,-0.006802721088435374,-0.006802721088435374,-0.006802721088435374,-0.006802721088435374,-0.006802721088435374,-0.006802721088435374,-0.006802721088435374,-0.006802721088435374,-0.006802721088435374,-0.006802721088435374,-0.006802721088435374,-0.006802721088435374,-0.006802721088435374,-0.006802721088435374,-0.006802721088435374,-0.006802721088435374,-0.006802721088435374,-0.006802721088435374,-0.006802721088435374,-0.006802721088435374,-0.006802721088435374,-0.006802721088435374,-0.006802721088435374,-0.006802721088435374,-0.006802721088435374,-0.006802721088435374,-0.006802721088435374,-0.006802721088435374,-0.006802721088435374,-0.006802721088435374,-0.006802721088435374,-0.006802721088435374,-0.006802721088435374,-0.006802721088435374,-0.006802721088435374,-0.006802721088435374,-0.006802721088435374,-0.006802721088435374,-0.006802721088435374,-0.006802721088435374,-0.006802721088435374,-0.006802721088435374,-0.006802721088435374,-0.006802721088435374,-0.006802721088435374,0.20068027210884354,0.29931972789115646,0.3877551020408163,0.5238095238095238,0.6258503401360545,0.7312925170068028,0.8095238095238095,0.8367346938775511,0.8367346938775511,0.8367346938775511,0.8367346938775511,0.8367346938775511,0.8367346938775511,0.8367346938775511,0.8367346938775511,0.8367346938775511,0.8367346938775511,0.8367346938775511,0.8367346938775511,0.8367346938775511,0.8367346938775511,0.8367346938775511,0.8367346938775511,0.8367346938775511,0.8367346938775511,0.8367346938775511,0.8367346938775511,0.8367346938775511,0.8367346938775511,0.8367346938775511,0.8367346938775511,0.8367346938775511,0.8367346938775511,0.8367346938775511,0.8367346938775511,0.8367346938775511,0.8367346938775511,0.8367346938775511,0.8367346938775511,0.8367346938775511,0.8367346938775511,0.8367346938775511,0.8367346938775511,0.8367346938775511,0.8367346938775511,0.8367346938775511,0.8367346938775511,0.8367346938775511,0.8367346938775511,0.8367346938775511,0.8367346938775511,0.8367346938775511,0.8367346938775511,0.8367346938775511,0.8367346938775511,0.8367346938775511,0.8367346938775511,0.8367346938775511,0.8367346938775511,0.8367346938775511,0.8367346938775511,0.8367346938775511,0.8367346938775511,0.8367346938775511,0.8367346938775511,0.8367346938775511,0.8367346938775511,0.8367346938775511,0.8367346938775511,0.8367346938775511,0.8367346938775511,0.8367346938775511,0.8367346938775511,0.8367346938775511,0.8367346938775511,0.8367346938775511,0.8367346938775511,0.8367346938775511,0.8367346938775511,0.8367346938775511,0.8367346938775511,0.8367346938775511,0.8367346938775511,0.8367346938775511,0.8367346938775511,0.8367346938775511,0.8367346938775511,0.8367346938775511,0.8367346938775511,0.8367346938775511],"y":[-2.857142857142857,-2.857142857142857,-2.857142857142857,-2.857142857142857,-2.857142857142857,-2.857142857142857,-2.857142857142857,-2.857142857142857,-2.857142857142857,-2.857142857142857,-2.857142857142857,-2.857142857142857,-2.857142857142857,-2.857142857142857,-2.857142857142857,-2.857142857142857,-2.857142857142857,-2.857142857142857,-2.857142857142857,-2.857142857142857,-2.857142857142857,-2.857142857142857,-2.857142857142857,-2.857142857142857,-2.857142857142857,-2.857142857142857,-2.857142857142857,-2.857142857142857,-2.857142857142857,-2.857142857142857,-2.857142857142857,-2.857142857142857,-2.857142857142857,-2.857142857142857,-2.857142857142857,-2.857142857142857,-2.857142857142857,-2.857142857142857,-2.857142857142857,-2.857142857142857,-2.857142857142857,-2.857142857142857,-2.857142857142857,-2.857142857142857,-2.857142857