[{"success":true,"trial_type":"fullscreen","trial_index":0,"time_elapsed":2615,"internal_node_id":"0.0-0.0","protocol_sum":"","subject_identifier":406,"subject_sum":[70,33,193,213,95,164,232,108,224,218,228,40,131,2,100,27,170,200,109,213,63,118,34,124,137,45,249,211,0,104,45,65],"subject_pair":203,"STUDY_ID":"66a22c0758a3d5c9d26873c6","PROLIFIC_PID":"653feb348f4df4e625de5909","SESSION_ID":"66a2690b41a073f1b53afe77","practice_instructions":1,"leaderboard_instructions":0,"bonus":0,"reveal_word":false,"self_rating":"1","confidence":"100"},{"view_history":"[{\"page_index\":0,\"viewing_time\":35562.10000014305}]","rt":35563.299999952316,"trial_type":"instructions","trial_index":1,"time_elapsed":38179,"internal_node_id":"0.0-1.0","protocol_sum":"","subject_identifier":406,"subject_sum":[70,33,193,213,95,164,232,108,224,218,228,40,131,2,100,27,170,200,109,213,63,118,34,124,137,45,249,211,0,104,45,65],"subject_pair":203,"STUDY_ID":"66a22c0758a3d5c9d26873c6","PROLIFIC_PID":"653feb348f4df4e625de5909","SESSION_ID":"66a2690b41a073f1b53afe77","practice_instructions":1,"leaderboard_instructions":0,"bonus":0,"reveal_word":false,"self_rating":"1","confidence":"100"},{"view_history":"[{\"page_index\":0,\"viewing_time\":39932.10000014305}]","rt":39932.299999952316,"trial_type":"instructions","trial_index":2,"time_elapsed":78113,"internal_node_id":"0.0-2.0-0.0","protocol_sum":"","subject_identifier":406,"subject_sum":[70,33,193,213,95,164,232,108,224,218,228,40,131,2,100,27,170,200,109,213,63,118,34,124,137,45,249,211,0,104,45,65],"subject_pair":203,"STUDY_ID":"66a22c0758a3d5c9d26873c6","PROLIFIC_PID":"653feb348f4df4e625de5909","SESSION_ID":"66a2690b41a073f1b53afe77","practice_instructions":1,"leaderboard_instructions":0,"bonus":0,"reveal_word":false,"self_rating":"1","confidence":"100"},{"rt":12230.400000095367,"responses":"{\"Q0\":\"... reveal the word with as <b>few letter guesses</b> as possible\"}","question_order":"[0]","trial_type":"survey-multi-choice","trial_index":3,"time_elapsed":90346,"internal_node_id":"0.0-2.0-1.0","protocol_sum":"","subject_identifier":406,"subject_sum":[70,33,193,213,95,164,232,108,224,218,228,40,131,2,100,27,170,200,109,213,63,118,34,124,137,45,249,211,0,104,45,65],"subject_pair":203,"correct":true,"test_part":"multichoice_nonpretend","STUDY_ID":"66a22c0758a3d5c9d26873c6","PROLIFIC_PID":"653feb348f4df4e625de5909","SESSION_ID":"66a2690b41a073f1b53afe77","practice_instructions":1,"leaderboard_instructions":0,"bonus":0,"reveal_word":false,"self_rating":"1","confidence":"100"},{"view_history":"[{\"page_index\":0,\"viewing_time\":3587.199999809265}]","rt":3587.399999856949,"trial_type":"instructions","trial_index":4,"time_elapsed":93936,"internal_node_id":"0.0-3.0","protocol_sum":"","subject_identifier":406,"subject_sum":[70,33,193,213,95,164,232,108,224,218,228,40,131,2,100,27,170,200,109,213,63,118,34,124,137,45,249,211,0,104,45,65],"subject_pair":203,"STUDY_ID":"66a22c0758a3d5c9d26873c6","PROLIFIC_PID":"653feb348f4df4e625de5909","SESSION_ID":"66a2690b41a073f1b53afe77","practice_instructions":1,"leaderboard_instructions":0,"bonus":0,"reveal_word":false,"self_rating":"1","confidence":"100"},{"word":"ZEBRA","click_log":{"letter":["","T","B","A","Z","E","R"],"t":[0,21613.400000095367,31857.60000014305,40260.799999952316,45308.90000009537,47436.60000014305,50280.40000009537],"hit":[null,0,1,1,1,1,1],"asked":["","T","TB","TBA","TBAZ","TBAZE","TBAZER"],"word_state":["_____","_____","__B__","__B_A","Z_B_A","ZEB_A","ZEBRA"]},"hover_log":{"letter":["?","?","?","?","?","?","?","?","?","?","?","?","?","?","?","?","?","?","?","?","?","?","?","?","?","?","?","?","?","?","?","?","?","?","?","?","?","?","?","?","?","?","?","?","?","?","?","?","?","?","?","?","?","?","?","?","?","?","?","?","?","?","?","?","?","?","?","?","?","?","?","?","?","?","?","?","?","?","?","?","?","?","?","?","?","?","?","?","?","?","?","?","?","?","?","?","?","?","?","?","?","?","?","?","?","?","?","?","?","?","?","?","?","?","?","?","?","?","?","?","?","?","?","?","?","?","?","?","?","?","?","?","?","?","?","?","?","?","?","?","?","?","?","?","?","?","?","?","?","?","?","?","?","?","?","?","?","?","?","?","?","?","?","?","?","?","?","?","?","?","?","?","?","?","?","?","?","?","?","?","?","?","?","?","?","?","?","?","?","?","?","?","?","?","?","?","?","?","?","?","?","?","?","?","?","?","?","?","?","?","?","?","?","?","?","?","?","?","?","?","?","?","?","?","?","?","?","?","?","?","?","?","?","?","?","?","?","?","?","?","?","?","?","?","?","?","?","?","?","?","?","?","?","?","?","?","?","?","?","?","?","?","?","?","?","?","?","?","?","?","?","?","?","?","?","?","?","?","?","?","?","?","?","?","?","?","?","?","?","?","?","?","?","?","?","?","?","?","?","?","?","?","?","?","?","?","?","?","?","?","?","?","?","?","?","?","?","?","?","?","?","?","?","?","?","?","?","?","?","?","?","?","?","?","?","?","?","?","?","?","?","?","?","?","?","?","?","?","?","?","?","?","?","?","?","?","?","?","?","?","?","?","?","?","?","?","?","?","?","?","?","?","?","?","?","?","?","?","?","?","?","?","?","?","?","?","?","?","?","?","?","?","?","?","?","?","?","?","?","?","?","?","?","?","?","?","?","?","?","?","?","?","?","?","?","?","?","?","?","?","?","?","?","?","?","?","?","?","?","?","?","?","?","?","?","?","?","?","?","?","?","?","?","?","?","?","?","?","?","?","?","?","?","?","?","?","?","?","?","?","?","?","?","?","?","?","?","?","?","?","?","?","?","?","?","?","?","?","?","?","?","?","?","?","?","?","?","?","?","?","?","?","?","?","?","?","?","?","?","?","?","?","?","?","?","?","?","?","?","?","?","?","?","?","?","?","?","?","?","?","?","?","?","?","?","?","?","?","?","?","?","?","?","?","?","?","?","?","?","?","?","?","?","?","?","?","?","?","?","?","?","?","?","?","?","?","?","?","?","?","?","?","?","?","?","?","?","?","?","?","?","?","?","?","?","?","?","?","?","?","?","?","?","?","?","?","?","?","?","?","?","?","?","?","?","?","?","?","?","?","?","?","?","?","?","?","?","?","?","?","?","?","?","?","?","?","?","?","?","?","?","?","?","?","?","?","?","?","?","?","?","?","?","?","?","?","?","?","?","?","?","?","?","?","?","?","?","?","?","?","?","?","?","?","?","?","?","?","?","?","?","?","?","?","?","?","?","?","?","?","?","?","?","?","?","?","?","?","?","?","?","?","?","?","?","?","?","?","?","?","?","?","?","?","?","?","?","?","?","?","?","?","?","?","?","?","?","?","?","?","?","?","?","?","?","?","?","?","?","?","?","?","?","?","?","?","?","?","?","?","?","?","?","?","?","?","R","Q","?","?","?","?","X","X","X","X","X","X","X","X","X","X","X","X","X","X","X","X","X","X","?","?","?","W","W","W","W","W","W","W","W","?","?","?","?","?","?","?","?","?","?","?","?","?","?","?","?","?","?","?","?","?","?","?","?","?","?","?","?","?","?","?","?","?","?","?","?","?","?","?","?","?","?","?","?","?","?","?","?","?","?","?","?","?","?","?","?","?","?","N","N","N","N","N","N","N","N","N","N","N","N","N","N","N","?","?","?","?","O","O","O","O","O","O","O","O","?","?","?","?","?","?","?","?","?","?","?","?","?","?","?","?","?","?","?","?","L","L","L","L","L","L","L","L","L","L","L","L","L","L","L","L","L","L","?","?","?","?","?","?","?","?","?","?","?","?","?","?","?","?","?","?","?","?","?","?","?","?","?","?","?","?","?","?","?","?","?","?","?","?","?","?","?","?","?","?","?","?","?","?","?","?","?","?","?","?","?","?","?","?","?","?","?","?","?","?","?","?","?","?","?","?","?","?","?","?","?","?","?","?","?","?","?","?","?","?","?","?","?","?","?","?","?","?","?","L","L","L","L","L","L","L","L","L","L","L","L","L","L","L","L","L","L","?","?","?","?","?","?","?","?","?","?","?","?","?","?","?","?","?","?","?","?","?","?","?","?","?","?","?","?","?","?","?","?","?","?","?","?","?","?","?","?","?","?","?","?","?","?","?","?","?","?","L","L","L","L","L","L","L","L","L","L","L","L","L","L","L","L","L","L","L","L","L","L","L","L","L","L","L","L","L","L","L","L","L","L","L","L","L","L","L","L","L","L","L","L","L","L","L","L","L","L","L","L","L","L","L","L","L","L","L","L","L","L","L","L","L","L","L","L","L","L","L","L","L","L","L","L","L","L","L","L","L","L","L","L","L","L","L","L","L","L","L","L","L","L","L","L","L","L","L","L","L","L","L","L","L","L","L","L","L","L","L","L","L","L","L","L","L","L","L","L","L","L","L","L","L","L","L","L","L","L","L","L","L","L","L","L","L","L","L","L","L","L","L","L","L","L","L","L","L","?","?","?","?","?","?","?","?","?","?","?","?","?","T","T","T","T","T","T","T","T","T","T","T","T","T","T","T","T","T","T","T","T","T","T","T","T","T","T","T","T","T","T","T","T","T","T","T","T","T","T","T","T","T","T","T","T","T","T","T","T","T","T","T","T","T","T","T","T","T","T","T","T","T","T","T","T","T","T","T","T","T","T","T","T","T","T","T","T","T","T","T","T","T","T","T","T","T","T","T","T","T","T","T","T","T","T","T","T","T","T","T","T","T","T","T","T","T","T","T","T","T","T","T","T","T","T","T","T","T","T","T","T","T","T","T","T","T","T","T","T","T","T","T","T","T","T","T","T","T","T","T","T","T","T","T","T","T","T","T","T","T","T","T","T","T","T","T","T","T","T","T","T","T","T","T","T","T","T","T","T","T","T","T","T","T","T","T","T","T","T","T","T","T","T","T","T","T","T","T","T","T","T","T","T","T","T","?","?","?","?","?","?","?","?","?","?","?","?","?","?","?","?","?","?","?","?","?","?","?","?","L","L","L","L","L","L","L","L","L","L","L","L","L","L","L","L","L","L","?","?","?","?","?","?","?","?","?","?","?","?","?","?","?","?","?","?","?","?","?","?","?","?","?","?","?","?","?","?","?","?","?","?","?","?","?","?","?","?","?","?","?","?","?","?","?","?","?","?","?","?","?","?","?","?","?","?","?","?","?","?","?","?","?","?","?","?","?","?","?","?","?","?","?","?","?","M","M","M","M","M","M","M","M","M","M","M","M","M","M","M","M","M","M","M","M","M","M","M","M","M","M","M","M","M","M","M","M","M","M","M","M","M","M","M","M","M","M","M","M","M","M","M","M","M","M","M","M","M","M","M","M","M","M","M","M","M","M","M","M","M","M","M","M","M","M","M","M","M","M","M","M","M","M","M","M","M","M","M","M","M","M","M","M","M","M","M","M","M","M","M","M","M","M","M","M","M","M","M","M","M","M","M","M","M","M","M","M","M","M","M","M","M","M","M","M","M","M","M","M","M","M","M","M","M","M","M","M","M","M","M","M","M","M","M","M","M","M","M","M","M","M","M","M","M","M","M","M","M","M","M","M","M","M","M","M","M","M","M","M","M","M","M","M","M","M","M","M","M","M","M","M","M","M","M","M","M","M","M","M","M","M","M","M","M","M","M","M","M","M","M","M","M","M","M","M","M","M","M","M","M","M","M","M","M","M","M","M","M","M","M","M","M","M","M","M","M","M","M","M","M","M","M","M","M","M","M","M","M","M","M","M","M","M","M","M","M","M","M","M","M","M","M","M","M","M","M","M","M","M","M","M","M","M","M","M","M","M","M","M","M","M","M","M","M","M","M","M","M","M","M","M","M","M","M","M","M","M","M","M","M","M","M","M","M","M","?","?","?","L","L","L","L","L","L","L","?","?","?","?","?","?","?","?","?","?","?","?","B","B","B","B","B","B","B","B","B","B","B","B","B","B","B","B","B","B","B","B","B","B","B","B","B","B","B","B","B","B","B","B","B","B","B","B","B","B","B","B","B","B","B","B","B","B","B","B","B","B","B","B","B","B","B","B","B","B","B","B","B","B","B","B","B","B","B","B","B","B","B","B","B","B","B","B","B","B","B","B","B","B","B","B","B","B","B","B","B","B","B","B","B","B","B","B","B","B","B","B","B","B","B","B","B","B","B","B","B","B","B","B","B","B","B","B","B","B","B","B","B","B","B","B","B","B","B","B","B","B","B","B","B","B","B","B","B","B","B","B","B","B","B","B","B","B","B","B","B","B","B","B","B","B","B","B","B","B","B","B","B","B","B","B","B","B","B","B","B","B","B","B","B","B","B","B","B","B","B","B","B","B","B","B","B","B","B","B","B","B","B","B","B","B","B","B","B","B","B","B","B","B","B","B","B","B","B","B","B","B","B","B","B","B","B","B","B","B","B","B","B","B","B","B","B","B","B","B","B","B","B","B","B","B","B","B","B","B","B","B","B","B","B","B","B","B","B","B","B","B","B","B","B","B","B","B","B","B","B","B","B","B","B","B","B","B","B","B","B","B","B","B","B","B","B","B","B","B","B","B","B","B","B","B","B","B","B","B","B","B","B","B","B","B","B","B","B","B","B","B","B","B","B","B","B","B","B","B","B","B","B","B","B","B","B","B","B","B","B","B","B","B","B","B","B","B","B","B","B","B","B","B","B","B","B","B","B","B","B","B","B","B","B","B","B","B","B","B","B","B","B","B","B","B","B","B","B","B","B","B","B","B","B","B","B","B","B","B","B","B","B","B","B","B","B","B","B","B","B","B","B","B","B","B","B","B","B","B","B","B","B","B","B","B","B","B","B","B","B","B","B","B","B","B","B","B","B","B","B","B","B","B","B","B","B","B","B","B","B","B","B","B","B","B","B","B","B","B","B","B","B","B","B","B","B","B","B","B","B","B","B","B","B","B","B","B","B","B","B","B","B","B","B","B","B","B","B","B","B","?","?","?","?","?","?","L","L","?","?","?","?","?","?","?","?","?","?","?","?","?","?","?","?","?","?","?","?","?","K","?","J","J","J","?","?","?","?","?","?","?","?","?","?","?","?","A","A","A","A","A","A","A","A","A","A","A","A","A","A","A","A","A","A","A","A","A","A","A","A","A","A","A","A","A","A","A","A","A","A","A","A","A","A","A","A","A","A","A","A","A","A","A","A","A","A","A","A","A","A","A","A","A","A","A","A","A","A","A","A","A","A","A","A","A","A","A","A","A","A","A","A","A","A","A","A","A","A","A","A","A","A","A","A","A","A","A","A","A","A","A","A","A","A","A","A","A","A","A","A","A","A","A","A","A","A","A","A","A","A","A","A","A","A","A","A","A","A","A","A","A","A","A","A","A","A","A","A","A","A","A","A","A","A","A","A","A","A","A","A","A","A","A","A","A","A","A","A","A","A","A","A","A","A","A","A","A","A","A","A","A","A","A","A","A","A","A","A","A","A","A","A","A","A","A","A","A","A","A","A","A","A","A","A","A","A","A","A","A","A","A","A","A","A","A","A","A","A","A","A","A","A","A","A","A","A","A","A","A","A","A","A","A","A","A","A","A","A","A","A","A","A","A","A","A","A","A","A","A","A","A","A","A","A","A","A","A","A","A","?","J","J","?","?","?","?","?","S","S","S","?","?","?","?","?","T","T","T","T","?","U","U","?","V","V","?","W","W","W","?","X","?","?","?","?","?","?","?","?","?","?","?","?","?","?","?","?","?","?","?","?","?","?","?","?","?","?","?","Z","Z","Z","Z","Z","Z","Z","Z","Z","Z","Z","Z","Z","Z","Z","Z","Z","Z","Z","Z","Z","Z","Z","Z","Z","Z","Z","Z","Z","Z","Z","Z","Z","Z","Z","Z","Z","Z","Z","Z","Z","Z","Z","Z","Z","Z","Z","Z","Z","Z","Z","Z","Z","Z","Z","Z","Z","Z","Z","Z","Z","Z","Z","Z","Z","Z","Z","Z","Z","Z","Z","Z","Z","Z","Z","Z","Z","Z","Z","Z","Z","Z","Z","Z","Z","Z","Z","Z","Z","Z","Z","Z","Z","Z","Z","Z","Z","Z","Z","Z","Z","Z","Z","Z","Z","Z","Z","Z","Z","Z","Z","Z","?","?","?","?","O","O","O","O","O","O","?","?","?","?","?","?","?","?","?","?","?","?","?","?","?","?","?","?","?","?","E","E","E","E","E","E","E","E","E","E","E","E","E","E","E","E","E","E","E","E","E","E","E","E","E","E","E","E","E","E","E","E","E","E","E","E","E","E","E","E","E","E","E","E","E","E","E","E","E","E","E","E","E","E","E","E","E","E","E","E","E","E","E","E","E","E","E","E","E","E","E","E","E","E","E","E","E","E","E","E","E","E","E","E","E","E","E","E","E","E","E","E","E","E","E","E","E","E","E","E","E","E","?","N","N","N","N","N","N","?","?","?","?","?","?","?","?","?","?","?","?","?","?","?","?","?","?","?","?","?","?","?","?","?","?","?","?","?","?","?","?","W","W","?","X","?","?","?","?","?","?","?","?","?","?","?","?","?","?","?","?","?","Q","Q","Q","Q","Q","Q","Q","Q","?","?","?","R","R","R","R","R","R","R","R","R","R","R","R","R","R","R","R","R","R","R","R","R","R","R","R","R","R","R","R","R","R","R","R","R","R","R","R","R","R","R","R","R","R","R","R","R","R","R","R","R","R","R","R","R","R","R","R","R","R","R","R","R","R","R","R","R","R","R","R","R","R","R","R","R","R","R","R","R","R","R","R","R","R","R","R","R","R","R","R","R","R","R","R","R","R","R","R","R","R","R","R","R","R","R","R","R","R","R","R","R","R","R","R","R","R","R","R","R","R","R","R","R","R","R","R","R","R","R","R","R","R","R","R","R","R","R","R","R","R","R","R","R","R","R","R","R","R","R","R","R","R","R","R","R","R","R","R","R","R","R","R","R","R","R","R","R","R","R","R","R","R","R","R","R","R","R","R"],"t":[59,67,84,98,115,134,151,167,184,200,217,232,249,267,282,299,317,333,350,366,384,399,415,432,449,465,481,498,514,532,549,565,582,598,614,631,647,665,682,698,714,732,748,765,782,798,814,832,847,865,882,897,915,931,948,965,982,998,1015,1031,1048,1065,1080,1097,1114,1131,1148,1165,1181,1198,1214,1232,1247,1267,1284,1298,1313,1330,1347,1363,1380,1397,1413,1431,1447,1464,1481,1497,1514,1531,1547,1564,1581,1597,1614,1630,1647,1664,1681,1697,1713,1730,1747,1763,1780,1796,1813,1830,1846,1863,1880,1896,1914,1930,1947,1963,1980,1996,2013,2030,2046,2063,2080,2097,2113,2130,2146,2163,2180,2196,2213,2230,2247,2263,2280,2297,2314,2329,2347,2364,2379,2397,2412,2429,2447,2463,2480,2497,2512,2530,2546,2562,2579,2596,2613,2629,2647,2663,2680,2697,2716,2730,2746,2762,2779,2796,2813,2829,2845,2862,2879,2896,2916,2930,2945,2963,2978,2995,3011,3029,3046,3062,3078,3095,3112,3129,3145,3161,3179,3195,3212,3229,3245,3262,3278,3294,3312,3329,3344,3361,3378,3395,3411,3428,3445,3462,3478,3495,3512,3528,3545,3562,3578,3595,3612,3628,3645,3662,3678,3695,3711,3727,3745,3761,3777,3794,3811,3828,3844,3861,3878,3895,3911,3928,3945,3961,3978,3994,4011,4028,4045,4061,4077,4094,4110,4127,4144,4162,4179,4194,4210,4228,4244,4261,4279,4294,4311,4327,4344,4361,4377,4394,4411,4427,4445,4460,4477,4493,4511,4527,4545,4561,4577,4594,4611,4627,4644,4660,4677,4694,4711,4727,4743,4760,4777,4794,4811,4826,4843,4860,4877,4894,4910,4927,4944,4960,4977,4994,5010,5027,5043,5060,5077,5093,5110,5127,5143,5160,5177,5193,5210,5227,5243,5260,5276,5293,5310,5327,5343,5359,5376,5393,5410,5426,5443,5460,5477,5493,5510,5526,5543,5559,5576,5592,5609,5627,5643,5659,5676,5693,5709,5726,5742,5760,5776,5793,5808,5825,5843,5860,5877,5892,5909,5926,5942,5958,5976,5992,6009,6026,6042,6059,6076,6093,6109,6125,6142,6159,6175,6192,6209,6226,6242,6259,6275,6292,6308,6325,6342,6359,6376,6392,6409,6425,6441,6458,6475,6492,6509,6525,6542,6559,6575,6592,6609,6625,6642,6659,6675,6691,6708,6725,6741,6758,6775,6792,6808,6825,6841,6858,6874,6891,6908,6925,6941,6957,6974,6991,7007,7024,7042,7058,7075,7093,7110,7124,7141,7158,7174,7191,7208,7224,7241,7258,7275,7291,7307,7325,7340,7358,7375,7391,7408,7424,7441,7458,7475,7491,7508,7524,7541,7558,7574,7591,7608,7624,7641,7657,7674,7693,7707,7724,7741,7757,7774,7791,7807,7824,7841,7857,7875,7890,7907,7924,7941,7957,7973,7990,8007,8024,8040,8057,8074,8090,8107,8123,8140,8157,8173,8190,8206,8223,8240,8257,8274,8290,8307,8323,8342,8357,8373,8390,8406,8423,8441,8457,8474,8490,8506,8522,8541,8557,8573,8590,8606,8623,8640,8657,8672,8690,8707,8723,8739,8756,8773,8789,8807,8823,8839,8857,8873,8890,8906,8923,8939,8956,8973,8990,9006,9023,9040,9057,9073,9089,9106,9123,9140,9156,9172,9189,9206,9223,9239,9257,9273,9288,9305,9321,9338,9355,9371,9387,9403,9421,9439,9455,9472,9488,9505,9523,9539,9555,9572,9589,9606,9622,9638,9656,9672,9689,9706,9722,9739,9755,9772,9789,9805,9822,9838,9855,9872,9888,9905,9922,9939,9955,9972,9990,10005,10022,10039,10055,10072,10088,10105,10121,10139,10154,10172,10188,10204,10222,10238,10254,10271,10288,10304,10321,10338,10354,10371,10388,10404,10421,10438,10454,10470,10488,10504,10521,10538,10554,10571,10588,10604,10621,10638,10654,10671,10688,10705,10720,10737,10754,10772,10788,10804,10821,10837,10854,10870,10888,10904,10921,10937,10955,10971,10987,11004,11021,11037,11054,11070,11087,11104,11121,11137,11154,11171,11188,11203,11220,11237,11254,11271,11288,11304,11320,11337,11354,11370,11388,11403,11420,11437,11461,11487,11504,11521,11537,11553,11570,11587,11603,11620,11636,11653,11670,11686,11703,11720,11736,11754,11769,11786,11803,11819,11837,11853,11869,11886,11902,11919,11936,11953,11969,11986,12002,12019,12036,12052,12069,12087,12103,12118,12136,12152,12170,12186,12203,12220,12235,12253,12270,12286,12302,12321,12336,12353,12369,12386,12403,12419,12436,12452,12469,12486,12502,12518,12536,12552,12569,12585,12601,12619,12635,12653,12669,12685,12702,12718,12736,12752,12769,12786,12802,12819,12836,12852,12871,12885,12902,12918,12935,12952,12968,12985,13001,13018,13035,13051,13068,13085,13101,13118,13135,13152,13167,13184,13201,13217,13235,13251,13268,13285,13301,13317,13335,13351,13367,13384,13401,13418,13434,13451,13467,13484,13501,13518,13534,13551,13568,13584,13601,13617,13634,13651,13668,13684,13701,13718,13734,13750,13767,13784,13802,13818,13834,13851,13868,13884,13900,13918,13934,13951,13968,13984,14001,14017,14034,14050,14067,14085,14100,14117,14134,14150,14167,14185,14200,14218,14234,14250,14267,14283,14303,14317,14333,14351,14367,14384,14401,14417,14434,14450,14466,14484,14500,14517,14534,14550,14567,14583,14600,14617,14633,14651,14666,14683,14701,14716,14734,14750,14766,14784,14800,14816,14833,14850,14867,14883,14899,14917,14933,14950,14966,14983,15000,15016,15032,15050,15066,15083,15099,15116,15133,15149,15166,15182,15199,15216,15233,15249,15266,15283,15299,15316,15333,15349,15366,15382,15399,15416,15433,15449,15466,15482,15499,15516,15532,15549,15566,15582,15599,15616,15632,15649,15665,15682,15700,15715,15732,15749,15765,15782,15798,15816,15832,15849,15865,15882,15899,15915,15932,15948,15965,15982,15999,16015,16032,16048,16065,16082,16098,16116,16132,16148,16165,16181,16198,16216,16231,16248,16265,16281,16299,16315,16332,16348,16364,16382,16398,16414,16432,16448,16465,16482,16498,16515,16531,16548,16565,16581,16598,16615,16631,16648,16665,16682,16698,16714,16732,16748,16764,16782,16798,16815,16831,16848,16865,16881,16898,16914,16931,16948,16964,16981,16998,17014,17031,17048,17064,17081,17101,17114,17131,17147,17164,17181,17198,17214,17231,17247,17264,17280,17297,17314,17330,17347,17363,17381,17397,17413,17430,17448,17464,17481,17497,17514,17530,17547,17563,17580,17597,17613,17630,17648,17664,17681,17697,17713,17731,17747,17765,17781,17796,17813,17830,17846,17864,17880,17897,17913,17929,17946,17963,17980,17996,18013,18029,18046,18063,18079,18096,18113,18129,18146,18163,18179,18196,18213,18229,18246,18263,18279,18295,18312,18329,18346,18362,18379,18396,18412,18429,18446,18463,18479,18496,18512,18528,18545,18562,18578,18595,18612,18628,18645,18662,18678,18695,18712,18728,18745,18762,18778,18795,18812,18829,18846,18862,18880,18896,18912,18929,18946,18962,18979,18995,19012,19029,19045,19062,19079,19096,19112,19129,19145,19162,19178,19195,19212,19229,19245,19262,19279,19297,19312,19328,19345,19362,19379,19395,19412,19428,19445,19462,19478,19496,19512,19528,19546,19561,19578,19595,19611,19628,19645,19661,19678,19695,19712,19728,19744,19761,19778,19794,19811,19828,19844,19861,19878,19895,19912,19928,19944,19961,19979,19994,20011,20028,20045,20061,20078,20095,20111,20128,20145,20161,20177,20194,20210,20227,20243,20260,20276,20295,20311,20327,20344,20361,20377,20394,20410,20427,20444,20461,20478,20494,20510,20528,20544,20560,20578,20594,20611,20628,20643,20661,20677,20694,20710,20727,20744,20760,20777,20794,20810,20827,20843,20860,20877,20893,20910,20926,20943,20960,20976,20993,21010,21026,21043,21060,21077,21093,21110,21126,21144,21160,21176,21193,21210,21227,21244,21260,21277,21294,21310,21326,21343,21360,21377,21396,21413,21427,21443,21460,21477,21493,21510,21527,21543,21560,21577,21594,21610,21628,21643,21660,21677,21693,21710,21726,21743,21760,21776,21793,21810,21826,21843,21859,21876,21893,21910,21926,21942,21960,21976,21993,22010,22026,22043,22060,22076,22093,22109,22126,22142,22159,22176,22193,22209,22226,22243,22260,22276,22292,22309,22326,22342,22359,22376,22392,22409,22425,22442,22459,22475,22493,22509,22526,22543,22559,22576,22592,22609,22626,22642,22659,22675,22692,22709,22725,22742,22759,22776,22792,22808,22826,22842,22858,22876,22892,22908,22925,22941,22959,22975,22992,23009,23025,23042,23059,23075,23092,23108,23125,23141,23158,23175,23191,23208,23225,23241,23258,23274,23292,23308,23324,23341,23357,23375,23392,23408,23425,23441,23458,23475,23491,23509,23525,23541,23559,23574,23592,23609,23624,23642,23658,23675,23692,23708,23725,23741,23757,23774,23791,23808,23824,23841,23858,23874,23891,23908,23924,23941,23958,23974,23991,24007,24024,24041,24057,24075,24090,24107,24124,24141,24157,24174,24191,24207,24224,24241,24259,24274,24291,24307,24324,24341,24357,24374,24391,24407,24424,24440,24457,24474,24490,24507,24524,24540,24557,24573,24591,24607,24623,24641,24657,24674,24690,24707,24723,24740,24757,24773,24790,24807,24823,24839,24859,24873,24889,24907,24923,24940,24956,24973,24990,25006,25024,25040,25056,25074,25089,25107,25123,25139,25157,25173,25189,25206,25222,25240,25256,25273,25290,25306,25323,25339,25356,25373,25389,25406,25423,25439,25456,25472,25489,25507,25522,25539,25556,25573,25589,25606,25623,25640,25656,25673,25690,25706,25722,25739,25756,25773,25790,25806,25822,25839,25856,25872,25889,25906,25922,25938,25956,25972,25989,26005,26022,26039,26055,26072,26088,26105,26122,26138,26155,26171,26189,26205,26222,26238,26254,26271,26287,26304,26320,26338,26354,26371,26388,26405,26422,26438,26455,26471,26489,26505,26521,26539,26555,26571,26588,26605,26621,26638,26654,26672,26688,26705,26721,26738,26755,26772,26788,26804,26822,26838,26854,26872,26888,26904,26922,26938,26955,26972,26988,27005,27021,27038,27054,27071,27087,27104,27121,27138,27156,27171,27187,27204,27220,27238,27254,27270,27288,27304,27322,27337,27354,27371,27387,27404,27421,27438,27454,27470,27487,27504,27520,27537,27554,27570,27587,27604,27621,27637,27654,27671,27688,27703,27721,27737,27754,27770,27787,27804,27820,27837,27854,27870,27886,27903,27920,27937,27953,27970,27987,28003,28020,28036,28053,28070,28087,28104,28120,28136,28153,28170,28187,28203,28220,28237,28253,28270,28288,28303,28320,28337,28353,28370,28386,28403,28420,28436,28453,28470,28486,28503,28520,28536,28553,28569,28586,28605,28619,28636,28652,28669,28686,28702,28719,28736,28752,28769,28786,28802,28819,28836,28853,28869,28886,28903,28919,28936,28953,28969,28986,29003,29020,29036,29052,29069,29086,29102,29118,29136,29152,29169,29185,29202,29219,29235,29252,29269,29286,29302,29319,29335,29352,29369,29386,29402,29419,29435,29452,29469,29486,29502,29518,29535,29551,29569,29585,29602,29618,29635,29652,29669,29685,29702,29718,29735,29752,29768,29785,29801,29818,29835,29852,29868,29885,29901,29918,29935,29951,29968,29985,30001,30018,30035,30053,30068,30084,30101,30118,30135,30151,30168,30185,30201,30218,30234,30251,30268,30285,30301,30318,30335,30351,30368,30385,30401,30418,30435,30451,30468,30485,30501,30518,30535,30551,30569,30585,30601,30618,30634,30651,30667,30684,30701,30717,30734,30751,30767,30784,30800,30817,30834,30851,30868,30883,30900,30918,30934,30951,30967,30984,31001,31017,31034,31051,31067,31084,31100,31117,31134,31150,31167,31183,31200,31217,31234,31250,31267,31284,31300,31317,31334,31350,31367,31383,31400,31416,31434,31450,31468,31483,31500,31516,31533,31550,31566,31583,31600,31617,31633,31650,31666,31683,31700,31717,31733,31749,31767,31783,31800,31817,31833,31850,31868,31884,31901,31917,31934,31951,31967,31984,32000,32017,32034,32050,32067,32083,32101,32117,32133,32150,32167,32184,32201,32217,32233,32251,32267,32284,32301,32317,32333,32351,32367,32383,32400,32417,32433,32450,32467,32483,32500,32516,32533,32550,32567,32583,32599,32617,32633,32650,32667,32683,32700,32717,32733,32750,32767,32784,32800,32816,32833,32850,32867,32885,32900,32916,32933,32950,32966,32983,32999,33016,33032,33049,33066,33083,33099,33116,33133,33149,33166,33183,33199,33216,33232,33249,33266,33282,33299,33316,33332,33349,33366,33382,33399,33416,33433,33449,33466,33483,33500,33516,33532,33549,33566,33583,33600,33616,33632,33649,33666,33682,33699,33715,33732,33749,33765,33782,33799,33815,33832,33849,33865,33881,33899,33915,33932,33949,33965,33982,33998,34016,34032,34048,34066,34081,34099,34115,34132,34148,34165,34181,34198,34215,34232,34248,34265,34282,34300,34314,34331,34348,34365,34382,34399,34415,34431,34448,34464,34482,34498,34515,34531,34548,34565,34581,34598,34614,34631,34648,34664,34682,34698,34714,34731,34748,34764,34781,34797,34815,34831,34848,34864,34881,34898,34914,34931,34947,34964,34981,34997,35014,35031,35047,35065,35081,35097,35115,35131,35147,35164,35181,35197,35214,35231,35247,35264,35281,35297,35314,35330,35347,35363,35380,35397,35414,35431,35447,35464,35480,35497,35513,35530,35547,35563,35580,35597,35613,35630,35647,35663,35680,35697,35716,35730,35747,35763,35780,35797,35814,35830,35846,35863,35880,35897,35913,35930,35946,35963,35980,35997,36013,36029,36047,36063,36080,36097,36113,36130,36147,36163,36179,36196,36213,36230,36246,36263,36279,36296,36313,36329,36346,36363,36380,36396,36413,36430,36446,36463,36479,36496,36513,36529,36546,36563,36580,36596,36613,36629,36646,36663,36679,36696,36713,36729,36746,36762,36779,36796,36812,36829,36845,36862,36879,36896,36912,36929,36945,36962,36979,36995,37012,37029,37046,37062,37080,37096,37112,37129,37146,37162,37179,37195,37212,37229,37245,37262,37280,37295,37312,37328,37346,37362,37379,37395,37412,37428,37446,37461,37478,37495,37512,37528,37545,37562,37579,37595,37612,37628,37645,37661,37678,37695,37712,37728,37745,37761,37778,37794,37812,37828,37844,37861,37878,37895,37912,37928,37944,37961,37978,37995,38011,38028,38045,38061,38078,38094,38111,38128,38144,38161,38178,38196,38212,38228,38245,38261,38278,38294,38311,38328,38344,38362,38378,38395,38411,38428,38445,38461,38478,38495,38511,38528,38544,38561,38578,38594,38611,38628,38644,38661,38677,38694,38711,38727,38744,38760,38778,38794,38811,38829,38844,38861,38878,38894,38911,38928,38944,38961,38977,38994,39011,39027,39044,39061,39077,39094,39111,39127,39144,39160,39177,39194,39210,39227,39244,39260,39277,39293,39310,39327,39343,39360,39376,39393,39410,39426,39443,39459,39477,39493,39510,39526,39543,39559,39577,39592,39610,39626,39643,39659,39676,39693,39709,39726,39743,39759,39776,39793,39809,39826,39842,39860,39876,39892,39909,39926,39943,39959,39977,39993,40009,40026,40044,40059,40076,40093,40110,40126,40142,40160,40176,40192,40209,40226,40242,40259,40276,40292,40309,40325,40342,40359,40376,40393,40409,40425,40442,40459,40475,40492,40508,40525,40542,40559,40575,40593,40609,40625,40642,40659,40675,40693,40709,40725,40742,40759,40775,40792,40808,40825,40841,40858,40875,40891,40909,40926,40941,40959,40975,40991,41009,41025,41041,41058,41075,41091,41108,41125,41141,41158,41175,41191,41208,41225,41241,41258,41275,41291,41308,41325,41341,41358,41377,41391,41408,41424,41441,41457,41474,41492,41508,41524,41541,41558,41574,41591,41608,41624,41640,41657,41673,41690,41707,41725,41741,41758,41774,41791,41807,41824,41841,41857,41875,41891,41908,41924,41940,41958,41974,41991,42007,42025,42041,42058,42074,42091,42108,42125,42141,42157,42174,42191,42208,42224,42240,42257,42274,42291,42307,42323,42340,42357,42374,42390,42407,42424,42441,42457,42473,42490,42507,42523,42540,42557,42573,42590,42607,42624,42640,42657,42674,42690,42707,42723,42740,42756,42774,42790,42806,42823,42839,42856,42873,42890,42907,42924,42940,42956,42973,42989,43006,43024,43040,43056,43073,43090,43106,43123,43140,43156,43173,43190,43206,43224,43240,43257,43274,43291,43307,43323,43339,43357,43373,43390,43407,43422,43440,43456,43473,43490,43507,43523,43540,43557,43573,43589,43607,43623,43639,43657,43673,43690,43706,43722,43740,43757,43772,43790,43806,43823,43839,43856,43873,43889,43905,43923,43939,43956,43972,43989,44005,44022,44040,44055,44071,44089,44108,44122,44139,44155,44172,44189,44205,44222,44238,44255,44273,44288,44306,44322,44339,44355,44372,44388,44405,44422,44439,44455,44472,44489,44505,44522,44538,44556,44572,44588,44605,44622,44638,44655,44671,44689,44705,44721,44738,44755,44771,44788,44805,44822,44838,44854,44871,44888,44904,44922,44938,44954,44971,44988,45004,45021,45039,45054,45071,45088,45104,45121,45138,45154,45171,45188,45204,45221,45238,45254,45271,45288,45304,45321,45337,45354,45371,45387,45404,45420,45437,45454,45470,45487,45507,45520,45537,45554,45571,45587,45604,45620,45637,45654,45670,45687,45704,45720,45737,45754,45770,45787,45804,45821,45837,45854,45870,45887,45904,45920,45938,45953,45970,45988,46005,46020,46037,46054,46070,46087,46104,46121,46138,46154,46170,46188,46204,46221,46237,46253,46271,46287,46304,46320,46336,46353,46370,46387,46403,46420,46437,46453,46469,46486,46502,46519,46536,46553,46570,46586,46603,46621,46636,46653,46670,46686,46703,46720,46737,46752,46770,46787,46803,46820,46838,46852,46870,46886,46902,46920,46935,46953,46969,46986,47003,47019,47035,47052,47069,47086,47102,47119,47135,47152,47169,47185,47202,47219,47235,47252,47268,47286,47302,47318,47335,47352,47369,47385,47402,47418,47436,47453,47469,47485,47502,47518,47535,47552,47569,47586,47602,47618,47635,47652,47668,47685,47701,47719,47735,47752,47769,47785,47802,47818,47835,47852,47868,47885,47901,47918,47935,47952,47968,47985,48001,48018,48034,48052,48068,48085,48102,48118,48135,48151,48172,48185,48201,48218,48235,48251,48269,48285,48302,48318,48335,48351,48368,48384,48402,48418,48435,48451,48467,48485,48502,48518,48536,48551,48568,48585,48601,48618,48634,48651,48667,48684,48701,48717,48733,48751,48766,48783,48800,48816,48833,48849,48866,48883,48899,48916,48933,48950,48966,48983,49000,49018,49034,49051,49067,49084,49101,49117,49134,49151,49167,49184,49201,49217,49235,49250,49268,49284,49301,49318,49334,49351,49367,49384,49400,49417,49437,49450,49467,49484,49500,49517,49533,49550,49567,49583,49600,49617,49633,49650,49667,49683,49700,49716,49733,49750,49767,49784,49800,49818,49833,49849,49866,49883,49900,49917,49933,49949,49966,49983,50000,50016,50033,50050,50066,50083,50099,50116,50132,50150,50166,50183,50200,50216,50232,50249,50266,50288,50299,50316,50333,50349,50366,50383,50399,50416,50433,50449,50466,50482,50499,50516,50533,50549,50566,50582,50599,50616,50632,50649,50665,50683,50699,50716,50732,50749,50766,50782,50799,50815,50832,50849,50865,50882,50899,50916,50933,50948,50965,50982,50999,51015,51032,51048,51065,51082,51099,51115,51132,51148,51165,51182,51199,51216,51232,51248,51265,51282,51298,51314,51331,51348,51365,51381,51399,51415,51431,51448,51465,51482,51498,51515,51532,51548,51565,51581,51598,51615,51631,51648,51665,51681,51697,51715,51732,51748,51765,51781,51798,51814,51831,51848,51864,51881,51898,51914,51931,51948,51964,51981,51998,52014,52030,52048,52064,52082,52097,52114,52131,52147,52164,52181,52197,52214,52231,52247,52264,52281,52300],"hit":[null],"x":[-1.751700680272109,-1.751700680272109,-1.751700680272109,-1.751700680272109,-1.751700680272109,-1.751700680272109,-1.751700680272109,-1.751700680272109,-1.751700680272109,-1.751700680272109,-1.751700680272109,-1.751700680272109,-1.751700680272109,-1.751700680272109,-1.751700680272109,-1.751700680272109,-1.751700680272109,-1.751700680272109,-1.751700680272109,-1.751700680272109,-1.751700680272109,-1.751700680272109,-1.751700680272109,-1.751700680272109,-1.751700680272109,-1.751700680272109,-1.751700680272109,-1.751700680272109,-1.751700680272109,-1.751700680272109,-1.751700680272109,-1.751700680272109,-1.751700680272109,-1.751700680272109,-1.751700680272109,-1.751700680272109,-1.751700680272109,-1.751700680272109,-1.751700680272109,-1.751700680272109,-1.751700680272109,-1.751700680272109,-1.751700680272109,-1.751700680272109,-1.751700680272109,-1.751700680272109,-1.751700680272109,-1.751700680272109,-1.751700680272109,-1.751700680272109,-1.751700680272109,-1.751700680272109,-1.751700680272109,-1.751700680272109,-1.751700680272109,-1.751700680272109,-1.751700680272109,-1.751700680272109,-1.751700680272109,-1.751700680272109,-1.751700680272109,-1.751700680272109,-1.751700680272109,-1.751700680272109,-1.751700680272109,-1.751700680272109,-1.751700680272109,-1.751700680272109,-1.751700680272109,-1.751700680272109,-1.751700680272109,-1.751700680272109,-1.751700680272109,-1.751700680272109,-1.751700680272109,-1.751700680272109,-1.751700680272109,-1.751700680272109,-1.751700680272109,-1.751700680272109,-1.751700680272109,-1.751700680272109,-1.751700680272109,-1.751700680272109,-1.751700680272109,-1.751700680272109,-1.751700680272109,-1.751700680272109,-1.751700680272109,-1.751700680272109,-1.751700680272109,-1.751700680272109,-1.751700680272109,-1.751700680272109,-1.751700680272109,-1.751700680272109,-1.751700680272109,-1.751700680272109,-1.751700680272109,-1.751700680272109,-1.751700680272109,-1.751700680272109,-1.751700680272109,-1.751700680272109,-1.751700680272109,-1.751700680272109,-1.751700680272109,-1.751700680272109,-1.751700680272109,-1.751700680272109,-1.751700680272109,-1.751700680272109,-1.751700680272109,-1.751700680272109,-1.751700680272109,-1.751700680272109,-1.751700680272109,-1.751700680272109,-1.751700680272109,-1.751700680272109,-1.751700680272109,-1.751700680272109,-1.751700680272109,-1.751700680272109,-1.751700680272109,-1.751700680272109,-1.751700680272109,-1.751700680272109,-1.751700680272109,-1.751700680272109,-1.751700680272109,-1.751700680272109,-1.751700680272109,-1.751700680272109,-1.751700680272109,-1.751700680272109,-1.751700680272109,-1.751700680272109,-1.751700680272109,-1.751700680272109,-1.751700680272109,-1.751700680272109,-1.751700680272109,-1.751700680272109,-1.751700680272109,-1.751700680272109,-1.751700680272109,-1.751700680272109,-1.751700680272109,-1.751700680272109,-1.751700680272109,-1.751700680272109,-1.751700680272109,-1.751700680272109,-1.751700680272109,-1.751700680272109,-1.751700680272109,-1.751700680272109,-1.751700680272109,-1.751700680272109,-1.751700680272109,-1.751700680272109,-1.751700680272109,-1.751700680272109,-1.751700680272109,-1.751700680272109,-1.751700680272109,-1.751700680272109,-1.751700680272109,-1.751700680272109,-1.751700680272109,-1.751700680272109,-1.751700680272109,-1.751700680272109,-1.751700680272109,-1.751700680272109,-1.751700680272109,-1.751700680272109,-1.751700680272109,-1.751700680272109,-1.751700680272109,-1.751700680272109,-1.751700680272109,-1.751700680272109,-1.751700680272109,-1.751700680272109,-1.751700680272109,-1.751700680272109,-1.751700680272109,-1.751700680272109,-1.751700680272109,-1.751700680272109,-1.751700680272109,-1.751700680272109,-1.751700680272109,-1.751700680272109,-1.751700680272109,-1.751700680272109,-1.751700680272109,-1.751700680272109,-1.751700680272109,-1.751700680272109,-1.751700680272109,-1.751700680272109,-1.751700680272109,-1.751700680272109,-1.751700680272109,-1.751700680272109,-1.751700680272109,-1.751700680272109,-1.751700680272109,-1.751700680272109,-1.751700680272109,-1.751700680272109,-1.751700680272109,-1.751700680272109,-1.751700680272109,-1.751700680272109,-1.751700680272109,-1.751700680272109,-1.751700680272109,-1.751700680272109,-1.751700680272109,-1.751700680272109,-1.751700680272109,-1.751700680272109,-1.751700680272109,-1.751700680272109,-1.751700680272109,-1.751700680272109,-1.751700680272109,-1.751700680272109,-1.751700680272109,-1.751700680272109,-1.751700680272109,-1.751700680272109,-1.751700680272109,-1.751700680272109,-1.751700680272109,-1.751700680272109,-1.751700680272109,-1.751700680272109,-1.751700680272109,-1.751700680272109,-1.751700680272109,-1.751700680272109,-1.751700680272109,-1.751700680272109,-1.751700680272109,-1.751700680272109,-1.751700680272109,-1.751700680272109,-1.751700680272109,-1.751700680272109,-1.751700680272109,-1.751700680272109,-1.751700680272109,-1.751700680272109,-1.751700680272109,-1.751700680272109,-1.751700680272109,-1.751700680272109,-1.751700680272109,-1.751700680272109,-1.751700680272109,-1.751700680272109,-1.751700680272109,-1.751700680272109,-1.751700680272109,-1.751700680272109,-1.751700680272109,-1.751700680272109,-1.751700680272109,-1.751700680272109,-1.751700680272109,-1.751700680272109,-1.751700680272109,-1.751700680272109,-1.751700680272109,-1.751700680272109,-1.751700680272109,-1.751700680272109,-1.751700680272109,-1.751700680272109,-1.751700680272109,-1.751700680272109,-1.751700680272109,-1.751700680272109,-1.751700680272109,-1.751700680272109,-1.751700680272109,-1.751700680272109,-1.751700680272109,-1.751700680272109,-1.751700680272109,-1.751700680272109,-1.751700680272109,-1.751700680272109,-1.751700680272109,-1.751700680272109,-1.751700680272109,-1.751700680272109,-1.751700680272109,-1.751700680272109,-1.751700680272109,-1.751700680272109,-1.751700680272109,-1.751700680272109,-1.751700680272109,-1.751700680272109,-1.751700680272109,-1.751700680272109,-1.751700680272109,-1.751700680272109,-1.751700680272109,-1.751700680272109,-1.751700680272109,-1.751700680272109,-1.751700680272109,-1.751700680272109,-1.751700680272109,-1.751700680272109,-1.751700680272109,-1.751700680272109,-1.751700680272109,-1.751700680272109,-1.751700680272109,-1.751700680272109,-1.751700680272109,-1.751700680272109,-1.751700680272109,-1.751700680272109,-1.751700680272109,-1.751700680272109,-1.751700680272109,-1.751700680272109,-1.751700680272109,-1.751700680272109,-1.751700680272109,-1.751700680272109,-1.751700680272109,-1.751700680272109,-1.751700680272109,-1.751700680272109,-1.751700680272109,-1.751700680272109,-1.751700680272109,-1.751700680272109,-1.751700680272109,-1.751700680272109,-1.751700680272109,-1.751700680272109,-1.751700680272109,-1.751700680272109,-1.751700680272109,-1.751700680272109,-1.751700680272109,-1.751700680272109,-1.751700680272109,-1.751700680272109,-1.751700680272109,-1.751700680272109,-1.751700680272109,-1.751700680272109,-1.751700680272109,-1.751700680272109,-1.751700680272109,-1.751700680272109,-1.751700680272109,-1.751700680272109,-1.751700680272109,-1.751700680272109,-1.751700680272109,-1.751700680272109,-1.751700680272109,-1.751700680272109,-1.751700680272109,-1.751700680272109,-1.751700680272109,-1.751700680272109,-1.751700680272109,-1.751700680272109,-1.751700680272109,-1.751700680272109,-1.751700680272109,-1.751700680272109,-1.751700680272109,-1.751700680272109,-1.751700680272109,-1.751700680272109,-1.751700680272109,-1.751700680272109,-1.751700680272109,-1.751700680272109,-1.751700680272109,-1.751700680272109,-1.751700680272109,-1.751700680272109,-1.751700680272109,-1.751700680272109,-1.751700680272109,-1.751700680272109,-1.751700680272109,-1.751700680272109,-1.751700680272109,-1.751700680272109,-1.751700680272109,-1.751700680272109,-1.751700680272109,-1.751700680272109,-1.751700680272109,-1.751700680272109,-1.751700680272109,-1.751700680272109,-1.751700680272109,-1.751700680272109,-1.751700680272109,-1.751700680272109,-1.751700680272109,-1.751700680272109,-1.751700680272109,-1.751700680272109,-1.751700680272109,-1.751700680272109,-1.751700680272109,-1.751700680272109,-1.751700680272109,-1.751700680272109,-1.751700680272109,-1.751700680272109,-1.751700680272109,-1.751700680272109,-1.751700680272109,-1.751700680272109,-1.751700680272109,-1.751700680272109,-1.751700680272109,-1.751700680272109,-1.751700680272109,-1.751700680272109,-1.751700680272109,-1.751700680272109,-1.751700680272109,-1.751700680272109,-1.751700680272109,-1.751700680272109,-1.751700680272109,-1.751700680272109,-1.751700680272109,-1.751700680272109,-1.751700680272109,-1.751700680272109,-1.751700680272109,-1.751700680272109,-1.751700680272109,-1.751700680272109,-1.751700680272109,-1.751700680272109,-1.751700680272109,-1.751700680272109,-1.751700680272109,-1.751700680272109,-1.751700680272109,-1.751700680272109,-1.751700680272109,-1.751700680272109,-1.751700680272109,-1.751700680272109,-1.751700680272109,-1.751700680272109,-1.751700680272109,-1.751700680272109,-1.751700680272109,-1.751700680272109,-1.751700680272109,-1.751700680272109,-1.751700680272109,-1.751700680272109,-1.751700680272109,-1.751700680272109,-1.751700680272109,-1.751700680272109,-1.751700680272109,-1.751700680272109,-1.751700680272109,-1.751700680272109,-1.751700680272109,-1.751700680272109,-1.751700680272109,-1.751700680272109,-1.751700680272109,-1.751700680272109,-1.751700680272109,-1.751700680272109,-1.751700680272109,-1.751700680272109,-1.751700680272109,-1.751700680272109,-1.751700680272109,-1.751700680272109,-1.751700680272109,-1.751700680272109,-1.751700680272109,-1.751700680272109,-1.751700680272109,-1.751700680272109,-1.751700680272109,-1.751700680272109,-1.751700680272109,-1.751700680272109,-1.751700680272109,-1.751700680272109,-1.751700680272109,-1.751700680272109,-1.751700680272109,-1.751700680272109,-1.751700680272109,-1.751700680272109,-1.751700680272109,-1.751700680272109,-1.751700680272109,-1.751700680272109,-1.751700680272109,-1.751700680272109,-1.751700680272109,-1.751700680272109,-1.751700680272109,-1.751700680272109,-1.751700680272109,-1.751700680272109,-1.751700680272109,-1.751700680272109,-1.751700680272109,-1.751700680272109,-1.751700680272109,-1.751700680272109,-1.751700680272109,-1.751700680272109,-1.751700680272109,-1.751700680272109,-1.751700680272109,-1.751700680272109,-1.751700680272109,-1.751700680272109,-1.751700680272109,-1.751700680272109,-1.751700680272109,-1.751700680272109,-1.751700680272109,-1.751700680272109,-1.751700680272109,-1.751700680272109,-1.751700680272109,-1.751700680272109,-1.751700680272109,-1.751700680272109,-1.751700680272109,-1.751700680272109,-1.751700680272109,-1.751700680272109,-1.751700680272109,-1.751700680272109,-1.751700680272109,-1.751700680272109,-1.751700680272109,-1.751700680272109,-1.751700680272109,-1.751700680272109,-1.751700680272109,-1.751700680272109,-1.751700680272109,-1.751700680272109,-1.751700680272109,-1.751700680272109,-1.751700680272109,-1.751700680272109,-1.751700680272109,-1.751700680272109,-1.751700680272109,-1.751700680272109,-1.751700680272109,-1.751700680272109,-1.751700680272109,-1.751700680272109,-1.751700680272109,-1.751700680272109,-1.751700680272109,-1.751700680272109,-1.751700680272109,-1.751700680272109,-1.751700680272109,-1.751700680272109,-1.751700680272109,-1.751700680272109,-1.751700680272109,-1.751700680272109,-1.751700680272109,-1.751700680272109,-1.751700680272109,-1.751700680272109,-1.751700680272109,-1.751700680272109,-1.751700680272109,-1.751700680272109,-1.751700680272109,-1.751700680272109,-1.751700680272109,-1.751700680272109,-1.751700680272109,-1.751700680272109,-1.751700680272109,-1.751700680272109,-1.751700680272109,-1.751700680272109,-1.751700680272109,-1.751700680272109,-1.751700680272109,-1.751700680272109,-1.751700680272109,-1.751700680272109,-1.751700680272109,-1.751700680272109,-1.751700680272109,-1.751700680272109,-1.751700680272109,-1.751700680272109,-1.751700680272109,-1.751700680272109,-1.751700680272109,-1.751700680272109,-1.751700680272109,-1.751700680272109,-1.751700680272109,-1.751700680272109,-1.751700680272109,-1.751700680272109,-1.751700680272109,-1.751700680272109,-1.751700680272109,-1.751700680272109,-1.751700680272109,-1.751700680272109,-1.751700680272109,-1.751700680272109,-1.751700680272109,-1.751700680272109,-1.751700680272109,-1.751700680272109,-1.751700680272109,-1.751700680272109,-1.751700680272109,-1.751700680272109,-1.751700680272109,-1.751700680272109,-1.751700680272109,-1.751700680272109,-1.751700680272109,-1.751700680272109,-1.751700680272109,-1.751700680272109,-1.751700680272109,-1.751700680272109,-1.751700680272109,-1.751700680272109,-1.751700680272109,-1.751700680272109,-1.751700680272109,-1.751700680272109,-1.751700680272109,-1.751700680272109,-1.751700680272109,-1.751700680272109,-1.751700680272109,-1.751700680272109,-1.751700680272109,-1.751700680272109,-1.751700680272109,-1.751700680272109,-1.751700680272109,-1.751700680272109,-1.751700680272109,-1.751700680272109,-1.751700680272109,-1.751700680272109,-1.751700680272109,2.4625850340136055,2.360544217687075,2.3435374149659864,2.3095238095238093,2.292517006802721,2.2653061224489797,2.207482993197279,2.183673469387755,2.1496598639455784,2.119047619047619,2.0952380952380953,2.064625850340136,2.04421768707483,2.0306122448979593,2.0272108843537415,2.0272108843537415,2.0238095238095237,2.0238095238095237,2.0238095238095237,2.0238095238095237,2.0272108843537415,2.04421768707483,2.068027210884354,2.1258503401360542,2.1258503401360542,2.1258503401360542,2.1258503401360542,2.1258503401360542,2.1258503401360542,2.1258503401360542,2.1258503401360542,2.1258503401360542,2.1258503401360542,2.1258503401360542,2.1258503401360542,2.1258503401360542,2.1258503401360542,2.1258503401360542,2.1258503401360542,2.1258503401360542,2.1258503401360542,2.1258503401360542,1.91156462585034,1.8503401360544218,1.6734693877551021,1.6054421768707483,1.5374149659863945,1.435374149659864,1.3673469387755102,1.2653061224489797,1.1870748299319729,1.1020408163265305,1.0170068027210883,0.9523809523809523,0.9115646258503401,0.8367346938775511,0.8095238095238095,0.7619047619047619,0.7482993197278912,0.7414965986394558,0.7346938775510204,0.7312925170068028,0.7278911564625851,0.7278911564625851,0.7244897959183674,0.7244897959183674,0.7210884353741497,0.7210884353741497,0.7210884353741497,0.717687074829932,0.7108843537414966,0.7040816326530612,0.6972789115646258,0.6802721088435374,0.673469387755102,0.6530612244897959,0.6428571428571429,0.6326530612244898,0.6190476190476191,0.608843537414966,0.5986394557823129,0.5850340136054422,0.5782312925170068,0.5714285714285714,0.5578231292517006,0.5544217687074829,0.5476190476190477,0.5476190476190477,0.5476190476190477,0.5476190476190477,0.5476190476190477,0.5476190476190477,0.5476190476190477,0.5476190476190477,0.5476190476190477,0.5476190476190477,0.5476190476190477,0.5476190476190477,0.5476190476190477,0.5476190476190477,0.5476190476190477,0.5476190476190477,0.5476190476190477,0.5476190476190477,0.5476190476190477,0.5476190476190477,0.5476190476190477,0.5476190476190477,0.5476190476190477,0.5476190476190477,0.5476190476190477,0.5476190476190477,0.5476190476190477,0.5476190476190477,0.5476190476190477,0.5476190476190477,0.5476190476190477,0.5476190476190477,0.5476190476190477,0.5476190476190477,0.5476190476190477,0.5476190476190477,0.5476190476190477,0.5476190476190477,0.5476190476190477,0.5476190476190477,0.5476190476190477,0.5476190476190477,0.5476190476190477,0.5476190476190477,0.5476190476190477,0.5476190476190477,0.5476190476190477,0.5476190476190477,0.5476190476190477,0.5476190476190477,0.5476190476190477,0.5476190476190477,0.5476190476190477,0.5476190476190477,0.5476190476190477,0.54421768707483,0.54421768707483,0.54421768707483,0.54421768707483,0.54421768707483,0.5476190476190477,0.5510204081632653,0.5544217687074829,0.564625850340136,0.5714285714285714,0.5850340136054422,0.5884353741496599,0.5986394557823129,0.6020408163265306,0.6054421768707483,0.608843537414966,0.6156462585034014,0.6190476190476191,0.6292517006802721,0.6326530612244898,0.6428571428571429,0.6496598639455783,0.6564625850340136,0.6632653061224489,0.6666666666666666,0.6700680272108843,0.6768707482993197,0.6768707482993197,0.6768707482993197,0.6768707482993197,0.673469387755102,0.6700680272108843,0.6598639455782312,0.6530612244897959,0.6292517006802721,0.6122448979591837,0.5782312925170068,0.5612244897959183,0.5476190476190477,0.5272108843537415,0.5136054421768708,0.4931972789115646,0.45918367346938777,0.43537414965986393,0.3979591836734694,0.38095238095238093,0.36054421768707484,0.3401360544217687,0.3299319727891156,0.3163265306122449,0.30612244897959184,0.29591836734693877,0.282312925170068,0.2789115646258503,0.2755102040816326,0.2687074829931973,0.2687074829931973,0.2653061224489796,0.2619047619047619,0.2585034013605442,0.25510204081632654,0.25170068027210885,0.24829931972789115,0.24489795918367346,0.24149659863945577,0.23809523809523808,0.23469387755102042,0.23129251700680273,0.22789115646258504,0.22789115646258504,0.22448979591836735,0.22448979591836735,0.22108843537414966,0.22108843537414966,0.21768707482993196,0.21768707482993196,0.21768707482993196,0.21768707482993196,0.21768707482993196,0.21768707482993196,0.21768707482993196,0.21768707482993196,0.21768707482993196,0.21768707482993196,0.21768707482993196,0.21768707482993196,0.21768707482993196,0.21768707482993196,0.21768707482993196,0.21768707482993196,0.21768707482993196,0.21768707482993196,0.21768707482993196,0.21768707482993196,0.21768707482993196,0.21768707482993196,0.21768707482993196,0.21768707482993196,0.21768707482993196,0.21768707482993196,0.21768707482993196,0.21768707482993196,0.21768707482993196,0.21768707482993196,0.21768707482993196,0.21768707482993196,0.21768707482993196,0.21768707482993196,0.21768707482993196,0.21768707482993196,0.21768707482993196,0.21768707482993196,0.21768707482993196,0.21768707482993196,0.21768707482993196,0.21768707482993196,0.21768707482993196,0.21768707482993196,0.21768707482993196,0.21768707482993196,0.21768707482993196,0.21768707482993196,0.21768707482993196,0.21768707482993196,0.21768707482993196,0.21768707482993196,0.21768707482993196,0.21768707482993196,0.21768707482993196,0.21768707482993196,0.21768707482993196,0.21768707482993196,0.21768707482993196,0.21768707482993196,0.21768707482993196,0.21768707482993196,0.21768707482993196,0.21768707482993196,0.21768707482993196,0.21768707482993196,0.21768707482993196,0.21768707482993196,0.21768707482993196,0.21768707482993196,0.21768707482993196,0.21768707482993196,0.21768707482993196,0.21768707482993196,0.21768707482993196,0.21768707482993196,0.21768707482993196,0.21768707482993196,0.21768707482993196,0.21768707482993196,0.21768707482993196,0.21768707482993196,0.21768707482993196,0.22448979591836735,0.22789115646258504,0.23809523809523808,0.24149659863945577,0.24829931972789115,0.25170068027210885,0.25510204081632654,0.2619047619047619,0.2687074829931973,0.272108843537415,0.282312925170068,0.2891156462585034,0.29931972789115646,0.30612244897959184,0.30952380952380953,0.3163265306122449,0.3197278911564626,0.3197278911564626,0.32653061224489793,0.3299319727891156,0.3401360544217687,0.3469387755102041,0.35034013605442177,0.35714285714285715,0.36054421768707484,0.36394557823129253,0.36394557823129253,0.3673469387755102,0.3673469387755102,0.3673469387755102,0.3673469387755102,0.3673469387755102,0.3673469387755102,0.36394557823129253,0.36394557823129253,0.36054421768707484,0.35714285714285715,0.35374149659863946,0.35034013605442177,0.3435374149659864,0.336734693877551,0.3333333333333333,0.3333333333333333,0.3299319727891156,0.32653061224489793,0.32653061224489793,0.3231292517006803,0.3231292517006803,0.3197278911564626,0.3197278911564626,0.3197278911564626,0.3197278911564626,0.3197278911564626,0.3197278911564626,0.3197278911564626,0.3197278911564626,0.3197278911564626,0.3197278911564626,0.3197278911564626,0.3197278911564626,0.3197278911564626,0.3197278911564626,0.3197278911564626,0.3197278911564626,0.3197278911564626,0.3163265306122449,0.3163265306122449,0.3129251700680272,0.3129251700680272,0.3129251700680272,0.30612244897959184,0.30272108843537415,0.30272108843537415,0.29591836734693877,0.29591836734693877,0.2925170068027211,0.2891156462585034,0.2857142857142857,0.2857142857142857,0.282312925170068,0.2789115646258503,0.2755102040816326,0.2755102040816326,0.272108843537415,0.272108843537415,0.272108843537415,0.2687074829931973,0.2687074829931973,0.2653061224489796,0.2653061224489796,0.2653061224489796,0.2653061224489796,0.2653061224489796,0.2653061224489796,0.2653061224489796,0.2653061224489796,0.2653061224489796,0.2653061224489796,0.2653061224489796,0.2653061224489796,0.2653061224489796,0.2653061224489796,0.2653061224489796,0.2653061224489796,0.2653061224489796,0.2653061224489796,0.2653061224489796,0.2653061224489796,0.2653061224489796,0.2653061224489796,0.2653061224489796,0.2653061224489796,0.2653061224489796,0.2653061224489796,0.2653061224489796,0.2653061224489796,0.2653061224489796,0.2653061224489796,0.2653061224489796,0.2653061224489796,0.2653061224489796,0.2653061224489796,0.2653061224489796,0.2653061224489796,0.2653061224489796,0.2653061224489796,0.2653061224489796,0.2653061224489796,0.2653061224489796,0.2653061224489796,0.2653061224489796,0.2653061224489796,0.2653061224489796,0.2653061224489796,0.2653061224489796,0.2653061224489796,0.2653061224489796,0.2653061224489796,0.2653061224489796,0.2653061224489796,0.2653061224489796,0.2653061224489796,0.2653061224489796,0.2653061224489796,0.2653061224489796,0.2653061224489796,0.2653061224489796,0.2653061224489796,0.2653061224489796,0.2653061224489796,0.2653061224489796,0.2653061224489796,0.2653061224489796,0.2653061224489796,0.2653061224489796,0.2653061224489796,0.2653061224489796,0.2653061224489796,0.2653061224489796,0.2653061224489796,0.2653061224489796,0.2653061224489796,0.2653061224489796,0.2653061224489796,0.2653061224489796,0.2653061224489796,0.2653061224489796,0.2653061224489796,0.2653061224489796,0.2653061224489796,0.2653061224489796,0.2653061224489796,0.2653061224489796,0.2653061224489796,0.2653061224489796,0.2653061224489796,0.2653061224489796,0.2653061224489796,0.2653061224489796,0.2653061224489796,0.2653061224489796,0.2653061224489796,0.2653061224489796,0.2653061224489796,0.2653061224489796,0.2653061224489796,0.2653061224489796,0.2653061224489796,0.2653061224489796,0.2653061224489796,0.2653061224489796,0.2653061224489796,0.2653061224489796,0.2653061224489796,0.2653061224489796,0.2653061224489796,0.2653061224489796,0.2653061224489796,0.2653061224489796,0.2653061224489796,0.2653061224489796,0.2653061224489796,0.2653061224489796,0.2653061224489796,0.2653061224489796,0.2653061224489796,0.2653061224489796,0.2653061224489796,0.2653061224489796,0.2653061224489796,0.2653061224489796,0.2653061224489796,0.2653061224489796,0.2653061224489796,0.2653061224489796,0.2653061224489796,0.2653061224489796,0.2653061224489796,0.2653061224489796,0.25510204081632654,0.24489795918367346,0.23469387755102042,0.22789115646258504,0.22448979591836735,0.21768707482993196,0.21428571428571427,0.2108843537414966,0.20748299319727892,0.20408163265306123,0.20068027210884354,0.20068027210884354,0.19727891156462585,0.19387755102040816,0.19047619047619047,0.1870748299319728,0.1836734693877551,0.1836734693877551,0.1836734693877551,0.18027210884353742,0.18027210884353742,0.17687074829931973,0.17346938775510204,0.17006802721088435,0.16666666666666666,0.16326530612244897,0.1564625850340136,0.14625850340136054,0.14285714285714285,0.13945578231292516,0.1360544217687075,0.1326530612244898,0.1292517006802721,0.12585034013605442,0.12585034013605442,0.12244897959183673,0.12244897959183673,0.12244897959183673,0.12244897959183673,0.12244897959183673,0.11904761904761904,0.11904761904761904,0.11904761904761904,0.11904761904761904,0.11904761904761904,0.11904761904761904,0.11904761904761904,0.11904761904761904,0.11904761904761904,0.11904761904761904,0.11904761904761904,0.11904761904761904,0.11904761904761904,0.11904761904761904,0.11904761904761904,0.11904761904761904,0.11904761904761904,0.11904761904761904,0.11904761904761904,0.11904761904761904,0.11904761904761904,0.11904761904761904,0.11904761904761904,0.11904761904761904,0.11904761904761904,0.11904761904761904,0.11904761904761904,0.11904761904761904,0.11904761904761904,0.11904761904761904,0.11904761904761904,0.11904761904761904,0.11904761904761904,0.11904761904761904,0.11904761904761904,0.11904761904761904,0.11904761904761904,0.11904761904761904,0.11904761904761904,0.11904761904761904,0.11904761904761904,0.11904761904761904,0.11904761904761904,0.11904761904761904,0.11904761904761904,0.11904761904761904,0.11904761904761904,0.11904761904761904,0.11904761904761904,0.11904761904761904,0.11904761904761904,0.11904761904761904,0.11904761904761904,0.11904761904761904,0.11904761904761904,0.11904761904761904,0.11904761904761904,0.11904761904761904,0.11904761904761904,0.11904761904761904,0.11904761904761904,0.11904761904761904,0.11904761904761904,0.11904761904761904,0.11904761904761904,0.11904761904761904,0.11904761904761904,0.11904761904761904,0.11904761904761904,0.11904761904761904,0.11904761904761904,0.11904761904761904,0.11904761904761904,0.11904761904761904,0.11904761904761904,0.11904761904761904,0.11904761904761904,0.11904761904761904,0.11904761904761904,0.11904761904761904,0.11904761904761904,0.11904761904761904,0.11904761904761904,0.11904761904761904,0.11904761904761904,0.11904761904761904,0.11904761904761904,0.11904761904761904,0.11904761904761904,0.11904761904761904,0.11904761904761904,0.11904761904761904,0.11904761904761904,0.11904761904761904,0.11904761904761904,0.11904761904761904,0.11904761904761904,0.11904761904761904,0.11904761904761904,0.11904761904761904,0.11904761904761904,0.11904761904761904,0.11904761904761904,0.11904761904761904,0.11904761904761904,0.11904761904761904,0.11904761904761904,0.11904761904761904,0.11904761904761904,0.11904761904761904,0.11904761904761904,0.11904761904761904,0.11904761904761904,0.11904761904761904,0.11904761904761904,0.11904761904761904,0.11904761904761904,0.11904761904761904,0.11904761904761904,0.11904761904761904,0.11904761904761904,0.11904761904761904,0.11904761904761904,0.11904761904761904,0.11904761904761904,0.11904761904761904,0.11904761904761904,0.11904761904761904,0.11904761904761904,0.11904761904761904,0.11904761904761904,0.11904761904761904,0.11904761904761904,0.11904761904761904,0.11904761904761904,0.11904761904761904,0.11904761904761904,0.11904761904761904,0.11904761904761904,0.11904761904761904,0.11904761904761904,0.11904761904761904,0.11904761904761904,0.11904761904761904,0.11904761904761904,0.11904761904761904,0.11904761904761904,0.11904761904761904,0.11904761904761904,0.11904761904761904,0.11904761904761904,0.11904761904761904,0.11904761904761904,0.11904761904761904,0.11904761904761904,0.11904761904761904,0.11904761904761904,0.11904761904761904,0.11904761904761904,0.11904761904761904,0.12585034013605442,0.1292517006802721,0.1326530612244898,0.1360544217687075,0.13945578231292516,0.14625850340136054,0.14965986394557823,0.15306122448979592,0.1598639455782313,0.1598639455782313,0.16326530612244897,0.17006802721088435,0.17346938775510204,0.18027210884353742,0.18027210884353742,0.1870748299319728,0.19047619047619047,0.19387755102040816,0.20068027210884354,0.20408163265306123,0.20748299319727892,0.2108843537414966,0.21428571428571427,0.21428571428571427,0.21768707482993196,0.22108843537414966,0.22448979591836735,0.22789115646258504,0.23129251700680273,0.23469387755102042,0.24149659863945577,0.24489795918367346,0.24829931972789115,0.25170068027210885,0.2585034013605442,0.2653061224489796,0.2687074829931973,0.272108843537415,0.2755102040816326,0.282312925170068,0.2857142857142857,0.2857142857142857,0.2891156462585034,0.2925170068027211,0.29591836734693877,0.29591836734693877,0.29931972789115646,0.29931972789115646,0.30272108843537415,0.30612244897959184,0.30952380952380953,0.3129251700680272,0.3163265306122449,0.3163265306122449,0.3197278911564626,0.3231292517006803,0.32653061224489793,0.3299319727891156,0.336734693877551,0.3401360544217687,0.3435374149659864,0.35034013605442177,0.35714285714285715,0.35714285714285715,0.36394557823129253,0.3673469387755102,0.3707482993197279,0.37755102040816324,0.38095238095238093,0.3843537414965986,0.3877551020408163,0.391156462585034,0.3979591836734694,0.4013605442176871,0.40476190476190477,0.40816326530612246,0.41156462585034015,0.41496598639455784,0.41836734693877553,0.41836734693877553,0.41836734693877553,0.41836734693877553,0.4217687074829932,0.4217687074829932,0.4217687074829932,0.4217687074829932,0.4217687074829932,0.4217687074829932,0.4217687074829932,0.4217687074829932,0.4217687074829932,0.4217687074829932,0.4217687074829932,0.4217687074829932,0.4217687074829932,0.4217687074829932,0.4217687074829932,0.4217687074829932,0.41836734693877553,0.41496598639455784,0.41496598639455784,0.41156462585034015,0.40816326530612246,0.40816326530612246,0.40476190476190477,0.4013605442176871,0.4013605442176871,0.4013605442176871,0.3979591836734694,0.3979591836734694,0.3979591836734694,0.3979591836734694,0.3945578231292517,0.3945578231292517,0.3945578231292517,0.3945578231292517,0.3945578231292517,0.3945578231292517,0.3945578231292517,0.3945578231292517,0.3945578231292517,0.3945578231292517,0.3945578231292517,0.3945578231292517,0.3945578231292517,0.3945578231292517,0.3945578231292517,0.3945578231292517,0.3945578231292517,0.3945578231292517,0.3945578231292517,0.3945578231292517,0.3945578231292517,0.3945578231292517,0.3945578231292517,0.3945578231292517,0.3945578231292517,0.3945578231292517,0.3945578231292517,0.3945578231292517,0.3945578231292517,0.3945578231292517,0.3945578231292517,0.3945578231292517,0.3945578231292517,0.3945578231292517,0.3945578231292517,0.3945578231292517,0.3945578231292517,0.3945578231292517,0.3945578231292517,0.3945578231292517,0.3945578231292517,0.3945578231292517,0.3945578231292517,0.3945578231292517,0.3945578231292517,0.3945578231292517,0.3945578231292517,0.3945578231292517,0.3945578231292517,0.3945578231292517,0.3945578231292517,0.3945578231292517,0.3945578231292517,0.3945578231292517,0.3945578231292517,0.3945578231292517,0.3945578231292517,0.3945578231292517,0.3945578231292517,0.3945578231292517,0.3945578231292517,0.3945578231292517,0.3945578231292517,0.3945578231292517,0.3945578231292517,0.3945578231292517,0.3945578231292517,0.3945578231292517,0.3945578231292517,0.3945578231292517,0.3945578231292517,0.3945578231292517,0.3945578231292517,0.3945578231292517,0.3945578231292517,0.3945578231292517,0.3945578231292517,0.3945578231292517,0.3945578231292517,0.3945578231292517,0.3945578231292517,0.3945578231292517,0.3945578231292517,0.3945578231292517,0.3945578231292517,0.3945578231292517,0.3945578231292517,0.3945578231292517,0.3945578231292517,0.3945578231292517,0.3945578231292517,0.3945578231292517,0.3945578231292517,0.3945578231292517,0.3945578231292517,0.3945578231292517,0.3945578231292517,0.3945578231292517,0.3945578231292517,0.3945578231292517,0.3945578231292517,0.3945578231292517,0.3945578231292517,0.3945578231292517,0.3945578231292517,0.3945578231292517,0.3945578231292517,0.3945578231292517,0.3945578231292517,0.3945578231292517,0.3945578231292517,0.3945578231292517,0.3945578231292517,0.3945578231292517,0.3945578231292517,0.3945578231292517,0.3945578231292517,0.3945578231292517,0.3945578231292517,0.3945578231292517,0.3945578231292517,0.3945578231292517,0.3945578231292517,0.3945578231292517,0.3945578231292517,0.3945578231292517,0.3945578231292517,0.3945578231292517,0.3945578231292517,0.3945578231292517,0.3945578231292517,0.3945578231292517,0.3945578231292517,0.3945578231292517,0.3945578231292517,0.3945578231292517,0.3945578231292517,0.3945578231292517,0.3945578231292517,0.3945578231292517,0.3945578231292517,0.3945578231292517,0.3945578231292517,0.3945578231292517,0.3945578231292517,0.3945578231292517,0.3945578231292517,0.3945578231292517,0.3945578231292517,0.3945578231292517,0.3945578231292517,0.3945578231292517,0.3945578231292517,0.3945578231292517,0.3945578231292517,0.3945578231292517,0.3945578231292517,0.3945578231292517,0.3945578231292517,0.3945578231292517,0.3945578231292517,0.3945578231292517,0.3945578231292517,0.3945578231292517,0.3945578231292517,0.3945578231292517,0.3945578231292517,0.3945578231292517,0.3945578231292517,0.3945578231292517,0.3945578231292517,0.3945578231292517,0.3945578231292517,0.3945578231292517,0.3945578231292517,0.3945578231292517,0.3945578231292517,0.3945578231292517,0.3945578231292517,0.3945578231292517,0.3945578231292517,0.3945578231292517,0.3945578231292517,0.3945578231292517,0.3945578231292517,0.3945578231292517,0.3945578231292517,0.3945578231292517,0.3945578231292517,0.3945578231292517,0.3945578231292517,0.3945578231292517,0.3945578231292517,0.3945578231292517,0.3945578231292517,0.3945578231292517,0.3945578231292517,0.3945578231292517,0.3945578231292517,0.3945578231292517,0.3945578231292517,0.3945578231292517,0.3945578231292517,0.3945578231292517,0.3945578231292517,0.3945578231292517,0.3945578231292517,0.3945578231292517,0.3945578231292517,0.3945578231292517,0.3945578231292517,0.3945578231292517,0.3945578231292517,0.3945578231292517,0.3945578231292517,0.3945578231292517,0.3945578231292517,0.3945578231292517,0.3945578231292517,0.3945578231292517,0.3945578231292517,0.3945578231292517,0.3945578231292517,0.3945578231292517,0.3945578231292517,0.3945578231292517,0.3945578231292517,0.3945578231292517,0.3945578231292517,0.3945578231292517,0.3945578231292517,0.3945578231292517,0.3945578231292517,0.3945578231292517,0.3945578231292517,0.3945578231292517,0.3945578231292517,0.3945578231292517,0.3945578231292517,0.3945578231292517,0.3945578231292517,0.3945578231292517,0.3945578231292517,0.3945578231292517,0.3945578231292517,0.3945578231292517,0.3945578231292517,0.3945578231292517,0.3945578231292517,0.3945578231292517,0.3945578231292517,0.3945578231292517,0.3945578231292517,0.3945578231292517,0.3945578231292517,0.3945578231292517,0.3945578231292517,0.3945578231292517,0.3945578231292517,0.3945578231292517,0.3945578231292517,0.3945578231292517,0.3945578231292517,0.3945578231292517,0.3945578231292517,0.3945578231292517,0.3945578231292517,0.3945578231292517,0.3945578231292517,0.3945578231292517,0.3945578231292517,0.3945578231292517,0.3945578231292517,0.3945578231292517,0.3945578231292517,0.3945578231292517,0.3945578231292517,0.3945578231292517,0.3945578231292517,0.3945578231292517,0.3945578231292517,0.3945578231292517,0.3945578231292517,0.3945578231292517,0.3945578231292517,0.3945578231292517,0.3945578231292517,0.3945578231292517,0.3945578231292517,0.3945578231292517,0.3945578231292517,0.3945578231292517,0.3945578231292517,0.3945578231292517,0.3945578231292517,0.3945578231292517,0.3945578231292517,0.3945578231292517,0.3945578231292517,0.3945578231292517,0.3945578231292517,0.3945578231292517,0.3945578231292517,0.3945578231292517,0.36054421768707484,0.35034013605442177,0.336734693877551,0.3231292517006803,0.3163265306122449,0.29931972789115646,0.2891156462585034,0.2755102040816326,0.25510204081632654,0.24149659863945577,0.23469387755102042,0.22108843537414966,0.21428571428571427,0.2108843537414966,0.20408163265306123,0.20068027210884354,0.19727891156462585,0.19387755102040816,0.19047619047619047,0.1870748299319728,0.1870748299319728,0.1836734693877551,0.1836734693877551,0.18027210884353742,0.18027210884353742,0.18027210884353742,0.18027210884353742,0.18027210884353742,0.18027210884353742,0.18027210884353742,0.18027210884353742,0.18027210884353742,0.18027210884353742,0.18027210884353742,0.18027210884353742,0.17687074829931973,0.17346938775510204,0.17006802721088435,0.17006802721088435,0.16666666666666666,0.16666666666666666,0.16326530612244897,0.16326530612244897,0.16326530612244897,0.16326530612244897,0.1598639455782313,0.1598639455782313,0.1598639455782313,0.1598639455782313,0.1598639455782313,0.1598639455782313,0.1598639455782313,0.1598639455782313,0.1598639455782313,0.1598639455782313,0.1598639455782313,0.1598639455782313,0.1598639455782313,0.1598639455782313,0.1598639455782313,0.1598639455782313,0.1598639455782313,0.1598639455782313,0.1598639455782313,0.1598639455782313,0.1598639455782313,0.1598639455782313,0.1598639455782313,0.1598639455782313,0.1598639455782313,0.1598639455782313,0.1598639455782313,0.1598639455782313,0.1598639455782313,0.1598639455782313,0.1598639455782313,0.1598639455782313,0.1598639455782313,0.1598639455782313,0.1598639455782313,0.1598639455782313,0.1598639455782313,0.1598639455782313,0.1598639455782313,0.1598639455782313,0.1598639455782313,0.1598639455782313,0.1598639455782313,0.1598639455782313,0.1598639455782313,0.1598639455782313,0.1598639455782313,0.1598639455782313,0.1598639455782313,0.1598639455782313,0.1598639455782313,0.1598639455782313,0.1598639455782313,0.1598639455782313,0.1598639455782313,0.1598639455782313,0.1598639455782313,0.1598639455782313,0.1598639455782313,0.1598639455782313,0.1598639455782313,0.1598639455782313,0.1598639455782313,0.1598639455782313,0.1598639455782313,0.1598639455782313,0.1598639455782313,0.1598639455782313,0.1598639455782313,0.1598639455782313,0.1598639455782313,0.1598639455782313,0.1598639455782313,0.1598639455782313,0.1598639455782313,0.1598639455782313,0.1598639455782313,0.1598639455782313,0.1598639455782313,0.1598639455782313,0.1598639455782313,0.1598639455782313,0.1598639455782313,0.1598639455782313,0.1598639455782313,0.1598639455782313,0.1598639455782313,0.1598639455782313,0.1598639455782313,0.1598639455782313,0.1598639455782313,0.1598639455782313,0.1598639455782313,0.1598639455782313,0.1598639455782313,0.1598639455782313,0.1598639455782313,0.1598639455782313,0.1598639455782313,0.1598639455782313,0.1598639455782313,0.1598639455782313,0.1598639455782313,0.1598639455782313,0.1598639455782313,0.1598639455782313,0.1598639455782313,0.1598639455782313,0.1598639455782313,0.1598639455782313,0.1598639455782313,0.1598639455782313,0.1598639455782313,0.1598639455782313,0.1598639455782313,0.1598639455782313,0.1598639455782313,0.1598639455782313,0.1598639455782313,0.1598639455782313,0.1598639455782313,0.1598639455782313,0.1598639455782313,0.1598639455782313,0.1598639455782313,0.1598639455782313,0.1598639455782313,0.1598639455782313,0.1598639455782313,0.1598639455782313,0.1598639455782313,0.1598639455782313,0.1598639455782313,0.1598639455782313,0.1598639455782313,0.1598639455782313,0.1598639455782313,0.1598639455782313,0.1598639455782313,0.1598639455782313,0.1598639455782313,0.1598639455782313,0.1598639455782313,0.1598639455782313,0.1598639455782313,0.1598639455782313,0.1598639455782313,0.1598639455782313,0.1598639455782313,0.1598639455782313,0.1598639455782313,0.1598639455782313,0.1598639455782313,0.1598639455782313,0.1598639455782313,0.1598639455782313,0.1598639455782313,0.1598639455782313,0.1598639455782313,0.1598639455782313,0.1598639455782313,0.1598639455782313,0.1598639455782313,0.1598639455782313,0.1598639455782313,0.1598639455782313,0.1598639455782313,0.1598639455782313,0.1598639455782313,0.1598639455782313,0.1598639455782313,0.1598639455782313,0.1598639455782313,0.1598639455782313,0.1598639455782313,0.1598639455782313,0.1598639455782313,0.1598639455782313,0.1598639455782313,0.1598639455782313,0.1598639455782313,0.1598639455782313,0.1598639455782313,0.1598639455782313,0.1598639455782313,0.1598639455782313,0.1598639455782313,0.1598639455782313,0.1598639455782313,0.1598639455782313,0.1598639455782313,0.1598639455782313,0.1598639455782313,0.1598639455782313,0.1598639455782313,0.1598639455782313,0.1598639455782313,0.1598639455782313,0.1598639455782313,0.1598639455782313,0.1598639455782313,0.1598639455782313,0.1598639455782313,0.1598639455782313,0.1598639455782313,0.1598639455782313,0.1598639455782313,0.1598639455782313,0.1598639455782313,0.1598639455782313,0.1598639455782313,0.1598639455782313,0.1598639455782313,0.1598639455782313,0.1598639455782313,0.1598639455782313,0.1598639455782313,0.1598639455782313,0.1598639455782313,0.1598639455782313,0.1598639455782313,0.1598639455782313,0.1598639455782313,0.1598639455782313,0.1598639455782313,0.1598639455782313,0.1598639455782313,0.1598639455782313,0.1598639455782313,0.1598639455782313,0.1598639455782313,0.1598639455782313,0.1598639455782313,0.1598639455782313,0.1598639455782313,0.1598639455782313,0.1598639455782313,0.1598639455782313,0.1598639455782313,0.1598639455782313,0.1598639455782313,0.1598639455782313,0.1598639455782313,0.1598639455782313,0.1598639455782313,0.1598639455782313,0.1598639455782313,0.1598639455782313,0.1598639455782313,0.1598639455782313,0.1598639455782313,0.1598639455782313,0.1598639455782313,0.1598639455782313,0.1598639455782313,0.1598639455782313,0.1598639455782313,0.1598639455782313,0.1598639455782313,0.1598639455782313,0.1598639455782313,0.1598639455782313,0.1598639455782313,0.1598639455782313,0.1598639455782313,0.1598639455782313,0.1598639455782313,0.1598639455782313,0.1598639455782313,0.1598639455782313,0.1598639455782313,0.1598639455782313,0.1598639455782313,0.1598639455782313,0.1598639455782313,0.1598639455782313,0.1598639455782313,0.1598639455782313,0.1598639455782313,0.1598639455782313,0.1598639455782313,0.1598639455782313,0.1598639455782313,0.1598639455782313,0.1598639455782313,0.1598639455782313,0.1598639455782313,0.1598639455782313,0.1598639455782313,0.1598639455782313,0.1598639455782313,0.1598639455782313,0.1598639455782313,0.1598639455782313,0.1598639455782313,0.1598639455782313,0.1598639455782313,0.1598639455782313,0.1598639455782313,0.1598639455782313,0.1598639455782313,0.1598639455782313,0.1598639455782313,0.1598639455782313,0.1598639455782313,0.1598639455782313,0.1598639455782313,0.1598639455782313,0.1598639455782313,0.1598639455782313,0.1598639455782313,0.1598639455782313,0.1598639455782313,0.1598639455782313,0.1598639455782313,0.1598639455782313,0.1598639455782313,0.1598639455782313,0.1598639455782313,0.1598639455782313,0.1598639455782313,0.1598639455782313,0.1598639455782313,0.1598639455782313,0.1598639455782313,0.1598639455782313,0.1598639455782313,0.1598639455782313,0.1598639455782313,0.1598639455782313,0.1598639455782313,0.1598639455782313,0.1598639455782313,0.1598639455782313,0.1598639455782313,0.1598639455782313,0.1598639455782313,0.1598639455782313,0.1598639455782313,0.1598639455782313,0.1598639455782313,0.1598639455782313,0.1598639455782313,0.1598639455782313,0.1598639455782313,0.1598639455782313,0.1598639455782313,0.1598639455782313,0.1598639455782313,0.1598639455782313,0.1598639455782313,0.1598639455782313,0.1598639455782313,0.1598639455782313,0.1598639455782313,0.1598639455782313,0.1598639455782313,0.1598639455782313,0.1598639455782313,0.1598639455782313,0.1598639455782313,0.1598639455782313,0.1598639455782313,0.1598639455782313,0.1598639455782313,0.1598639455782313,0.1598639455782313,0.1598639455782313,0.1598639455782313,0.1598639455782313,0.1598639455782313,0.1598639455782313,0.1598639455782313,0.1598639455782313,0.1598639455782313,0.1598639455782313,0.1598639455782313,0.1598639455782313,0.1598639455782313,0.1598639455782313,0.1598639455782313,0.1598639455782313,0.1598639455782313,0.1598639455782313,0.1598639455782313,0.1598639455782313,0.1598639455782313,0.1598639455782313,0.1598639455782313,0.1598639455782313,0.1598639455782313,0.1598639455782313,0.1598639455782313,0.1598639455782313,0.1598639455782313,0.1598639455782313,0.1598639455782313,0.1598639455782313,0.1598639455782313,0.1598639455782313,0.1598639455782313,0.1598639455782313,0.1598639455782313,0.1598639455782313,0.1598639455782313,0.1598639455782313,0.1598639455782313,0.1598639455782313,0.1598639455782313,0.1598639455782313,0.1598639455782313,0.1598639455782313,0.1598639455782313,0.1598639455782313,0.1598639455782313,0.1598639455782313,0.1598639455782313,0.1598639455782313,0.1598639455782313,0.1598639455782313,0.1598639455782313,0.1598639455782313,0.1598639455782313,0.1598639455782313,0.1598639455782313,0.1598639455782313,0.1598639455782313,0.1598639455782313,0.1598639455782313,0.1598639455782313,0.1598639455782313,0.1598639455782313,0.1598639455782313,0.1598639455782313,0.1598639455782313,0.16326530612244897,0.19387755102040816,0.21428571428571427,0.22448979591836735,0.23129251700680273,0.23469387755102042,0.23469387755102042,0.23469387755102042,0.23129251700680273,0.22108843537414966,0.21428571428571427,0.20408163265306123,0.20068027210884354,0.20068027210884354,0.19727891156462585,0.19727891156462585,0.19727891156462585,0.19727891156462585,0.19727891156462585,0.19727891156462585,0.19727891156462585,0.19727891156462585,0.19727891156462585,0.19727891156462585,0.19727891156462585,0.19727891156462585,0.19387755102040816,0.1836734693877551,0.17346938775510204,0.14285714285714285,0.09863945578231292,0.08163265306122448,0.05782312925170068,0.047619047619047616,0.03741496598639456,0.027210884353741496,0.017006802721088437,0.013605442176870748,0.01020408163265306,0.003401360544217687,-0.003401360544217687,-0.006802721088435374,-0.01020408163265306,-0.01020408163265306,-0.013605442176870748,-0.013605442176870748,-0.013605442176870748,-0.013605442176870748,-0.013605442176870748,-0.013605442176870748,-0.013605442176870748,-0.01020408163265306,-0.006802721088435374,-0.003401360544217687,0,0,0,0,0,0,0,0,0,0,0,0,0,0,0,0.003401360544217687,0.003401360544217687,0.006802721088435374,0.006802721088435374,0.006802721088435374,0.006802721088435374,0.006802721088435374,0.006802721088435374,0.006802721088435374,0.006802721088435374,0.006802721088435374,0.006802721088435374,0.006802721088435374,0.006802721088435374,0.006802721088435374,0.006802721088435374,0.006802721088435374,0.006802721088435374,0.006802721088435374,0.006802721088435374,0.006802721088435374,0.006802721088435374,0.006802721088435374,0.006802721088435374,0.006802721088435374,0.006802721088435374,0.006802721088435374,0.006802721088435374,0.006802721088435374,0.006802721088435374,0.006802721088435374,0.006802721088435374,0.006802721088435374,0.006802721088435374,0.006802721088435374,0.006802721088435374,0.006802721088435374,0.006802721088435374,0.006802721088435374,0.006802721088435374,0.006802721088435374,0.006802721088435374,0.006802721088435374,0.006802721088435374,0.006802721088435374,0.006802721088435374,0.006802721088435374,0.006802721088435374,0.006802721088435374,0.006802721088435374,0.006802721088435374,0.006802721088435374,0.006802721088435374,0.006802721088435374,0.006802721088435374,0.006802721088435374,0.006802721088435374,0.006802721088435374,0.006802721088435374,0.006802721088435374,0.006802721088435374,0.006802721088435374,0.006802721088435374,0.006802721088435374,0.006802721088435374,0.006802721088435374,0.006802721088435374,0.006802721088435374,0.006802721088435374,0.006802721088435374,0.006802721088435374,0.006802721088435374,0.006802721088435374,0.006802721088435374,0.006802721088435374,0.006802721088435374,0.006802721088435374,0.006802721088435374,0.006802721088435374,0.006802721088435374,0.006802721088435374,0.006802721088435374,0.006802721088435374,0.006802721088435374,0.006802721088435374,0.006802721088435374,0.006802721088435374,0.006802721088435374,0.006802721088435374,0.006802721088435374,0.006802721088435374,0.006802721088435374,0.006802721088435374,0.006802721088435374,0.006802721088435374,0.006802721088435374,0.006802721088435374,0.006802721088435374,0.006802721088435374,0.006802721088435374,0.006802721088435374,0.006802721088435374,0.006802721088435374,0.006802721088435374,0.006802721088435374,0.006802721088435374,0.006802721088435374,0.006802721088435374,0.006802721088435374,0.006802721088435374,0.006802721088435374,0.006802721088435374,0.006802721088435374,0.006802721088435374,0.006802721088435374,0.006802721088435374,0.006802721088435374,0.006802721088435374,0.006802721088435374,0.006802721088435374,0.006802721088435374,0.006802721088435374,0.006802721088435374,0.006802721088435374,0.006802721088435374,0.006802721088435374,0.006802721088435374,0.006802721088435374,0.006802721088435374,0.006802721088435374,0.006802721088435374,0.006802721088435374,0.006802721088435374,0.006802721088435374,0.006802721088435374,0.006802721088435374,0.006802721088435374,0.006802721088435374,0.006802721088435374,0.006802721088435374,0.006802721088435374,0.006802721088435374,0.006802721088435374,0.006802721088435374,0.006802721088435374,0.006802721088435374,0.006802721088435374,0.006802721088435374,0.006802721088435374,0.006802721088435374,0.006802721088435374,0.006802721088435374,0.006802721088435374,0.006802721088435374,0.006802721088435374,0.006802721088435374,0.006802721088435374,0.006802721088435374,0.006802721088435374,0.006802721088435374,0.006802721088435374,0.006802721088435374,0.006802721088435374,0.006802721088435374,0.006802721088435374,0.006802721088435374,0.006802721088435374,0.006802721088435374,0.006802721088435374,0.006802721088435374,0.006802721088435374,0.006802721088435374,0.006802721088435374,0.006802721088435374,0.006802721088435374,0.006802721088435374,0.006802721088435374,0.006802721088435374,0.006802721088435374,0.006802721088435374,0.006802721088435374,0.006802721088435374,0.006802721088435374,0.006802721088435374,0.006802721088435374,0.006802721088435374,0.006802721088435374,0.006802721088435374,0.006802721088435374,0.006802721088435374,0.006802721088435374,0.006802721088435374,0.006802721088435374,0.006802721088435374,0.006802721088435374,0.006802721088435374,0.006802721088435374,0.006802721088435374,0.006802721088435374,0.006802721088435374,0.006802721088435374,0.006802721088435374,0.006802721088435374,0.006802721088435374,0.006802721088435374,0.006802721088435374,0.006802721088435374,0.006802721088435374,0.006802721088435374,0.006802721088435374,0.006802721088435374,0.006802721088435374,0.006802721088435374,0.006802721088435374,0.006802721088435374,0.006802721088435374,0.006802721088435374,0.006802721088435374,0.006802721088435374,0.006802721088435374,0.006802721088435374,0.017006802721088437,0.02040816326530612,0.023809523809523808,0.027210884353741496,0.027210884353741496,0.027210884353741496,0.030612244897959183,0.034013605442176874,0.03741496598639456,0.04421768707482993,0.05102040816326531,0.061224489795918366,0.06462585034013606,0.06802721088435375,0.0782312925170068,0.08843537414965986,0.1054421768707483,0.11904761904761904,0.13945578231292516,0.19047619047619047,0.22448979591836735,0.24829931972789115,0.3197278911564626,0.3673469387755102,0.4217687074829932,0.4557823129251701,0.5034013605442177,0.5238095238095238,0.5408163265306123,0.5884353741496599,0.6326530612244898,0.6972789115646258,0.7755102040816326,0.8129251700680272,0.8299319727891157,0.8469387755102041,0.8605442176870748,0.8809523809523809,0.8945578231292517,0.9081632653061225,0.9183673469387755,0.9251700680272109,0.935374149659864,0.9387755102040817,0.9455782312925171,0.9523809523809523,0.95578231292517,0.9591836734693877,0.9625850340136054,0.9625850340136054,0.9625850340136054,0.9625850340136054,0.9591836734693877,0.95578231292517,0.95578231292517,0.95578231292517,0.9523809523809523,0.9523809523809523,0.9523809523809523,0.9523809523809523,0.9523809523809523,0.9523809523809523,0.9523809523809523,0.9523809523809523,0.95578231292517,0.95578231292517,0.9591836734693877,0.9625850340136054,0.9659863945578231,0.9659863945578231,0.9659863945578231,0.9693877551020408,0.9727891156462585,0.9727891156462585,0.9727891156462585,0.9727891156462585,0.9727891156462585,0.9727891156462585,0.9761904761904762,0.9761904761904762,0.9795918367346939,0.9795918367346939,0.9829931972789115,0.9829931972789115,0.9863945578231292,0.9897959183673469,0.9897959183673469,0.9897959183673469,0.9897959183673469,0.9897959183673469,0.9897959183673469,0.9897959183673469,0.9897959183673469,0.9897959183673469,0.9897959183673469,0.9897959183673469,0.9897959183673469,0.9897959183673469,0.9897959183673469,0.9897959183673469,0.9897959183673469,0.9897959183673469,0.9897959183673469,0.9897959183673469,0.9897959183673469,0.9897959183673469,0.9897959183673469,0.9897959183673469,0.9897959183673469,0.9897959183673469,0.9897959183673469,0.9897959183673469,0.9897959183673469,0.9897959183673469,0.9897959183673469,0.9897959183673469,0.9897959183673469,0.9897959183673469,0.9897959183673469,0.9897959183673469,0.9897959183673469,0.9897959183673469,0.9897959183673469,0.9897959183673469,0.9897959183673469,0.9897959183673469,0.9897959183673469,0.9897959183673469,0.9897959183673469,0.9897959183673469,0.9897959183673469,0.9897959183673469,0.9897959183673469,0.9897959183673469,0.9897959183673469,0.9897959183673469,0.9897959183673469,0.9897959183673469,0.9897959183673469,0.9897959183673469,0.9897959183673469,0.9897959183673469,0.9897959183673469,0.9897959183673469,0.9897959183673469,0.9897959183673469,0.9897959183673469,0.9897959183673469,0.9897959183673469,0.9897959183673469,0.9897959183673469,0.9897959183673469,0.9897959183673469,0.9897959183673469,0.9897959183673469,0.9897959183673469,0.9897959183673469,0.9897959183673469,0.9897959183673469,0.9897959183673469,0.9897959183673469,0.9897959183673469,0.9897959183673469,0.9897959183673469,0.9897959183673469,0.9897959183673469,0.9897959183673469,0.9897959183673469,0.9897959183673469,0.9897959183673469,0.9897959183673469,0.9217687074829932,0.891156462585034,0.8231292517006803,0.782312925170068,0.7619047619047619,0.7244897959183674,0.7074829931972789,0.6904761904761905,0.6836734693877551,0.673469387755102,0.6598639455782312,0.6564625850340136,0.6496598639455783,0.6496598639455783,0.6496598639455783,0.6496598639455783,0.6496598639455783,0.6496598639455783,0.6496598639455783,0.6496598639455783,0.6496598639455783,0.6496598639455783,0.6496598639455783,0.6462585034013606,0.6462585034013606,0.6462585034013606,0.6428571428571429,0.6394557823129252,0.6360544217687075,0.6360544217687075,0.6292517006802721,0.6258503401360545,0.6224489795918368,0.6190476190476191,0.6190476190476191,0.6156462585034014,0.6122448979591837,0.608843537414966,0.6054421768707483,0.6020408163265306,0.6020408163265306,0.5986394557823129,0.5952380952380952,0.5952380952380952,0.5918367346938775,0.5918367346938775,0.5884353741496599,0.5884353741496599,0.5884353741496599,0.5884353741496599,0.5884353741496599,0.5884353741496599,0.5884353741496599,0.5884353741496599,0.5884353741496599,0.5884353741496599,0.5884353741496599,0.5884353741496599,0.5884353741496599,0.5884353741496599,0.5884353741496599,0.5884353741496599,0.5884353741496599,0.5884353741496599,0.5884353741496599,0.5884353741496599,0.5884353741496599,0.5884353741496599,0.5884353741496599,0.5884353741496599,0.5884353741496599,0.5884353741496599,0.5884353741496599,0.5884353741496599,0.5884353741496599,0.5884353741496599,0.5884353741496599,0.5884353741496599,0.5884353741496599,0.5884353741496599,0.5884353741496599,0.5884353741496599,0.5884353741496599,0.5884353741496599,0.5884353741496599,0.5884353741496599,0.5884353741496599,0.5884353741496599,0.5884353741496599,0.5884353741496599,0.5884353741496599,0.5884353741496599,0.5884353741496599,0.5884353741496599,0.5884353741496599,0.5884353741496599,0.5884353741496599,0.5884353741496599,0.5884353741496599,0.5884353741496599,0.5884353741496599,0.5884353741496599,0.5884353741496599,0.5884353741496599,0.5884353741496599,0.5884353741496599,0.5884353741496599,0.5884353741496599,0.5884353741496599,0.5884353741496599,0.5884353741496599,0.5884353741496599,0.5884353741496599,0.5884353741496599,0.5884353741496599,0.5884353741496599,0.5884353741496599,0.5884353741496599,0.5884353741496599,0.5884353741496599,0.5884353741496599,0.5884353741496599,0.5884353741496599,0.5884353741496599,0.5884353741496599,0.5884353741496599,0.5884353741496599,0.5884353741496599,0.5884353741496599,0.5884353741496599,0.5816326530612245,0.5748299319727891,0.5612244897959183,0.5510204081632653,0.54421768707483,0.5374149659863946,0.5340136054421769,0.5272108843537415,0.5204081632653061,0.5204081632653061,0.5136054421768708,0.5102040816326531,0.5034013605442177,0.4965986394557823,0.4897959183673469,0.47959183673469385,0.46258503401360546,0.445578231292517,0.42517006802721086,0.41156462585034015,0.40476190476190477,0.3877551020408163,0.38095238095238093,0.3707482993197279,0.36394557823129253,0.35374149659863946,0.3469387755102041,0.3401360544217687,0.336734693877551,0.3333333333333333,0.3333333333333333,0.3333333333333333,0.3333333333333333,0.3435374149659864,0.35374149659863946,0.3673469387755102,0.38095238095238093,0.3945578231292517,0.40816326530612246,0.4387755102040816,0.45918367346938777,0.5340136054421769,0.5884353741496599,0.6428571428571429,0.717687074829932,0.7482993197278912,0.7755102040816326,0.7925170068027211,0.8027210884353742,0.8197278911564626,0.8299319727891157,0.8367346938775511,0.8435374149659864,0.8503401360544217,0.8537414965986394,0.8639455782312925,0.8707482993197279,0.8775510204081632,0.8979591836734694,0.9115646258503401,0.9319727891156463,0.9489795918367347,0.9625850340136054,0.9829931972789115,0.9897959183673469,1.0068027210884354,1.0170068027210883,1.0272108843537415,1.0442176870748299,1.0510204081632653,1.064625850340136,1.0748299319727892,1.0816326530612246,1.0952380952380953,1.1020408163265305,1.1054421768707483,1.1156462585034013,1.1156462585034013,1.1224489795918366,1.1258503401360545,1.129251700680272,1.129251700680272,1.1326530612244898,1.1360544217687074,1.1360544217687074,1.1360544217687074,1.1360544217687074,1.1360544217687074,1.1360544217687074,1.1360544217687074,1.1360544217687074,1.1360544217687074,1.1360544217687074,1.1360544217687074,1.1360544217687074,1.1360544217687074,1.1360544217687074,1.1360544217687074,1.1360544217687074,1.1360544217687074,1.1360544217687074,1.1360544217687074,1.1360544217687074,1.1360544217687074,1.1360544217687074,1.1360544217687074,1.1360544217687074,1.1360544217687074,1.1360544217687074,1.1360544217687074,1.1360544217687074,1.1360544217687074,1.1360544217687074,1.1360544217687074,1.1360544217687074,1.1360544217687074,1.1360544217687074,1.1360544217687074,1.1360544217687074,1.1360544217687074,1.1360544217687074,1.1360544217687074,1.1360544217687074,1.1360544217687074,1.1360544217687074,1.1360544217687074,1.1360544217687074,1.1360544217687074,1.1360544217687074,1.1360544217687074,1.1360544217687074,1.1360544217687074,1.1360544217687074,1.1360544217687074,1.1360544217687074,1.1360544217687074,1.1360544217687074,1.1360544217687074,1.1360544217687074,1.1360544217687074,1.1360544217687074,1.1360544217687074,1.1360544217687074,1.1360544217687074,1.1360544217687074,1.1360544217687074,1.1360544217687074,1.1360544217687074,1.1360544217687074,1.1360544217687074,1.1360544217687074,1.1360544217687074,1.1360544217687074,1.1360544217687074,1.1360544217687074,1.1360544217687074,1.1360544217687074,1.1360544217687074,1.1360544217687074,1.1360544217687074,1.1360544217687074,1.1360544217687074,1.1360544217687074,1.1360544217687074,1.1360544217687074,1.1360544217687074,1.1360544217687074,1.1360544217687074,1.1360544217687074,1.1360544217687074,1.1360544217687074,1.1360544217687074,1.1360544217687074,1.1360544217687074,1.1360544217687074,1.1360544217687074,1.1360544217687074,1.1360544217687074,1.1360544217687074,1.1360544217687074,1.1360544217687074,1.1360544217687074,1.1360544217687074,1.1360544217687074,1.1360544217687074,1.1360544217687074,1.1360544217687074,1.1360544217687074,1.1360544217687074,1.1360544217687074,1.1360544217687074,1.1360544217687074,1.1360544217687074,1.1360544217687074,1.1360544217687074,1.1360544217687074,1.1360544217687074,1.1360544217687074,1.1360544217687074,1.1360544217687074,1.1360544217687074,1.1360544217687074,1.1360544217687074,1.1360544217687074,1.1360544217687074,1.1360544217687074,1.1360544217687074,1.1360544217687074,1.1360544217687074,1.1360544217687074,1.1360544217687074,1.1360544217687074,1.1360544217687074,1.1360544217687074,1.1360544217687074,1.1360544217687074,1.1360544217687074,1.1360544217687074,1.1360544217687074,1.1360544217687074,1.1360544217687074,1.1360544217687074,1.1360544217687074,1.1360544217687074,1.1360544217687074,1.1360544217687074,1.1360544217687074,1.1360544217687074,1.1360544217687074,1.1360544217687074,1.1360544217687074,1.1360544217687074,1.1360544217687074,1.1360544217687074,1.1360544217687074,1.1360544217687074,1.1360544217687074,1.1360544217687074,1.1360544217687074,1.1360544217687074,1.1360544217687074,1.1360544217687074,1.1360544217687074,1.1360544217687074,1.1360544217687074,1.1360544217687074,1.1360544217687074,1.1360544217687074,1.1360544217687074],"y":[-3.0476190476190474,-3.0476190476190474,-3.0476190476190474,-3.0476190476190474,-3.0476190476190474,-3.0476190476190474,-3.0476190476190474,-3.0476190476190474,-3.0476190476190474,-3.0476190476190474,-3.0476190476190474,-3.0476190476190474,-3.0476190476190474,-3.0476190476190474,-3.0476190476190474,-3.0476190476190474,-3.0476190476190474,-3.0476190476190474,-3.0476190476190474,-3.0476190476190474,-3.0476190476190474,-3.0476190476190474,-3.0476190476190474,-3.0476190476190474,-3.0476190476190474,-3.0476190476190474,-3.0476190476190474,-3.0476190476190474,-3.0476190476190474,-3.0476190476190474,-3.0476190476190474,-3.0476190476190474,-3.0476190476190474,-3.0476190476190474,-3.0476190476190474,-3.0476190476190474,-3.0476190476190474,-3.0476190476190474,-3.0476190476190474,-3.0476190476190474,-3.0476190476190474,-3.0476190476190474,-3.0476190476190474,-3.0476190476190474,-3.0476190476190474,-3.0476190476190474,-3.0476190476190474,-3.0476190476190474,-3.0476190476190474,-3.0476190476190474,-3.0476190476190474,-3.0476190476190474,-3.0476190476190474,-3.0476190476190474,-3.0476190476190474,-3.0476190476190474,-3.0476190476190474,-3.0476190476190474,-3.0476190476190474,-3.0476190476190474,-3.0476190476190474,-3.0476190476190474,-3.0476190476190474,-3.0476190476190474,-3.0476190476190474,-3.0476190476190474,-3.0476190476190474,-3.0476190476190474,-3.0476190476190474,-3.0476190476190474,-3.0476190476190474,-3.0476190476190474,-3.0476190476190474,-3.0476190476190474,-3.0476190476190474,-3.0476190476190474,-3.0476190476190474,-3.0476190476190474,-3.0476190476190474,-3.0476190476190474,-3.0476190476190474,-3.0476190476190474,-3.0476190476190474,-3.0476190476190474,-3.0476190476190474,-3.0476190476190474,-3.0476190476190474,-3.0476190476190474,-3.0476190476190474,-3.0476190476190474,-3.0476190476190474,-3.0476190476190474,-3.0476190476190474,-3.0476190476190474,-3.0476190476190474,-3.0476190476190474,-3.0476190476190474,-3.0476190476190474,-3.0476190476190474,-3.0476190476190474,-3.0476190476190474,-3.0476190476190474,-3.0476190476190474,-3.0476190476190474,-3.0476190476190474,-3.0476190476190474,-3.0476190476190474,-3.0476190476190474,-3.0476190476190474,-3.0476190476190474,-3.0476190476190474,-3.0476190476190474,-3.0476190476190474,-3.0476190476190474,-3.0476190476190474,-3.0476190476190474,-3.0476190476190474,-3.0476190476190474,-3.0476190476190474,-3.0476190476190474,-3.0476190476190474,-3.0476190476190474,-3.0476190476190474,-3.0476190476190474,-3.0476190476190474,-3.0476190476190474,-3.0476190476190474,-3.0476190476190474,-3.0476190476190474,-3.0476190476190474,-3.0476190476190474,-3.0476190476190474,-3.0476190476190474,-3.0476190476190474,-3.0476190476190474,-3.0476190476190474,-3.0476190476190474,-3.0476190476190474,-3.0476190476190474,-3.0476190476190474,-3.0476190476190474,-3.0476190476190474,-3.0476190476190474,-3.0476190476190474,-3.0476190476190474,-3.0476190476190474,-3.0476190476190474,-3.0476190476190474,-3.0476190476190474,-3.0476190476190474,-3.0476190476190474,-3.0476190476190474,-3.0476190476190474,-3.0476190476190474,-3.0476190476190474,-3.0476190476190474,-3.0476190476190474,-3.0476190476190474,-3.0476190476190474,-3.0476190476190474,-3.0476190476190474,-3.0476190476190474,-3.0476190476190474,-3.0476190476190474,-3.0476190476190474,-3.0476190476190474,-3.0476190476190474,-3.0476190476190474,-3.0476190476190474,-3.0476190476190474,-3.0476190476190474,-3.0476190476190474,-3.0476190476190474,-3.0476190476190474,-3.0476190476190474,-3.0476190476190474,-3.0476190476190474,-3.0476190476190474,-3.0476190476190474,-3.0476190476190474,-3.0476190476190474,-3.0476190476190474,-3.0476190476190474,-3.0476190476190474,-3.0476190476190474,-3.0476190476190474,-3.0476190476190474,-3.0476190476190474,-3.0476190476190474,-3.0476190476190474,-3.0476190476190474,-3.0476190476190474,-3.0476190476190474,-3.0476190476190474,-3.0476190476190474,-3.0476190476190474,-3.0476190476190474,-3.0476190476190474,-3.0476190476190474,-3.0476190476190474,-3.0476190476190474,-3.0476190476190474,-3.0476190476190474,-3.0476190476190474,-3.0476190476190474,-3.0476190476190474,-3.0476190476190474,-3.0476190476190474,-3.0476190476190474,-3.0476190476190474,-3.0476190476190474,-3.0476190476190474,-3.0476190476190474,-3.0476190476190474,-3.0476190476190474,-3.0476190476190474,-3.0476190476190474,-3.0476190476190474,-3.0476190476190474,-3.0476190476190474,-3.0476190476190474,-3.0476190476190474,-3.0476190476190474,-3.0476190476190474,-3.0476190476190474,-3.0476190476190474,-3.0476190476190474,-3.0476190476190474,-3.0476190476190474,-3.0476190476190474,-3.0476190476190474,-3.0476190476190474,-3.0476190476190474,-3.0476190476190474,-3.0476190476190474,-3.0476190476190474,-3.0476190476190474,-3.0476190476190474,-3.0476190476190474,-3.0476190476190474,-3.0476190476190474,-3.0476190476190474,-3.0476190476190474,-3.0476190476190474,-3.0476190476190474,-3.0476190476190474,-3.0476190476190474,-3.0476190476190474,-3.0476190476190474,-3.0476190476190474,-3.0476190476190474,-3.0476190476190474,-3.0476190476190474,-3.0476190476190474,-3.0476190476190474,-3.0476190476190474,-3.0476190476190474,-3.0476190476190474,-3.0476190476190474,-3.0476190476190474,-3.0476190476190474,-3.0476190476190474,-3.0476190476190474,-3.0476190476190474,-3.0476190476190474,-3.0476190476190474,-3.0476190476190474,-3.0476190476190474,-3.0476190476190474,-3.0476190476190474,-3.0476190476190474,-3.0476190476190474,-3.04761904761