[{"success":true,"trial_type":"fullscreen","trial_index":0,"time_elapsed":5082,"internal_node_id":"0.0-0.0","protocol_sum":"","subject_identifier":22,"subject_sum":[79,200,43,38,174,203,71,210,134,140,78,251,227,88,23,50,163,231,203,204,108,46,251,50,6,44,8,23,10,5,238,184],"subject_pair":11,"STUDY_ID":"669a58f4f17d67c0aba4c4d3","PROLIFIC_PID":"66743dc61dc3fc51cbb8fefd","SESSION_ID":"669a62d962ae11699be55bf5","practice_instructions":2,"leaderboard_instructions":0,"bonus":0,"reveal_word":false,"self_rating":"3","confidence":"63"},{"view_history":"[{\"page_index\":0,\"viewing_time\":1529.7000000029802}]","rt":1529.9000000059605,"trial_type":"instructions","trial_index":1,"time_elapsed":6613,"internal_node_id":"0.0-1.0","protocol_sum":"","subject_identifier":22,"subject_sum":[79,200,43,38,174,203,71,210,134,140,78,251,227,88,23,50,163,231,203,204,108,46,251,50,6,44,8,23,10,5,238,184],"subject_pair":11,"STUDY_ID":"669a58f4f17d67c0aba4c4d3","PROLIFIC_PID":"66743dc61dc3fc51cbb8fefd","SESSION_ID":"669a62d962ae11699be55bf5","practice_instructions":2,"leaderboard_instructions":0,"bonus":0,"reveal_word":false,"self_rating":"3","confidence":"63"},{"view_history":"[{\"page_index\":0,\"viewing_time\":959.1999999880791}]","rt":959.5,"trial_type":"instructions","trial_index":2,"time_elapsed":7573,"internal_node_id":"0.0-2.0-0.0","protocol_sum":"","subject_identifier":22,"subject_sum":[79,200,43,38,174,203,71,210,134,140,78,251,227,88,23,50,163,231,203,204,108,46,251,50,6,44,8,23,10,5,238,184],"subject_pair":11,"STUDY_ID":"669a58f4f17d67c0aba4c4d3","PROLIFIC_PID":"66743dc61dc3fc51cbb8fefd","SESSION_ID":"669a62d962ae11699be55bf5","practice_instructions":2,"leaderboard_instructions":0,"bonus":0,"reveal_word":false,"self_rating":"3","confidence":"63"},{"rt":15431.199999988079,"responses":"{\"Q0\":\"... go <b>really fast</b> and finish the game as quickly as possible\"}","question_order":"[0]","trial_type":"survey-multi-choice","trial_index":3,"time_elapsed":23005,"internal_node_id":"0.0-2.0-1.0","protocol_sum":"","subject_identifier":22,"subject_sum":[79,200,43,38,174,203,71,210,134,140,78,251,227,88,23,50,163,231,203,204,108,46,251,50,6,44,8,23,10,5,238,184],"subject_pair":11,"correct":false,"test_part":"multichoice_nonpretend","STUDY_ID":"669a58f4f17d67c0aba4c4d3","PROLIFIC_PID":"66743dc61dc3fc51cbb8fefd","SESSION_ID":"669a62d962ae11699be55bf5","practice_instructions":2,"leaderboard_instructions":0,"bonus":0,"reveal_word":false,"self_rating":"3","confidence":"63"},{"view_history":"[{\"page_index\":0,\"viewing_time\":9942.800000011921}]","rt":9943,"trial_type":"instructions","trial_index":4,"time_elapsed":32949,"internal_node_id":"0.0-2.1-0.1","protocol_sum":"","subject_identifier":22,"subject_sum":[79,200,43,38,174,203,71,210,134,140,78,251,227,88,23,50,163,231,203,204,108,46,251,50,6,44,8,23,10,5,238,184],"subject_pair":11,"STUDY_ID":"669a58f4f17d67c0aba4c4d3","PROLIFIC_PID":"66743dc61dc3fc51cbb8fefd","SESSION_ID":"669a62d962ae11699be55bf5","practice_instructions":2,"leaderboard_instructions":0,"bonus":0,"reveal_word":false,"self_rating":"3","confidence":"63"},{"rt":4775.70000000298,"responses":"{\"Q0\":\"... reveal the word with as <b>few letter guesses</b> as possible\"}","question_order":"[0]","trial_type":"survey-multi-choice","trial_index":5,"time_elapsed":37726,"internal_node_id":"0.0-2.1-1.1","protocol_sum":"","subject_identifier":22,"subject_sum":[79,200,43,38,174,203,71,210,134,140,78,251,227,88,23,50,163,231,203,204,108,46,251,50,6,44,8,23,10,5,238,184],"subject_pair":11,"correct":true,"test_part":"multichoice_nonpretend","STUDY_ID":"669a58f4f17d67c0aba4c4d3","PROLIFIC_PID":"66743dc61dc3fc51cbb8fefd","SESSION_ID":"669a62d962ae11699be55bf5","practice_instructions":2,"leaderboard_instructions":0,"bonus":0,"reveal_word":false,"self_rating":"3","confidence":"63"},{"view_history":"[{\"page_index\":0,\"viewing_time\":1182.7000000029802}]","rt":1182.9000000059605,"trial_type":"instructions","trial_index":6,"time_elapsed":38909,"internal_node_id":"0.0-3.0","protocol_sum":"","subject_identifier":22,"subject_sum":[79,200,43,38,174,203,71,210,134,140,78,251,227,88,23,50,163,231,203,204,108,46,251,50,6,44,8,23,10,5,238,184],"subject_pair":11,"STUDY_ID":"669a58f4f17d67c0aba4c4d3","PROLIFIC_PID":"66743dc61dc3fc51cbb8fefd","SESSION_ID":"669a62d962ae11699be55bf5","practice_instructions":2,"leaderboard_instructions":0,"bonus":0,"reveal_word":false,"self_rating":"3","confidence":"63"},{"word":"ZEBRA","click_log":{"letter":["","F","R","N","A","I","S","O","B","Z","E"],"t":[0,9138.10000000894,12288,20736.30000001192,23196.60000000894,28444.60000000894,31270,39212.90000000596,41996.70000000298,46238.10000000894,47796.70000000298],"hit":[null,0,1,0,1,0,0,0,1,1,1],"asked":["","F","FR","FRN","FRNA","FRNAI","FRNAIS","FRNAISO","FRNAISOB","FRNAISOBZ","FRNAISOBZE"],"word_state":["_____","_____","___R_","___R_","___RA","___RA","___RA","___RA","__BRA","Z_BRA","ZEBRA"]},"hover_log":{"letter":["?","?","?","?","?","?","?","?","?","?","?","?","?","?","?","?","?","?","?","?","?","?","?","?","?","?","?","?","?","?","?","?","?","?","?","?","?","?","?","?","?","?","?","?","?","?","?","?","?","?","?","?","?","?","?","?","?","?","?","?","?","?","?","?","?","?","?","?","?","?","?","?","?","?","?","?","?","?","?","?","?","?","?","K","K","K","K","K","K","K","K","K","K","K","K","K","K","K","K","K","K","K","K","K","K","K","K","K","K","K","K","K","K","K","K","K","K","?","L","L","L","L","L","L","L","L","L","L","L","L","L","L","L","L","L","L","?","?","?","M","M","M","M","M","M","M","M","M","?","?","N","?","?","?","?","?","?","?","?","?","?","?","?","?","?","?","?","?","?","?","?","?","V","V","V","V","V","V","V","V","V","V","V","V","?","?","?","?","?","?","L","L","L","L","L","L","L","L","L","?","M","M","M","?","?","N","N","?","?","?","?","O","O","O","?","P","P","P","P","P","P","P","P","P","P","P","P","P","P","?","?","?","?","?","?","Q","Q","?","R","R","R","R","R","Q","Q","P","O","O","?","N","N","N","N","N","N","?","?","M","M","M","M","M","M","M","M","M","M","M","M","M","M","M","M","M","M","M","M","M","M","M","M","?","?","L","L","L","L","L","L","?","?","?","?","?","?","?","?","?","?","?","?","?","?","?","?","?","?","?","?","?","?","?","?","?","?","?","?","?","?","?","?","?","?","?","?","?","?","L","L","L","L","L","L","L","L","L","L","L","L","L","L","L","L","L","L","L","L","L","L","L","L","L","L","L","L","L","L","L","L","L","L","?","?","?","?","?","M","M","M","M","M","M","M","M","M","M","M","M","M","M","M","M","M","M","M","M","M","M","M","M","M","M","M","M","M","M","M","M","M","M","M","M","M","M","M","M","M","M","M","M","M","M","M","M","M","M","M","M","M","M","M","M","M","M","M","M","M","M","M","M","?","?","?","N","N","N","N","N","N","N","?","O","O","O","O","O","O","?","?","?","P","P","P","P","P","P","P","?","?","?","?","?","W","W","V","V","V","?","?","?","U","U","U","U","U","U","U","?","?","?","?","?","?","?","?","?","?","L","L","L","L","L","L","L","L","L","?","M","M","M","?","N","N","?","?","?","?","?","?","?","?","?","?","?","?","?","?","?","?","?","?","?","?","?","F","F","F","F","F","F","F","F","F","F","F","F","F","F","F","F","F","F","F","F","F","F","F","F","F","F","F","F","?","?","E","E","E","?","?","?","?","?","?","?","?","N","N","?","?","?","M","M","M","M","M","M","M","M","M","M","M","M","M","M","M","M","?","?","?","?","?","?","?","?","?","?","?","?","U","U","U","U","U","U","U","U","U","U","U","U","U","U","U","U","U","U","U","U","U","U","U","U","U","U","U","U","U","U","U","U","U","U","U","U","U","U","U","U","U","U","U","U","U","U","U","U","U","U","U","U","U","U","U","U","U","U","U","U","U","U","U","?","?","?","?","?","?","?","?","?","?","?","?","?","?","?","?","?","?","?","?","?","?","L","L","L","?","?","M","M","M","N","N","N","N","O","O","P","P","Q","Q","Q","Q","Q","Q","Q","Q","Q","Q","Q","Q","Q","Q","Q","Q","?","R","R","R","R","R","R","R","R","R","R","R","R","R","R","R","R","R","R","R","R","R","R","R","R","?","Q","Q","Q","Q","Q","Q","Q","Q","?","?","P","P","P","P","P","?","O","O","O","O","O","O","O","O","O","O","O","O","O","O","O","O","O","O","O","O","O","O","O","O","O","O","O","O","O","O","O","O","O","O","O","O","O","O","O","O","O","O","O","O","O","O","O","O","O","O","O","O","O","O","O","O","O","O","O","O","O","O","O","O","O","O","O","O","O","O","O","O","?","?","?","?","?","?","?","Z","Z","Z","Z","Z","Z","Z","Z","Z","Z","Z","Z","?","?","?","?","?","?","?","?","?","Q","Q","Q","Q","Q","Q","Q","Q","Q","Q","?","?","?","?","?","?","?","?","?","?","?","?","?","?","?","?","?","?","?","?","?","?","?","O","O","O","O","?","?","E","?","?","?","?","?","?","?","?","?","?","?","?","?","?","?","?","?","?","?","?","?","?","?","?","?","?","?","?","?","?","?","?","?","?","?","?","?","?","?","?","?","?","?","?","?","?","?","?","?","?","E","E","E","E","E","E","E","E","E","E","E","E","E","E","E","E","E","E","E","E","E","E","E","E","E","E","E","E","E","E","E","E","E","E","E","E","E","E","E","E","E","E","E","E","E","E","E","E","E","E","E","E","E","E","E","E","E","E","E","E","E","E","E","E","E","E","E","?","?","?","?","N","N","N","N","N","N","N","N","N","N","N","N","N","N","N","N","N","N","N","N","N","N","N","N","N","N","N","N","N","N","N","N","N","N","N","N","N","N","N","N","N","N","N","N","N","N","N","N","N","N","N","N","N","N","N","N","N","N","N","N","N","N","N","N","N","N","N","N","N","N","N","N","N","N","N","N","N","N","N","N","N","N","N","N","N","N","N","N","N","N","N","N","N","N","N","N","N","N","N","N","N","N","N","N","N","N","N","N","N","N","N","N","N","N","N","N","N","N","N","N","N","N","N","N","N","N","N","N","N","N","N","N","N","N","N","N","N","N","N","N","N","N","N","N","N","N","N","N","N","N","N","N","N","N","N","N","N","N","N","N","N","N","N","N","N","N","N","N","N","N","N","N","N","N","N","N","N","N","N","N","N","N","N","N","N","N","N","N","N","N","N","N","N","N","N","N","N","N","N","N","N","N","N","N","N","N","N","N","N","N","N","N","N","N","N","N","N","N","N","N","N","N","N","N","N","N","N","N","N","N","N","N","N","N","N","N","N","N","N","N","N","N","N","N","N","N","N","N","N","N","N","N","N","N","N","N","?","?","?","?","?","?","?","?","?","?","?","?","?","?","?","?","?","?","?","?","?","?","?","?","?","?","?","?","?","?","?","?","?","?","?","?","?","?","?","?","?","?","?","?","?","?","?","?","?","?","?","?","?","?","?","?","?","?","?","?","?","L","L","L","L","L","L","L","L","L","L","L","L","L","L","L","L","L","L","L","L","L","L","L","L","L","L","L","L","L","L","L","L","L","L","?","?","?","?","?","B","B","B","?","A","A","A","A","A","A","A","A","A","A","A","A","A","A","A","A","A","A","A","A","A","A","A","A","A","A","A","A","A","?","?","?","?","?","?","?","?","?","?","?","?","?","?","K","K","K","K","K","K","K","K","K","K","K","?","?","?","L","L","L","L","L","L","L","L","L","L","L","L","L","L","L","L","L","L","L","L","L","L","?","?","?","?","?","?","?","?","?","?","?","?","?","?","?","?","?","?","?","?","?","?","?","?","?","?","?","?","?","?","?","?","?","?","?","?","?","?","?","?","?","?","?","?","?","?","?","?","?","?","?","?","?","?","?","?","?","?","?","?","?","?","?","?","?","?","?","?","?","?","?","?","?","?","?","?","?","?","?","?","?","?","?","?","?","?","?","?","?","?","?","?","?","?","?","?","?","?","?","?","?","?","?","?","?","?","?","?","?","?","?","?","?","?","?","?","?","?","?","?","?","?","?","?","?","?","?","?","?","?","?","?","?","?","?","?","?","?","?","?","?","?","?","?","?","?","?","?","?","?","?","?","?","?","?","?","?","?","?","?","?","?","?","?","?","?","?","E","E","E","?","F","F","F","?","?","?","?","?","?","?","?","?","?","?","?","?","?","?","?","?","?","?","?","?","?","?","?","?","?","?","?","?","?","?","?","?","?","?","?","?","?","?","?","?","?","?","?","?","?","?","?","?","?","?","G","G","?","H","H","H","H","H","?","?","I","I","I","I","I","I","I","I","I","I","I","I","I","I","I","I","I","I","I","I","I","I","I","I","I","I","I","I","I","I","I","I","I","I","I","I","I","I","I","I","I","I","I","I","I","I","I","I","I","I","I","I","I","I","I","I","I","I","I","I","?","?","?","H","H","H","?","?","?","?","?","?","?","?","?","?","P","P","P","P","P","P","P","P","?","O","O","?","N","M","?","?","?","?","?","?","?","?","?","?","?","?","?","?","?","?","?","?","S","S","S","S","S","S","S","S","S","S","S","S","S","S","S","S","S","S","S","S","S","S","S","S","S","S","S","S","S","S","S","S","S","S","S","S","S","S","S","S","S","S","S","S","S","S","S","S","S","S","S","S","S","S","S","S","S","S","S","S","S","S","S","S","S","S","S","S","S","S","S","S","S","S","S","S","S","S","S","S","S","S","S","S","S","S","S","S","S","S","S","S","S","S","S","S","S","S","S","S","S","S","S","S","S","S","S","S","S","S","S","S","S","S","S","?","?","?","?","?","?","J","J","J","J","J","J","J","?","?","?","?","?","?","?","?","?","?","?","?","?","?","?","?","?","?","?","?","?","?","?","?","?","?","?","?","?","?","?","?","?","?","?","?","?","K","K","K","K","K","K","K","K","K","K","K","K","K","K","K","K","K","K","K","K","K","K","K","K","K","K","K","K","K","K","K","K","K","K","K","K","K","K","K","K","K","K","K","K","K","K","K","K","K","K","K","K","K","K","K","K","K","K","K","K","K","K","K","K","K","K","K","K","K","K","K","K","K","K","K","K","K","K","K","K","K","K","K","K","K","K","K","K","K","?","?","?","?","?","?","?","?","?","?","?","?","?","?","?","?","?","?","?","?","?","?","?","?","?","?","?","?","?","?","?","?","?","?","?","?","?","L","L","?","?","?","?","?","?","?","?","?","?","?","?","?","?","?","?","?","?","?","?","?","?","?","?","?","?","?","?","?","?","?","?","?","?","?","?","?","?","?","?","?","?","?","?","?","?","?","?","?","K","K","K","K","K","K","K","K","K","K","K","K","K","K","K","K","K","K","K","K","K","K","K","K","K","K","K","K","K","K","K","K","K","K","K","K","K","K","K","K","K","K","K","K","K","?","?","?","L","L","L","?","?","?","?","?","?","?","?","?","?","?","?","V","V","V","V","V","V","V","V","V","V","V","V","V","V","V","V","V","V","V","V","V","V","V","V","V","V","V","V","V","V","V","V","V","V","V","V","V","V","V","V","?","?","?","U","U","U","U","U","U","U","U","U","U","U","U","U","U","U","U","U","U","U","U","U","U","U","U","?","?","?","?","?","?","?","?","?","?","?","?","?","?","?","?","?","?","?","L","L","L","L","L","L","L","L","L","L","L","L","L","L","L","L","L","L","L","L","L","?","M","M","M","?","N","N","N","N","N","N","N","N","N","?","?","?","?","?","?","?","?","O","O","O","O","O","O","O","O","O","O","O","O","O","O","O","O","O","O","O","O","O","O","O","O","O","O","O","O","O","O","O","O","O","O","O","O","O","O","O","O","O","O","O","O","O","O","O","O","O","O","O","O","O","O","O","O","O","O","O","O","O","O","O","O","O","?","?","?","?","?","?","?","?","?","?","?","?","?","?","?","N","N","N","N","N","N","N","?","?","?","?","?","?","?","?","?","?","?","?","?","?","?","?","?","?","D","D","D","D","D","D","D","D","D","D","D","D","D","D","D","D","D","D","D","D","?","?","?","?","?","?","?","?","?","C","C","C","C","C","C","C","C","C","C","C","C","C","C","C","C","C","C","C","C","C","C","C","C","C","C","C","C","C","B","B","B","B","B","B","B","B","B","B","B","B","B","B","B","B","B","B","B","B","B","B","B","B","B","B","B","B","B","B","B","B","B","B","B","B","B","B","B","B","B","B","B","B","B","B","B","B","B","?","C","C","C","C","?","?","D","D","D","D","D","D","D","D","D","D","D","D","D","D","D","D","D","D","D","D","D","D","D","D","D","D","D","D","D","D","D","D","D","D","D","D","D","D","D","D","D","D","D","D","D","D","D","D","D","D","D","D","D","D","D","D","D","D","D","D","D","D","D","D","D","D","D","D","D","D","D","D","D","D","D","D","D","D","D","D","D","D","D","D","D","D","D","D","D","D","D","D","D","D","D","D","D","D","D","D","D","D","D","D","D","?","?","?","?","?","?","?","?","?","?","?","?","?","?","?","?","?","?","?","?","?","?","?","?","?","?","?","?","?","?","?","?","?","?","?","?","?","?","?","?","?","?","?","?","?","?","?","?","?","?","?","L","L","L","L","?","?","?","?","?","?","?","?","?","?","?","?","?","W","W","?","?","?","?","X","X","X","Y","Y","Y","Z","Z","Z","Z","Z","Z","Z","Z","Z","Z","Z","Z","Z","Z","Z","Z","Z","Z","Z","Z","Z","Z","Z","Z","Z","Z","Z","Z","Z","Z","Z","Z","Z","Z","Z","Z","Z","Z","Z","Z","Z","Z","Z","Z","Z","Z","Z","Z","Z","Z","Z","Z","Z","Z","Z","Z","Z","Z","Z","Z","Z","Z","Z","Z","Z","?","?","Y","Y","?","?","?","?","?","?","?","?","?","?","?","?","?","?","?","M","M","M","M","M","M","M","M","M","M","M","?","?","?","?","?","?","?","?","?","?","?","?","?","?","E","E","E","E","E","E","E","E","E","E","E","E","E","E","E","E","E","E","E","E","E","E","E","E","E","E","E","E","E","E","E","E","E","E","E","E","E","E","E","E","E","E","E","E","E","E","E","E","E","E","E","E","E","E","?","?","?","?","?","?","?","?","?","?","?","?","?","?","?","?","?","?","?","?","?","?","?","?","?","?","?","?","?","?","?","?","?","?","?","?","?","?","?","?","?","?","?","?","?","?","?","?","?","?","?","?","?","?","?","?","?","?","?","?","?","?","?","?","?","?","?","?","?","?","?","?","?","?","N","N","N","N","N","N","N","?","O","O","O","?","?"],"t":[24,33,50,66,82,99,116,133,150,166,183,199,217,233,249,265,282,299,316,332,349,365,382,401,415,432,448,466,482,499,515,533,549,565,582,598,616,632,649,665,682,698,715,732,748,766,782,798,816,832,849,865,882,899,916,932,949,965,982,998,1016,1032,1050,1066,1081,1098,1115,1132,1149,1166,1181,1199,1215,1232,1248,1266,1282,1298,1316,1332,1349,1366,1382,1400,1416,1433,1449,1465,1482,1499,1515,1532,1549,1566,1582,1599,1615,1632,1649,1665,1682,1699,1716,1733,1749,1766,1782,1799,1816,1832,1849,1865,1882,1899,1916,1932,1949,1966,1983,1998,2015,2032,2048,2065,2082,2099,2116,2132,2148,2165,2182,2199,2215,2232,2248,2265,2282,2299,2315,2332,2349,2365,2382,2399,2415,2432,2449,2466,2482,2499,2516,2532,2548,2565,2582,2599,2615,2632,2649,2665,2681,2698,2715,2732,2749,2766,2782,2799,2816,2832,2849,2866,2882,2899,2915,2932,2949,2966,2982,2998,3015,3032,3049,3066,3082,3098,3115,3133,3149,3165,3181,3198,3217,3232,3248,3265,3282,3299,3316,3332,3348,3366,3382,3399,3416,3432,3449,3465,3482,3498,3515,3532,3548,3566,3582,3599,3615,3632,3649,3665,3682,3699,3715,3732,3748,3766,3782,3799,3816,3832,3848,3866,3882,3898,3916,3932,3948,3965,3982,3999,4015,4032,4049,4066,4082,4099,4116,4133,4149,4165,4182,4199,4216,4232,4249,4266,4282,4299,4316,4333,4349,4366,4381,4398,4415,4432,4449,4465,4482,4498,4515,4532,4549,4566,4582,4599,4615,4632,4649,4666,4682,4698,4716,4732,4749,4765,4782,4798,4815,4832,4849,4865,4882,4898,4915,4932,4949,4965,4982,4999,5015,5032,5049,5066,5082,5099,5115,5132,5148,5165,5182,5198,5215,5233,5248,5265,5282,5298,5315,5332,5348,5365,5382,5398,5416,5432,5448,5465,5482,5498,5515,5532,5548,5565,5583,5599,5615,5632,5649,5665,5682,5699,5715,5732,5748,5764,5782,5798,5816,5833,5848,5865,5882,5899,5915,5932,5949,5966,5982,5998,6016,6034,6049,6065,6082,6098,6116,6133,6149,6166,6182,6199,6215,6232,6248,6265,6282,6298,6315,6332,6348,6365,6381,6398,6415,6432,6449,6465,6482,6498,6515,6531,6549,6565,6582,6598,6615,6632,6649,6665,6681,6698,6716,6732,6749,6767,6782,6798,6816,6832,6849,6866,6882,6899,6914,6932,6949,6966,6983,6999,7015,7032,7049,7065,7082,7099,7115,7132,7149,7166,7182,7198,7215,7231,7249,7265,7282,7298,7315,7332,7349,7365,7382,7400,7415,7432,7448,7467,7482,7499,7515,7533,7549,7566,7582,7599,7615,7632,7649,7665,7682,7699,7717,7732,7749,7767,7782,7798,7815,7832,7849,7865,7882,7898,7915,7932,7948,7966,7982,7998,8015,8032,8049,8066,8082,8098,8116,8132,8149,8166,8181,8199,8215,8232,8249,8266,8282,8299,8316,8332,8348,8365,8381,8399,8415,8432,8448,8465,8483,8498,8515,8532,8549,8565,8583,8599,8616,8632,8649,8666,8683,8699,8716,8732,8749,8766,8782,8799,8815,8832,8850,8865,8882,8899,8916,8932,8949,8965,8982,8998,9015,9032,9049,9066,9082,9098,9115,9132,9150,9166,9182,9200,9216,9233,9249,9266,9282,9299,9316,9332,9349,9366,9382,9400,9416,9432,9449,9466,9482,9499,9515,9532,9549,9566,9583,9599,9616,9632,9649,9666,9683,9699,9716,9733,9749,9766,9782,9799,9816,9833,9849,9866,9882,9898,9916,9933,9949,9966,9982,9999,10016,10032,10049,10066,10082,10099,10116,10132,10148,10166,10182,10199,10216,10233,10249,10268,10282,10299,10315,10332,10349,10366,10382,10399,10415,10433,10449,10465,10482,10499,10515,10532,10550,10565,10582,10600,10616,10632,10649,10666,10683,10699,10716,10732,10748,10766,10782,10799,10815,10832,10849,10865,10882,10899,10915,10933,10949,10966,10982,10998,11016,11032,11048,11066,11082,11098,11116,11133,11149,11165,11183,11199,11215,11232,11249,11266,11282,11299,11315,11332,11349,11366,11382,11399,11415,11433,11448,11466,11483,11499,11515,11533,11549,11565,11582,11598,11615,11632,11648,11665,11682,11698,11715,11733,11749,11765,11782,11800,11815,11832,11849,11865,11883,11898,11916,11932,11948,11965,11982,11999,12016,12033,12049,12066,12083,12099,12116,12132,12149,12166,12182,12199,12215,12232,12249,12265,12283,12299,12315,12333,12349,12366,12382,12398,12415,12432,12448,12465,12482,12498,12515,12532,12549,12566,12582,12598,12615,12632,12648,12665,12682,12699,12716,12733,12749,12766,12782,12799,12815,12832,12849,12865,12883,12899,12916,12932,12949,12965,12982,12999,13015,13031,13048,13065,13082,13099,13115,13133,13149,13166,13182,13199,13215,13232,13249,13265,13282,13299,13316,13333,13349,13366,13382,13399,13416,13432,13449,13466,13482,13499,13516,13532,13548,13566,13583,13598,13616,13632,13649,13666,13682,13699,13716,13732,13748,13765,13782,13799,13815,13833,13849,13866,13883,13898,13916,13932,13949,13965,13982,13999,14015,14032,14048,14065,14082,14100,14117,14132,14149,14166,14183,14200,14216,14232,14249,14266,14282,14298,14316,14333,14348,14365,14382,14399,14416,14432,14449,14465,14482,14501,14516,14532,14549,14565,14582,14599,14617,14633,14648,14666,14682,14699,14716,14732,14749,14765,14782,14799,14816,14832,14849,14866,14883,14899,14915,14932,14949,14967,14982,14998,15016,15033,15049,15066,15083,15099,15117,15132,15149,15166,15182,15199,15216,15232,15249,15265,15282,15299,15316,15332,15349,15365,15383,15399,15415,15433,15448,15466,15482,15498,15516,15533,15549,15566,15582,15599,15615,15632,15648,15666,15682,15699,15717,15732,15749,15766,15782,15799,15816,15832,15849,15865,15884,15900,15916,15932,15949,15965,15983,15999,16016,16032,16049,16066,16082,16098,16115,16132,16149,16166,16182,16198,16216,16232,16248,16266,16282,16299,16316,16332,16349,16365,16381,16399,16417,16433,16449,16466,16482,16499,16516,16532,16550,16566,16582,16599,16616,16632,16649,16666,16682,16698,16716,16733,16748,16766,16783,16800,16815,16832,16849,16866,16882,16898,16915,16932,16949,16966,16982,16999,17015,17032,17049,17066,17082,17098,17116,17132,17149,17165,17182,17198,17215,17232,17248,17266,17284,17299,17316,17332,17349,17366,17382,17399,17415,17432,17448,17466,17482,17499,17515,17532,17548,17566,17582,17599,17616,17632,17649,17666,17682,17699,17715,17732,17749,17766,17781,17798,17816,17832,17849,17866,17882,17898,17915,17932,17949,17965,17982,18000,18016,18033,18049,18065,18082,18099,18115,18132,18148,18166,18182,18199,18216,18232,18249,18265,18282,18298,18316,18332,18349,18366,18382,18399,18415,18433,18448,18466,18482,18499,18515,18532,18550,18566,18582,18599,18615,18632,18649,18665,18682,18699,18717,18732,18749,18765,18783,18798,18815,18832,18849,18865,18882,18899,18915,18932,18949,18966,18982,18999,19015,19032,19049,19065,19082,19099,19116,19132,19150,19165,19182,19198,19216,19232,19249,19265,19282,19299,19315,19333,19348,19366,19382,19399,19416,19432,19449,19465,19482,19498,19516,19532,19549,19566,19582,19599,19615,19632,19650,19666,19682,19699,19716,19732,19748,19765,19782,19799,19816,19832,19848,19866,19882,19899,19916,19932,19949,19966,19983,19998,20015,20032,20048,20065,20081,20099,20115,20135,20149,20166,20182,20198,20216,20232,20249,20266,20283,20299,20315,20332,20348,20366,20382,20399,20416,20432,20449,20466,20482,20498,20516,20532,20550,20565,20582,20599,20616,20632,20649,20666,20682,20698,20716,20732,20749,20765,20782,20799,20816,20832,20849,20866,20882,20899,20916,20932,20949,20966,20982,20999,21016,21033,21049,21066,21082,21099,21116,21133,21149,21166,21182,21200,21216,21233,21249,21266,21282,21299,21316,21332,21349,21366,21382,21399,21415,21432,21449,21466,21482,21499,21516,21532,21550,21566,21583,21599,21615,21632,21649,21666,21683,21699,21716,21732,21748,21766,21782,21799,21816,21831,21849,21866,21883,21899,21915,21933,21948,21966,21982,21999,22016,22032,22048,22065,22082,22098,22116,22132,22149,22166,22182,22199,22216,22232,22249,22265,22282,22298,22316,22332,22349,22365,22382,22400,22416,22432,22450,22466,22482,22499,22515,22532,22549,22565,22582,22600,22616,22632,22649,22666,22682,22699,22716,22733,22749,22766,22782,22800,22816,22832,22849,22865,22882,22899,22916,22932,22949,22968,22982,22999,23016,23032,23049,23066,23083,23099,23116,23132,23150,23166,23183,23199,23216,23232,23249,23266,23282,23299,23316,23332,23349,23366,23383,23400,23416,23432,23448,23466,23482,23499,23515,23533,23549,23565,23582,23599,23615,23632,23649,23665,23682,23700,23716,23732,23750,23766,23782,23799,23816,23832,23848,23865,23882,23899,23916,23932,23949,23967,23982,23999,24015,24032,24049,24065,24082,24099,24115,24132,24150,24166,24183,24199,24216,24233,24249,24266,24283,24298,24316,24332,24349,24366,24382,24400,24416,24432,24450,24466,24482,24499,24516,24532,24549,24566,24582,24599,24615,24632,24648,24666,24682,24699,24716,24732,24750,24765,24782,24798,24816,24832,24850,24867,24882,24899,24916,24932,24949,24965,24982,25000,25016,25032,25049,25066,25083,25099,25115,25132,25149,25166,25182,25199,25216,25233,25249,25266,25282,25299,25316,25332,25349,25366,25382,25400,25416,25432,25449,25465,25482,25499,25516,25532,25549,25565,25582,25599,25615,25632,25648,25665,25683,25699,25718,25732,25749,25765,25782,25799,25816,25833,25849,25865,25883,25899,25915,25932,25949,25966,25983,25999,26016,26032,26049,26066,26082,26099,26115,26132,26150,26165,26183,26199,26216,26233,26249,26265,26282,26299,26316,26332,26349,26366,26382,26399,26416,26433,26449,26466,26482,26499,26516,26532,26549,26566,26582,26599,26616,26632,26649,26665,26682,26698,26715,26732,26748,26766,26783,26799,26815,26832,26848,26866,26882,26899,26915,26932,26948,26965,26983,26999,27016,27033,27050,27066,27082,27100,27116,27133,27149,27166,27183,27199,27216,27232,27249,27266,27283,27299,27316,27332,27349,27365,27382,27399,27417,27432,27449,27466,27483,27500,27516,27532,27550,27566,27582,27600,27616,27631,27649,27665,27682,27699,27716,27732,27750,27766,27782,27798,27816,27833,27849,27865,27881,27899,27916,27932,27950,27966,27982,28000,28015,28032,28050,28065,28082,28100,28115,28132,28149,28166,28182,28199,28216,28233,28249,28265,28283,28299,28316,28332,28349,28366,28382,28398,28416,28432,28450,28466,28482,28499,28515,28532,28549,28565,28582,28599,28616,28632,28649,28665,28682,28699,28716,28732,28749,28766,28782,28799,28815,28832,28849,28865,28882,28899,28916,28932,28949,28966,28983,28999,29016,29032,29050,29066,29082,29100,29116,29132,29149,29165,29182,29199,29216,29233,29249,29266,29283,29299,29316,29333,29350,29366,29383,29399,29416,29433,29449,29466,29482,29499,29515,29533,29549,29566,29583,29599,29616,29632,29649,29666,29683,29700,29716,29733,29749,29765,29783,29800,29815,29832,29849,29866,29882,29899,29915,29933,29949,29965,29983,29999,30017,30032,30049,30066,30083,30099,30115,30132,30148,30166,30182,30200,30216,30232,30249,30265,30282,30298,30315,30332,30349,30367,30382,30399,30415,30432,30450,30466,30483,30499,30516,30533,30549,30566,30583,30598,30616,30632,30649,30666,30682,30699,30716,30732,30749,30766,30782,30799,30816,30832,30850,30866,30882,30899,30915,30933,30949,30965,30982,30998,31016,31033,31049,31065,31082,31099,31116,31132,31149,31167,31183,31199,31216,31232,31249,31266,31282,31298,31316,31333,31349,31366,31382,31399,31415,31432,31449,31466,31482,31498,31516,31532,31549,31566,31582,31599,31616,31632,31649,31666,31682,31699,31715,31732,31749,31766,31782,31799,31815,31833,31849,31866,31883,31899,31916,31932,31949,31966,31982,31999,32016,32033,32050,32066,32082,32099,32116,32132,32149,32166,32183,32199,32215,32232,32248,32265,32282,32299,32316,32333,32349,32366,32382,32399,32416,32432,32449,32466,32482,32498,32516,32533,32549,32565,32582,32599,32616,32632,32649,32666,32682,32698,32716,32732,32749,32767,32782,32799,32816,32832,32849,32866,32882,32899,32916,32932,32949,32965,32982,32999,33015,33032,33049,33065,33082,33098,33115,33132,33149,33166,33182,33199,33216,33232,33250,33266,33282,33299,33316,33332,33349,33366,33382,33399,33415,33432,33448,33465,33482,33499,33516,33532,33549,33566,33582,33599,33616,33632,33649,33666,33682,33699,33716,33733,33749,33765,33783,33799,33815,33832,33849,33865,33882,33898,33915,33933,33949,33965,33982,34000,34016,34032,34049,34065,34082,34098,34115,34132,34148,34166,34183,34199,34216,34232,34249,34266,34282,34299,34316,34333,34349,34366,34383,34400,34415,34432,34449,34466,34482,34500,34515,34532,34549,34566,34582,34599,34615,34632,34649,34665,34682,34698,34715,34731,34748,34765,34782,34799,34815,34833,34850,34866,34883,34900,34915,34932,34949,34966,34982,34999,35015,35033,35049,35066,35082,35099,35115,35132,35149,35166,35182,35198,35215,35232,35249,35266,35283,35300,35316,35332,35349,35366,35382,35398,35415,35432,35449,35466,35482,35499,35516,35532,35549,35566,35583,35599,35616,35632,35649,35666,35682,35699,35716,35732,35748,35765,35783,35798,35816,35832,35849,35866,35882,35898,35915,35932,35948,35965,35982,35999,36016,36032,36049,36065,36082,36099,36116,36132,36149,36165,36183,36198,36216,36232,36248,36266,36282,36298,36315,36332,36349,36366,36382,36398,36416,36432,36449,36466,36483,36499,36516,36532,36549,36566,36582,36599,36615,36632,36649,36666,36682,36701,36715,36732,36749,36766,36783,36800,36816,36832,36850,36866,36883,36899,36917,36933,36949,36965,36982,36999,37016,37033,37050,37066,37082,37099,37116,37132,37150,37165,37183,37199,37216,37232,37249,37266,37282,37299,37316,37332,37349,37366,37382,37399,37416,37433,37449,37466,37482,37498,37515,37533,37549,37565,37582,37599,37616,37632,37649,37665,37682,37699,37716,37733,37749,37765,37783,37799,37815,37833,37849,37866,37882,37899,37916,37932,37950,37966,37982,37999,38016,38033,38050,38066,38082,38100,38116,38133,38149,38165,38183,38200,38215,38232,38249,38265,38282,38299,38316,38332,38349,38366,38383,38398,38416,38433,38449,38466,38482,38499,38516,38533,38549,38566,38583,38600,38616,38632,38649,38666,38683,38700,38716,38732,38749,38766,38782,38799,38816,38832,38849,38866,38882,38899,38915,38932,38949,38965,38983,38999,39016,39032,39049,39066,39082,39098,39116,39132,39149,39165,39182,39199,39216,39232,39249,39266,39282,39298,39316,39333,39349,39365,39381,39399,39418,39432,39449,39465,39482,39499,39516,39532,39549,39565,39582,39598,39616,39632,39649,39666,39682,39699,39715,39733,39749,39766,39782,39799,39816,39832,39850,39866,39882,39899,39916,39932,39949,39966,39982,39999,40016,40032,40050,40066,40083,40099,40115,40133,40149,40166,40182,40198,40216,40233,40250,40266,40282,40299,40316,40332,40349,40366,40383,40399,40416,40433,40449,40466,40482,40499,40515,40532,40549,40565,40582,40599,40616,40633,40649,40666,40682,40699,40716,40732,40749,40765,40784,40799,40816,40832,40849,40866,40882,40899,40916,40932,40949,40967,40982,40999,41016,41032,41049,41066,41082,41100,41115,41133,41149,41166,41182,41199,41215,41232,41249,41266,41282,41299,41316,41332,41349,41366,41382,41398,41416,41432,41449,41466,41482,41499,41515,41532,41549,41566,41583,41599,41615,41632,41648,41666,41682,41699,41715,41733,41749,41765,41782,41799,41816,41832,41849,41866,41882,41899,41916,41933,41949,41966,41982,41999,42016,42032,42050,42065,42082,42098,42115,42132,42148,42168,42182,42199,42216,42232,42249,42265,42283,42299,42315,42332,42349,42366,42383,42400,42416,42432,42449,42466,42482,42500,42516,42533,42550,42566,42583,42600,42616,42633,42649,42666,42682,42699,42716,42733,42749,42765,42783,42799,42816,42832,42849,42866,42883,42898,42915,42932,42948,42965,42982,42999,43016,43032,43050,43066,43082,43099,43115,43132,43149,43165,43183,43199,43215,43233,43249,43266,43282,43299,43315,43332,43349,43366,43382,43399,43415,43432,43449,43465,43482,43498,43517,43532,43549,43566,43582,43599,43615,43632,43649,43666,43683,43699,43715,43732,43749,43765,43783,43799,43816,43832,43849,43865,43882,43899,43916,43932,43949,43965,43982,43999,44016,44032,44049,44066,44082,44099,44116,44132,44149,44166,44183,44199,44216,44232,44249,44266,44282,44299,44316,44332,44349,44365,44382,44399,44416,44433,44450,44466,44483,44499,44516,44533,44550,44566,44583,44599,44615,44632,44649,44665,44682,44699,44716,44732,44749,44766,44782,44799,44815,44832,44849,44866,44883,44899,44916,44932,44949,44965,44983,44999,45015,45032,45049,45065,45082,45099,45116,45133,45150,45166,45182,45199,45215,45232,45249,45266,45282,45299,45316,45332,45349,45366,45383,45399,45415,45432,45449,45466,45482,45499,45516,45532,45549,45566,45582,45599,45616,45633,45650,45666,45682,45699,45715,45732,45749,45767,45782,45799,45815,45833,45849,45866,45883,45899,45916,45932,45949,45965,45983,45998,46016,46032,46049,46066,46083,46099,46115,46132,46149,46166,46183,46198,46216,46232,46249,46266,46282,46298,46315,46332,46349,46366,46383,46399,46416,46432,46449,46466,46482,46499,46516,46532,46549,46565,46582,46598,46616,46633,46650,46667,46682,46699,46715,46733,46749,46766,46782,46799,46816,46832,46850,46866,46882,46900,46916,46932,46949,46966,46982,46999,47016,47032,47049,47066,47082,47098,47116,47133,47149,47166,47182,47200,47216,47233,47249,47266,47283,47299,47316,47332,47349,47366,47383,47399,47416,47432,47449,47466,47482,47499,47516,47534,47549,47566,47583,47600,47616,47633,47650,47666,47682,47699,47716,47733,47750,47766,47782,47800,47817,47832,47849,47866,47883,47899,47916,47933,47949,47966,47982,47999,48016,48032,48049,48065,48082,48099,48116,48132,48149,48166,48182,48199,48216,48233,48249,48265,48283,48299,48316,48332,48350,48366,48382,48399,48416,48433,48449,48466,48482,48499,48516,48532,48550,48566,48583,48599,48616,48632,48649,48666,48683,48699,48716,48733,48750,48766,48782,48799,48816,48832,48851,48866,48882,48899,48915,48932,48949,48966,48982,48999,49015,49032,49049,49066,49082,49099,49116,49132,49149,49166,49182,49199,49216,49232,49250,49266,49282,49299,49316,49333,49349,49366,49382,49399,49416,49432,49449,49466,49483,49499,49515,49532,49549,49566,49582,49599,49616,49633,49649,49666,49683,49699,49716,49732,49749,49765,49782,49800],"hit":[null],"x":[-2.693877551020408,-2.693877551020408,-2.693877551020408,-2.693877551020408,-2.693877551020408,-2.693877551020408,-2.693877551020408,0.013605442176870748,0.030612244897959183,0.07142857142857142,0.09863945578231292,0.1326530612244898,0.17687074829931973,0.19727891156462585,0.20748299319727892,0.2108843537414966,0.2108843537414966,0.2108843537414966,0.2108843537414966,0.21428571428571427,0.21428571428571427,0.21428571428571427,0.21428571428571427,0.21428571428571427,0.21428571428571427,0.21428571428571427,0.21428571428571427,0.21428571428571427,0.21428571428571427,0.21428571428571427,0.21428571428571427,0.21428571428571427,0.21428571428571427,0.21428571428571427,0.21428571428571427,0.21428571428571427,0.21428571428571427,0.21428571428571427,0.21428571428571427,0.21428571428571427,0.21428571428571427,0.21428571428571427,0.21428571428571427,0.21428571428571427,0.21428571428571427,0.21428571428571427,0.21428571428571427,0.21428571428571427,0.21428571428571427,0.2108843537414966,0.19387755102040816,0.19387755102040816,0.19387755102040816,0.19387755102040816,0.19047619047619047,0.1836734693877551,0.1836734693877551,0.17687074829931973,0.1598639455782313,0.1564625850340136,0.14965986394557823,0.14285714285714285,0.13945578231292516,0.1360544217687075,0.1360544217687075,0.1326530612244898,0.1326530612244898,0.1326530612244898,0.1326530612244898,0.1292517006802721,0.1292517006802721,0.12244897959183673,0.12244897959183673,0.12244897959183673,0.12244897959183673,0.11904761904761904,0.11904761904761904,0.11564625850340136,0.11224489795918367,0.10884353741496598,0.1054421768707483,0.10204081632653061,0.09863945578231292,0.09863945578231292,0.09863945578231292,0.09863945578231292,0.09863945578231292,0.09863945578231292,0.09863945578231292,0.09863945578231292,0.1054421768707483,0.11224489795918367,0.11564625850340136,0.11564625850340136,0.12244897959183673,0.12585034013605442,0.1292517006802721,0.1292517006802721,0.1360544217687075,0.1360544217687075,0.1360544217687075,0.1360544217687075,0.1360544217687075,0.1360544217687075,0.1360544217687075,0.1360544217687075,0.1360544217687075,0.15306122448979592,0.16326530612244897,0.16666666666666666,0.16666666666666666,0.16666666666666666,0.16666666666666666,0.17006802721088435,0.17687074829931973,0.18027210884353742,0.1870748299319728,0.21768707482993196,0.23469387755102042,0.24489795918367346,0.25170068027210885,0.25510204081632654,0.2585034013605442,0.2619047619047619,0.2653061224489796,0.2687074829931973,0.2755102040816326,0.2789115646258503,0.2925170068027211,0.30272108843537415,0.30952380952380953,0.3197278911564626,0.3231292517006803,0.3231292517006803,0.3333333333333333,0.3435374149659864,0.35034013605442177,0.36054421768707484,0.36394557823129253,0.3707482993197279,0.3707482993197279,0.3707482993197279,0.3741496598639456,0.37755102040816324,0.38095238095238093,0.3843537414965986,0.40476190476190477,0.4387755102040816,0.48639455782312924,0.5238095238095238,0.5374149659863946,0.54421768707483,0.5476190476190477,0.5476190476190477,0.5306122448979592,0.5136054421768708,0.4965986394557823,0.48639455782312924,0.48639455782312924,0.48639455782312924,0.48299319727891155,0.48299319727891155,0.48299319727891155,0.47959183673469385,0.47278911564625853,0.47278911564625853,0.46938775510204084,0.46938775510204084,0.46938775510204084,0.46938775510204084,0.46598639455782315,0.46258503401360546,0.4557823129251701,0.4523809523809524,0.4523809523809524,0.4489795918367347,0.4489795918367347,0.4421768707482993,0.4387755102040816,0.4387755102040816,0.43537414965986393,0.43197278911564624,0.41496598639455784,0.3979591836734694,0.37755102040816324,0.36054421768707484,0.3469387755102041,0.3299319727891156,0.3197278911564626,0.3129251700680272,0.30612244897959184,0.30612244897959184,0.30612244897959184,0.30612244897959184,0.30952380952380953,0.3129251700680272,0.3197278911564626,0.32653061224489793,0.336734693877551,0.35374149659863946,0.3877551020408163,0.42857142857142855,0.445578231292517,0.47619047619047616,0.5170068027210885,0.5578231292517006,0.6020408163265306,0.6326530612244898,0.6496598639455783,0.6564625850340136,0.6598639455782312,0.6768707482993197,0.7142857142857143,0.7687074829931972,0.7891156462585034,0.8163265306122449,0.8333333333333334,0.8435374149659864,0.8469387755102041,0.8503401360544217,0.8537414965986394,0.8605442176870748,0.8673469387755102,0.8741496598639455,0.8843537414965986,0.8979591836734694,0.9047619047619048,0.9047619047619048,0.9115646258503401,0.9149659863945578,0.9149659863945578,0.9149659863945578,0.9217687074829932,0.9319727891156463,0.9421768707482994,0.9591836734693877,0.9965986394557823,1.0714285714285714,1.098639455782313,1.1054421768707483,1.1054421768707483,1.1054421768707483,1.0850340136054422,1.0442176870748299,0.9693877551020408,0.8639455782312925,0.7482993197278912,0.6666666666666666,0.6292517006802721,0.5952380952380952,0.5612244897959183,0.54421768707483,0.5306122448979592,0.5204081632653061,0.5170068027210885,0.5,0.48639455782312924,0.47278911564625853,0.45918367346938777,0.4523809523809524,0.4489795918367347,0.4489795918367347,0.4489795918367347,0.445578231292517,0.445578231292517,0.4421768707482993,0.4387755102040816,0.4387755102040816,0.43197278911564624,0.42857142857142855,0.4217687074829932,0.41496598639455784,0.41496598639455784,0.41156462585034015,0.40816326530612246,0.40476190476190477,0.40476190476190477,0.4013605442176871,0.3979591836734694,0.3945578231292517,0.38095238095238093,0.3673469387755102,0.35714285714285715,0.3435374149659864,0.3299319727891156,0.30612244897959184,0.2891156462585034,0.2789115646258503,0.272108843537415,0.2585034013605442,0.25510204081632654,0.24829931972789115,0.24489795918367346,0.24489795918367346,0.24489795918367346,0.24489795918367346,0.24489795918367346,0.24489795918367346,0.24149659863945577,0.24149659863945577,0.24149659863945577,0.24149659863945577,0.24149659863945577,0.23809523809523808,0.23809523809523808,0.23809523809523808,0.23809523809523808,0.23809523809523808,0.23809523809523808,0.23809523809523808,0.25170068027210885,0.2619047619047619,0.2653061224489796,0.272108843537415,0.2789115646258503,0.282312925170068,0.282312925170068,0.2857142857142857,0.2891156462585034,0.29591836734693877,0.29931972789115646,0.30272108843537415,0.30272108843537415,0.30272108843537415,0.30272108843537415,0.30272108843537415,0.30272108843537415,0.30612244897959184,0.30612244897959184,0.30612244897959184,0.30612244897959184,0.3129251700680272,0.3163265306122449,0.3197278911564626,0.3231292517006803,0.3231292517006803,0.3299319727891156,0.3333333333333333,0.336734693877551,0.336734693877551,0.336734693877551,0.336734693877551,0.3401360544217687,0.3401360544217687,0.3401360544217687,0.3401360544217687,0.3401360544217687,0.3333333333333333,0.3333333333333333,0.3299319727891156,0.3299319727891156,0.32653061224489793,0.32653061224489793,0.3231292517006803,0.3231292517006803,0.3231292517006803,0.3231292517006803,0.3231292517006803,0.3231292517006803,0.3333333333333333,0.3435374149659864,0.35034013605442177,0.35374149659863946,0.36054421768707484,0.3673469387755102,0.3673469387755102,0.3741496598639456,0.3741496598639456,0.37755102040816324,0.37755102040816324,0.37755102040816324,0.37755102040816324,0.37755102040816324,0.37755102040816324,0.37755102040816324,0.38095238095238093,0.3877551020408163,0.3877551020408163,0.391156462585034,0.391156462585034,0.3945578231292517,0.3945578231292517,0.3945578231292517,0.3945578231292517,0.3945578231292517,0.3945578231292517,0.3945578231292517,0.3945578231292517,0.3945578231292517,0.3945578231292517,0.3945578231292517,0.3945578231292517,0.3945578231292517,0.3945578231292517,0.3945578231292517,0.3945578231292517,0.3945578231292517,0.3945578231292517,0.3945578231292517,0.3945578231292517,0.3945578231292517,0.3945578231292517,0.3979591836734694,0.3979591836734694,0.3979591836734694,0.3979591836734694,0.3979591836734694,0.3979591836734694,0.391156462585034,0.391156462585034,0.391156462585034,0.3877551020408163,0.3877551020408163,0.3877551020408163,0.3877551020408163,0.3877551020408163,0.3877551020408163,0.3945578231292517,0.4013605442176871,0.40476190476190477,0.41156462585034015,0.4217687074829932,0.42517006802721086,0.42857142857142855,0.43197278911564624,0.4387755102040816,0.445578231292517,0.4557823129251701,0.46598639455782315,0.47278911564625853,0.48639455782312924,0.5,0.5170068027210885,0.5374149659863946,0.54421768707483,0.5578231292517006,0.5714285714285714,0.5782312925170068,0.5850340136054422,0.608843537414966,0.6564625850340136,0.7006802721088435,0.7346938775510204,0.7585034013605442,0.7653061224489796,0.7653061224489796,0.7653061224489796,0.7687074829931972,0.7755102040816326,0.7959183673469388,0.8163265306122449,0.8367346938775511,0.8469387755102041,0.8503401360544217,0.8503401360544217,0.8503401360544217,0.8503401360544217,0.8367346938775511,0.8061224489795918,0.7380952380952381,0.673469387755102,0.6190476190476191,0.5680272108843537,0.5170068027210885,0.46258503401360546,0.41156462585034015,0.3877551020408163,0.3673469387755102,0.35374149659863946,0.3469387755102041,0.3401360544217687,0.336734693877551,0.3333333333333333,0.3333333333333333,0.3333333333333333,0.336734693877551,0.3435374149659864,0.36054421768707484,0.37755102040816324,0.3877551020408163,0.391156462585034,0.391156462585034,0.3877551020408163,0.38095238095238093,0.3741496598639456,0.3707482993197279,0.35034013605442177,0.3333333333333333,0.30612244897959184,0.2857142857142857,0.2857142857142857,0.282312925170068,0.282312925170068,0.282312925170068,0.2857142857142857,0.3163265306122449,0.3469387755102041,0.3877551020408163,0.4387755102040816,0.47619047619047616,0.5136054421768708,0.5850340136054422,0.6054421768707483,0.6190476190476191,0.6360544217687075,0.6428571428571429,0.6462585034013606,0.6496598639455783,0.6564625850340136,0.6598639455782312,0.6700680272108843,0.6836734693877551,0.6904761904761905,0.6904761904761905,0.6904761904761905,0.6802721088435374,0.6666666666666666,0.6496598639455783,0.6394557823129252,0.6360544217687075,0.6360544217687075,0.6360544217687075,0.6360544217687075,0.6462585034013606,0.6700680272108843,0.6972789115646258,0.7312925170068028,0.7414965986394558,0.7414965986394558,0.7414965986394558,0.7414965986394558,0.7414965986394558,0.7414965986394558,0.7414965986394558,0.7414965986394558,0.7414965986394558,0.7414965986394558,0.7414965986394558,0.7414965986394558,0.7414965986394558,0.7414965986394558,0.7414965986394558,0.7414965986394558,0.7414965986394558,0.7414965986394558,0.7414965986394558,0.7414965986394558,0.7414965986394558,0.7414965986394558,0.7414965986394558,0.6972789115646258,0.6768707482993197,0.6496598639455783,0.6224489795918368,0.5952380952380952,0.5748299319727891,0.5544217687074829,0.5374149659863946,0.5204081632653061,0.5102040816326531,0.5068027210884354,0.5034013605442177,0.5068027210884354,0.5102040816326531,0.5136054421768708,0.5136054421768708,0.5136054421768708,0.5034013605442177,0.4931972789115646,0.48299319727891155,0.46598639455782315,0.445578231292517,0.43197278911564624,0.42517006802721086,0.4217687074829932,0.41836734693877553,0.41836734693877553,0.4217687074829932,0.42857142857142855,0.43197278911564624,0.43197278911564624,0.43197278911564624,0.43197278911564624,0.42857142857142855,0.41836734693877553,0.40816326530612246,0.3945578231292517,0.3707482993197279,0.35034013605442177,0.336734693877551,0.3333333333333333,0.32653061224489793,0.3231292517006803,0.3231292517006803,0.3231292517006803,0.3197278911564626,0.3163265306122449,0.3129251700680272,0.3129251700680272,0.30952380952380953,0.30272108843537415,0.29591836734693877,0.2925170068027211,0.2925170068027211,0.2925170068027211,0.2925170068027211,0.2925170068027211,0.2925170068027211,0.2925170068027211,0.29931972789115646,0.30272108843537415,0.30272108843537415,0.29931972789115646,0.2891156462585034,0.2891156462585034,0.2891156462585034,0.2891156462585034,0.2891156462585034,0.29591836734693877,0.3129251700680272,0.3231292517006803,0.3333333333333333,0.336734693877551,0.336734693877551,0.336734693877551,0.3333333333333333,0.3231292517006803,0.3163265306122449,0.30272108843537415,0.2891156462585034,0.282312925170068,0.2789115646258503,0.2789115646258503,0.2789115646258503,0.2891156462585034,0.2925170068027211,0.30272108843537415,0.3129251700680272,0.3163265306122449,0.32653061224489793,0.3299319727891156,0.3299319727891156,0.3333333333333333,0.3333333333333333,0.336734693877551,0.336734693877551,0.336734693877551,0.336734693877551,0.3299319727891156,0.32653061224489793,0.3231292517006803,0.3163265306122449,0.30952380952380953,0.30272108843537415,0.29591836734693877,0.2857142857142857,0.272108843537415,0.2653061224489796,0.25170068027210885,0.24149659863945577,0.23129251700680273,0.22108843537414966,0.21768707482993196,0.2108843537414966,0.20408163265306123,0.19727891156462585,0.19387755102040816,0.19047619047619047,0.1870748299319728,0.1836734693877551,0.1836734693877551,0.18027210884353742,0.18027210884353742,0.18027210884353742,0.18027210884353742,0.1870748299319728,0.19387755102040816,0.19727891156462585,0.20068027210884354,0.20748299319727892,0.21428571428571427,0.22789115646258504,0.24829931972789115,0.2653061224489796,0.2925170068027211,0.3231292517006803,0.35034013605442177,0.3741496598639456,0.3945578231292517,0.42517006802721086,0.46938775510204084,0.5170068027210885,0.564625850340136,0.5918367346938775,0.6258503401360545,0.673469387755102,0.7278911564625851,0.8027210884353742,0.8775510204081632,0.9455782312925171,0.9897959183673469,1.010204081632653,1.0170068027210883,1.0170068027210883,1.0170068027210883,1.0170068027210883,1.0170068027210883,1.0170068027210883,1.0170068027210883,1.0170068027210883,1.0170068027210883,1.0170068027210883,1.0170068027210883,1.0374149659863945,1.0578231292517006,1.0680272108843538,1.08843537414966,1.1054421768707483,1.1122448979591837,1.1122448979591837,1.1122448979591837,1.1122448979591837,1.1122448979591837,1.1122448979591837,1.1122448979591837,1.1122448979591837,1.1122448979591837,1.1122448979591837,1.1122448979591837,1.1122448979591837,1.1122448979591837,1.1122448979591837,1.1122448979591837,1.1122448979591837,1.1122448979591837,1.1122448979591837,1.1122448979591837,1.1122448979591837,1.1122448979591837,1.1122448979591837,1.0782312925170068,1.034013605442177,1.0034013605442176,0.9863945578231292,0.9761904761904762,0.9659863945578231,0.9523809523809523,0.9455782312925171,0.9421768707482994,0.9387755102040817,0.9251700680272109,0.9115646258503401,0.891156462585034,0.8537414965986394,0.8299319727891157,0.8095238095238095,0.7925170068027211,0.7687074829931972,0.7585034013605442,0.7551020408163265,0.7551020408163265,0.7551020408163265,0.7551020408163265,0.7551020408163265,0.7551020408163265,0.7551020408163265,0.7551020408163265,0.7551020408163265,0.7551020408163265,0.7551020408163265,0.7551020408163265,0.7551020408163265,0.7517006802721088,0.7517006802721088,0.7517006802721088,0.7517006802721088,0.7517006802721088,0.7517006802721088,0.7482993197278912,0.7482993197278912,0.7482993197278912,0.7482993197278912,0.7482993197278912,0.7482993197278912,0.7482993197278912,0.7482993197278912,0.7482993197278912,0.7482993197278912,0.7482993197278912,0.7482993197278912,0.7482993197278912,0.7482993197278912,0.7482993197278912,0.7482993197278912,0.7482993197278912,0.7482993197278912,0.7482993197278912,0.7482993197278912,0.7482993197278912,0.7482993197278912,0.7482993197278912,0.7482993197278912,0.7482993197278912,0.7482993197278912,0.7482993197278912,0.7482993197278912,0.7482993197278912,0.7482993197278912,0.7482993197278912,0.7482993197278912,0.7482993197278912,0.7482993197278912,0.7482993197278912,0.7482993197278912,0.7482993197278912,0.7482993197278912,0.7482993197278912,0.7482993197278912,0.7482993197278912,0.7482993197278912,0.7482993197278912,0.7482993197278912,0.7482993197278912,0.7482993197278912,0.7482993197278912,0.7482993197278912,0.7517006802721088,0.7585034013605442,0.7653061224489796,0.782312925170068,0.7993197278911565,0.8197278911564626,0.8401360544217688,0.8741496598639455,0.9013605442176871,0.935374149659864,0.9591836734693877,0.9829931972789115,1.0068027210884354,1.0170068027210883,1.0204081632653061,1.0238095238095237,1.0272108843537415,1.0272108843537415,1.030612244897959,1.034013605442177,1.0408163265306123,1.0476190476190477,1.054421768707483,1.0612244897959184,1.064625850340136,1.064625850340136,1.064625850340136,1.064625850340136,1.064625850340136,1.064625850340136,1.0612244897959184,1.054421768707483,1.0510204081632653,1.0510204081632653,1.0476190476190477,1.0476190476190477,1.0408163265306123,1.0238095238095237,1.0136054421768708,1.0034013605442176,0.9965986394557823,0.9795918367346939,0.9761904761904762,0.9659863945578231,0.95578231292517,0.9489795918367347,0.9421768707482994,0.9319727891156463,0.9251700680272109,0.9149659863945578,0.9047619047619048,0.8979591836734694,0.891156462585034,0.8809523809523809,0.8673469387755102,0.8571428571428571,0.8435374149659864,0.8401360544217688,0.8299319727891157,0.8197278911564626,0.8095238095238095,0.7993197278911565,0.7891156462585034,0.7755102040816326,0.7585034013605442,0.7380952380952381,0.7142857142857143,0.6938775510204082,0.6700680272108843,0.6394557823129252,0.6156462585034014,0.6020408163265306,0.5986394557823129,0.5986394557823129,0.5986394557823129,0.5986394557823129,0.5884353741496599,0.5816326530612245,0.5714285714285714,0.5544217687074829,0.5306122448979592,0.5238095238095238,0.5170068027210885,0.5136054421768708,0.5102040816326531,0.5068027210884354,0.5068027210884354,0.5068027210884354,0.5068027210884354,0.5068027210884354,0.5068027210884354,0.5068027210884354,0.5068027210884354,0.5068027210884354,0.5068027210884354,0.5068027210884354,0.5068027210884354,0.5068027210884354,0.5068027210884354,0.5068027210884354,0.5068027210884354,0.5068027210884354,0.5068027210884354,0.5068027210884354,0.5068027210884354,0.5068027210884354,0.5136054421768708,0.5204081632653061,0.5272108843537415,0.5306122448979592,0.5374149659863946,0.5476190476190477,0.5544217687074829,0.5578231292517006,0.564625850340136,0.5748299319727891,0.5884353741496599,0.5986394557823129,0.6020408163265306,0.6020408163265306,0.6020408163265306,0.5986394557823129,0.5986394557823129,0.5952380952380952,0.5952380952380952,0.5952380952380952,0.5952380952380952,0.5952380952380952,0.5952380952380952,0.5952380952380952,0.5952380952380952,0.5952380952380952,0.5952380952380952,0.5952380952380952,0.5918367346938775,0.5884353741496599,0.5816326530612245,0.5782312925170068,0.5782312925170068,0.5748299319727891,0.5714285714285714,0.5680272108843537,0.564625850340136,0.5578231292517006,0.5544217687074829,0.5510204081632653,0.5510204081632653,0.5476190476190477,0.5476190476190477,0.5476190476190477,0.5476190476190477,0.5476190476190477,0.5476190476190477,0.5476190476190477,0.5476190476190477,0.5476190476190477,0.5476190476190477,0.5476190476190477,0.5476190476190477,0.5476190476190477,0.5476190476190477,0.5476190476190477,0.5476190476190477,0.5476190476190477,0.5476190476190477,0.5510204081632653,0.5578231292517006,0.5680272108843537,0.5714285714285714,0.5714285714285714,0.5714285714285714,0.5714285714285714,0.5714285714285714,0.5714285714285714,0.5714285714285714,0.5714285714285714,0.5714285714285714,0.5714285714285714,0.5714285714285714,0.5714285714285714,0.5714285714285714,0.5714285714285714,0.5714285714285714,0.5714285714285714,0.5714285714285714,0.5714285714285714,0.5714285714285714,0.5748299319727891,0.5782312925170068,0.5816326530612245,0.5816326530612245,0.5816326530612245,0.5816326530612245,0.5816326530612245,0.5816326530612245,0.5816326530612245,0.5816326530612245,0.5816326530612245,0.5816326530612245,0.5816326530612245,0.5816326530612245,0.5816326530612245,0.5816326530612245,0.5816326530612245,0.5816326530612245,0.5816326530612245,0.5816326530612245,0.5816326530612245,0.5816326530612245,0.5850340136054422,0.5850340136054422,0.5884353741496599,0.5884353741496599,0.5884353741496599,0.5884353741496599,0.5884353741496599,0.5884353741496599,0.5884353741496599,0.5884353741496599,0.5884353741496599,0.5884353741496599,0.5884353741496599,0.5884353741496599,0.5884353741496599,0.5884353741496599,0.5884353741496599,0.5884353741496599,0.5884353741496599,0.5884353741496599,0.5884353741496599,0.5884353741496599,0.5884353741496599,0.5850340136054422,0.5850340136054422,0.5850340136054422,0.5850340136054422,0.5850340136054422,0.5816326530612245,0.5782312925170068,0.5748299319727891,0.5748299319727891,0.5748299319727891,0.5748299319727891,0.5748299319727891,0.5748299319727891,0.5748299319727891,0.5748299319727891,0.5714285714285714,0.5714285714285714,0.5714285714285714,0.5714285714285714,0.5714285714285714,0.5714285714285714,0.5714285714285714,0.5714285714285714,0.5680272108843537,0.5680272108843537,0.5680272108843537,0.5680272108843537,0.5680272108843537,0.5680272108843537,0.564625850340136,0.564625850340136,0.564625850340136,0.5612244897959183,0.5612244897959183,0.5612244897959183,0.5612244897959183,0.5612244897959183,0.5612244897959183,0.5612244897959183,0.5612244897959183,0.5612244897959183,0.5612244897959183,0.5612244897959183,0.5612244897959183,0.5612244897959183,0.5612244897959183,0.5612244897959183,0.5612244897959183,0.5612244897959183,0.5612244897959183,0.5612244897959183,0.5612244897959183,0.5612244897959183,0.5612244897959183,0.5612244897959183,0.5612244897959183,0.5612244897959183,0.5612244897959183,0.5612244897959183,0.5612244897959183,0.5612244897959183,0.5612244897959183,0.5612244897959183,0.5612244897959183,0.5612244897959183,0.5612244897959183,0.5612244897959183,0.5612244897959183,0.5612244897959183,0.5612244897959183,0.5612244897959183,0.5612244897959183,0.5612244897959183,0.5612244897959183,0.5612244897959183,0.5612244897959183,0.5612244897959183,0.5612244897959183,0.5612244897959183,0.5612244897959183,0.5612244897959183,0.5612244897959183,0.5612244897959183,0.5612244897959183,0.5612244897959183,0.5612244897959183,0.5612244897959183,0.5612244897959183,0.5612244897959183,0.5612244897959183,0.5612244897959183,0.5612244897959183,0.5612244897959183,0.5612244897959183,0.5612244897959183,0.5612244897959183,0.5612244897959183,0.5612244897959183,0.5612244897959183,0.5612244897959183,0.5612244897959183,0.5612244897959183,0.5612244897959183,0.5612244897959183,0.5612244897959183,0.5612244897959183,0.5612244897959183,0.5612244897959183,0.5612244897959183,0.5612244897959183,0.5612244897959183,0.5612244897959183,0.5612244897959183,0.5612244897959183,0.5612244897959183,0.5612244897959183,0.5612244897959183,0.5612244897959183,0.5612244897959183,0.5612244897959183,0.5612244897959183,0.5612244897959183,0.5612244897959183,0.5612244897959183,0.5612244897959183,0.5612244897959183,0.5612244897959183,0.5612244897959183,0.5612244897959183,0.5612244897959183,0.5612244897959183,0.5612244897959183,0.5612244897959183,0.5612244897959183,0.5612244897959183,0.5612244897959183,0.5612244897959183,0.5612244897959183,0.5612244897959183,0.5612244897959183,0.5612244897959183,0.5612244897959183,0.5612244897959183,0.5612244897959183,0.5612244897959183,0.5612244897959183,0.5612244897959183,0.5612244897959183,0.5612244897959183,0.5612244897959183,0.5612244897959183,0.5612244897959183,0.5612244897959183,0.5612244897959183,0.5612244897959183,0.5612244897959183,0.5612244897959183,0.5612244897959183,0.5612244897959183,0.5612244897959183,0.5612244897959183,0.5612244897959183,0.5612244897959183,0.5612244897959183,0.5612244897959183,0.5612244897959183,0.5612244897959183,0.5612244897959183,0.5612244897959183,0.5612244897959183,0.5612244897959183,0.5612244897959183,0.5612244897959183,0.5612244897959183,0.5578231292517006,0.5578231292517006,0.5578231292517006,0.5578231292517006,0.5578231292517006,0.5578231292517006,0.5578231292517006,0.5578231292517006,0.5578231292517006,0.5578231292517006,0.5578231292517006,0.5578231292517006,0.5578231292517006,0.5578231292517006,0.5578231292517006,0.5578231292517006,0.5578231292517006,0.5578231292517006,0.5578231292517006,0.5578231292517006,0.5578231292517006,0.5578231292517006,0.5578231292517006,0.5578231292517006,0.5578231292517006,0.5578231292517006,0.5578231292517006,0.5578231292517006,0.5578231292517006,0.5578231292517006,0.5578231292517006,0.5578231292517006,0.5578231292517006,0.5578231292517006,0.5578231292517006,0.5578231292517006,0.5578231292517006,0.5578231292517006,0.5578231292517006,0.5612244897959183,0.564625850340136,0.5680272108843537,0.5748299319727891,0.5748299319727891,0.5748299319727891,0.5782312925170068,0.5782312925170068,0.5816326530612245,0.5816326530612245,0.5816326530612245,0.5816326530612245,0.5850340136054422,0.5850340136054422,0.5850340136054422,0.5850340136054422,0.5850340136054422,0.5850340136054422,0.5850340136054422,0.5850340136054422,0.5850340136054422,0.5850340136054422,0.5850340136054422,0.5850340136054422,0.5850340136054422,0.5850340136054422,0.5850340136054422,0.5850340136054422,0.5850340136054422,0.5850340136054422,0.5850340136054422,0.5850340136054422,0.5850340136054422,0.5850340136054422,0.5850340136054422,0.5850340136054422,0.5850340136054422,0.5850340136054422,0.5850340136054422,0.5850340136054422,0.5850340136054422,0.5782312925170068,0.5782312925170068,0.5714285714285714,0.5680272108843537,0.5612244897959183,0.5510204081632653,0.5408163265306123,0.5238095238095238,0.5102040816326531,0.4931972789115646,0.47959183673469385,0.45918367346938777,0.43537414965986393,0.41496598639455784,0.391156462585034,0.3741496598639456,0.35714285714285715,0.3299319727891156,0.3163265306122449,0.30272108843537415,0.29591836734693877,0.29591836734693877,0.2925170068027211,0.2891156462585034,0.2857142857142857,0.282312925170068,0.282312925170068,0.2789115646258503,0.2789115646258503,0.2789115646258503,0.2789115646258503,0.2755102040816326,0.2755102040816326,0.272108843537415,0.272108843537415,0.272108843537415,0.272108843537415,0.2687074829931973,0.2687074829931973,0.2687074829931973,0.2687074829931973,0.2687074829931973,0.2653061224489796,0.2653061224489796,0.2653061224489796,0.2653061224489796,0.2653061224489796,0.2653061224489796,0.2653061224489796,0.2619047619047619,0.2619047619047619,0.2619047619047619,0.2619047619047619,0.2585034013605442,0.25510204081632654,0.24829931972789115,0.24149659863945577,0.23129251700680273,0.21428571428571427,0.20068027210884354,0.19387755102040816,0.18027210884353742,0.1598639455782313,0.14625850340136054,0.12585034013605442,0.07142857142857142,0.04421768707482993,0.023809523809523808,0.006802721088435374,-0.006802721088435374,-0.013605442176870748,-0.013605442176870748,-0.017006802721088437,-0.017006802721088437,-0.017006802721088437,-0.017006802721088437,-0.017006802721088437,-0.017006802721088437,-0.017006802721088437,-0.017006802721088437,-0.017006802721088437,-0.017006802721088437,-0.017006802721088437,-0.01020408163265306,-0.006802721088435374,-0.006802721088435374,-0.003401360544217687,0,0.003401360544217687,0.006802721088435374,0.01020408163265306,0.013605442176870748,0.013605442176870748,0.013605442176870748,0.017006802721088437,0.02040816326530612,0.02040816326530612,0.023809523809523808,0.023809523809523808,0.023809523809523808,0.027210884353741496,0.027210884353741496,0.030612244897959183,0.034013605442176874,0.034013605442176874,0.04421768707482993,0.05102040816326531,0.06462585034013606,0.09183673469387756,0.11564625850340136,0.1292517006802721,0.14285714285714285,0.14965986394557823,0.1564625850340136,0.1598639455782313,0.16326530612244897,0.17006802721088435,0.17006802721088435,0.17687074829931973,0.1836734693877551,0.19727891156462585,0.21428571428571427,0.22448979591836735,0.23469387755102042,0.24489795918367346,0.2687074829931973,0.282312925170068,0.2891156462585034,0.2925170068027211,0.2925170068027211,0.2925170068027211,0.2925170068027211,0.2925170068027211,0.2925170068027211,0.2925170068027211,0.2925170068027211,0.2925170068027211,0.2925170068027211,0.2925170068027211,0.2925170068027211,0.2925170068027211,0.30272108843537415,0.3129251700680272,0.3163265306122449,0.32653061224489793,0.3333333333333333,0.3435374149659864,0.35714285714285715,0.3741496598639456,0.3945578231292517,0.40476190476190477,0.40816326530612246,0.41496598639455784,0.41496598639455784,0.41836734693877553,0.41836734693877553,0.41836734693877553,0.41836734693877553,0.41836734693877553,0.41836734693877553,0.41836734693877553,0.41836734693877553,0.41836734693877553,0.41836734693877553,0.41836734693877553,0.41836734693877553,0.41836734693877553,0.41836734693877553,0.41836734693877553,0.41836734693877553,0.41836734693877553,0.41836734693877553,0.41836734693877553,0.41836734693877553,0.41836734693877553,0.41836734693877553,0.41836734693877553,0.41836734693877553,0.41836734693877553,0.41836734693877553,0.41836734693877553,0.41836734693877553,0.41836734693877553,0.41836734693877553,0.41836734693877553,0.41836734693877553,0.41836734693877553,0.41836734693877553,0.41836734693877553,0.41836734693877553,0.41836734693877553,0.41836734693877553,0.41836734693877553,0.41836734693877553,0.41836734693877553,0.41836734693877553,0.41836734693877553,0.41836734693877553,0.41836734693877553,0.41836734693877553,0.41836734693877553,0.41836734693877553,0.41836734693877553,0.41836734693877553,0.41836734693877553,0.41836734693877553,0.41836734693877553,0.41836734693877553,0.41836734693877553,0.41836734693877553,0.41836734693877553,0.41836734693877553,0.41836734693877553,0.41836734693877553,0.41836734693877553,0.41836734693877553,0.41836734693877553,0.41836734693877553,0.41836734693877553,0.41836734693877553,0.41836734693877553,0.41836734693877553,0.41836734693877553,0.41836734693877553,0.41836734693877553,0.41836734693877553,0.41836734693877553,0.41836734693877553,0.41836734693877553,0.41836734693877553,0.41836734693877553,0.41836734693877553,0.41836734693877553,0.41836734693877553,0.41836734693877553,0.41836734693877553,0.41836734693877553,0.41836734693877553,0.41836734693877553,0.41836734693877553,0.41836734693877553,0.41836734693877553,0.41836734693877553,0.41836734693877553,0.41836734693877553,0.41836734693877553,0.41836734693877553,0.41836734693877553,0.41836734693877553,0.41836734693877553,0.41836734693877553,0.41836734693877553,0.41836734693877553,0.41836734693877553,0.41836734693877553,0.41836734693877553,0.41836734693877553,0.41836734693877553,0.41836734693877553,0.41836734693877553,0.41836734693877553,0.41836734693877553,0.41836734693877553,0.41836734693877553,0.41836734693877553,0.41836734693877553,0.41836734693877553,0.41836734693877553,0.41836734693877553,0.41836734693877553,0.41836734693877553,0.41836734693877553,0.41836734693877553,0.41836734693877553,0.41836734693877553,0.41836734693877553,0.41836734693877553,0.41836734693877553,0.41836734693877553,0.41836734693877553,0.41836734693877553,0.41836734693877553,0.41836734693877553,0.41836734693877553,0.41836734693877553,0.41836734693877553,0.41836734693877553,0.41836734693877553,0.41836734693877553,0.41836734693877553,0.41836734693877553,0.41836734693877553,0.41836734693877553,0.41836734693877553,0.41836734693877553,0.41836734693877553,0.41836734693877553,0.41836734693877553,0.41836734693877553,0.41836734693877553,0.41836734693877553,0.41836734693877553,0.41836734693877553,0.41836734693877553,0.41836734693877553,0.41836734693877553,0.41836734693877553,0.41836734693877553,0.4557823129251701,0.48299319727891155,0.5068027210884354,0.5306122448979592,0.54421768707483,0.5714285714285714,0.5952380952380952,0.6394557823129252,0.6802721088435374,0.7312925170068028,0.7551020408163265,0.7687074829931972,0.7755102040816326,0.7789115646258503,0.782312925170068,0.782312925170068,0.782312925170068,0.782312925170068,0.782312925170068,0.782312925170068,0.782312925170068,0.782312925170068,0.782312925170068,0.782312925170068,0.782312925170068,0.782312925170068,0.782312925170068,0.782312925170068,0.782312925170068,0.782312925170068,0.782312925170068,0.782312925170068,0.782312925170068,0.782312925170068,0.782312925170068,0.782312925170068,0.782312925170068,0.782312925170068,0.782312925170068,0.782312925170068,0.782312925170068,0.782312925170068,0.7857142857142857,0.7925170068027211,0.7959183673469388,0.7993197278911565,0.7993197278911565,0.7993197278911565,0.7993197278911565,0.7993197278911565,0.7993197278911565,0.7993197278911565,0.7993197278911565,0.7993197278911565,0.7993197278911565,0.7993197278911565,0.7993197278911565,0.7993197278911565,0.7993197278911565,0.7993197278911565,0.7993197278911565,0.7993197278911565,0.8571428571428571,0.9047619047619048,0.935374149659864,0.95578231292517,0.9795918367346939,0.9931972789115646,1.010204081632653,1.0476190476190477,1.064625850340136,1.0782312925170068,1.0850340136054422,1.08843537414966,1.08843537414966,1.08843537414966,1.0918367346938775,1.0918367346938775,1.0918367346938775,1.0918367346938775,1.0918367346938775,1.0918367346938775,1.0918367346938775,1.0918367346938775,1.0918367346938775,1.0918367346938775,1.0918367346938775,1.0918367346938775,1.0918367346938775,1.0918367346938775,1.0918367346938775,1.0918367346938775,1.0918367346938775,1.0918367346938775,1.0918367346938775,1.0918367346938775,1.0918367346938775,1.0918367346938775,1.0918367346938775,1.0918367346938775,1.0918367346938775,1.0918367346938775,1.0918367346938775,1.0918367346938775,1.0918367346938775,1.0918367346938775,1.0918367346938775,1.0918367346938775,1.0918367346938775,1.0918367346938775,1.0918367346938775,1.0918367346938775,1.0918367346938775,1.0918367346938775,1.0918367346938775,1.0918367346938775,1.0918367346938775,1.0918367346938775,1.0918367346938775,1.0918367346938775,1.0918367346938775,1.0918367346938775,1.0918367346938775,1.0918367346938775,1.0918367346938775,1.0918367346938775,1.0918367346938775,1.0918367346938775,1.0918367346938775,1.0918367346938775,1.0918367346938775,1.08843537414966,1.0748299319727892,1.064625850340136,1.054421768707483,1.0442176870748299,1.030612244897959,1.0204081632653061,1.0068027210884354,1,0.9931972789115646,0.9761904761904762,0.9693877551020408,0.9523809523809523,0.935374149659864,0.9217687074829932,0.9081632653061225,0.8945578231292517,0.8809523809523809,0.8639455782312925,0.8571428571428571,0.8503401360544217,0.8401360544217688,0.8333333333333334,0.8163265306122449,0.8027210884353742,0.7755102040816326,0.7448979591836735,0.7040816326530612,0.6428571428571429,0.5578231292517006,0.43537414965986393,0.3129251700680272,0.20748299319727892,0.12585034013605442,0.07142857142857142,0.027210884353741496,0.013605442176870748,0.003401360544217687,0.003401360544217687,0,-0.003401360544217687,-0.01020408163265306,-0.013605442176870748,-0.017006802721088437,-0.02040816326530612,-0.027210884353741496,-0.027210884353741496,-0.030612244897959183,-0.030612244897959183,-0.030612244897959183,-0.030612244897959183,-0.030612244897959183,-0.030612244897959183,-0.030612244897959183,-0.030612244897959183,-0.030612244897959183,-0.030612244897959183,-0.030612244897959183,-0.030612244897959183,-0.030612244897959183,-0.030612244897959183,-0.030612244897959183,-0.030612244897959183,-0.030612244897959183,-0.030612244897959183,-0.030612244897959183,-0.030612244897959183,-0.030612244897959183,-0.030612244897959183,-0.030612244897959183,-0.030612244897959183,-0.030612244897959183,-0.030612244897959183,-0.030612244897959183,-0.030612244897959183,-0.030612244897959183,-0.030612244897959183,-0.030612244897959183,-0.030612244897959183,-0.030612244897959183,-0.030612244897959183,-0.030612244897959183,-0.030612244897959183,-0.030612244897959183,-0.030612244897959183,-0.030612244897959183,-0.030612244897959183,-0.030612244897959183,-0.030612244897959183,-0.030612244897959183,-0.030612244897959183,-0.030612244897959183,-0.030612244897959183,-0.030612244897959183,-0.030612244897959183,-0.030612244897959183,-0.030612244897959183,-0.030612244897959183,-0.030612244897959183,-0.027210884353741496,-0.027210884353741496,-0.027210884353741496,-0.027210884353741496,-0.027210884353741496,-0.027210884353741496,-0.027210884353741496,-0.027210884353741496,-0.027210884353741496,-0.027210884353741496,-0.027210884353741496,-0.027210884353741496,-0.027210884353741496,-0.027210884353741496,-0.027210884353741496,-0.027210884353741496,-0.027210884353741496,-0.027210884353741496,-0.027210884353741496,-0.027210884353741496,-0.027210884353741496,-0.027210884353741496,-0.027210884353741496,-0.027210884353741496,-0.027210884353741496,-0.027210884353741496,-0.027210884353741496,-0.027210884353741496,-0.027210884353741496,-0.027210884353741496,-0.027210884353741496,-0.027210884353741496,-0.027210884353741496,-0.027210884353741496,-0.027210884353741496,-0.027210884353741496,-0.027210884353741496,-0.027210884353741496,-0.027210884353741496,-0.027210884353741496,-0.027210884353741496,-0.027210884353741496,-0.027210884353741496,-0.027210884353741496,-0.027210884353741496,-0.027210884353741496,-0.027210884353741496,-0.027210884353741496,-0.027210884353741496,-0.027210884353741496,-0.027210884353741496,-0.027210884353741496,-0.027210884353741496,-0.027210884353741496,-0.027210884353741496,-0.027210884353741496,-0.027210884353741496,-0.027210884353741496,-0.027210884353741496,-0.023809523809523808,-0.017006802721088437,-0.003401360544217687,0.006802721088435374,0.013605442176870748,0.02040816326530612,0.023809523809523808,0.027210884353741496,0.030612244897959183,0.034013605442176874,0.03741496598639456,0.03741496598639456,0.03741496598639456,0.04081632653061224,0.04081632653061224,0.04081632653061224,0.04421768707482993,0.047619047619047616,0.05102040816326531,0.05442176870748299,0.061224489795918366,0.06802721088435375,0.06802721088435375,0.07142857142857142,0.07142857142857142,0.07142857142857142,0.07142857142857142,0.07142857142857142,0.07142857142857142,0.07142857142857142,0.07142857142857142,0.07142857142857142,0.07142857142857142,0.07142857142857142,0.07142857142857142,0.07142857142857142,0.07142857142857142,0.07142857142857142,0.07142857142857142,0.07142857142857142,0.07142857142857142,0.07142857142857142,0.07142857142857142,0.07142857142857142,0.07142857142857142,0.07142857142857142,0.07142857142857142,0.07142857142857142,0.07142857142857142,0.07142857142857142,0.07142857142857142,0.07142857142857142,0.07142857142857142,0.07142857142857142,0.07142857142857142,0.07482993197278912,0.09183673469387756,0.09863945578231292,0.1054421768707483,0.1054421768707483,0.1054421768707483,0.1054421768707483,0.10884353741496598,0.10884353741496598,0.10884353741496598,0.10884353741496598,0.10884353741496598,0.10884353741496598,0.10884353741496598,0.10884353741496598,0.10884353741496598,0.10884353741496598,0.10884353741496598,0.10884353741496598,0.10884353741496598,0.10884353741496598,0.10884353741496598,0.10884353741496598,0.10884353741496598,0.10884353741496598,0.10884353741496598,0.10884353741496598,0.10884353741496598,0.10884353741496598,0.10884353741496598,0.10884353741496598,0.10884353741496598,0.10884353741496598,0.10884353741496598,0.10884353741496598,0.10884353741496598,0.10884353741496598,0.10884353741496598,0.10884353741496598,0.10884353741496598,0.10884353741496598,0.10884353741496598,0.11224489795918367,0.11904761904761904,0.12244897959183673,0.12585034013605442,0.1292517006802721,0.1360544217687075,0.13945578231292516,0.14285714285714285,0.14625850340136054,0.14625850340136054,0.15306122448979592,0.15306122448979592,0.1564625850340136,0.1598639455782313,0.16326530612244897,0.16326530612244897,0.16326530612244897,0.16666666666666666,0.16666666666666666,0.17006802721088435,0.17006802721088435,0.17346938775510204,0.17346938775510204,0.17346938775510204,0.17687074829931973,0.17687074829931973,0.17687074829931973,0.17687074829931973,0.17687074829931973,0.17687074829931973,0.17687074829931973,0.17687074829931973,0.17687074829931973,0.17687074829931973,0.17687074829931973,0.17687074829931973,0.17687074829931973,0.17687074829931973,0.17687074829931973,0.17687074829931973,0.17687074829931973,0.17687074829931973,0.17687074829931973,0.17687074829931973,0.18027210884353742,0.19047619047619047,0.19387755102040816,0.20068027210884354,0.20748299319727892,0.21428571428571427,0.21768707482993196,0.21768707482993196,0.21768707482993196,0.21768707482993196,0.21768707482993196,0.22108843537414966,0.22108843537414966,0.22108843537414966,0.22108843537414966,0.22108843537414966,0.22108843537414966,0.22108843537414966,0.22108843537414966,0.22108843537414966,0.22108843537414966,0.22108843537414966,0.22108843537414966,0.22108843537414966,0.22108843537414966,0.22108843537414966,0.22108843537414966,0.22108843537414966,0.22108843537414966,0.22108843537414966,0.22108843537414966,0.22108843537414966,0.22108843537414966,0.22108843537414966,0.22108843537414966,0.22108843537414966,0.22108843537414966,0.22108843537414966,0.22108843537414966,0.22448979591836735,0.22448979591836735,0.22789115646258504,0.22789115646258504,0.22789115646258504,0.22789115646258504,0.22789115646258504,0.22789115646258504,0.22789115646258504,0.22789115646258504,0.22789115646258504,0.22789115646258504,0.22789115646258504,0.22789115646258504,0.22789115646258504,0.22789115646258504,0.22789115646258504,0.22789115646258504,0.22789115646258504,0.22789115646258504,0.22789115646258504,0.22789115646258504,0.22789115646258504,0.22789115646258504,0.22789115646258504,0.22789115646258504,0.22789115646258504,0.22789115646258504,0.22789115646258504,0.22789115646258504,0.22789115646258504,0.22789115646258504,0.22789115646258504,0.22789115646258504,0.22789115646258504,0.22789115646258504,0.22789115646258504,0.22789115646258504,0.22789115646258504,0.22789115646258504,0.22789115646258504,0.22789115646258504,0.22789115646258504,0.22789115646258504,0.22789115646258504,0.22789115646258504,0.22789115646258504,0.22789115646258504,0.22108843537414966,0.22108843537414966,0.21768707482993196,0.2108843537414966,0.20408163265306123,0.20068027210884354,0.19387755102040816,0.19047619047619047,0.1870748299319728,0.1836734693877551,0.1836734693877551,0.1836734693877551,0.1836734693877551,0.1836734693877551,0.1836734693877551,0.1836734693877551,0.1836734693877551,0.1836734693877551,0.1836734693877551,0.1836734693877551,0.1836734693877551,0.1836734693877551,0.1836734693877551,0.1836734693877551,0.1836734693877551,0.1836734693877551,0.1836734693877551,0.1836734693877551,0.1836734693877551,0.1836734693877551,0.1836734693877551,0.1836734693877551,0.1836734693877551,0.1836734693877551,0.1836734693877551,0.1836734693877551,0.1836734693877551,0.1836734693877551,0.1836734693877551,0.1836734693877551,0.1836734693877551,0.1836734693877551,0.1836734693877551,0.1836734693877551,0.1836734693877551,0.1836734693877551,0.1836734693877551,0.1836734693877551,0.1836734693877551,0.19387755102040816,0.20408163265306123,0.2108843537414966,0.22448979591836735,0.23809523809523808,0.25170068027210885,0.272108843537415,0.29591836734693877,0.3163265306122449,0.3333333333333333,0.3401360544217687,0.3435374149659864,0.3469387755102041,0.35374149659863946,0.35714285714285715,0.36054421768707484,0.3673469387755102,0.3741496598639456,0.37755102040816324,0.3843537414965986,0.3945578231292517,0.40816326530612246,0.4217687074829932,0.43537414965986393,0.445578231292517,0.4557823129251701,0.45918367346938777,0.46598639455782315,0.46938775510204084,0.47278911564625853,0.47619047619047616,0.47619047619047616,0.47959183673469385,0.47959183673469385,0.47959183673469385,0.48299319727891155,0.48299319727891155,0.48299319727891155,0.48299319727891155,0.48299319727891155,0.48299319727891155,0.48299319727891155,0.48299319727891155,0.48299319727891155,0.48299319727891155,0.48299319727891155,0.48299319727891155,0.48299319727891155,0.48299319727891155,0.48299319727891155,0.47959183673469385,0.46258503401360546,0.4557823129251701,0.445578231292517,0.43537414965986393,0.41836734693877553,0.41156462585034015,0.3945578231292517,0.38095238095238093,0.3673469387755102,0.35374149659863946,0.35034013605442177,0.3401360544217687,0.3299319727891156,0.3231292517006803,0.3163265306122449,0.30612244897959184,0.29931972789115646,0.2891156462585034,0.2857142857142857,0.282312925170068,0.2755102040816326,0.2755102040816326,0.272108843537415,0.2687074829931973,0.2619047619047619,0.2585034013605442,0.2585034013605442,0.2585034013605442,0.2585034013605442,0.25510204081632654,0.25170068027210885,0.25170068027210885,0.25510204081632654,0.2619047619047619,0.2653061224489796,0.272108843537415,0.2789115646258503,0.2857142857142857,0.2891156462585034,0.29591836734693877,0.29591836734693877,0.30272108843537415,0.30612244897959184,0.30612244897959184,0.30952380952380953,0.3129251700680272,0.3129251700680272,0.3129251700680272,0.3163265306122449,0.3163265306122449,0.3163265306122449,0.3197278911564626,0.3197278911564626,0.3197278911564626,0.3197278911564626,0.3197278911564626,0.3197278911564626,0.3197278911564626,0.3163265306122449,0.3163265306122449,0.3163265306122449,0.3163265306122449,0.3163265306122449,0.3129251700680272,0.3129251700680272,0.3129251700680272,0.3129251700680272,0.3129251700680272,0.3129251700680272,0.3129251700680272,0.3129251700680272,0.3129251700680272,0.3129251700680272,0.3163265306122449,0.3299319727891156,0.3469387755102041,0.3945578231292517,0.42517006802721086,0.46598639455782315,0.5,0.5306122448979592,0.5680272108843537,0.5884353741496599,0.6054421768707483,0.6122448979591837,0.6190476190476191,0.6190476190476191,0.6224489795918368,0.6258503401360545,0.6394557823129252,0.6428571428571429,0.6428571428571429,0.6462585034013606,0.6462585034013606,0.6462585034013606,0.6462585034013606,0.6496598639455783,0.6598639455782312,0.6666666666666666,0.6700680272108843,0.673469387755102,0.673469387755102,0.673469387755102,0.673469387755102,0.673469387755102,0.673469387755102,0.673469387755102,0.673469387755102,0.673469387755102,0.673469387755102,0.6768707482993197,0.6768707482993197,0.6768707482993197,0.6768707482993197,0.6768707482993197,0.6768707482993197,0.6768707482993197,0.6768707482993197,0.6768707482993197,0.6768707482993197,0.6768707482993197,0.6768707482993197,0.6768707482993197,0.6768707482993197,0.6768707482993197,0.6768707482993197,0.673469387755102,0.673469387755102,0.673469387755102,0.673469387755102,0.673469387755102,0.6700680272108843,0.6700680272108843,0.6700680272108843,0.6700680272108843,0.6700680272108843,0.6700680272108843,0.6700680272108843,0.6700680272108843,0.6700680272108843,0.6700680272108843,0.6700680272108843,0.6700680272108843,0.6700680272108843,0.6700680272108843,0.6700680272108843,0.6700680272108843,0.6700680272108843,0.6700680272108843,0.6700680272108843,0.6700680272108843,0.6700680272108843,0.6700680272108843,0.6700680272108843,0.6700680272108843,0.6666666666666666,0.6666666666666666,0.6632653061224489,0.6598639455782312,0.6598639455782312,0.6564625850340136,0.6564625850340136,0.6530612244897959,0.6530612244897959,0.6530612244897959,0.6530612244897959,0.6496598639455783,0.6496598639455783,0.6462585034013606,0.6428571428571429,0.6394557823129252,0.6394557823129252,0.6394557823129252,0.6360544217687075,0.6326530612244898,0.6326530612244898,0.6326530612244898,0.6258503401360545,0.6224489795918368,0.6156462585034014,0.608843537414966,0.6020408163265306,0.5918367346938775,0.5782312925170068,0.564625850340136,0.5374149659863946,0.5272108843537415,0.5170068027210885,0.5068027210884354,0.5034013605442177,0.5,0.5,0.4965986394557823,0.4931972789115646,0.4897959183673469,0.48639455782312924,0.48299319727891155,0.47959183673469385,0.47619047619047616,0.47619047619047616,0.47278911564625853,0.46938775510204084,0.46598639455782315,0.46598639455782315,0.46598639455782315,0.46258503401360546,0.46258503401360546,0.46258503401360546,0.46258503401360546,0.45918367346938777,0.4557823129251701,0.4523809523809524,0.4489795918367347,0.445578231292517,0.4421768707482993,0.43197278911564624,0.42517006802721086,0.4217687074829932,0.41496598639455784,0.4013605442176871,0.3843537414965986,0.37755102040816324,0.3707482993197279,0.3673469387755102,0.36394557823129253,0.36054421768707484,0.35714285714285715,0.35714285714285715,0.35034013605442177,0.3469387755102041,0.3435374149659864,0.3401360544217687,0.3401360544217687,0.3401360544217687,0.336734693877551,0.3333333333333333,0.3299319727891156,0.3299319727891156,0.32653061224489793,0.32653061224489793,0.3231292517006803,0.3197278911564626,0.3163265306122449,0.3129251700680272,0.30612244897959184,0.29931972789115646,0.29931972789115646,0.29591836734693877,0.2925170068027211,0.2925170068027211,0.2891156462585034,0.2891156462585034,0.2857142857142857,0.282312925170068,0.2789115646258503,0.2789115646258503,0.2755102040816326,0.2619047619047619,0.24829931972789115,0.22789115646258504,0.19727891156462585,0.17006802721088435,0.14965986394557823,0.1360544217687075,0.1292517006802721,0.1292517006802721,0.12585034013605442,0.12585034013605442,0.12585034013605442,0.12585034013605442,0.12585034013605442,0.12585034013605442,0.12585034013605442,0.12585034013605442,0.12585034013605442,0.12585034013605442,0.12585034013605442,0.12585034013605442,0.12585034013605442,0.12585034013605442,0.12585034013605442,0.12585034013605442,0.12585034013605442,0.12585034013605442,0.12585034013605442,0.12585034013605442,0.12585034013605442,0.12585034013605442,0.12585034013605442,0.12585034013605442,0.12585034013605442,0.12585034013605442,0.12585034013605442,0.12585034013605442,0.12585034013605442,0.12585034013605442,0.12585034013605442,0.12585034013605442,0.12585034013605442,0.12585034013605442,0.12585034013605442,0.12585034013605442,0.12585034013605442,0.1292517006802721,0.1326530612244898,0.13945578231292516,0.14625850340136054,0.1598639455782313,0.18027210884353742,0.2108843537414966,0.24489795918367346,0.2755102040816326,0.30612244897959184,0.3231292517006803,0.35034013605442177,0.3741496598639456,0.3877551020408163,0.3979591836734694,0.40476190476190477,0.41156462585034015,0.41496598639455784,0.41496598639455784,0.41496598639455784,0.41496598639455784,0.41496598639455784,0.41496598639455784,0.41496598639455784,0.41496598639455784,0.41496598639455784,0.41496598639455784,0.41496598639455784,0.41496598639455784,0.41496598639455784,0.41496598639455784,0.41496598639455784,0.41496598639455784,0.41496598639455784,0.41496598639455784,0.41496598639455784,0.41496598639455784,0.41496598639455784,0.41496598639455784,0.41496598639455784,0.41496598639455784,0.41496598639455784,0.41496598639455784,0.41496598639455784,0.41496598639455784,0.41496598639455784,0.41496598639455784,0.41496598639455784,0.41496598639455784,0.41496598639455784,0.41496598639455784,0.41496598639455784,0.41496598639455784,0.41496598639455784,0.41496598639455784,0.41496598639455784,0.41496598639455784,0.41496598639455784,0.41496598639455784,0.41496598639455784,0.41496598639455784,0.41496598639455784,0.41496598639455784,0.41496598639455784,0.41496598639455784,0.41496598639455784,0.41496598639455784,0.41496598639455784,0.41496598639455784,0.41496598639455784,0.41496598639455784,0.41496598639455784,0.41496598639455784,0.41496598639455784,0.41496598639455784,0.41496598639455784,0.41496598639455784,0.41496598639455784,0.41496598639455784,0.41496598639455784,0.41496598639455784,0.41496598639455784,0.41496598639455784,0.41496598639455784,0.41496598639455784,0.41496598639455784,0.41496598639455784,0.41496598639455784,0.41496598639455784,0.41496598639455784,0.41496598639455784,0.41496598639455784,0.41496598639455784,0.41496598639455784,0.41496598639455784,0.41496598639455784,0.41496598639455784,0.41496598639455784,0.41496598639455784,0.41496598639455784,0.41496598639455784,0.41496598639455784,0.41496598639455784,0.41496598639455784,0.41496598639455784,0.41496598639455784,0.41496598639455784,0.41496598639455784,0.41496598639455784,0.41496598639455784,0.41496598639455784,0.41496598639455784,0.41156462585034015,0.40476190476190477,0.3945578231292517,0.3945578231292517,0.391156462585034,0.3877551020408163,0.3843537414965986,0.3843537414965986,0.3843537414965986,0.3843537414965986,0.3843537414965986,0.3843537414965986,0.3843537414965986,0.3843537414965986,0.3843537414965986,0.3843537414965986,0.3843537414965986,0.3843537414965986,0.3843537414965986,0.3843537414965986,0.3843537414965986,0.3843537414965986,0.3843537414965986,0.3843537414965986,0.3843537414965986,0.3843537414965986,0.3843537414965986,0.3843537414965986,0.3843537414965986,0.3843537414965986,0.3843537414965986,0.3843537414965986,0.3843537414965986,0.3843537414965986,0.3843537414965986,0.38095238095238093,0.3741496598639456,0.3741496598639456,0.36394557823129253,0.36054421768707484,0.36054421768707484,0.36054421768707484,0.35714285714285715,0.35714285714285715,0.35714285714285715,0.35714285714285715,0.35714285714285715,0.35714285714285715,0.35714285714285715,0.35714285714285715,0.35714285714285715,0.35714285714285715,0.35034013605442177,0.3469387755102041,0.3469387755102041,0.3401360544217687,0.3333333333333333,0.3231292517006803,0.3163265306122449,0.30952380952380953,0.30272108843537415,0.30272108843537415,0.29931972789115646,0.29931972789115646,0.29931972789115646,0.30612244897959184,0.3129251700680272,0.3163265306122449,0.3401360544217687,0.40476190476190477,0.43537414965986393,0.4557823129251701,0.48639455782312924,0.5238095238095238,0.5680272108843537,0.5986394557823129,0.6224489795918368,0.6326530612244898,0.6428571428571429,0.6632653061224489,0.6802721088435374,0.7006802721088435,0.7619047619047619,0.8061224489795918,0.8503401360544217,0.891156462585034,0.9489795918367347,0.9931972789115646,1.0136054421768708,1.0204081632653061,1.0204081632653061,1.0204081632653061,1.0238095238095237,1.0272108843537415,1.030612244897959,1.030612244897959,1.030612244897959,1.030612244897959,1.030612244897959,1.030612244897959,1.030612244897959,1.030612244897959,1.030612244897959,1.030612244897959,1.030612244897959,1.030612244897959,1.030612244897959,1.030612244897959,1.030612244897959,1.030612244897959,1.030612244897959,1.030612244897959,1.030612244897959,1.030612244897959,1.030612244897959,1.0272108843537415,1.0272108843537415,1.0272108843537415,1.0272108843537415,1.0272108843537415,1.0272108843537415,1.0272108843537415,1.0272108843537415,1.0272108843537415,1.0272108843537415,1.0272108843537415,1.0272108843537415,1.0272108843537415,1.0272108843537415,1.0272108843537415,1.0272108843537415,1.0272108843537415,1.0272108843537415,1.0272108843537415,1.0238095238095237,1.0204081632653061,1.0136054421768708,1.010204081632653,1.010204081632653,1.0034013605442176,1,0.9965986394557823,0.9931972789115646,0.9897959183673469,0.9897959183673469,0.9863945578231292,0.9863945578231292,0.9829931972789115,0.9761904761904762,0.9693877551020408,0.95578231292517,0.9421768707482994,0.9251700680272109,0.891156462585034,0.8639455782312925,0.8129251700680272,0.7721088435374149,0.7414965986394558,0.7108843537414966,0.6904761904761905,0.6632653061224489,0.6394557823129252,0.608843537414966,0.5884353741496599,0.564625850340136,0.5306122448979592,0.5136054421768708,0.5034013605442177,0.4897959183673469,0.47959183673469385,0.46258503401360546,0.4557823129251701,0.4523809523809524,0.4489795918367347,0.4421768707482993,0.43537414965986393,0.42857142857142855,0.42517006802721086,0.42517006802721086,0.42517006802721086,0.42857142857142855,0.4387755102040816,0.4557823129251701,0.46938775510204084,0.4931972789115646,0.5306122448979592,0.5680272108843537,0.6020408163265306,0.6122448979591837,0.6122448979591837,0.6122448979591837,0.6122448979591837,0.6156462585034014,0.6156462585034014,0.6156462585034014,0.5952380952380952,0.5850340136054422,0.5816326530612245,0.5782312925170068,0.5748299319727891,0.5680272108843537,0.5612244897959183,0.5578231292517006,0.5578231292517006,0.5544217687074829,0.5544217687074829,0.5544217687074829,0.5544217687074829,0.5544217687074829,0.5544217687074829,0.5544217687074829,0.5544217687074829,0.5544217687074829,0.5544217687074829,0.5544217687074829,0.5544217687074829,0.5544217687074829,0.5544217687074829,0.5544217687074829,0.5544217687074829,0.5544217687074829,0.5544217687074829,0.5544217687074829,0.5544217687074829,0.5544217687074829,0.5544217687074829,0.5544217687074829,0.5544217687074829,0.5544217687074829,0.5544217687074829,0.5544217687074829,0.5544217687074829,0.5544217687074829,0.5544217687074829,0.5544217687074829,0.5544217687074829,0.5544217687074829,0.5544217687074829,0.5544217687074829,0.5544217687074829,0.5544217687074829,0.5544217687074829,0.5544217687074829,0.5544217687074829,0.5544217687074829,0.5544217687074829,0.5510204081632653,0.54421768707483,0.5374149659863946,0.5272108843537415,0.5170068027210885,0.5102040816326531,0.5068027210884354,0.5034013605442177,0.5,0.5,0.4965986394557823,0.4965986394557823,0.4965986394557823,0.4965986394557823,0.4965986394557823,0.4965986394557823,0.5,0.5034013605442177,0.5068027210884354,0.5102040816326531,0.5204081632653061,0.5238095238095238,0.5272108843537415,0.5272108843537415,0.5272108843537415,0.5272108843537415,0.5272108843537415,0.5272108843537415,0.5272108843537415,0.5272108843537415,0.5272108843537415,0.5272108843537415,0.5272108843537415,0.5272108843537415,0.5272108843537415,0.5272108843537415,0.5272108843537415,0.5272108843537415,0.5272108843537415,0.5272108843537415,0.5272108843537415,0.5272108843537415,0.5272108843537415,0.5272108843537415,0.5272108843537415,0.5272108843537415,0.5272108843537415,0.5272108843537415,0.5272108843537415,0.5272108843537415,0.5272108843537415,0.5272108843537415,0.5272108843537415,0.5272108843537415,0.5272108843537415,0.5272108843537415,0.5272108843537415,0.5272108843537415,0.5272108843537415,0.5272108843537415,0.5272108843537415,0.5272108843537415,0.5272108843537415,0.5272108843537415,0.5272108843537415,0.5272108843537415,0.5272108843537415,0.5272108843537415,0.5272108843537415,0.5272108843537415,0.5272108843537415,0.5340136054421769,0.5374149659863946,0.5408163265306123,0.54421768707483,0.5476190476190477,0.5544217687074829,0.5578231292517006,0.5612244897959183,0.5714285714285714,0.5748299319727891,0.5850340136054422,0.5986394557823129,0.6054421768707483,0.6326530612244898,0.6632653061224489,0.7006802721088435,0.7448979591836735,0.7925170068027211,0.8129251700680272],"y":[-4.285714285714286,-4.285714285714286,-4.285714285714286,-4.285714285714286,-4.285714285714286,-4.285714285714286,-4.285714285714286,0.7761904761904762,0.7857142857142857,0.7952380952380952,0.8047619047619048,0.8047619047619048,0.8047619047619048,0.8047619047619048,0.8047619047619048,0.8047619047619048,0.8047619047619048,0.8047619047619048,0.8047619047619048,0.8047619047619048,0.8047619047619048,0.8047619047619048,0.8047619047619048,0.8047619047619048,0.8047619047619048,0.8047619047619048,0.8047619047619048,0.8047619047619048,0.8047619047619048,0.8047619047619048,0.8047619047619048,0.8047619047619048,0.8047619047619048,0.8047619047619048,0.7571428571428571,0.7571428571428571,0.7571428571428571,0.7571428571428571,0.7571428571428571,0.7571428571428571,0.7571428571428571,0.7571428571428571,0.7571428571428571,0.7571428571428571,0.7571428571428571,0.7571428571428571,0.7571428571428571,0.7571428571428571,0.7571428571428571,0.7857142857142857,0.7952380952380952,0.7952380952380952,0.7952380952380952,0.7952380952380952,0.7952380952380952,0.7952380952380952,0.7952380952380952,0.7952380952380952,0.7857142857142857,0.7761904761904762,0.7761904761904762,0.7761904761904762,0.7761904761904762,0.7666666666666667,0.7666666666666667,0.7666666666666667,0.7666666666666667,0.7666666666666667,0.7666666666666667,0.7571428571428571,0.7571428571428571,0.7476190476190476,0.7380952380952381,0.7285714285714285,0.719047619047619,0.7095238095238096,0.6904761904761905,0.6904761904761905,0.6714285714285714,0.6428571428571429,0.6333333333333333,0.6238095238095238,0.6142857142857143,0.6047619047619047,0.6047619047619047,0.5952380952380952,0.5952380952380952,0.5952380952380952,0.5952380952380952,0.5952380952380952,0.5857142857142857,0.5761904761904761,0.5666666666666667,0.5666666666666667,0.5476190476190477,0.5190476190476191,0.49047619047619045,0.43333333333333335,0.40476190476190477,0.40476190476190477,0.3952380952380952,0.3952380952380952,0.3952380952380952,0.3952380952380952,0.3952380952380952,0.3952380952380952,0.40476190476190477,0.4142857142857143,0.4142857142857143,0.4142857142857143,0.4142857142857143,0.4142857142857143,0.4142857142857143,0.40476190476190477,0.40476190476190477,0.40476190476190477,0.40476190476190477,0.4238095238095238,0.43333333333333335,0.44285714285714284,0.4523809523809524,0.4523809523809524,0.4523809523809524,0.46190476190476193,0.4714285714285714,0.4714285714285714,0.48095238095238096,0.48095238095238096,0.49047619047619045,0.49047619047619045,0.49047619047619045,0.49047619047619045,0.49047619047619045,0.49047619047619045,0.49047619047619045,0.49047619047619045,0.48095238095238096,0.48095238095238096,0.4714285714285714,0.4714285714285714,0.46190476190476193,0.46190476190476193,0.46190476190476193,0.4523809523809524,0.4523809523809524,0.4523809523809524,0.46190476190476193,0.5,0.5571428571428572,0.6047619047619047,0.6333333333333333,0.6523809523809524,0.680952380952381,0.6904761904761905,0.7285714285714285,0.7476190476190476,0.7666666666666667,0.7761904761904762,0.7857142857142857,0.7857142857142857,0.7857142857142857,0.7857142857142857,0.7857142857142857,0.7952380952380952,0.7952380952380952,0.8047619047619048,0.8238095238095238,0.8238095238095238,0.8333333333333334,0.8428571428571429,0.8523809523809524,0.861904761904762,0.8809523809523809,0.8809523809523809,0.8904761904761904,0.8904761904761904,0.9,0.9095238095238095,0.9095238095238095,0.9095238095238095,0.9095238095238095,0.9095238095238095,0.8904761904761904,0.8714285714285714,0.8333333333333334,0.7952380952380952,0.7571428571428571,0.7285714285714285,0.680952380952381,0.6619047619047619,0.6142857142857143,0.5952380952380952,0.5666666666666667,0.5476190476190477,0.5095238095238095,0.48095238095238096,0.4523809523809524,0.43333333333333335,0.4238095238095238,0.3952380952380952,0.3952380952380952,0.3952380952380952,0.38571428571428573,0.38571428571428573,0.38571428571428573,0.38571428571428573,0.3952380952380952,0.40476190476190477,0.40476190476190477,0.4142857142857143,0.4142857142857143,0.43333333333333335,0.4523809523809524,0.49047619047619045,0.5,0.5095238095238095,0.5190476190476191,0.5285714285714286,0.5285714285714286,0.5285714285714286,0.5380952380952381,0.5380952380952381,0.5476190476190477,0.5476190476190477,0.5476190476190477,0.5476190476190477,0.5476190476190477,0.5476190476190477,0.5476190476190477,0.5476190476190477,0.5476190476190477,0.5476190476190477,0.5476190476190477,0.5476190476190477,0.5476190476190477,0.5476190476190477,0.5476190476190477,0.5476190476190477,0.5476190476190477,0.5476190476190477,0.5476190476190477,0.5476190476190477,0.5380952380952381,0.5190476190476191,0.5190476190476191,0.49047619047619045,0.4714285714285714,0.46190476190476193,0.4523809523809524,0.4523809523809524,0.4523809523809524,0.4523809523809524,0.4523809523809524,0.4523809523809524,0.4523809523809524,0.4523809523809524,0.4523809523809524,0.46190476190476193,0.46190476190476193,0.46190476190476193,0.46190476190476193,0.46190476190476193,0.46190476190476193,0.46190476190476193,0.46190476190476193,0.46190476190476193,0.46190476190476193,0.46190476190476193,0.46190476190476193,0.4714285714285714,0.4714285714285714,0.48095238095238096,0.48095238095238096,0.49047619047619045,0.5,0.5095238095238095,0.5095238095238095,0.5190476190476191,0.5190476190476191,0.5190476190476191,0.5190476190476191,0.5190476190476191,0.5190476190476191,0.5190476190476191,0.5,0.4523809523809524,0.4238095238095238,0.38571428571428573,0.3380952380952381,0.3,0.2904761904761905,0.2714285714285714,0.2619047619047619,0.2619047619047619,0.2619047619047619,0.2523809523809524,0.2523809523809524,0.24285714285714285,0.23333333333333334,0.23333333333333334,0.23333333333333334,0.23333333333333334,0.22380952380952382,0.21428571428571427,0.21428571428571427,0.20476190476190476,0.20476190476190476,0.20476190476190476,0.19523809523809524,0.19523809523809524,0.19523809523809524,0.19523809523809524,0.18571428571428572,0.18571428571428572,0.18571428571428572,0.18571428571428572,0.18571428571428572,0.19523809523809524,0.20476190476190476,0.22380952380952382,0.23333333333333334,0.2523809523809524,0.2619047619047619,0.2714285714285714,0.28095238095238095,0.30952380952380953,0.3380952380952381,0.35714285714285715,0.38571428571428573,0.3952380952380952,0.40476190476190477,0.4142857142857143,0.4238095238095238,0.43333333333333335,0.43333333333333335,0.44285714285714284,0.44285714285714284,0.4523809523809524,0.4523809523809524,0.4523809523809524,0.4523809523809524,0.4523809523809524,0.4523809523809524,0.4523809523809524,0.4523809523809524,0.4523809523809524,0.4523809523809524,0.4523809523809524,0.46190476190476193,0.46190476190476193,0.46190476190476193,0.4714285714285714,0.4714285714285714,0.4714285714285714,0.4714285714285714,0.48095238095238096,0.49047619047619045,0.5,0.5,0.5,0.5,0.5,0.5,0.5,0.49047619047619045,0.48095238095238096,0.48095238095238096,0.4714285714285714,0.46190476190476193,0.4523809523809524,0.44285714285714284,0.44285714285714284,0.44285714285714284,0.44285714285714284,0.44285714285714284,0.44285714285714284,0.44285714285714284,0.44285714285714284,0.44285714285714284,0.44285714285714284,0.44285714285714284,0.44285714285714284,0.44285714285714284,0.44285714285714284,0.44285714285714284,0.44285714285714284,0.44285714285714284,0.44285714285714284,0.44285714285714284,0.44285714285714284,0.44285714285714284,0.44285714285714284,0.44285714285714284,0.44285714285714284,0.44285714285714284,0.44285714285714284,0.44285714285714284,0.44285714285714284,0.44285714285714284,0.44285714285714284,0.44285714285714284,0.44285714285714284,0.4523809523809524,0.46190476190476193,0.4714285714285714,0.48095238095238096,0.49047619047619045,0.5,0.5095238095238095,0.5190476190476191,0.5285714285714286,0.5285714285714286,0.5476190476190477,0.5571428571428572,0.5571428571428572,0.5666666666666667,0.5761904761904761,0.5857142857142857,0.5857142857142857,0.5857142857142857,0.5857142857142857,0.5857142857142857,0.5857142857142857,0.5857142857142857,0.5857142857142857,0.