[{"success":true,"trial_type":"fullscreen","trial_index":0,"time_elapsed":10721,"internal_node_id":"0.0-0.0","protocol_sum":"","subject_identifier":209,"subject_sum":[94,246,253,243,37,19,170,124,209,31,114,190,204,241,50,185,34,77,51,242,113,71,31,255,64,39,66,136,122,23,30,223],"subject_pair":104,"STUDY_ID":"669eec2e4270c76bc184a38e","PROLIFIC_PID":"6633bd3bc5ec5e52e25592a4","SESSION_ID":"669f8a0c3b6e0cead1c61225","practice_instructions":1,"leaderboard_instructions":1,"bonus":0,"reveal_word":true,"self_rating":"1","confidence":"78"},{"view_history":"[{\"page_index\":0,\"viewing_time\":7733}]","rt":7733,"trial_type":"instructions","trial_index":1,"time_elapsed":18460,"internal_node_id":"0.0-1.0","protocol_sum":"","subject_identifier":209,"subject_sum":[94,246,253,243,37,19,170,124,209,31,114,190,204,241,50,185,34,77,51,242,113,71,31,255,64,39,66,136,122,23,30,223],"subject_pair":104,"STUDY_ID":"669eec2e4270c76bc184a38e","PROLIFIC_PID":"6633bd3bc5ec5e52e25592a4","SESSION_ID":"669f8a0c3b6e0cead1c61225","practice_instructions":1,"leaderboard_instructions":1,"bonus":0,"reveal_word":true,"self_rating":"1","confidence":"78"},{"view_history":"[{\"page_index\":0,\"viewing_time\":35927}]","rt":35927,"trial_type":"instructions","trial_index":2,"time_elapsed":54388,"internal_node_id":"0.0-2.0-0.0","protocol_sum":"","subject_identifier":209,"subject_sum":[94,246,253,243,37,19,170,124,209,31,114,190,204,241,50,185,34,77,51,242,113,71,31,255,64,39,66,136,122,23,30,223],"subject_pair":104,"STUDY_ID":"669eec2e4270c76bc184a38e","PROLIFIC_PID":"6633bd3bc5ec5e52e25592a4","SESSION_ID":"669f8a0c3b6e0cead1c61225","practice_instructions":1,"leaderboard_instructions":1,"bonus":0,"reveal_word":true,"self_rating":"1","confidence":"78"},{"rt":34177,"responses":"{\"Q0\":\"... reveal the word with as <b>few letter guesses</b> as possible\"}","question_order":"[0]","trial_type":"survey-multi-choice","trial_index":3,"time_elapsed":88568,"internal_node_id":"0.0-2.0-1.0","protocol_sum":"","subject_identifier":209,"subject_sum":[94,246,253,243,37,19,170,124,209,31,114,190,204,241,50,185,34,77,51,242,113,71,31,255,64,39,66,136,122,23,30,223],"subject_pair":104,"correct":true,"test_part":"multichoice_nonpretend","STUDY_ID":"669eec2e4270c76bc184a38e","PROLIFIC_PID":"6633bd3bc5ec5e52e25592a4","SESSION_ID":"669f8a0c3b6e0cead1c61225","practice_instructions":1,"leaderboard_instructions":1,"bonus":0,"reveal_word":true,"self_rating":"1","confidence":"78"},{"view_history":"[{\"page_index\":0,\"viewing_time\":17772}]","rt":17773,"trial_type":"instructions","trial_index":4,"time_elapsed":106341,"internal_node_id":"0.0-3.0","protocol_sum":"","subject_identifier":209,"subject_sum":[94,246,253,243,37,19,170,124,209,31,114,190,204,241,50,185,34,77,51,242,113,71,31,255,64,39,66,136,122,23,30,223],"subject_pair":104,"STUDY_ID":"669eec2e4270c76bc184a38e","PROLIFIC_PID":"6633bd3bc5ec5e52e25592a4","SESSION_ID":"669f8a0c3b6e0cead1c61225","practice_instructions":1,"leaderboard_instructions":1,"bonus":0,"reveal_word":true,"self_rating":"1","confidence":"78"},{"word":"ZEBRA","click_log":{"letter":["","B","A","D","C","O","G","T","K","V","Z","E","R"],"t":[0,36548,50301,54005,59616,64616,71076,74646,79943,82719,84854,95716,98617],"hit":[null,1,1,0,0,0,0,0,0,0,1,1,1],"asked":["","B","BA","BAD","BADC","BADCO","BADCOG","BADCOGT","BADCOGTK","BADCOGTKV","BADCOGTKVZ","BADCOGTKVZE","BADCOGTKVZER"],"word_state":["_____","__B__","__B_A","__B_A","__B_A","__B_A","__B_A","__B_A","__B_A","__B_A","Z_B_A","ZEB_A","ZEBRA"]},"hover_log":{"letter":["?","?","?","?","?","?","?","?","?","?","?","?","?","?","?","?","?","?","?","?","?","?","?","?","?","?","?","?","?","?","?","?","?","?","?","?","?","?","?","?","?","?","?","?","?","?","?","?","?","?","?","?","?","?","?","?","?","?","?","?","?","?","?","?","?","?","?","?","?","?","?","?","?","?","?","?","?","?","?","?","?","?","?","?","?","?","?","?","?","?","?","?","?","?","?","?","?","?","?","?","?","?","?","?","?","?","?","?","?","?","?","?","?","?","?","?","?","?","?","?","?","?","?","?","?","?","?","?","?","?","?","?","?","?","?","?","?","?","?","?","?","?","?","?","?","?","?","?","?","?","?","?","?","?","?","?","?","?","?","?","?","?","?","?","?","?","?","?","?","?","?","?","?","?","?","?","?","?","?","?","?","?","?","?","?","?","?","?","?","?","?","?","?","?","?","?","?","?","?","?","?","?","?","?","?","?","?","?","?","?","?","?","?","?","H","H","?","?","?","?","?","?","?","?","?","E","?","?","?","?","?","?","?","?","?","?","?","?","?","?","?","?","?","?","?","?","?","?","?","?","?","?","?","?","?","?","?","?","?","?","?","?","?","?","?","?","?","?","?","?","?","?","?","?","?","?","?","?","?","?","?","?","?","?","?","?","?","?","?","?","?","?","?","?","?","?","?","?","?","?","?","?","?","?","?","?","?","?","?","?","?","?","?","?","?","?","?","?","?","?","?","?","?","?","?","?","?","?","?","?","?","?","?","?","?","?","?","?","?","?","?","?","?","?","?","?","?","?","?","?","?","?","?","?","?","?","?","?","?","?","?","?","?","?","?","?","?","?","?","?","?","?","?","?","?","?","?","?","?","?","?","?","?","?","?","?","?","?","?","?","?","?","?","?","?","?","?","?","?","?","?","?","?","?","?","?","?","?","?","?","?","D","D","?","P","?","?","?","?","?","?","?","?","?","?","?","?","?","?","?","Z","?","?","?","?","?","?","?","?","?","?","?","?","?","?","?","?","?","?","?","?","?","?","?","?","?","?","?","?","?","?","?","?","?","?","?","?","?","?","?","?","?","?","?","?","?","?","?","?","?","?","?","?","?","?","?","?","?","?","?","?","?","?","?","?","?","?","?","?","?","?","?","?","?","?","?","?","?","?","?","?","?","?","?","?","?","?","?","?","?","?","?","?","?","?","?","?","?","?","?","?","?","?","?","?","?","?","?","?","?","?","?","?","?","?","?","?","?","?","?","?","?","?","?","?","?","?","?","?","?","?","?","?","?","?","?","?","?","?","?","?","?","?","?","?","?","?","?","?","?","?","?","?","?","?","?","?","?","?","?","?","?","?","?","?","?","?","?","?","?","?","?","?","?","?","?","?","?","?","?","?","?","?","?","?","?","?","?","?","?","?","?","?","?","?","?","?","?","?","?","?","?","?","?","?","?","?","?","?","?","?","?","?","?","?","?","?","?","?","?","?","?","?","?","?","?","?","?","?","?","?","C","?","?","?","?","?","?","?","?","?","?","?","?","?","?","?","?","?","?","?","?","?","?","?","?","?","?","?","?","?","?","?","?","?","?","?","?","?","?","?","?","?","?","?","?","?","?","?","?","?","?","?","?","?","?","?","?","?","?","?","?","?","?","?","?","?","?","?","?","?","?","?","?","?","?","?","?","?","?","?","?","?","?","?","?","?","?","?","?","?","?","?","?","?","?","?","?","?","?","?","?","?","?","?","?","?","?","?","?","?","?","?","?","?","?","?","?","?","?","?","?","?","?","?","?","?","?","?","?","?","?","?","?","?","?","?","?","?","?","?","?","?","?","?","?","?","?","?","?","?","?","?","?","?","?","?","?","?","?","?","?","?","?","?","?","?","?","?","?","?","?","?","?","?","?","?","?","?","?","?","?","?","?","?","?","?","?","?","?","?","?","?","?","?","?","?","?","?","?","?","?","?","?","?","?","?","?","?","?","?","?","?","D","?","?","?","?","?","?","?","?","?","?","?","?","?","?","?","?","?","?","?","?","?","?","?","?","?","?","?","?","?","?","?","?","?","?","?","?","?","?","?","?","?","?","?","?","?","?","?","?","?","?","?","?","?","?","?","?","?","?","?","?","?","?","?","?","?","?","?","?","?","?","?","?","?","?","?","?","?","?","?","?","?","?","?","?","?","?","?","?","?","?","?","?","?","?","?","?","?","?","?","?","?","?","?","?","?","?","?","?","?","?","?","?","?","?","?","?","?","?","?","?","?","?","?","?","?","?","?","?","?","?","?","?","?","?","?","?","?","?","?","?","?","?","?","?","?","?","?","?","?","?","?","?","?","?","?","?","?","?","?","?","?","?","?","?","?","?","?","?","?","?","?","?","?","?","?","?","?","?","?","?","?","?","?","?","?","?","?","?","?","?","?","?","?","?","?","?","?","?","?","?","?","?","?","?","?","?","?","?","?","?","?","?","?","?","?","?","?","?","?","?","?","?","?","?","?","?","?","?","?","?","?","?","?","?","?","?","?","?","?","?","?","?","?","?","?","?","?","?","?","?","?","?","?","?","?","?","?","?","?","?","?","?","?","?","?","?","?","?","?","?","?","?","?","?","?","?","?","?","?","?","?","?","?","?","?","?","?","?","?","?","?","?","?","?","?","?","?","?","?","?","?","?","?","?","?","?","?","?","?","?","?","?","?","?","?","?","?","?","?","?","?","?","?","?","?","?","?","?","?","?","?","?","?","?","?","?","?","?","?","?","?","?","?","?","?","?","?","?","?","?","?","?","?","?","?","?","?","?","?","?","?","?","?","?","?","?","?","?","?","?","?","?","?","?","?","?","?","?","?","?","?","?","?","?","?","?","?","?","?","?","?","?","?","?","?","?","?","?","?","?","?","?","?","?","?","?","?","?","?","?","?","?","?","?","?","?","?","?","?","?","?","?","?","?","?","?","?","?","?","?","?","?","?","?","?","?","?","?","?","?","?","?","?","?","?","?","?","?","?","?","?","?","?","?","?","?","?","?","?","?","?","?","?","?","?","B","B","B","B","B","B","B","B","B","B","B","B","B","B","B","B","B","B","B","B","B","B","B","B","B","B","B","B","B","B","B","B","B","B","B","B","B","B","B","B","B","B","B","B","B","B","B","B","B","B","B","B","B","B","B","B","B","B","B","B","B","B","B","B","B","B","B","B","B","B","B","B","B","B","B","B","B","B","B","B","B","B","B","B","B","B","B","B","B","B","B","B","B","B","B","B","B","B","B","B","B","B","B","B","B","B","B","B","B","B","B","B","?","?","?","?","?","?","?","?","?","?","?","?","?","?","?","?","?","?","?","?","?","?","?","?","?","?","?","?","?","?","?","?","?","?","?","?","?","?","?","?","?","?","?","?","?","?","?","?","?","?","?","?","?","?","?","?","?","D","?","?","C","?","?","?","?","?","?","?","?","?","?","?","?","?","?","?","?","?","?","?","?","?","D","D","D","D","D","D","D","D","D","?","?","C","C","C","C","C","C","C","C","C","C","C","C","C","C","C","C","C","?","?","?","?","?","?","?","?","?","?","?","C","C","C","C","C","C","C","C","C","C","C","C","C","C","C","C","C","C","C","C","C","C","C","C","C","C","C","C","C","C","C","C","C","C","C","C","C","?","?","?","?","?","?","?","?","?","?","?","?","?","?","?","?","?","?","?","?","?","?","?","C","C","C","C","C","C","C","C","C","C","C","C","?","?","?","?","?","?","?","?","?","?","?","?","?","T","T","T","T","T","?","K","K","K","K","?","?","?","?","?","?","L","L","L","?","?","?","?","?","?","?","M","M","?","N","?","?","O","O","O","O","O","O","O","O","O","O","O","O","O","O","O","O","O","O","O","O","O","O","O","O","O","O","?","?","?","?","?","T","T","?","K","K","K","K","K","K","K","?","?","?","?","A","A","A","A","A","A","A","A","A","A","A","A","A","A","A","A","A","A","A","A","A","A","A","A","A","A","A","A","A","A","A","A","A","A","A","A","A","A","A","A","A","A","A","?","?","?","?","?","?","?","?","?","?","?","?","?","?","?","?","?","?","?","?","?","?","?","?","?","?","?","?","?","?","?","?","?","?","?","?","D","D","?","?","E","E","E","E","E","E","E","E","E","E","E","?","?","?","D","D","D","D","D","D","D","D","D","D","D","D","D","D","D","D","D","D","D","D","D","D","D","D","D","D","D","D","D","D","D","D","D","D","D","D","D","D","D","D","D","D","D","D","D","D","D","D","D","D","D","D","D","D","D","D","D","D","D","D","D","D","D","D","D","D","D","D","D","D","D","D","D","D","D","D","D","D","D","D","D","D","D","D","D","D","D","D","D","D","D","D","D","D","D","D","D","D","D","D","?","C","C","C","C","C","C","C","C","C","C","C","C","C","C","C","C","C","C","C","C","C","C","C","C","C","C","C","C","C","?","?","?","?","L","L","L","L","L","L","L","L","L","L","L","L","L","L","L","L","L","L","L","L","L","L","L","L","L","L","L","L","L","L","L","L","L","L","L","L","L","L","L","L","L","L","L","?","?","?","?","?","C","C","C","C","C","C","C","C","C","C","C","C","C","C","C","C","C","C","C","C","C","C","C","C","C","C","C","C","C","C","C","C","C","C","C","C","C","C","C","C","C","C","C","C","C","C","C","C","C","C","C","C","C","C","C","C","C","C","C","C","C","C","C","C","C","C","C","C","C","C","C","C","C","C","C","?","?","?","?","?","?","?","?","?","?","?","?","?","?","?","?","?","?","?","?","?","?","?","?","?","?","?","?","?","?","?","?","?","?","?","?","?","?","E","E","?","?","?","?","?","?","?","?","?","?","?","?","?","O","O","O","O","O","O","O","O","O","O","O","O","O","O","O","O","O","O","O","O","O","O","O","O","O","O","O","O","O","O","O","O","O","O","O","O","O","O","O","O","O","O","O","O","O","O","O","O","O","O","O","O","O","O","O","O","O","O","O","O","O","O","O","O","O","O","O","O","O","O","O","O","O","O","O","O","O","O","O","O","O","O","O","O","O","O","O","O","O","O","O","O","O","O","O","O","O","O","O","O","O","O","?","?","?","?","?","?","?","?","?","?","?","?","?","?","?","?","?","?","?","?","?","?","?","?","?","?","?","?","?","?","E","E","E","E","E","E","E","E","E","E","E","E","E","?","?","?","?","?","?","?","?","?","?","?","?","?","?","?","?","?","?","?","?","?","?","?","?","?","?","?","?","?","?","?","?","?","?","?","?","?","?","?","?","?","?","?","?","?","?","?","?","?","?","?","?","N","N","N","N","N","N","N","?","?","O","O","?","?","?","?","?","?","?","?","?","?","?","?","?","?","?","?","?","?","?","?","?","?","?","G","G","G","G","G","G","G","G","G","G","G","G","G","G","G","G","G","G","G","G","G","G","G","G","G","G","G","G","G","G","G","G","G","G","G","G","G","G","G","G","G","G","G","G","G","G","G","G","G","G","G","G","G","G","G","G","G","G","G","G","G","G","G","G","G","G","G","G","G","G","G","G","G","G","G","G","G","G","F","F","F","F","F","F","F","?","?","?","?","?","?","?","M","M","M","M","M","M","M","M","M","M","M","M","M","?","?","?","?","?","U","U","?","T","T","T","T","T","T","T","T","T","T","T","T","T","T","T","T","T","T","T","T","T","T","T","T","T","T","T","T","T","T","T","T","T","T","T","T","T","T","T","T","T","T","T","T","T","T","T","T","T","T","T","T","T","T","T","T","T","T","T","T","T","T","T","T","T","T","T","T","T","T","T","T","T","T","T","T","T","T","T","T","T","?","?","S","S","S","S","S","S","S","J","J","J","?","A","A","?","?","?","?","?","?","?","?","?","?","?","?","?","?","?","?","?","?","?","?","?","?","?","?","?","?","?","?","?","?","?","?","?","?","?","?","?","?","?","?","?","?","?","?","?","?","?","?","?","?","?","?","?","?","?","?","?","?","?","?","?","?","?","C","?","?","?","?","?","?","?","?","?","?","?","?","?","K","K","K","K","K","K","K","K","K","K","K","K","K","K","K","K","K","K","K","K","K","K","K","K","K","K","K","K","K","K","K","K","K","K","K","K","K","K","K","K","K","K","K","K","K","K","K","K","K","K","K","K","K","K","K","K","K","?","L","L","?","V","V","V","?","?","W","W","W","W","W","W","W","W","W","W","W","W","W","W","W","W","W","W","?","V","V","V","V","V","V","V","V","V","V","V","V","V","V","V","V","V","V","V","V","V","V","V","V","V","V","V","V","V","V","V","V","V","V","V","V","V","V","V","V","V","V","V","V","W","W","?","?","?","?","?","?","?","?","?","?","?","?","?","?","?","?","Z","Z","Z","Z","Z","Z","Z","Z","Z","Z","Z","Z","Z","Z","Z","Z","Z","Z","Z","Z","Z","Z","Z","Z","Z","Z","Z","Z","Z","Z","Z","Z","Z","Z","Z","Z","Z","?","?","?","?","?","?","?","?","?","?","?","?","?","?","?","?","?","?","?","?","?","?","?","?","?","?","?","?","?","?","?","?","?","?","?","?","?","?","?","?","?","?","?","?","?","?","?","Z","Z","Z","Z","Z","Z","Z","Z","Z","Z","Z","Z","Z","Z","Z","Z","Z","Z","Z","Z","Z","Z","?","?","?","?","?","?","?","?","?","?","?","?","?","?","O","O","O","O","?","?","?","?","?","?","?","?","?","?","?","?","?","?","?","?","?","?","?","?","?","?","?","?","?","?","?","?","?","?","?","?","?","?","?","?","?","?","?","E","E","E","E","E","E","E","E","E","E","E","E","E","E","E","E","E","E","E","E","E","E","E","E","E","E","E","E","E","E","E","E","E","E","E","E","E","E","E","E","E","E","E","E","E","E","E","E","E","E","E","E","E","E","E","E","E","E","E","E","E","E","E","E","E","E","E","E","E","E","E","E","E","E","E","E","E","E","E","E","E","E","E","E","E","E","E","E","E","E","E","E","E","E","E","E","E","E","E","E","E","E","E","E","E","E","E","E","E","E","E","E","E","E","E","E","E","E","E","E","E","E","E","E","E","E","E","E","E","E","E","E","E","E","E","E","E","E","E","E","E","E","E","E","E","E","E","E","E","E","E","E","E","E","E","E","E","E","E","E","E","E","E","E","E","E","E","E","E","E","E","E","E","E","E","E","E","E","E","E","E","E","E","E","E","E","E","E","E","E","E","E","E","E","E","E","E","E","E","E","E","E","E","E","E","E","E","E","E","E","E","E","E","E","E","E","E","E","E","E","E","E","E","E","E","E","E","E","E","E","E","E","E","E","E","E","E","E","E","E","E","E","?","?","N","N","?","?","?","W","W","W","W","W","W","N","N","?","?","?","?","?","?","P","P","Q","Q","Q","Q","Q","Q","Q","?","R","R","R","R","R","R","R","R","R","R","R","R","R","R","R","R","R","R","R","R","R","R","R","R","R","R","R","R","R","R","R","R","R","R","R","R","R","R","R","R","R","R","R","R","?","?","?","?","?","?","?","?","?","?","?","?","?","?","?","?","?","?","?","?","?","?","?","?","?","?","?","?","?","?","?","?","?","?","?","?","?","?"],"t":[69,81,114,141,154,201,216,369,390,450,473,491,518,536,568,596,611,638,659,673,706,724,747,765,796,829,841,860,888,903,954,974,1010,1025,1045,1080,1123,1149,1169,1194,1210,1233,1254,1273,1292,1314,1344,1353,1387,1410,1423,1447,1470,1499,1526,1538,1558,1575,1601,1613,1637,1646,1677,1704,1725,1739,1758,1789,1807,1829,1850,1878,1884,1911,1937,1961,1974,1990,2019,2038,2053,2058,2079,2109,2147,2173,2187,2223,2252,2263,2276,2299,2322,2348,2364,2375,2436,2445,2462,2483,2500,2519,2531,2554,2585,2607,2625,2646,2669,2680,2698,2730,2758,2769,2820,2841,2853,2895,2905,2938,2956,2976,2990,3031,3038,3062,3092,3106,3127,3150,3174,3186,3211,3235,3260,3276,3303,3306,3362,3387,3407,3421,3449,3468,3491,3507,3530,3549,3575,3587,3611,3635,3657,3674,3689,3712,3734,3756,3778,3788,3811,3837,3857,3875,3899,3919,3931,3953,3963,3983,4041,4064,4105,4133,4157,4178,4206,4225,4242,4272,4296,4315,4331,4359,4387,4410,4427,4450,4485,4509,4528,4562,4575,4606,4630,4651,4676,4695,4721,4745,4761,4782,4807,4827,4859,4889,4914,4929,4961,4980,5011,5029,5069,5098,5135,5160,5176,5203,5223,5248,5285,5307,5333,5361,5381,5413,5428,5450,5468,5508,5532,5554,5577,5593,5618,5636,5645,5668,5692,5720,5743,5765,5785,5801,5827,5841,5873,5887,5911,5925,5966,5999,6014,6044,6063,6090,6110,6129,6160,6175,6193,6218,6242,6257,6282,6304,6328,6340,6366,6386,6411,6428,6445,6468,6483,6526,6548,6560,6595,6608,6641,6667,6690,6717,6741,6762,6779,6801,6835,6846,6861,6887,6912,6926,6951,6962,6979,6999,7014,7035,7066,7096,7109,7138,7160,7173,7214,7242,7265,7273,7301,7327,7346,7359,7384,7408,7433,7441,7463,7493,7510,7527,7549,7564,7594,7603,7630,7661,7678,7693,7717,7738,7757,7780,7788,7824,7837,7851,7871,7884,7935,7946,7968,7992,8007,8043,8061,8076,8090,8117,8138,8162,8172,8204,8229,8245,8275,8293,8314,8339,8360,8374,8393,8411,8428,8463,8505,8535,8588,8660,8708,8763,8777,8801,8829,8845,8867,8893,8918,8939,8960,8997,9020,9044,9079,9096,9115,9150,9164,9197,9216,9258,9284,9314,9387,9413,9442,9471,9488,9507,9541,9568,9585,9628,9653,9687,9709,9753,9781,9813,9849,9897,9914,9986,10039,10061,10081,10126,10155,10181,10193,10221,10244,10267,10295,10316,10343,10348,10396,10417,10455,10487,10499,10535,10561,10579,10608,10642,10663,10682,10728,10760,10786,10801,10834,10846,10872,10895,10908,10924,10956,10981,11012,11046,11073,11112,11125,11152,11180,11201,11225,11250,11264,11296,11316,11336,11361,11371,11413,11429,11451,11469,11498,11553,11576,11602,11612,11643,11669,11689,11699,11732,11750,11781,11815,11827,11856,11878,11908,11918,11940,11956,11971,11991,11999,12016,12057,12079,12103,12120,12151,12164,12187,12209,12231,12241,12266,12311,12340,12356,12391,12425,12454,12486,12511,12533,12549,12578,12590,12648,12667,12685,12700,12730,12738,12772,12802,12817,12847,12872,12899,12919,12948,12971,12985,13020,13041,13059,13083,13106,13123,13149,13172,13204,13230,13261,13298,13319,13343,13367,13387,13430,13451,13469,13484,13515,13529,13555,13575,13601,13620,13633,13666,13681,13705,13732,13752,13779,13801,13846,13883,13955,13984,14009,14053,14065,14091,14118,14133,14168,14213,14237,14274,14305,14335,14365,14388,14411,14453,14480,14498,14518,14571,14583,14609,14631,14655,14657,14698,14721,14730,14768,14795,14815,14837,14869,14894,14926,14950,14963,14989,15011,15039,15053,15110,15121,15134,15166,15182,15209,15248,15269,15290,15343,15367,15388,15416,15433,15457,15479,15503,15520,15540,15569,15586,15613,15632,15659,15684,15702,15731,15757,15779,15793,15838,15848,15877,15900,15918,15934,15956,15981,16011,16020,16036,16057,16082,16100,16123,16174,16209,16225,16255,16275,16301,16320,16341,16364,16393,16409,16437,16456,16480,16507,16522,16541,16559,16588,16616,16637,16666,16680,16708,16735,16761,16778,16806,16815,16843,16866,16888,16900,16929,16953,16967,16988,17011,17038,17052,17080,17106,17120,17145,17158,17171,17194,17220,17237,17268,17285,17313,17331,17345,17368,17393,17418,17449,17463,17493,17511,17544,17568,17590,17604,17636,17657,17671,17703,17731,17755,17777,17797,17842,17861,17887,17905,17942,17966,17987,18004,18031,18047,18069,18089,18120,18135,18160,18184,18207,18223,18247,18269,18289,18308,18337,18357,18380,18400,18422,18440,18466,18496,18516,18535,18554,18589,18605,18632,18654,18671,18696,18727,18748,18776,18790,18805,18841,18857,18877,18897,18917,18927,18959,18984,19042,19060,19084,19103,19128,19145,19158,19186,19204,19223,19246,19293,19298,19327,19352,19371,19387,19407,19426,19448,19459,19552,19631,19703,19726,19737,19761,19817,19833,19840,19867,19873,19887,19917,19958,19993,20004,20025,20049,20055,20086,20110,20121,20153,20162,20174,20244,20254,20278,20305,20323,20338,20358,20388,20400,20423,20459,20485,20511,20524,20537,20559,20591,20603,20638,20660,20694,20703,20727,20750,20778,20786,20812,20837,20854,20869,20895,20915,20933,20955,20974,20985,21007,21037,21058,21072,21094,21129,21163,21187,21215,21271,21297,21315,21343,21357,21374,21403,21420,21431,21467,21489,21507,21530,21541,21570,21582,21624,21640,21667,21705,21729,21756,21774,21802,21829,21840,21866,21886,21901,21922,21930,21971,21983,21990,22031,22051,22129,22169,22223,22271,22300,22334,22366,22394,22425,22475,22527,22570,22615,22651,22731,22776,22795,22825,22846,22872,22919,22954,22987,23018,23062,23078,23132,23157,23193,23225,23259,23314,23350,23384,23422,23448,23470,23490,23526,23557,23580,23624,23641,23684,23709,23738,23771,23803,23823,23868,23874,23925,23949,23983,24010,24040,24055,24139,24169,24203,24248,24282,24360,24427,24486,24535,24587,24608,24658,24681,24716,24737,24775,24797,24827,24844,24891,24910,24943,24959,24991,25008,25032,25054,25101,25127,25150,25246,25276,25293,25324,25341,25365,25390,25417,25435,25450,25478,25491,25562,25571,25614,25620,25659,25683,25702,25736,25774,25799,25823,25833,25862,25877,25895,25931,25944,26001,26032,26048,26069,26090,26131,26145,26169,26211,26252,26386,26485,26495,26537,26567,26582,26605,26627,26685,26698,26721,26738,26815,26853,26866,26886,26916,26953,26984,27015,27034,27062,27085,27143,27173,27203,27219,27266,27311,27346,27395,27426,27462,27499,27526,27544,27583,27640,27673,27692,27728,27763,27798,27848,27927,27979,28149,28191,28215,28252,28282,28296,28340,28361,28379,28412,28439,28468,28497,28510,28545,28565,28635,28680,28696,28737,28758,28788,28820,28844,28863,28900,28910,28945,28971,28994,29019,29050,29073,29112,29146,29170,29196,29242,29261,29307,29344,29379,29417,29439,29459,29479,29528,29551,29588,29618,29653,29675,29705,29727,29773,29806,29841,29867,29896,29933,29963,29995,30022,30055,30090,30122,30156,30178,30208,30245,30270,30296,30369,30413,30445,30508,30542,30593,30646,30678,30736,30763,30802,30846,30862,30902,30918,30951,30975,30998,31040,31085,31122,31162,31197,31231,31268,31291,31368,31404,31437,31472,31505,31549,31589,31613,31669,31679,31720,31753,31808,31851,31857,31914,31933,31964,31980,32018,32048,32073,32114,32144,32183,32228,32274,32310,32341,32377,32408,32441,32473,32517,32555,32600,32633,32701,32743,32850,32920,32983,33003,33040,33050,33088,33124,33162,33190,33210,33245,33271,33309,33331,33349,33386,33404,33462,33490,33521,33548,33571,33610,33633,33654,33695,33720,33741,33783,33812,33847,33863,33895,33908,33951,33968,34028,34055,34118,34138,34164,34194,34225,34250,34291,34340,34376,34408,34434,34465,34506,34545,34579,34614,34643,34679,34704,34734,34760,34778,34830,34853,34905,34939,34956,34985,35008,35027,35049,35107,35128,35159,35169,35227,35254,35285,35313,35347,35368,35386,35425,35439,35467,35482,35524,35545,35615,35632,35657,35669,35715,35743,35767,35782,35823,35841,35866,35890,35915,35937,35978,35991,36011,36033,36082,36120,36142,36162,36192,36205,36244,36260,36313,36336,36353,36389,36418,36465,36501,36535,36570,36580,36641,36666,36684,36728,36757,36779,36827,36862,36880,36897,36931,36960,36992,37023,37049,37074,37098,37138,37161,37183,37217,37242,37271,37290,37324,37339,37370,37387,37416,37437,37482,37510,37534,37568,37585,37621,37650,37665,37702,37724,37753,37771,37798,37813,37870,37890,37927,37949,37977,38006,38025,38045,38081,38115,38151,38170,38196,38227,38234,38269,38298,38314,38338,38378,38400,38422,38454,38475,38495,38519,38561,38583,38607,38643,38670,38695,38743,38763,38792,38819,38854,38885,38905,38937,38970,38996,39012,39047,39067,39092,39124,39141,39175,39187,39285,39301,39322,39361,39395,39435,39453,39493,39524,39555,39596,39630,39671,39714,39738,39786,39808,39859,39893,39943,39981,40022,40034,40092,40145,40186,40222,40257,40290,40339,40372,40398,40427,40486,40526,40545,40582,40657,40677,40702,40753,40786,40820,40851,40880,40916,40942,40984,41018,41050,41079,41124,41160,41262,41291,41323,41363,41397,41439,41472,41510,41558,41581,41596,41636,41669,41698,41735,41771,41806,41835,41873,41906,41954,41974,42001,42045,42074,42122,42149,42181,42212,42250,42283,42306,42345,42379,42417,42454,42493,42528,42565,42600,42632,42666,42702,42729,42751,42790,42817,42860,42895,42916,42946,42990,43020,43055,43073,43115,43161,43191,43220,43252,43292,43332,43362,43393,43426,43456,43480,43519,43549,43596,43631,43654,43691,43715,43753,43783,43806,43840,43872,43894,43941,43983,44016,44034,44071,44110,44129,44168,44201,44237,44275,44296,44342,44370,44393,44451,44479,44494,44543,44559,44597,44623,44657,44688,44715,44755,44786,44792,44838,44865,44885,44921,44946,44964,44981,45002,45058,45117,45154,45189,45222,45260,45282,45315,45357,45400,45443,45491,45521,45561,45597,45702,45743,45766,45811,45860,45878,45908,45921,45962,46002,46047,46082,46118,46144,46164,46181,46237,46264,46299,46327,46369,46409,46441,46477,46511,46562,46596,46630,46655,46691,46725,46763,46798,46832,46867,46904,46936,46962,46984,46995,47059,47103,47137,47170,47202,47238,47270,47307,47328,47351,47392,47430,47475,47504,47534,47573,47601,47625,47679,47718,47752,47779,47822,47845,47889,47921,47960,47999,48020,48053,48086,48111,48138,48171,48193,48212,48244,48267,48294,48375,48406,48436,48468,48494,48523,48561,48591,48613,48651,48663,48707,48739,48777,48804,48845,48876,48917,48954,48985,49039,49079,49120,49151,49183,49219,49248,49272,49318,49354,49392,49428,49461,49496,49536,49567,49582,49620,49642,49684,49719,49737,49770,49802,49837,49872,49895,49938,49979,50012,50027,50067,50093,50123,50164,50199,50213,50247,50291,50328,50349,50380,50413,50444,50469,50508,50546,50572,50605,50625,50668,50698,50728,50770,50806,50847,50883,50918,50959,50992,51021,51060,51095,51118,51152,51191,51225,51260,51292,51320,51339,51376,51398,51415,51476,51514,51544,51584,51617,51630,51672,51699,51717,51762,51808,51837,51866,51913,51938,51972,52001,52052,52111,52175,52214,52246,52292,52324,52357,52380,52413,52435,52476,52497,52536,52559,52582,52636,52660,52694,52736,52746,52791,52832,52865,52902,52929,52983,53009,53039,53083,53113,53130,53166,53186,53218,53245,53290,53328,53357,53375,53415,53442,53484,53500,53539,53564,53596,53624,53658,53677,53709,53727,53769,53803,53835,53871,53892,53923,53943,53998,54034,54071,54081,54125,54154,54182,54210,54251,54296,54328,54368,54385,54430,54458,54490,54506,54534,54580,54621,54638,54674,54713,54748,54771,54805,54834,54875,54908,54939,54961,54994,55024,55044,55093,55118,55147,55168,55202,55228,55258,55285,55307,55323,55359,55384,55422,55450,55491,55525,55541,55554,55602,55634,55661,55698,55746,55778,55815,55850,55891,55930,55965,56011,56042,56086,56132,56153,56203,56238,56276,56301,56320,56357,56370,56411,56434,56453,56474,56524,56546,56593,56617,56659,56695,56721,56753,56771,56811,56844,56898,56929,56964,57000,57032,57136,57157,57184,57219,57237,57281,57312,57335,57379,57401,57431,57460,57487,57512,57541,57588,57631,57668,57687,57715,57754,57786,57819,57837,57866,57924,57949,57972,58004,58019,58070,58101,58130,58165,58193,58220,58259,58294,58333,58356,58381,58429,58458,58515,58551,58585,58621,58651,58671,58705,58738,58771,58802,58844,58866,58906,58930,58970,58993,59046,59056,59111,59122,59162,59173,59216,59238,59272,59300,59345,59378,59404,59434,59469,59504,59537,59558,59597,59637,59653,59695,59715,59748,59788,59820,59857,59870,59917,59947,59979,60013,60039,60068,60105,60138,60172,60244,60272,60303,60328,60348,60391,60417,60451,60474,60490,60547,60572,60616,60634,60667,60690,60724,60755,60779,60799,60837,60868,60903,60957,60976,61008,61042,61076,61119,61157,61194,61225,61260,61283,61313,61358,61396,61422,61477,61511,61524,61563,61588,61619,61650,61688,61716,61755,61772,61805,61839,61869,61890,61929,61956,61974,62013,62047,62080,62130,62169,62210,62235,62263,62301,62329,62353,62386,62420,62454,62485,62518,62542,62574,62615,62650,62717,62730,62783,62822,62852,62879,62907,62951,62980,63015,63035,63064,63105,63132,63170,63191,63226,63247,63272,63309,63331,63374,63412,63419,63467,63504,63525,63556,63595,63621,63656,63676,63717,63739,63779,63820,63859,63895,63908,63947,63965,64028,64043,64072,64089,64123,64148,64163,64187,64209,64233,64257,64302,64323,64352,64373,64446,64490,64515,64539,64562,64614,64652,64658,64700,64727,64747,64778,64813,64845,64874,64902,64940,64967,64990,65057,65081,65103,65147,65157,65192,65223,65234,65267,65300,65327,65342,65387,65414,65440,65461,65501,65524,65539,65593,65615,65643,65682,65704,65734,65764,65804,65834,65860,65887,65927,65975,66013,66046,66073,66107,66147,66177,66231,66260,66298,66321,66354,66389,66419,66449,66481,66512,66543,66576,66606,66628,66666,66691,66727,66758,66790,66823,66851,66884,66912,66953,66984,67017,67038,67063,67098,67128,67167,67189,67233,67258,67280,67309,67362,67402,67435,67475,67520,67554,67578,67613,67640,67677,67699,67738,67768,67810,67836,67875,67910,67929,67967,68007,68041,68072,68104,68136,68166,68194,68224,68246,68287,68299,68346,68376,68402,68430,68475,68517,68549,68567,68598,68619,68660,68686,68718,68745,68779,68816,68853,68875,68909,68940,68979,69006,69047,69078,69116,69127,69170,69178,69245,69267,69307,69341,69373,69401,69438,69460,69493,69528,69556,69590,69628,69659,69677,69711,69729,69760,69779,69824,69851,69901,69937,69960,69997,70022,70063,70100,70133,70144,70189,70228,70267,70281,70320,70331,70377,70399,70435,70445,70488,70521,70552,70574,70610,70635,70670,70698,70723,70759,70792,70823,70853,70896,70930,70957,70987,71011,71052,71091,71097,71139,71163,71186,71210,71259,71283,71318,71346,71372,71405,71472,71502,71533,71551,71573,71613,71637,71652,71679,71713,71744,71762,71803,71829,71857,71893,71918,71944,71971,71989,72009,72029,72063,72083,72133,72147,72182,72216,72248,72286,72308,72340,72376,72412,72454,72486,72515,72543,72587,72615,72652,72690,72721,72745,72788,72828,72850,72898,72928,72987,73017,73047,73066,73100,73122,73152,73183,73211,73233,73264,73312,73351,73387,73422,73457,73489,73530,73567,73600,73634,73671,73703,73717,73763,73801,73826,73873,73906,73933,73961,73985,74020,74038,74073,74109,74128,74144,74185,74207,74273,74310,74344,74369,74403,74418,74455,74495,74531,74558,74579,74626,74661,74684,74708,74744,74766,74785,74835,74867,74893,74936,74957,74994,75014,75054,75072,75108,75134,75171,75196,75210,75238,75249,75283,75309,75333,75374,75405,75460,75496,75525,75563,75589,75657,75684,75707,75737,75765,75790,75830,75859,75891,75916,75950,75962,76018,76048,76068,76123,76152,76194,76230,76266,76303,76343,76386,76424,76451,76491,76528,76564,76601,76635,76672,76700,76733,76761,76797,76818,76874,76916,76952,76979,77014,77053,77082,77117,77141,77166,77194,77225,77250,77288,77309,77343,77369,77398,77421,77454,77493,77510,77549,77585,77617,77661,77697,77713,77752,77781,77816,77845,77860,77909,77930,77946,77990,78008,78083,78109,78136,78176,78205,78228,78252,78286,78337,78368,78385,78424,78434,78475,78491,78519,78555,78575,78637,78674,78711,78737,78777,78813,78852,78883,78914,78938,78983,79014,79037,79077,79112,79134,79171,79192,79250,79285,79334,79372,79396,79426,79453,79486,79511,79549,79582,79619,79636,79675,79690,79727,79749,79795,79817,79857,79872,79898,79959,79967,80028,80048,80075,80109,80143,80156,80193,80221,80254,80281,80320,80348,80381,80409,80431,80459,80492,80513,80568,80589,80615,80636,80674,80685,80732,80766,80796,80833,80868,80905,80940,80957,81010,81045,81077,81123,81153,81211,81248,81284,81323,81355,81380,81404,81437,81464,81490,81520,81551,81591,81599,81643,81663,81703,81735,81760,81799,81822,81855,81925,81957,81994,82016,82055,82085,82106,82145,82177,82210,82232,82262,82291,82332,82360,82390,82417,82461,82506,82529,82572,82612,82645,82662,82709,82747,82764,82800,82829,82861,82900,82921,82957,82980,82998,83047,83066,83121,83142,83193,83209,83245,83255,83297,83336,83378,83415,83466,83508,83545,83573,83624,83671,83699,83735,83768,83811,83854,83883,83920,83957,83992,84027,84043,84097,84135,84161,84185,84219,84252,84288,84313,84341,84371,84390,84435,84448,84487,84523,84546,84570,84610,84645,84685,84716,84746,84777,84803,84848,84882,84899,84935,84959,84998,85019,85057,85079,85115,85168,85209,85237,85287,85325,85346,85386,85424,85442,85483,85515,85553,85587,85621,85640,85687,85709,85749,85785,85821,85856,85897,85937,85982,86017,86050,86078,86107,86135,86165,86198,86237,86258,86285,86318,86351,86369,86388,86426,86456,86486,86534,86576,86623,86646,86691,86727,86762,86794,86832,86864,86900,86933,86968,87004,87027,87044,87110,87125,87173,87193,87235,87269,87318,87352,87379,87391,87444,87481,87518,87550,87592,87647,87678,87704,87742,87792,87816,87854,87887,87931,87969,88001,88021,88057,88114,88144,88181,88217,88255,88288,88316,88347,88378,88411,88444,88486,88514,88545,88575,88608,88639,88668,88704,88746,88773,88806,88846,88878,88919,88951,88988,89017,89049,89069,89117,89155,89186,89211,89251,89288,89310,89344,89366,89399,89436,89469,89497,89540,89571,89603,89635,89669,89697,89725,89749,89784,89811,89842,89893,89928,89956,89992,90024,90046,90080,90110,90151,90175,90198,90225,90261,90285,90329,90377,90406,90442,90477,90504,90532,90546,90581,90620,90651,90671,90703,90736,90765,90792,90840,90878,90890,90924,90943,90973,91011,91030,91069,91088,91122,91155,91195,91210,91243,91268,91297,91315,91378,91396,91436,91462,91491,91530,91562,91581,91617,91627,91668,91687,91716,91752,91773,91792,91827,91856,91878,91907,91925,91940,91975,92022,92029,92076,92103,92131,92162,92182,92208,92237,92256,92289,92336,92347,92378,92411,92437,92456,92480,92512,92540,92573,92598,92644,92671,92689,92714,92738,92770,92811,92830,92859,92882,92891,92945,92976,92996,93022,93043,93082,93103,93134,93170,93194,93219,93245,93268,93291,93316,93339,93373,93393,93411,93467,93496,93515,93539,93567,93579,93626,93651,93713,93731,93762,93780,93817,93837,93858,93882,93918,93950,93974,94008,94034,94072,94117,94157,94177,94201,94238,94264,94288,94331,94367,94395,94414,94445,94472,94495,94513,94565,94588,94613,94657,94675,94699,94731,94751,94780,94824,94852,94871,94895,94939,94988,95001,95036,95051,95078,95099,95119,95184,95194,95230,95257,95274,95306,95339,95364,95400,95429,95461,95494,95529,95566,95592,95620,95663,95701,95731,95749,95787,95845,95861,95908,95929,95959,95978,96013,96043,96079,96099,96137,96150,96196,96215,96251,96272,96306,96332,96350,96394,96413,96444,96489,96530,96556,96574,96628,96675,96706,96749,96788,96824,96860,96892,96927,96964,97005,97041,97077,97111,97147,97182,97217,97276,97315,97348,97387,97425,97458,97483,97528,97562,97600,97641,97676,97683,97734,97779,97817,97857,97889,97925,97960,97990,98019,98041,98075,98115,98132,98173,98192,98235,98260,98281,98296,98334,98361,98385,98463,98497,98527,98557,98600,98642,98673,98694,98734,98752,98791,98799,98863,98870,98927,98989,99009,99066,99084,99130,99153,99187,99219,99254,99311,99345,99388,99437,99488,99543,99556,99604,99638,99681,99716,99744,99768,99776,99865,99887,99907,99956,99977,100033,100061,100093,100131,100158,100178,100199,100251,100284,100312,100340,100367,100393,100414,100446,100458,100496,100529,100580,100587,100622,100640],"hit":[null],"x":[-0.7678571428571429,-0.7678571428571429,-0.7678571428571429,-0.7678571428571429,-0.7678571428571429,-0.7678571428571429,-0.7678571428571429,-0.7678571428571429,-0.7678571428571429,-0.7678571428571429,-0.7678571428571429,-0.7678571428571429,-0.7678571428571429,-0.7678571428571429,-0.7678571428571429,-0.7678571428571429,-0.7678571428571429,-0.7678571428571429,-0.7678571428571429,-0.7678571428571429,-0.7678571428571429,-0.7678571428571429,-0.7678571428571429,-0.7678571428571429,-0.7678571428571429,-0.7678571428571429,-0.7678571428571429,-0.7678571428571429,-0.7678571428571429,-0.7678571428571429,-0.7678571428571429,-0.7678571428571429,-0.7678571428571429,-0.7678571428571429,-0.7678571428571429,-0.7678571428571429,-0.7678571428571429,-0.7678571428571429,-0.7678571428571429,-0.7678571428571429,-0.7678571428571429,-0.7678571428571429,-0.7678571428571429,-0.7678571428571429,-0.7678571428571429,-0.7678571428571429,-0.7678571428571429,-0.7678571428571429,-0.7678571428571429,-0.7678571428571429,-0.7678571428571429,-0.7678571428571429,-0.7678571428571429,-0.7678571428571429,-0.7678571428571429,-0.7678571428571429,-0.7678571428571429,-0.7678571428571429,-0.7678571428571429,-0.7678571428571429,-0.7678571428571429,-0.7678571428571429,-0.7678571428571429,-0.7678571428571429,-0.7678571428571429,-0.7678571428571429,-0.7678571428571429,-0.7678571428571429,-0.7678571428571429,-0.7678571428571429,-0.7678571428571429,-0.7678571428571429,-0.7678571428571429,-0.7678571428571429,-0.7678571428571429,-0.7678571428571429,-0.7678571428571429,-0.7678571428571429,-0.7678571428571429,-0.7678571428571429,-0.7678571428571429,-0.7678571428571429,-0.7678571428571429,-0.7678571428571429,-0.7678571428571429,-0.7678571428571429,-0.7678571428571429,-0.7678571428571429,-0.7678571428571429,-0.7678571428571429,-0.7678571428571429,-0.7678571428571429,-0.7678571428571429,-0.7678571428571429,-0.7678571428571429,-0.7678571428571429,-0.7678571428571429,-0.7678571428571429,-0.7678571428571429,-0.7678571428571429,-0.7678571428571429,-0.7678571428571429,-0.7678571428571429,-0.7678571428571429,-0.7678571428571429,-0.7678571428571429,-0.7678571428571429,-0.7678571428571429,-0.7678571428571429,-0.7678571428571429,-0.7678571428571429,-0.7678571428571429,-0.7678571428571429,-0.7678571428571429,-0.7678571428571429,-0.7678571428571429,-0.7678571428571429,-0.7678571428571429,-0.7678571428571429,-0.7678571428571429,-0.7678571428571429,-0.7678571428571429,-0.7678571428571429,-0.7678571428571429,-0.7678571428571429,-0.7678571428571429,-0.7678571428571429,-0.7678571428571429,-0.7678571428571429,-0.7678571428571429,-0.7678571428571429,-0.7678571428571429,-0.7678571428571429,-0.7678571428571429,-0.7678571428571429,-0.7678571428571429,-0.7678571428571429,-0.7678571428571429,-0.7678571428571429,-0.7678571428571429,-0.7678571428571429,-0.7678571428571429,-0.7678571428571429,-0.7678571428571429,-0.7678571428571429,-0.7678571428571429,-0.7678571428571429,-0.7678571428571429,-0.7678571428571429,-0.7678571428571429,-0.7678571428571429,-0.7678571428571429,-0.7678571428571429,-0.7678571428571429,-0.7678571428571429,-0.7678571428571429,-0.7678571428571429,-0.7678571428571429,-0.7678571428571429,-0.7678571428571429,-0.7678571428571429,-0.7678571428571429,-0.7678571428571429,-0.7678571428571429,-0.7678571428571429,-0.7678571428571429,-0.7678571428571429,-0.7678571428571429,-0.7678571428571429,-0.7678571428571429,4.06944447471982,3.992063522338867,3.867063522338867,3.753968284243629,3.7123016175769625,3.7063492366245816,3.7003968556722007,3.7003968556722007,3.7003968556722007,3.7003968556722007,3.7003968556722007,3.7003968556722007,3.7003968556722007,3.7003968556722007,3.7003968556722007,3.7003968556722007,3.7003968556722007,3.7003968556722007,3.7003968556722007,3.6051587604341053,3.0515873318626765,2.378968284243629,1.9146825699579149,1.7242063794817244,1.6170635223388672,1.5813492366245814,1.5694444747198195,1.5694444747198195,1.5694444747198195,1.5694444747198195,1.5694444747198195,1.5694444747198195,1.5694444747198195,1.5694444747198195,1.5694444747198195,1.5694444747198195,1.5694444747198195,1.5694444747198195,1.5694444747198195,1.5515873318626767,1.515873046148391,1.38492066519601,1.2896825699579149,1.13492066519601,1.0575397128150577,0.9980159032912481,0.9801587604341053,0.9742063794817243,0.9682539985293434,0.9623016175769624,0.9623016175769624,0.9027778080531529,0.8551587604341053,0.7420635223388672,0.628968284243629,0.5515873318626767,0.47420637948172434,0.47420637948172434,0.47420637948172434,0.47420637948172434,0.265873046148391,0.265873046148391,0.25992066519601004,0.25992066519601004,0.25992066519601004,0.25992066519601004,0.25992066519601004,0.25992066519601004,0.25992066519601004,0.25992066519601004,0.25992066519601004,0.25992066519601004,0.25992066519601004,0.25992066519601004,0.25992066519601004,0.25992066519601004,0.25992066519601004,0.25992066519601004,0.25992066519601004,0.25992066519601004,0.25992066519601004,0.25992066519601004,0.25992066519601004,0.25992066519601004,0.25992066519601004,0.25992066519601004,0.25992066519601004,0.25992066519601004,0.25992066519601004,0.25992066519601004,0.25992066519601004,0.25992066519601004,0.25992066519601004,0.25992066519601004,0.25992066519601004,0.25992066519601004,0.25992066519601004,0.25992066519601004,0.25992066519601004,0.25992066519601004,0.25992066519601004,0.25992066519601004,0.25992066519601004,0.25992066519601004,0.25992066519601004,0.25992066519601004,0.25992066519601004,0.25992066519601004,0.25992066519601004,0.25992066519601004,0.25992066519601004,0.25992066519601004,0.25992066519601004,0.25992066519601004,0.25992066519601004,0.25992066519601004,0.25992066519601004,0.25992066519601004,0.25992066519601004,0.25992066519601004,0.25992066519601004,0.25992066519601004,0.25992066519601004,0.25992066519601004,0.25992066519601004,0.25992066519601004,0.25992066519601004,0.25992066519601004,0.25992066519601004,0.25992066519601004,0.25992066519601004,0.25992066519601004,0.25992066519601004,0.25992066519601004,0.25992066519601004,0.25992066519601004,0.25992066519601004,0.25992066519601004,0.25992066519601004,0.25992066519601004,0.25992066519601004,0.25992066519601004,0.25992066519601004,0.25992066519601004,0.25992066519601004,0.25992066519601004,0.25992066519601004,0.25992066519601004,0.25992066519601004,0.25992066519601004,0.25992066519601004,0.25992066519601004,0.25992066519601004,0.25992066519601004,0.25992066519601004,0.25992066519601004,0.25992066519601004,0.25992066519601004,0.25992066519601004,0.25992066519601004,0.25992066519601004,0.25992066519601004,0.25992066519601004,0.25992066519601004,0.25992066519601004,0.25992066519601004,0.25992066519601004,0.25992066519601004,0.25992066519601004,0.25992066519601004,0.25992066519601004,0.25992066519601004,0.25992066519601004,0.25992066519601004,0.25992066519601004,0.25992066519601004,0.25992066519601004,0.25992066519601004,0.25992066519601004,0.25992066519601004,0.25992066519601004,0.25992066519601004,0.25992066519601004,0.25992066519601004,0.25992066519601004,0.25992066519601004,0.25992066519601004,0.25992066519601004,0.25992066519601004,0.25992066519601004,0.25992066519601004,0.25992066519601004,0.25992066519601004,0.25992066519601004,0.25992066519601004,0.25992066519601004,0.25992066519601004,0.25992066519601004,0.25992066519601004,0.25992066519601004,0.25992066519601004,0.25992066519601004,0.25992066519601004,0.25992066519601004,0.25992066519601004,0.25992066519601004,0.25992066519601004,0.25992066519601004,0.25992066519601004,0.25992066519601004,0.25992066519601004,0.25992066519601004,0.25992066519601004,0.25992066519601004,0.25992066519601004,0.25992066519601004,0.25992066519601004,0.25992066519601004,0.25992066519601004,0.25992066519601004,0.25992066519601004,0.25992066519601004,0.25992066519601004,0.25992066519601004,0.25992066519601004,0.25992066519601004,0.25992066519601004,0.25992066519601004,0.25992066519601004,0.25992066519601004,0.25992066519601004,0.25992066519601004,0.25992066519601004,0.25992066519601004,0.25992066519601004,0.25992066519601004,0.2777778080531529,0.31349209376743864,0.34325399852934335,0.34325399852934335,0.39682542710077195,0.43253971281505765,0.47420637948172434,0.7003968556722006,0.8730159032912481,0.890873046148391,0.9027778080531529,0.9206349509102958,0.9206349509102958,0.9325397128150577,0.9325397128150577,0.9325397128150577,0.9325397128150577,0.9325397128150577,0.9325397128150577,0.9325397128150577,0.9325397128150577,0.9325397128150577,0.9325397128150577,0.9444444747198195,1.0575397128150577,1.8075397128150577,2.492063522338867,2.623015903291248,2.623015903291248,2.623015903291248,2.623015903291248,2.63492066519601,2.896825427100772,3.2837301890055337,4.4503968556722,4.986111141386486,5.563492093767438,5.69444447471982,5.69444447471982,5.69444447471982,5.69444447471982,5.69444447471982,5.69444447471982,5.69444447471982,5.69444447471982,5.69444447471982,5.69444447471982,5.69444447471982,6.123015903291249,7.38492066519601,8.742063522338867,9.19444447471982,9.527777808053154,9.557539712815057,9.557539712815057,9.557539712815057,9.557539712815057,9.557539712815057,9.557539712815057,9.557539712815057,9.557539712815057,9.557539712815057,9.557539712815057,9.557539712815057,9.557539712815057,9.557539712815057,9.557539712815057,9.557539712815057,9.557539712815057,9.557539712815057,9.557539712815057,9.557539712815057,9.557539712815057,9.557539712815057,9.557539712815057,9.557539712815057,9.557539712815057,9.557539712815057,9.557539712815057,9.557539712815057,9.557539712815057,9.557539712815057,9.557539712815057,9.557539712815057,9.557539712815057,9.557539712815057,9.557539712815057,9.557539712815057,9.557539712815057,9.557539712815057,9.557539712815057,9.557539712815057,9.557539712815057,9.557539712815057,9.557539712815057,9.557539712815057,9.557539712815057,9.557539712815057,9.557539712815057,9.557539712815057,9.557539712815057,9.557539712815057,9.557539712815057,9.557539712815057,9.557539712815057,9.557539712815057,9.807539712815057,10.158730189005533,10.390873046148391,10.50396828424363,10.56944447471982,10.623015903291249,10.623015903291249,10.623015903291249,10.623015903291249,10.623015903291249,10.623015903291249,10.623015903291249,10.623015903291249,10.623015903291249,10.623015903291249,10.62896828424363,10.62896828424363,10.640873046148391,10.640873046148391,10.646825427100772,10.646825427100772,10.652777808053154,10.664682569957915,10.664682569957915,10.664682569957915,10.664682569957915,10.664682569957915,10.664682569957915,10.664682569957915,10.664682569957915,10.664682569957915,10.664682569957915,10.664682569957915,10.664682569957915,10.664682569957915,10.664682569957915,10.664682569957915,10.664682569957915,10.664682569957915,10.664682569957915,10.664682569957915,10.664682569957915,10.664682569957915,10.664682569957915,10.664682569957915,10.664682569957915,10.664682569957915,10.664682569957915,10.664682569957915,10.664682569957915,10.664682569957915,10.664682569957915,10.664682569957915,10.664682569957915,10.664682569957915,10.664682569957915,10.664682569957915,10.664682569957915,10.664682569957915,10.664682569957915,10.664682569957915,10.664682569957915,10.664682569957915,10.664682569957915,10.664682569957915,10.664682569957915,10.664682569957915,10.664682569957915,10.664682569957915,10.664682569957915,10.730158760434104,10.38492066519601,9.62896828424363,8.587301617576962,7.7182539985293435,7.25992066519601,7.140873046148391,7.0515873318626765,7.039682569957915,7.039682569957915,7.039682569957915,7.039682569957915,7.039682569957915,7.039682569957915,7.039682569957915,7.039682569957915,7.039682569957915,7.039682569957915,7.039682569957915,7.039682569957915,6.974206379481724,6.224206379481724,5.390873046148391,4.480158760434105,4.111111141386486,3.878968284243629,3.7956349509102956,3.7837301890055337,3.7837301890055337,3.7837301890055337,3.7837301890055337,3.7837301890055337,3.7837301890055337,3.7837301890055337,3.7837301890055337,3.7837301890055337,3.7837301890055337,3.7837301890055337,3.75992066519601,3.1765873318626765,2.682539712815058,2.057539712815058,1.6765873318626767,1.5992063794817244,1.5515873318626767,1.5218254271007718,1.50992066519601,1.50992066519601,1.50992066519601,1.50992066519601,1.50992066519601,1.50992066519601,1.50992066519601,1.50992066519601,1.50992066519601,1.50992066519601,1.50992066519601,1.4325397128150577,1.3075397128150577,0.8253968556722006,0.6111111413864863,0.4563492366245815,0.42063495091029574,0.4146825699579148,0.4146825699579148,0.4146825699579148,0.4146825699579148,0.4146825699579148,0.4146825699579148,0.4146825699579148,0.4146825699579148,0.4146825699579148,0.4146825699579148,0.4146825699579148,0.4146825699579148,0.4146825699579148,0.4146825699579148,0.4027778080531529,0.3373016175769624,0.29563495091029574,0.265873046148391,0.23015876043410527,0.21230161757696242,0.20634923662458146,0.20039685567220053,0.20039685567220053,0.20039685567220053,0.20039685567220053,0.20039685567220053,0.20039685567220053,0.20039685567220053,0.20039685567220053,0.20039685567220053,0.20039685567220053,0.20039685567220053,0.20039685567220053,0.20039685567220053,0.20634923662458146,0.21230161757696242,0.21825399852934338,0.22420637948172434,0.23611114138648623,0.23611114138648623,0.23611114138648623,0.23611114138648623,0.2420635223388672,0.24801590329124815,0.24801590329124815,0.24801590329124815,0.24801590329124815,0.24801590329124815,0.24801590329124815,0.24801590329124815,0.24801590329124815,0.24801590329124815,0.24801590329124815,0.24801590329124815,0.24801590329124815,0.24801590329124815,0.24801590329124815,0.24801590329124815,0.24801590329124815,0.24801590329124815,0.24801590329124815,0.24801590329124815,0.24801590329124815,0.24801590329124815,0.24801590329124815,0.24801590329124815,0.24801590329124815,0.24801590329124815,0.24801590329124815,0.24801590329124815,0.24801590329124815,0.24801590329124815,0.24801590329124815,0.24801590329124815,0.24801590329124815,0.24801590329124815,0.24801590329124815,0.24801590329124815,0.24801590329124815,0.24801590329124815,0.24801590329124815,0.24801590329124815,0.24801590329124815,0.24801590329124815,0.24801590329124815,0.24801590329124815,0.24801590329124815,0.24801590329124815,0.24801590329124815,0.24801590329124815,0.24801590329124815,0.24801590329124815,0.24801590329124815,0.24801590329124815,0.24801590329124815,0.24801590329124815,0.24801590329124815,0.24801590329124815,0.24801590329124815,0.24801590329124815,0.24801590329124815,0.24801590329124815,0.24801590329124815,0.24801590329124815,0.24801590329124815,0.24801590329124815,0.24801590329124815,0.24801590329124815,0.24801590329124815,0.24801590329124815,0.24801590329124815,0.24801590329124815,0.24801590329124815,0.24801590329124815,0.24801590329124815,0.24801590329124815,0.24801590329124815,0.24801590329124815,0.24801590329124815,0.24801590329124815,0.24801590329124815,0.24801590329124815,0.24801590329124815,0.24801590329124815,0.24801590329124815,0.24801590329124815,0.24801590329124815,0.24801590329124815,0.24801590329124815,0.24801590329124815,0.24801590329124815,0.24801590329124815,0.24801590329124815,0.24801590329124815,0.24801590329124815,0.24801590329124815,0.24801590329124815,0.24801590329124815,0.24801590329124815,0.24801590329124815,0.24801590329124815,0.24801590329124815,0.24801590329124815,0.24801590329124815,0.24801590329124815,0.24801590329124815,0.24801590329124815,0.24801590329124815,0.24801590329124815,0.24801590329124815,0.24801590329124815,0.24801590329124815,0.24801590329124815,0.24801590329124815,0.24801590329124815,0.24801590329124815,0.24801590329124815,0.24801590329124815,0.24801590329124815,0.24801590329124815,0.24801590329124815,0.24801590329124815,0.24801590329124815,0.24801590329124815,0.24801590329124815,0.24801590329124815,0.24801590329124815,0.24801590329124815,0.24801590329124815,0.24801590329124815,0.24801590329124815,0.24801590329124815,0.24801590329124815,0.24801590329124815,0.24801590329124815,0.24801590329124815,0.24801590329124815,0.24801590329124815,0.24801590329124815,0.24801590329124815,0.24801590329124815,0.24801590329124815,0.24801590329124815,0.24801590329124815,0.24801590329124815,0.24801590329124815,0.24801590329124815,0.24801590329124815,0.24801590329124815,0.24801590329124815,0.24801590329124815,0.24801590329124815,0.24801590329124815,0.24801590329124815,0.24801590329124815,0.24801590329124815,0.24801590329124815,0.24801590329124815,0.24801590329124815,0.24801590329124815,0.24801590329124815,0.24801590329124815,0.24801590329124815,0.24801590329124815,0.24801590329124815,0.24801590329124815,0.24801590329124815,0.24801590329124815,0.24801590329124815,0.24801590329124815,0.24801590329124815,0.24801590329124815,0.24801590329124815,0.24801590329124815,0.24801590329124815,0.24801590329124815,0.24801590329124815,0.24801590329124815,0.24801590329124815,0.24801590329124815,0.24801590329124815,0.24801590329124815,0.24801590329124815,0.24801590329124815,0.24801590329124815,0.24801590329124815,0.24801590329124815,0.2896825699579148,0.43849209376743864,0.9503968556722006,2.1111111413864863,2.313492093767439,2.396825427100772,2.432539712815058,2.4503968556722007,2.4503968556722007,2.4503968556722007,2.4503968556722007,2.4503968556722007,2.4503968556722007,2.4503968556722007,2.4503968556722007,2.4503968556722007,2.4503968556722007,2.4503968556722007,2.4503968556722007,2.4503968556722007,2.7123016175769625,3.1527778080531528,3.7063492366245816,4.9682539985293435,5.283730189005534,5.498015903291249,5.533730189005534,5.539682569957915,5.539682569957915,5.539682569957915,5.539682569957915,5.539682569957915,5.539682569957915,5.539682569957915,5.539682569957915,5.539682569957915,5.539682569957915,5.539682569957915,5.539682569957915,5.539682569957915,6.771825427100772,7.6765873318626765,8.164682569957915,8.277777808053154,8.277777808053154,8.277777808053154,8.277777808053154,8.277777808053154,8.277777808053154,8.277777808053154,8.307539712815057,8.521825427100772,8.950396855672201,10.367063522338867,10.367063522338867,10.367063522338867,10.367063522338867,10.367063522338867,10.367063522338867,10.367063522338867,10.367063522338867,10.367063522338867,10.367063522338867,10.367063522338867,10.367063522338867,10.367063522338867,10.367063522338867,10.367063522338867,10.367063522338867,10.367063522338867,10.367063522338867,10.367063522338867,10.367063522338867,10.367063522338867,10.367063522338867,10.367063522338867,10.367063522338867,10.367063522338867,10.367063522338867,10.367063522338867,10.367063522338867,10.367063522338867,10.367063522338867,10.367063522338867,10.367063522338867,10.367063522338867,10.367063522338867,10.367063522338867,10.367063522338867,10.367063522338867,10.367063522338867,10.367063522338867,10.367063522338867,10.367063522338867,10.367063522338867,10.367063522338867,10.367063522338867,10.367063522338867,10.367063522338867,10.367063522338867,10.367063522338867,10.367063522338867,10.367063522338867,10.367063522338867,10.367063522338867,10.367063522338867,10.367063522338867,10.367063522338867,10.367063522338867,10.367063522338867,10.367063522338867,10.367063522338867,10.367063522338867,10.367063522338867,10.367063522338867,10.367063522338867,10.367063522338867,10.367063522338867,10.367063522338867,10.367063522338867,10.367063522338867,10.367063522338867,10.367063522338867,10.367063522338867,10.367063522338867,10.367063522338867,10.367063522338867,10.367063522338867,10.367063522338867,10.367063522338867,10.367063522338867,10.367063522338867,10.367063522338867,10.367063522338867,10.367063522338867,10.367063522338867,10.367063522338867,10.367063522338867,10.367063522338867,10.367063522338867,10.367063522338867,10.367063522338867,10.367063522338867,10.367063522338867,10.367063522338867,10.367063522338867,10.367063522338867,10.367063522338867,10.367063522338867,10.367063522338867,10.367063522338867,10.367063522338867,10.367063522338867,10.367063522338867,10.367063522338867,10.367063522338867,10.367063522338867,10.367063522338867,10.367063522338867,10.367063522338867,10.367063522338867,10.367063522338867,10.367063522338867,10.367063522338867,10.367063522338867,10.367063522338867,10.367063522338867,10.367063522338867,10.367063522338867,10.367063522338867,10.367063522338867,10.367063522338867,10.367063522338867,10.367063522338867,10.367063522338867,10.367063522338867,10.367063522338867,10.367063522338867,10.367063522338867,10.367063522338867,10.367063522338867,10.367063522338867,10.367063522338867,10.367063522338867,10.367063522338867,10.367063522338867,10.367063522338867,10.367063522338867,10.367063522338867,10.367063522338867,10.367063522338867,10.367063522338867,10.367063522338867,10.367063522338867,10.367063522338867,10.367063522338867,10.367063522338867,10.367063522338867,10.367063522338867,10.367063522338867,10.367063522338867,10.367063522338867,10.367063522338867,10.367063522338867,10.367063522338867,10.367063522338867,10.367063522338867,10.367063522338867,10.367063522338867,10.367063522338867,10.367063522338867,10.367063522338867,10.367063522338867,10.367063522338867,10.367063522338867,10.367063522338867,10.367063522338867,10.367063522338867,10.367063522338867,10.367063522338867,10.367063522338867,10.367063522338867,10.367063522338867,10.367063522338867,10.367063522338867,10.367063522338867,10.367063522338867,10.367063522338867,-0.2103174300420852,-0.16269838242303758,-0.16269838242303758,-0.16269838242303758,-0.16269838242303758,-0.16269838242303758,-0.16269838242303758,-0.16269838242303758,-0.16269838242303758,-0.16269838242303758,-0.16269838242303758,-0.16269838242303758,-0.16269838242303758,-0.16269838242303758,-0.16269838242303758,-0.16269838242303758,-0.16269838242303758,-0.16269838242303758,-0.16269838242303758,-0.16269838242303758,-0.16269838242303758,-0.16269838242303758,-0.16269838242303758,-0.7698412395658947,-0.7698412395658947,-0.7698412395658947,-0.7698412395658947,-0.7698412395658947,-0.7698412395658947,-0.7698412395658947,-0.7698412395658947,-0.7698412395658947,-0.7698412395658947,-0.7698412395658947,-0.7698412395658947,-0.7698412395658947,-0.7698412395658947,-0.7698412395658947,-0.7698412395658947,-0.7698412395658947,-0.7698412395658947,-0.7698412395658947,-0.7698412395658947,-0.7698412395658947,-0.7698412395658947,-0.7698412395658947,-0.7698412395658947,-0.7698412395658947,-0.7698412395658947,-0.7698412395658947,-0.7698412395658947,-0.7698412395658947,-0.7698412395658947,-0.7698412395658947,-0.7698412395658947,-0.7698412395658947,-0.7698412395658947,-0.7698412395658947,-0.7698412395658947,-0.7698412395658947,-0.7698412395658947,-0.7698412395658947,-0.7698412395658947,-0.7698412395658947,-0.7698412395658947,-0.7698412395658947,-0.7698412395658947,-0.7698412395658947,-0.7698412395658947,-0.7698412395658947,-0.7698412395658947,-0.7698412395658947,-0.7698412395658947,-0.7698412395658947,-0.7698412395658947,-0.7698412395658947,-0.7579364776611328,-0.728174572899228,-0.6746031443277994,-0.5615079062325614,-0.5019840967087519,-0.2876983824230376,-0.21626981099446616,-0.043650763375418525,0.021825427100771948,0.05158733186267671,0.08134923662458148,0.13492066519601004,0.17658733186267672,0.21825399852934338,0.23015876043410527,0.23611114138648623,0.23611114138648623,0.23611114138648623,0.2539682842436291,0.265873046148391,0.265873046148391,0.265873046148391,0.265873046148391,0.265873046148391,0.265873046148391,0.265873046148391,0.265873046148391,0.265873046148391,0.265873046148391,0.2896825699579148,0.31349209376743864,0.31349209376743864,0.31944447471981957,0.31944447471981957,0.31944447471981957,0.31944447471981957,0.31944447471981957,0.30753971281505765,0.29563495091029574,0.2837301890055339,0.2777778080531529,0.2777778080531529,0.25992066519601004,0.25992066519601004,0.2539682842436291,0.23611114138648623,0.23015876043410527,0.23015876043410527,0.23015876043410527,0.23015876043410527,0.23015876043410527,0.23015876043410527,0.23015876043410527,0.23015876043410527,0.23015876043410527,0.23015876043410527,0.23015876043410527,0.23015876043410527,0.23015876043410527,0.23015876043410527,0.23015876043410527,0.23015876043410527,0.23015876043410527,0.23015876043410527,0.23015876043410527,0.23015876043410527,0.23015876043410527,0.23015876043410527,0.23015876043410527,0.23015876043410527,0.23015876043410527,0.23015876043410527,0.23015876043410527,0.23015876043410527,0.23015876043410527,0.23015876043410527,0.23015876043410527,0.23015876043410527,0.23015876043410527,0.23015876043410527,0.23015876043410527,0.23015876043410527,0.23015876043410527,0.23015876043410527,0.23015876043410527,0.23015876043410527,0.23015876043410527,0.23015876043410527,0.23015876043410527,0.23015876043410527,0.23015876043410527,0.23015876043410527,0.3373016175769624,0.3373016175769624,0.3373016175769624,0.3373016175769624,0.3373016175769624,0.3373016175769624,0.3373016175769624,0.3373016175769624,0.3373016175769624,0.3373016175769624,0.3373016175769624,0.3373016175769624,0.3373016175769624,0.3373016175769624,0.3373016175769624,0.3373016175769624,0.3373016175769624,0.3373016175769624,0.3373016175769624,0.3373016175769624,0.3373016175769624,0.3373016175769624,0.3373016175769624,0.3373016175769624,0.3373016175769624,0.3373016175769624,0.3373016175769624,0.08730161757696242,0.08730161757696242,0.08730161757696242,0.08730161757696242,0.08730161757696242,0.08730161757696242,0.08730161757696242,0.08730161757696242,0.08730161757696242,0.08730161757696242,0.08730161757696242,0.08730161757696242,0.08730161757696242,0.08730161757696242,0.08730161757696242,0.08730161757696242,0.08730161757696242,0.08730161757696242,0.08730161757696242,0.08730161757696242,0.08730161757696242,0.08730161757696242,0.08730161757696242,0.08730161757696242,0.08730161757696242,0.08730161757696242,0.08730161757696242,0.08730161757696242,0.08730161757696242,0.08730161757696242,0.08730161757696242,0.08730161757696242,0.08730161757696242,0.08730161757696242,0.08730161757696242,0.08730161757696242,0.08730161757696242,0.08730161757696242,0.08730161757696242,0.08730161757696242,0.08730161757696242,0.08730161757696242,0.08730161757696242,0.08730161757696242,0.17658733186267672,0.17658733186267672,0.17658733186267672,0.17658733186267672,0.17658733186267672,0.17658733186267672,0.17658733186267672,0.17658733186267672,0.17658733186267672,0.17658733186267672,0.17658733186267672,0.17658733186267672,0.17658733186267672,0.17658733186267672,0.17658733186267672,0.17658733186267672,0.17658733186267672,0.17658733186267672,0.17658733186267672,0.17658733186267672,0.17658733186267672,0.17658733186267672,0.17658733186267672,0.17658733186267672,0.17658733186267672,0.17658733186267672,0.17658733186267672,0.17658733186267672,0.17658733186267672,0.17658733186267672,0.17658733186267672,0.17658733186267672,0.17658733186267672,0.17658733186267672,0.17658733186267672,0.17658733186267672,0.17658733186267672,0.17658733186267672,0.17658733186267672,0.17658733186267672,0.17658733186267672,0.17658733186267672,0.17658733186267672,0.17658733186267672,0.17658733186267672,0.17658733186267672,0.17658733186267672,0.17658733186267672,0.17658733186267672,0.17658733186267672,0.17658733186267672,0.17658733186267672,0.17658733186267672,0.17658733186267672,0.17658733186267672,0.17658733186267672,0.17658733186267672,0.17658733186267672,0.17658733186267672,0.17658733186267672,0.17658733186267672,0.17658733186267672,0.17658733186267672,0.17658733186267672,0.17658733186267672,0.17658733186267672,0.17658733186267672,0.17658733186267672,0.17658733186267672,0.17658733186267672,0.17658733186267672,0.17658733186267672,0.17658733186267672,0.17658733186267672,0.17658733186267672,0.17658733186267672,0.17658733186267672,0.17658733186267672,0.17658733186267672,0.17658733186267672,0.17658733186267672,0.17658733186267672,0.17658733186267672,0.17658733186267672,0.17658733186267672,0.17658733186267672,0.17658733186267672,0.17658733186267672,0.17658733186267672,0.17658733186267672,0.17658733186267672,0.17658733186267672,0.17658733186267672,0.17658733186267672,0.17658733186267672,0.17658733186267672,0.17658733186267672,0.17658733186267672,0.17658733186267672,0.17658733186267672,0.17658733186267672,0.17658733186267672,0.17658733186267672,0.17658733186267672,0.17658733186267672,0.17658733186267672,0.17658733186267672,0.17658733186267672,0.17658733186267672,0.17658733186267672,0.17658733186267672,0.17658733186267672,0.21825399852934338,0.23611114138648623,0.2777778080531529,0.29563495091029574,0.29563495091029574,0.25992066519601004,0.1289682842436291,0.11706352233886719,0.10515876043410528,0.09920637948172432,0.11111114138648623,0.43253971281505765,0.5099206651960101,0.6051587604341053,0.6230159032912481,0.628968284243629,0.628968284243629,0.6349206651960101,0.6349206651960101,0.6349206651960101,0.640873046148391,0.640873046148391,0.640873046148391,0.640873046148391,0.640873046148391,0.640873046148391,0.640873046148391,0.640873046148391,0.640873046148391,0.640873046148391,0.640873046148391,0.640873046148391,0.640873046148391,0.640873046148391,0.640873046148391,0.640873046148391,0.640873046148391,0.640873046148391,0.640873046148391,0.640873046148391,0.640873046148391,0.640873046148391,0.640873046148391,0.628968284243629,0.628968284243629,0.6111111413864863,0.5992063794817243,0.5813492366245815,0.5634920937674386,0.5515873318626767,0.5456349509102958,0.5396825699579149,0.5337301890055338,0.5277778080531529,0.4920635223388672,0.46825399852934335,0.43253971281505765,0.4087301890055339,0.3730159032912481,0.34920637948172434,0.31349209376743864,0.29563495091029574,0.29563495091029574,0.3253968556722005,0.3373016175769624,0.3373016175769624,0.3373016175769624,0.34325399852934335,0.35515876043410527,0.3730159032912481,0.38492066519601004,0.390873046148391,0.39682542710077195,0.39682542710077195,0.4027778080531529,0.4027778080531529,0.4027778080531529,0.39682542710077195,0.39682542710077195,0.39682542710077195,0.39682542710077195,0.39682542710077195,0.39682542710077195,0.39682542710077195,0.39682542710077195,0.39682542710077195,0.39682542710077195,0.39682542710077195,0.39682542710077195,0.39682542710077195,0.39682542710077195,0.35515876043410527,0.34920637948172434,0.3373016175769624,0.3373016175769624,0.3373016175769624,0.3373016175769624,0.3373016175769624,0.3373016175769624,0.3373016175769624,0.3373016175769624,0.3373016175769624,0.3373016175769624,0.3373016175769624,0.3373016175769624,0.3373016175769624,0.3373016175769624,0.3373016175769624,0.3373016175769624,0.34325399852934335,0.34920637948172434,0.35515876043410527,0.35515876043410527,0.35515876043410527,0.36111114138648626,0.36111114138648626,0.36111114138648626,0.36111114138648626,0.36111114138648626,0.36111114138648626,0.35515876043410527,0.34325399852934335,0.3373016175769624,0.3373016175769624,0.31944447471981957,0.31349209376743864,0.31349209376743864,0.30753971281505765,0.3015873318626767,0.29563495091029574,0.2896825699579148,0.2896825699579148,0.2896825699579148,0.2896825699579148,0.2896825699579148,0.2896825699579148,0.2896825699579148,0.2896825699579148,0.2896825699579148,0.2896825699579148,0.2896825699579148,0.2896825699579148,0.2896825699579148,0.2896825699579148,0.2896825699579148,0.2896825699579148,0.2896825699579148,0.2896825699579148,0.2896825699579148,0.2896825699579148,0.2896825699579148,0.2896825699579148,0.2896825699579148,0.2896825699579148,0.2896825699579148,0.29563495091029574,0.3015873318626767,0.31349209376743864,0.3253968556722005,0.3313492366245815,0.3373016175769624,0.3373016175769624,0.3373016175769624,0.34325399852934335,0.35515876043410527,0.3670635223388672,0.3730159032912481,0.38492066519601004,0.4027778080531529,0.43253971281505765,0.46825399852934335,0.47420637948172434,0.48611114138648626,0.4920635223388672,0.5099206651960101,0.515873046148391,0.521825427100772,0.521825427100772,0.515873046148391,0.4920635223388672,0.4087301890055339,0.3253968556722005,0.31349209376743864,0.31349209376743864,0.30753971281505765,0.30753971281505765,0.3015873318626767,0.2777778080531529,0.2777778080531529,0.27182542710077195,0.27182542710077195,0.25992066519601004,0.23611114138648623,0.22420637948172434,0.21825399852934338,0.21230161757696242,0.21230161757696242,0.21230161757696242,0.21230161757696242,0.21230161757696242,0.21230161757696242,0.20634923662458146,0.20039685567220053,0.18253971281505765,0.1646825699579148,0.140873046148391,0.1289682842436291,0.12301590329124815,0.12301590329124815,0.12301590329124815,0.12301590329124815,0.140873046148391,0.15873018900553384,0.17063495091029576,0.17658733186267672,0.18253971281505765,0.20039685567220053,0.21230161757696242,0.21825399852934338,0.21825399852934338,0.21825399852934338,0.23015876043410527,0.2420635223388672,0.2539682842436291,0.265873046148391,0.2837301890055339,0.31349209376743864,0.3373016175769624,0.35515876043410527,0.3670635223388672,0.3730159032912481,0.3730159032912481,0.39682542710077195,0.4503968556722005,0.48015876043410527,0.5813492366245815,0.6230159032912481,0.6706349509102958,0.6884920937674386,0.6884920937674386,0.6884920937674386,0.6884920937674386,0.6884920937674386,0.6884920937674386,0.6884920937674386,0.6884920937674386,0.6884920937674386,0.6884920937674386,0.6884920937674386,0.6884920937674386,0.6884920937674386,0.6884920937674386,0.6884920937674386,0.6944444747198195,0.7003968556722006,0.7063492366245815,0.7063492366245815,0.7063492366245815,0.7063492366245815,0.7063492366245815,0.7063492366245815,0.7063492366245815,0.7063492366245815,0.7063492366245815,0.6706349509102958,0.5873016175769624,0.4920635223388672,0.3313492366245815,0.21230161757696242,0.1646825699579148,0.15873018900553384,0.14682542710077195,0.1289682842436291,0.12301590329124815,0.12301590329124815,0.12301590329124815,0.12301590329124815,0.12301590329124815,0.11111114138648623,0.08134923662458148,0.03373018900553385,0.015873046148390996,0.0039682842436290925,-0.013888858613513765,-0.019841239565894717,-0.019841239565894717,-0.019841239565894717,-0.019841239565894717,-0.019841239565894717,-0.019841239565894717,-0.019841239565894717,-0.019841239565894717,-0.019841239565894717,-0.019841239565894717,-0.019841239565894717,-0.019841239565894717,-0.019841239565894717,-0.019841239565894717,-0.019841239565894717,-0.019841239565894717,-0.019841239565894717,-0.019841239565894717,-0.019841239565894717,-0.019841239565894717,-0.019841239565894717,-0.019841239565894717,-0.019841239565894717,-0.019841239565894717,-0.019841239565894717,-0.019841239565894717,-0.019841239565894717,-0.019841239565894717,-0.019841239565894717,-0.019841239565894717,-0.019841239565894717,-0.019841239565894717,-0.019841239565894717,-0.019841239565894717,-0.019841239565894717,-0.019841239565894717,-0.019841239565894717,-0.019841239565894717,-0.019841239565894717,-0.019841239565894717,-0.013888858613513765,0.021825427100771948,0.08134923662458148,0.14682542710077195,0.19444447471981957,0.25992066519601004,0.2896825699579148,0.31944447471981957,0.3253968556722005,0.3253968556722005,0.3313492366245815,0.3373016175769624,0.3373016175769624,0.3373016175769624,0.34325399852934335,0.34325399852934335,0.34325399852934335,0.34325399852934335,0.34325399852934335,0.34325399852934335,0.34325399852934335,0.34920637948172434,0.34920637948172434,0.34920637948172434,0.34920637948172434,0.34920637948172434,0.34920637948172434,0.34920637948172434,0.34920637948172434,0.34920637948172434,0.34920637948172434,0.34920637948172434,0.34920637948172434,0.34920637948172434,0.34920637948172434,0.34920637948172434,0.34920637948172434,0.3730159032912481,0.4146825699579148,0.4623016175769624,0.4920635223388672,0.5099206651960101,0.5277778080531529,0.5337301890055338,0.5337301890055338,0.5337301890055338,0.5337301890055338,0.5337301890055338,0.5337301890055338,0.5337301890055338,0.5337301890055338,0.5337301890055338,0.5337301890055338,0.5099206651960101,0.5099206651960101,0.503968284243629,0.48015876043410527,0.47420637948172434,0.47420637948172434,0.46825399852934335,0.4563492366245815,0.4503968556722005,0.4503968556722005,0.4503968556722005,0.4503968556722005,0.4503968556722005,0.4503968556722005,0.4503968556722005,0.4503968556722005,0.4503968556722005,0.4503968556722005,0.4503968556722005,0.4503968556722005,0.4503968556722005,0.4503968556722005,0.4503968556722005,0.4503968556722005,0.4503968556722005,0.4503968556722005,0.4503968556722005,0.4503968556722005,0.4503968556722005,0.4503968556722005,0.4503968556722005,0.4503968556722005,0.4503968556722005,0.4503968556722005,0.4503968556722005,0.4503968556722005,0.4503968556722005,0.4503968556722005,0.4503968556722005,0.4503968556722005,0.4503968556722005,0.4503968556722005,0.4503968556722005,0.4503968556722005,0.4503968556722005,0.4503968556722005,0.4503968556722005,0.4503968556722005,0.4503968556722005,0.4503968556722005,0.4503968556722005,0.4503968556722005,0.4503968556722005,0.4503968556722005,0.4503968556722005,0.4503968556722005,0.4503968556722005,0.4503968556722005,0.4503968556722005,0.4503968556722005,0.4503968556722005,0.4503968556722005,0.4503968556722005,0.4503968556722005,0.4503968556722005,0.4503968556722005,0.4503968556722005,0.4503968556722005,0.4503968556722005,0.4503968556722005,0.4503968556722005,0.4503968556722005,0.4503968556722005,0.4503968556722005,0.4503968556722005,0.4503968556722005,0.4503968556722005,0.4503968556722005,0.4503968556722005,0.4503968556722005,0.4503968556722005,0.4503968556722005,0.4503968556722005,0.4503968556722005,0.4503968556722005,0.4503968556722005,0.4503968556722005,0.4503968556722005,0.4503968556722005,0.4503968556722005,0.4503968556722005,0.4503968556722005,0.4503968556722005,0.4503968556722005,0.4503968556722005,0.4503968556722005,0.4503968556722005,0.4503968556722005,0.4503968556722005,0.4503968556722005,0.4503968556722005,0.43849209376743864,0.39682542710077195,0.34920637948172434,0.3313492366245815,0.31349209376743864,0.3015873318626767,0.3015873318626767,0.29563495091029574,0.2837301890055339,0.2777778080531529,0.2777778080531529,0.27182542710077195,0.27182542710077195,0.27182542710077195,0.27182542710077195,0.27182542710077195,0.27182542710077195,0.27182542710077195,0.27182542710077195,0.27182542710077195,0.27182542710077195,0.27182542710077195,0.27182542710077195,0.27182542710077195,0.27182542710077195,0.27182542710077195,0.27182542710077195,0.27182542710077195,0.27182542710077195,0.27182542710077195,0.27182542710077195,0.27182542710077195,0.2777778080531529,0.2837301890055339,0.2896825699579148,0.29563495091029574,0.29563495091029574,0.29563495091029574,0.29563495091029574,0.29563495091029574,0.29563495091029574,0.29563495091029574,0.29563495091029574,0.29563495091029574,0.29563495091029574,0.29563495091029574,0.29563495091029574,0.29563495091029574,0.29563495091029574,0.29563495091029574,0.29563495091029574,0.29563495091029574,0.29563495091029574,0.29563495091029574,0.29563495091029574,0.29563495091029574,0.29563495091029574,0.29563495091029574,0.29563495091029574,0.29563495091029574,0.29563495091029574,0.29563495091029574,0.29563495091029574,0.29563495091029574,0.29563495091029574,0.29563495091029574,0.29563495091029574,0.29563495091029574,0.29563495091029574,0.29563495091029574,0.29563495091029574,0.29563495091029574,0.29563495091029574,0.29563495091029574,0.29563495091029574,0.29563495091029574,0.29563495091029574,0.29563495091029574,0.29563495091029574,0.29563495091029574,0.29563495091029574,0.29563495091029574,0.29563495091029574,0.29563495091029574,0.29563495091029574,0.29563495091029574,0.29563495091029574,0.29563495091029574,0.29563495091029574,0.29563495091029574,0.29563495091029574,0.29563495091029574,0.29563495091029574,0.29563495091029574,0.29563495091029574,0.29563495091029574,0.29563495091029574,0.29563495091029574,0.29563495091029574,0.29563495091029574,0.29563495091029574,0.29563495091029574,0.29563495091029574,0.29563495091029574,0.29563495091029574,0.29563495091029574,0.29563495091029574,0.29563495091029574,0.29563495091029574,0.29563495091029574,0.29563495091029574,0.29563495091029574,0.29563495091029574,0.29563495091029574,0.29563495091029574,0.29563495091029574,0.29563495091029574,0.29563495091029574,0.29563495091029574,0.29563495091029574,0.29563495091029574,0.29563495091029574,0.29563495091029574,0.29563495091029574,0.29563495091029574,0.29563495091029574,0.29563495091029574,0.29563495091029574,0.29563495091029574,0.29563495091029574,0.29563495091029574,0.29563495091029574,0.29563495091029574,0.29563495091029574,0.29563495091029574,0.29563495091029574,0.29563495091029574,0.29563495091029574,0.29563495091029574,0.29563495091029574,0.29563495091029574,0.29563495091029574,0.29563495091029574,0.29563495091029574,0.29563495091029574,0.29563495091029574,0.29563495091029574,0.29563495091029574,0.29563495091029574,0.29563495091029574,0.29563495091029574,0.29563495091029574,0.29563495091029574,0.29563495091029574,0.29563495091029574,0.29563495091029574,0.29563495091029574,0.29563495091029574,0.29563495091029574,0.35515876043410527,0.4087301890055339,0.43849209376743864,0.47420637948172434,0.4920635223388672,0.5099206651960101,0.521825427100772,0.5277778080531529,0.5337301890055338,0.5456349509102958,0.5515873318626767,0.5634920937674386,0.5694444747198195,0.5694444747198195,0.5694444747198195,0.5694444747198195,0.5694444747198195,0.5694444747198195,0.5694444747198195,0.5694444747198195,0.5694444747198195,0.5694444747198195,0.5694444747198195,0.5694444747198195,0.5694444747198195,0.5694444747198195,0.5694444747198195,0.5694444747198195,0.5694444747198195,0.5694444747198195,0.5694444747198195,0.5694444747198195,0.5694444747198195,0.5873016175769624,0.6111111413864863,0.6230159032912481,0.628968284243629,0.628968284243629,0.628968284243629,0.628968284243629,0.628968284243629,0.628968284243629,0.628968284243629,0.628968284243629,0.628968284243629,0.628968284243629,0.628968284243629,0.628968284243629,0.628968284243629,0.646825427100772,0.6527778080531529,0.6527778080531529,0.6646825699579149,0.6706349509102958,0.6706349509102958,0.6706349509102958,0.6706349509102958,0.6884920937674386,0.6944444747198195,0.7003968556722006,0.7003968556722006,0.7063492366245815,0.7063492366245815,0.7063492366245815,0.7063492366245815,0.7063492366245815,0.7063492366245815,0.7063492366245815,0.7063492366245815,0.7063492366245815,0.7063492366245815,0.7063492366245815,0.7063492366245815,0.7063492366245815,0.7063492366245815,0.7063492366245815,0.7063492366245815,0.7063492366245815,0.7063492366245815,0.7063492366245815,0.7063492366245815,0.7063492366245815,0.7063492366245815,0.7063492366245815,0.7063492366245815,0.7063492366245815,0.7063492366245815,0.7063492366245815,0.7063492366245815,0.7063492366245815,0.7063492366245815,0.7063492366245815,0.7063492366245815,0.7063492366245815,0.7063492366245815,0.7063492366245815,0.7063492366245815,0.7063492366245815,0.7063492366245815,0.7063492366245815,0.7063492366245815,0.7063492366245815,0.7063492366245815,0.7063492366245815,0.7063492366245815,0.7063492366245815,0.7063492366245815,0.7063492366245815,0.7063492366245815,0.7063492366245815,0.7063492366245815,0.7063492366245815,0.7063492366245815,0.7063492366245815,0.7063492366245815,0.7063492366245815,0.7063492366245815,0.7063492366245815,0.7063492366245815,0.7063492366245815,0.7063492366245815,0.7063492366245815,0.7063492366245815,0.7063492366245815,0.7063492366245815,0.7063492366245815,0.7063492366245815,0.7063492366245815,0.7063492366245815,0.7063492366245815,0.7063492366245815,0.7063492366245815,0.7063492366245815,0.7063492366245815,0.7063492366245815,0.7063492366245815,0.7063492366245815,0.7063492366245815,0.7063492366245815,0.7063492366245815,0.7063492366245815,0.7063492366245815,0.7063492366245815,0.7063492366245815,0.7063492366245815,0.7063492366245815,0.7063492366245815,0.7063492366245815,0.7063492366245815,0.7063492366245815,0.7063492366245815,0.7063492366245815,0.7063492366245815,0.7063492366245815,0.7063492366245815,0.6706349509102958,0.6587301890055338,0.6527778080531529,0.6527778080531529,0.6527778080531529,0.6527778080531529,0.646825427100772,0.6349206651960101,0.628968284243629,0.6170635223388672,0.6111111413864863,0.6051587604341053,0.6051587604341053,0.5992063794817243,0.5992063794817243,0.5992063794817243,0.5992063794817243,0.5992063794817243,0.5992063794817243,0.5932539985293434,0.5932539985293434,0.5932539985293434,0.5932539985293434,0.5932539985293434,0.5932539985293434,0.5932539985293434,0.5932539985293434,0.5932539985293434,0.5932539985293434,0.5932539985293434,0.5932539985293434,0.5932539985293434,0.5932539985293434,0.5932539985293434,0.5932539985293434,0.5932539985293434,0.5932539985293434,0.5932539985293434,0.5932539985293434,0.5932539985293434,0.5932539985293434,0.5932539985293434,0.5932539985293434,0.5932539985293434,0.5932539985293434,0.5932539985293434,0.5932539985293434,0.5932539985293434,0.5932539985293434,0.5932539985293434,0.5932539985293434,0.5932539985293434,0.5932539985293434,0.5932539985293434,0.5932539985293434,0.5932539985293434,0.5932539985293434,0.5932539985293434,0.5932539985293434,0.5932539985293434,0.5932539985293434,0.5932539985293434,0.5932539985293434,0.5932539985293434,0.5932539985293434,0.5932539985293434,0.5932539985293434,0.5932539985293434,0.5932539985293434,0.5932539985293434,0.5932539985293434,0.5932539985293434,0.5932539985293434,0.5932539985293434,0.5932539985293434,0.5932539985293434,0.5932539985293434,0.5932539985293434,0.5932539985293434,0.5932539985293434,0.5932539985293434,0.5932539985293434,0.5932539985293434,0.5932539985293434,0.5932539985293434,0.5932539985293434,0.5932539985293434,0.5932539985293434,0.5932539985293434,0.5932539985293434,0.5932539985293434,0.5932539985293434,0.5932539985293434,0.5932539985293434,0.5932539985293434,0.5873016175769624,0.5813492366245815,0.5813492366245815,0.5813492366245815,0.5813492366245815,0.5813492366245815,0.5813492366245815,0.6230159032912481,0.646825427100772,0.7063492366245815,0.7301587604341053,0.771825427100772,0.7896825699579149,0.8015873318626767,0.8015873318626767,0.8015873318626767,0.8015873318626767,0.8015873318626767,0.8015873318626767,0.8015873318626767,0.8015873318626767,0.8015873318626767,0.8015873318626767,0.8015873318626767,0.8015873318626767,0.8015873318626767,0.8134920937674386,0.8432539985293434,0.8730159032912481,0.8849206651960101,0.8849206651960101,0.890873046148391,0.890873046148391,0.896825427100772,0.896825427100772,0.9027778080531529,0.9027778080531529,0.9027778080531529,0.9027778080531529,0.9027778080531529,0.9027778080531529,0.9027778080531529,0.9027778080531529,0.9027778080531529,0.9027778080531529,0.9027778080531529,0.9027778080531529,0.9027778080531529,0.9027778080531529,0.9027778080531529,0.9027778080531529,0.9027778080531529,0.9027778080531529,0.9027778080531529,0.9027778080531529,0.9027778080531529,0.9027778080531529,0.9027778080531529,0.9027778080531529,0.9027778080531529,0.9027778080531529,0.9027778080531529,0.9027778080531529,0.9027778080531529,0.9027778080531529,0.9027778080531529,0.9027778080531529,0.9027778080531529,0.9027778080531529,0.9027778080531529,0.9027778080531529,0.9027778080531529,0.9027778080531529,0.9027778080531529,0.9027778080531529,0.9027778080531529,0.9027778080531529,0.9027778080531529,0.9027778080531529,0.9027778080531529,0.9027778080531529,0.9027778080531529,0.9027778080531529,0.9027778080531529,0.9027778080531529,0.9027778080531529,0.9027778080531529,0.9027778080531529,0.9027778080531529,0.9027778080531529,0.9027778080531529,0.9027778080531529,0.9027778080531529,0.9027778080531529,0.9027778080531529,0.9027778080531529,0.9027778080531529,0.9027778080531529,0.9027778080531529,0.9027778080531529,0.9027778080531529,0.9027778080531529,0.9027778080531529,0.9027778080531529,0.9027778080531529,0.9027778080531529,0.9027778080531529,0.9027778080531529,0.9027778080531529,0.9027778080531529,0.8849206651960101,0.8432539985293434,0.7480159032912481,0.7063492366245815,0.6944444747198195,0.6884920937674386,0.6765873318626767,0.6706349509102958,0.6706349509102958,0.6587301890055338,0.6527778080531529,0.646825427100772,0.6349206651960101,0.5873016175769624,0.5575397128150577,0.503968284243629,0.4503968556722005,0.43253971281505765,0.43253971281505765,0.43253971281505765,0.43253971281505765,0.43253971281505765,0.43253971281505765,0.43253971281505765,0.43253971281505765,0.43253971281505765,0.43253971281505765,0.43253971281505765,0.42063495091029574,0.39682542710077195,0.3670635223388672,0.3313492366245815,0.30753971281505765,0.2896825699579148,0.25992066519601004,0.23015876043410527,0.21825399852934338,0.20039685567220053,0.1884920937674386,0.18253971281505765,0.18253971281505765,0.17658733186267672,0.17658733186267672,0.17063495091029576,0.1527778080531529,0.140873046148391,0.140873046148391,0.140873046148391,0.140873046148391,0.140873046148391,0.140873046148391,0.140873046148391,0.140873046148391,0.140873046148391,0.140873046148391,0.140873046148391,0.140873046148391,0.140873046148391,0.140873046148391,0.140873046148391,0.140873046148391,0.140873046148391,0.140873046148391,0.140873046148391,0.140873046148391,0.140873046148391,0.140873046148391,0.140873046148391,0.140873046148391,0.140873046148391,0.140873046148391,0.140873046148391,0.140873046148391,0.140873046148391,0.140873046148391,0.140873046148391,0.140873046148391,0.140873046148391,0.140873046148391,0.140873046148391,0.140873046148391,0.140873046148391,0.140873046148391,0.140873046148391,0.140873046148391,0.140873046148391,0.140873046148391,0.140873046148391,0.140873046148391,0.140873046148391,0.140873046148391,0.140873046148391,0.140873046148391,0.140873046148391,0.140873046148391,0.140873046148391,0.140873046148391,0.140873046148391,0.140873046148391,0.140873046148391,0.140873046148391,0.140873046148391,0.140873046148391,0.140873046148391,0.140873046148391,0.140873046148391,0.140873046148391,0.140873046148391,0.140873046148391,0.140873046148391,0.140873046148391,0.140873046148391,0.140873046148391,0.140873046148391,0.12301590329124815,0.11706352233886719,0.11111114138648623,0.09325399852934338,0.07539685567220052,0.05753971281505767,0.039682569957914804,0.009920665196010045,-0.00198409670875186,-0.013888858613513765,-0.013888858613513765,-0.013888858613513765,-0.013888858613513765,-0.007936477661132812,0.0039682842436290925,0.0039682842436290925,0.009920665196010045,0.021825427100771948,0.039682569957914804,0.05753971281505767,0.06349209376743861,0.08134923662458148,0.12301590329124815,0.140873046148391,0.15873018900553384,0.17658733186267672,0.1884920937674386,0.20039685567220053,0.21230161757696242,0.21230161757696242,0.21230161757696242,0.21230161757696242,0.21230161757696242,0.21230161757696242,0.21230161757696242,0.21230161757696242,0.21230161757696242,0.21230161757696242,0.21230161757696242,0.21230161757696242,0.21230161757696242,0.21230161757696242,0.21230161757696242,0.21230161757696242,0.21230161757696242,0.21230161757696242,0.21230161757696242,0.21230161757696242,0.22420637948172434,0.23015876043410527,0.23015876043410527,0.23015876043410527,0.23015876043410527,0.23015876043410527,0.23015876043410527,0.23015876043410527,0.23015876043410527,0.23015876043410527,0.23015876043410527,0.23015876043410527,0.23015876043410527,0.23015876043410527,0.23015876043410527,0.23015876043410527,0.23015876043410527,0.23015876043410527,0.23015876043410527,0.23015876043410527,0.23015876043410527,0.23015876043410527,0.23015876043410527,0.23015876043410527,0.23015876043410527,0.23015876043410527,0.23015876043410527,0.23015876043410527,0.23015876043410527,0.23015876043410527,0.23611114138648623,0.23611114138648623,0.2420635223388672,0.24801590329124815,0.24801590329124815,0.24801590329124815,0.2420635223388672,0.2420635223388672,0.2420635223388672,0.2420635223388672,0.23611114138648623,0.21825399852934338,0.21230161757696242,0.20634923662458146,0.20039685567220053,0.20039685567220053,0.20039685567220053,0.1884920937674386,0.17658733186267672,0.17658733186267672,0.17063495091029576,0.1646825699579148,0.15873018900553384,0.15873018900553384,0.15873018900553384,0.15873018900553384,0.15873018900553384,0.15873018900553384,0.15873018900553384,0.15873018900553384,0.15873018900553384,0.15873018900553384,0.15873018900553384,0.15873018900553384,0.15873018900553384,0.15873018900553384,0.15873018900553384,0.15873018900553384,0.15873018900553384,0.15873018900553384,0.15873018900553384,0.15873018900553384,0.15873018900553384,0.15873018900553384,0.15873018900553384,0.15873018900553384,0.15873018900553384,0.15873018900553384,0.15873018900553384,0.15873018900553384,0.15873018900553384,0.15873018900553384,0.15873018900553384,0.15873018900553384,0.15873018900553384,0.15873018900553384,0.15873018900553384,0.15873018900553384,0.15873018900553384,0.15873018900553384,0.15873018900553384,0.15873018900553384,0.15873018900553384,0.15873018900553384,0.15873018900553384,0.15873018900553384,0.15873018900553384,0.15873018900553384,0.15873018900553384,0.15873018900553384,0.15873018900553384,0.17658733186267672,0.18253971281505765,0.20039685567220053,0.20039685567220053,0.22420637948172434,0.25992066519601004,0.30753971281505765,0.390873046148391,0.4503968556722005,0.4623016175769624,0.48015876043410527,0.503968284243629,0.5099206651960101,0.515873046148391,0.515873046148391,0.515873046148391,0.515873046148391,0.515873046148391,0.515873046148391,0.515873046148391,0.515873046148391,0.515873046148391,0.515873046148391,0.515873046148391,0.515873046148391,0.515873046148391,0.515873046148391,0.515873046148391,0.515873046148391,0.515873046148391,0.515873046148391,0.4920635223388672,0.48611114138648626,0.47420637948172434,0.46825399852934335,0.4623016175769624,0.4623016175769624,0.4623016175769624,0.4623016175769624,0.4563492366245815,0.4563492366245815,0.4563492366245815,0.4563492366245815,0.4563492366245815,0.4563492366245815,0.4563492366245815,0.4563492366245815,0.4563492366245815,0.4563492366245815,0.4563492366245815,0.4563492366245815,0.4563492366245815,0.4563492366245815,0.4563492366245815,0.4563492366245815,0.4563492366245815,0.4563492366245815,0.4563492366245815,0.4563492366245815,0.4563492366245815,0.4563492366245815,0.4563492366245815,0.4563492366245815,0.4563492366245815,0.4563492366245815,0.4563492366245815,0.4563492366245815,0.4563492366245815,0.4563492366245815,0.4563492366245815,0.4563492366245815,0.4563492366245815,0.4563492366245815,0.4563492366245815,0.4563492366245815,0.47420637948172434,0.5277778080531529,0.5515873318626767,0.6111111413864863,0.6706349509102958,0.6884920937674386,0.7182539985293434,0.7599206651960101,0.8015873318626767,0.8194444747198195,0.8253968556722006,0.8432539985293434,0.8611111413864863,0.8670635223388672,0.8670635223388672,0.878968284243629,0.9027778080531529,0.9265873318626767,0.9503968556722006,0.9682539985293434,0.9801587604341053,0.9920635223388672,0.9920635223388672,0.9980159032912481,0.9980159032912481,0.9980159032912481,0.9980159032912481,0.9980159032912481,0.9980159032912481,0.9980159032912481,0.9980159032912481,0.9980159032912481,0.9980159032912481,0.9980159032912481,0.9980159032912481,0.9980159032912481,0.9980159032912481,0.9980159032912481,0.9980159032912481,0.9980159032912481,0.9980159032912481,0.9980159032912481,0.9980159032912481,0.9980159032912481,0.9980159032912481,0.9980159032912481,0.9980159032912481,0.9980159032912481,0.9980159032912481,0.9980159032912481,0.9980159032912481,0.9980159032912481,0.9980159032912481,0.9980159032912481,0.9980159032912481,1.003968284243629,1.015873046148391,1.0218254271007718,1.0218254271007718,1.0218254271007718,1.0218254271007718,1.027777808053153,1.027777808053153,1.027777808053153,1.033730189005534,1.0396825699579149,1.0396825699579149,1.0396825699579149,1.0396825699579149,1.0575397128150577,1.0575397128150577,1.0873016175769625,1.1170635223388672,1.13492066519601,1.158730189005534,1.1825397128150577,1.2063492366245814,1.2242063794817244,1.2361111413864863,1.2361111413864863,1.2361111413864863,1.2361111413864863,1.2361111413864863,1.2361111413864863,1.2361111413864863,1.2361111413864863,1.2361111413864863,1.2361111413864863,1.2361111413864863,1.2361111413864863,1.2361111413864863,1.2361111413864863,1.2361111413864863,1.2361111413864863,1.2361111413864863,1.2361111413864863,1.1944444747198195,1.1468254271007718,1.13492066519601,1.1170635223388672,1.0992063794817244,1.0813492366245814,1.0753968556722004,1.0515873318626767,1.0396825699579149,1.0218254271007718,1.003968284243629,0.9980159032912481,0.9861111413864863,0.9801587604341053,0.9801587604341053,0.9801587604341053,0.9801587604341053,0.9801587604341053,0.9801587604341053,0.9801587604341053,0.9801587604341053,0.9801587604341053,0.9801587604341053,0.9801587604341053,0.9801587604341053,0.9801587604341053,0.9801587604341053,0.9801587604341053,0.9801587604341053,0.9325397128150577,0.8611111413864863,0.8611111413864863,0.8551587604341053,0.8373016175769624,0.8253968556722006,0.8253968556722006,0.8194444747198195,0.8075397128150577,0.7837301890055338,0.771825427100772,0.771825427100772,0.771825427100772,0.765873046148391,0.7480159032912481,0.7420635223388672,0.7123016175769624,0.6825397128150577,0.646825427100772,0.640873046148391,0.640873046148391,0.6349206651960101,0.6349206651960101,0.6349206651960101,0.6349206651960101,0.6349206651960101,0.6349206651960101,0.6349206651960101,0.6349206651960101,0.6349206651960101,0.6349206651960101,0.6349206651960101,0.628968284243629,0.6170635223388672,0.6170635223388672,0.6170635223388672,0.6051587604341053,0.6051587604341053,0.5873016175769624,0.5873016175769624,0.5873016175769624,0.5873016175769624,0.5873016175769624,0.5873016175769624,0.5873016175769624,0.5873016175769624,0.5873016175769624,0.5873016175769624,0.5873016175769624,0.5873016175769624,0.5873016175769624,0.5873016175769624,0.5873016175769624,0.5873016175769624,0.5873016175769624,0.5873016175769624,0.5873016175769624,0.5813492366245815,0.5753968556722006,0.5694444747198195,0.5694444747198195,0.5694444747198195,0.5694444747198195,0.5694444747198195,0.5694444747198195,0.5694444747198195,0.5694444747198195,0.5694444747198195,0.5694444747198195,0.5694444747198195,0.5694444747198195,0.5694444747198195,0.5694444747198195,0.5694444747198195,0.5694444747198195,0.5694444747198195,0.5694444747198195,0.5694444747198195,0.5694444747198195,0.5694444747198195,0.5694444747198195,0.5694444747198195,0.5694444747198195,0.5694444747198195,0.5694444747198195,0.5694444747198195,0.5694444747198195,0.5694444747198195,0.5694444747198195,0.5694444747198195,0.5694444747198195,0.5694444747198195,0.5694444747198195,0.5694444747198195,0.5694444747198195,0.5694444747198195,0.5694444747198195,0.5694444747198195,0.5694444747198195,0.5694444747198195,0.5694444747198195,0.5694444747198195,0.5694444747198195,0.5694444747198195,0.5694444747198195,0.5694444747198195,0.5694444747198195,0.5694444747198195,0.5694444747198195,0.5694444747198195,0.5694444747198195,0.5694444747198195,0.5694444747198195,0.5694444747198195,0.5694444747198195,0.5694444747198195,0.5694444747198195,0.5694444747198195,0.5694444747198195,0.5694444747198195,0.5694444747198195,0.5694444747198195,0.5694444747198195,0.5694444747198195,0.5694444747198195,0.5694444747198195,0.5694444747198195,0.5694444747198195,0.5694444747198195,0.5694444747198195,0.5694444747198195,0.5694444747198195,0.5694444747198195,0.5694444747198195,0.5694444747198195,0.5694444747198195,0.5694444747198195,0.5694444747198195,0.5694444747198195,0.5694444747198195,0.5694444747198195,0.5694444747198195,0.5694444747198195,0.5694444747198195,0.5694444747198195,0.5694444747198195,0.5694444747198195,0.5694444747198195,0.5694444747198195,0.5694444747198195,0.5694444747198195,0.5694444747198195,0.5694444747198195,0.5694444747198195,0.5694444747198195,0.5694444747198195,0.5694444747198195,0.5694444747198195,0.5694444747198195,0.5694444747198195,0.5694444747198195,0.5694444747198195,0.5694444747198195,0.5694444747198195,0.5694444747198195,0.5694444747198195,0.5694444747198195,0.5694444747198195,0.5694444747198195,0.5694444747198195,0.5694444747198195,0.5694444747198195,0.5694444747198195,0.5694444747198195,0.5694444747198195,0.5694444747198195,0.5694444747198195,0.5694444747198195,0.5694444747198195,0.5694444747198195,0.5694444747198195,0.5694444747198195,0.5694444747198195,0.5694444747198195,0.5694444747198195,0.5694444747198195,0.5694444747198195,0.5694444747198195,0.5694444747198195,0.5694444747198195,0.5694444747198195,0.5694444747198195,0.5694444747198195,0.5694444747198195,0.5694444747198195,0.5694444747198195,0.5694444747198195,0.5694444747198195,0.5694444747198195,0.5694444747198195,0.5694444747198195,0.5694444747198195,0.5694444747198195,0.5694444747198195,0.5694444747198195,0.5694444747198195,0.5694444747198195,0.5694444747198195,0.5694444747198195,0.5694444747198195,0.5694444747198195,0.5694444747198195,0.5694444747198195,0.5694444747198195,0.5694444747198195,0.5694444747198195,0.5694444747198195,0.5694444747198195,0.5694444747198195,0.5694444747198195,0.5694444747198195,0.5694444747198195,0.5694444747198195,0.5694444747198195,0.5694444747198195,0.5694444747198195,0.5694444747198195,0.5694444747198195,0.5694444747198195,0.5694444747198195,0.5694444747198195,0.5694444747198195,0.5694444747198195,0.5694444747198195,0.5694444747198195,0.5694444747198195,0.5694444747198195,0.5694444747198195,0.5694444747198195,0.5694444747198195,0.5694444747198195,0.5694444747198195,0.5694444747198195,0.5694444747198195,0.5694444747198195,0.5694444747198195,0.5694444747198195,0.5694444747198195,0.5694444747198195,0.5694444747198195,0.5694444747198195,0.5694444747198195,0.5694444747198195,0.5694444747198195,0.5694444747198195,0.5694444747198195,0.5694444747198195,0.5694444747198195,0.5694444747198195,0.5694444747198195,0.5694444747198195,0.5694444747198195,0.5694444747198195,0.5694444747198195,0.5694444747198195,0.5694444747198195,0.5694444747198195,0.5694444747198195,0.5694444747198195,0.5694444747198195,0.5694444747198195,0.5694444747198195,0.5694444747198195,0.5694444747198195,0.5694444747198195,0.5694444747198195,0.5694444747198195,0.5694444747198195,0.5694444747198195,0.5694444747198195,0.5694444747198195,0.5694444747198195,0.5694444747198195,0.5694444747198195,0.5694444747198195,0.5694444747198195,0.5694444747198195,0.5694444747198195,0.5694444747198195,0.5694444747198195,0.5694444747198195,0.5694444747198195,0.5694444747198195,0.5694444747198195,0.5694444747198195,0.5694444747198195,0.5694444747198195,0.5753968556722006,0.5813492366245815,0.5992063794817243,0.6111111413864863,0.6230159032912481,0.6230159032912481,0.6230159032912481,0.6230159032912481,0.6170635223388672,0.6111111413864863,0.6051587604341053,0.5873016175769624,0.5873016175769624,0.5753968556722006,0.5694444747198195,0.5515873318626767,0.5813492366245815,0.640873046148391,0.6646825699579149,0.7063492366245815,0.7480159032912481,0.7837301890055338,0.8134920937674386,0.8611111413864863,0.9027778080531529,0.9444444747198195,0.9503968556722006,0.9503968556722006,0.9563492366245815,0.9623016175769624,0.9980159032912481,1.0396825699579149,1.0873016175769625,1.1170635223388672,1.13492066519601,1.158730189005534,1.158730189005534,1.1646825699579149,1.1646825699579149,1.1646825699579149,1.1646825699579149,1.1646825699579149,1.1646825699579149,1.1646825699579149,1.1646825699579149,1.1646825699579149,1.1646825699579149,1.1646825699579149,1.1646825699579149,1.1646825699579149,1.1646825699579149,1.1646825699579149,1.1646825699579149,1.1646825699579149,1.1646825699579149,1.1646825699579149,1.1646825699579149,1.1646825699579149,1.1646825699579149,1.1646825699579149,1.1646825699579149,1.1646825699579149,1.1646825699579149,1.1646825699579149,1.1646825699579149,1.1646825699579149,1.1646825699579149,1.1646825699579149,1.1646825699579149,1.1646825699579149,1.1646825699579149,1.1646825699579149,1.1646825699579149,1.1646825699579149,1.1646825699579149,1.1646825699579149,1.1646825699579149,1.2003968556722004,1.265873046148391,1.4265873318626767,1.533730189005534,1.581349