success,trial_type,trial_index,time_elapsed,internal_node_id,protocol_sum,subject_identifier,subject_sum,subject_pair,STUDY_ID,PROLIFIC_PID,SESSION_ID,practice_instructions,leaderboard_instructions,bonus,reveal_word,self_rating,confidence,view_history,rt,responses,question_order,correct,test_part,word,click_log,final_keyboard_state,num_clicks,points,cheat,position_RT,position,player,i_game,true_position,distance,last_word,response,stimulus,confidence_slider_self_response
1.0,fullscreen,0,7743,0.0-0.0,,536,"[139, 73, 107, 249, 107, 188, 201, 229, 172, 17, 192, 104, 182, 207, 176, 12, 50, 249, 209, 99, 187, 138, 61, 90, 241, 7, 33, 116, 153, 222, 153, 122]",268,66a3ed3c5d10d0e7d8a6b9da,5c3820ee1ede2b0001155929,66a47f4d88fcd5395dea05b7,1,2,0,False,3,39,,,,,,,,,,,,,,,,,,,,,,
,instructions,1,13184,0.0-1.0,,536,"[139, 73, 107, 249, 107, 188, 201, 229, 172, 17, 192, 104, 182, 207, 176, 12, 50, 249, 209, 99, 187, 138, 61, 90, 241, 7, 33, 116, 153, 222, 153, 122]",268,66a3ed3c5d10d0e7d8a6b9da,5c3820ee1ede2b0001155929,66a47f4d88fcd5395dea05b7,1,2,0,False,3,39,"[{""page_index"":0,""viewing_time"":5438.79999999702}]",5439.0,,,,,,,,,,,,,,,,,,,,
,instructions,2,32786,0.0-2.0-0.0,,536,"[139, 73, 107, 249, 107, 188, 201, 229, 172, 17, 192, 104, 182, 207, 176, 12, 50, 249, 209, 99, 187, 138, 61, 90, 241, 7, 33, 116, 153, 222, 153, 122]",268,66a3ed3c5d10d0e7d8a6b9da,5c3820ee1ede2b0001155929,66a47f4d88fcd5395dea05b7,1,2,0,False,3,39,"[{""page_index"":0,""viewing_time"":19601.79999999702}]",19602.0,,,,,,,,,,,,,,,,,,,,
,survey-multi-choice,3,42193,0.0-2.0-1.0,,536,"[139, 73, 107, 249, 107, 188, 201, 229, 172, 17, 192, 104, 182, 207, 176, 12, 50, 249, 209, 99, 187, 138, 61, 90, 241, 7, 33, 116, 153, 222, 153, 122]",268,66a3ed3c5d10d0e7d8a6b9da,5c3820ee1ede2b0001155929,66a47f4d88fcd5395dea05b7,1,2,0,False,3,39,,9405.20000000298,"{""Q0"":""... reveal the word with as <b>few letter guesses</b> as possible""}",[0],1.0,multichoice_nonpretend,,,,,,,,,,,,,,,,
,instructions,4,43910,0.0-3.0,,536,"[139, 73, 107, 249, 107, 188, 201, 229, 172, 17, 192, 104, 182, 207, 176, 12, 50, 249, 209, 99, 187, 138, 61, 90, 241, 7, 33, 116, 153, 222, 153, 122]",268,66a3ed3c5d10d0e7d8a6b9da,5c3820ee1ede2b0001155929,66a47f4d88fcd5395dea05b7,1,2,0,False,3,39,"[{""page_index"":0,""viewing_time"":1716.7000000029802}]",1716.800000011921,,,,,,,,,,,,,,,,,,,,
,Hangman,5,71301,0.0-4.0,,536,"[139, 73, 107, 249, 107, 188, 201, 229, 172, 17, 192, 104, 182, 207, 176, 12, 50, 249, 209, 99, 187, 138, 61, 90, 241, 7, 33, 116, 153, 222, 153, 122]",268,66a3ed3c5d10d0e7d8a6b9da,5c3820ee1ede2b0001155929,66a47f4d88fcd5395dea05b7,1,2,0,False,3,39,,,,,,,ZEBRA,"{'letter': ['', 'A', 'E', 'R', 'Z', 'B'], 't': [0, 2752.5999999940395, 13991.5, 21492.5, 24252.39999999106, 25386.09999999404], 'hit': [None, 1, 1, 1, 1, 1], 'asked': ['', 'A', 'AE', 'AER', 'AERZ', 'AERZB'], 'word_state': ['_____', '____A', '_E__A', '_E_RA', 'ZE_RA', 'ZEBRA']}","['A', 'E', 'R', 'Z', 'B']",5.0,15.0,0.0,,,,,,,,,,
,instructions,6,95944,0.0-5.0,,536,"[139, 73, 107, 249, 107, 188, 201, 229, 172, 17, 192, 104, 182, 207, 176, 12, 50, 249, 209, 99, 187, 138, 61, 90, 241, 7, 33, 116, 153, 222, 153, 122]",268,66a3ed3c5d10d0e7d8a6b9da,5c3820ee1ede2b0001155929,66a47f4d88fcd5395dea05b7,1,2,0,False,3,39,"[{""page_index"":0,""viewing_time"":3967.5},{""page_index"":1,""viewing_time"":20673.79999999702}]",24642.0,,,,,,,,,,,,,,,,,,,,
,survey-multi-choice,7,107575,0.0-6.0,,536,"[139, 73, 107, 249, 107, 188, 201, 229, 172, 17, 192, 104, 182, 207, 176, 12, 50, 249, 209, 99, 187, 138, 61, 90, 241, 7, 33, 116, 153, 222, 153, 122]",268,66a3ed3c5d10d0e7d8a6b9da,5c3820ee1ede2b0001155929,66a47f4d88fcd5395dea05b7,1,2,0,False,3,39,,11630.59999999404,"{""Q0"":""...from <b>a previous session</b> that is not part of the upcoming tournament.""}",[0],1.0,multichoice_leaderboard,,,,,,,,,,,,,,,,
,instructions,8,116574,0.0-8.0,,536,"[139, 73, 107, 249, 107, 188, 201, 229, 172, 17, 192, 104, 182, 207, 176, 12, 50, 249, 209, 99, 187, 138, 61, 90, 241, 7, 33, 116, 153, 222, 153, 122]",268,66a3ed3c5d10d0e7d8a6b9da,5c3820ee1ede2b0001155929,66a47f4d88fcd5395dea05b7,1,2,0,False,3,39,"[{""page_index"":0,""viewing_time"":8998.5}]",8998.60000000894,,,,,,,,,,,,,,,,,,,,
,survey-multi-choice,9,120328,0.0-9.0,,536,"[139, 73, 107, 249, 107, 188, 201, 229, 172, 17, 192, 104, 182, 207, 176, 12, 50, 249, 209, 99, 187, 138, 61, 90, 241, 7, 33, 116, 153, 222, 153, 122]",268,66a3ed3c5d10d0e7d8a6b9da,5c3820ee1ede2b0001155929,66a47f4d88fcd5395dea05b7,1,2,0,False,3,39,,3753.5,"{""Q0"":""...players' leaderboard position (in terms of <b>speed</b>) in an <b>upcoming tournament.</b>""}",[0],0.0,multichoice_tournament,,,,,,,,,,,,,,,,
,instructions,10,124258,0.0-10.0-0.0,,536,"[139, 73, 107, 249, 107, 188, 201, 229, 172, 17, 192, 104, 182, 207, 176, 12, 50, 249, 209, 99, 187, 138, 61, 90, 241, 7, 33, 116, 153, 222, 153, 122]",268,66a3ed3c5d10d0e7d8a6b9da,5c3820ee1ede2b0001155929,66a47f4d88fcd5395dea05b7,1,2,0,False,3,39,"[{""page_index"":0,""viewing_time"":3928.800000011921}]",3928.9000000059605,,,,,,,,,,,,,,,,,,,,
,survey-multi-choice,11,138449,0.0-10.0-1.0,,536,"[139, 73, 107, 249, 107, 188, 201, 229, 172, 17, 192, 104, 182, 207, 176, 12, 50, 249, 209, 99, 187, 138, 61, 90, 241, 7, 33, 116, 153, 222, 153, 122]",268,66a3ed3c5d10d0e7d8a6b9da,5c3820ee1ede2b0001155929,66a47f4d88fcd5395dea05b7,1,2,0,False,3,39,,14190.800000011921,"{""Q0"":""...how well players did (in terms of <b>points</b>) in <b>previous games.</b>""}",[0],0.0,multichoice_tournament,,,,,,,,,,,,,,,,
,instructions,12,141189,0.0-10.1-0.1,,536,"[139, 73, 107, 249, 107, 188, 201, 229, 172, 17, 192, 104, 182, 207, 176, 12, 50, 249, 209, 99, 187, 138, 61, 90, 241, 7, 33, 116, 153, 222, 153, 122]",268,66a3ed3c5d10d0e7d8a6b9da,5c3820ee1ede2b0001155929,66a47f4d88fcd5395dea05b7,1,2,0,False,3,39,"[{""page_index"":0,""viewing_time"":2738.2999999970198}]",2738.5,,,,,,,,,,,,,,,,,,,,
,survey-multi-choice,13,144035,0.0-10.1-1.1,,536,"[139, 73, 107, 249, 107, 188, 201, 229, 172, 17, 192, 104, 182, 207, 176, 12, 50, 249, 209, 99, 187, 138, 61, 90, 241, 7, 33, 116, 153, 222, 153, 122]",268,66a3ed3c5d10d0e7d8a6b9da,5c3820ee1ede2b0001155929,66a47f4d88fcd5395dea05b7,1,2,0,False,3,39,,2845.2999999970198,"{""Q0"":""...players' leaderboard position (in terms of <b>points</b>) in an <b>upcoming tournament.</b>""}",[0],1.0,multichoice_tournament,,,,,,,,,,,,,,,,
,instructions,14,170101,0.0-11.0,,536,"[139, 73, 107, 249, 107, 188, 201, 229, 172, 17, 192, 104, 182, 207, 176, 12, 50, 249, 209, 99, 187, 138, 61, 90, 241, 7, 33, 116, 153, 222, 153, 122]",268,66a3ed3c5d10d0e7d8a6b9da,5c3820ee1ede2b0001155929,66a47f4d88fcd5395dea05b7,1,2,0,False,3,39,"[{""page_index"":0,""viewing_time"":26065.40000000596}]",26065.70000000298,,,,,,,,,,,,,,,,,,,,
,instructions,15,182784,0.0-12.0-0.0,,536,"[139, 73, 107, 249, 107, 188, 201, 229, 172, 17, 192, 104, 182, 207, 176, 12, 50, 249, 209, 99, 187, 138, 61, 90, 241, 7, 33, 116, 153, 222, 153, 122]",268,66a3ed3c5d10d0e7d8a6b9da,5c3820ee1ede2b0001155929,66a47f4d88fcd5395dea05b7,1,2,0,False,3,39,"[{""page_index"":0,""viewing_time"":12682.20000000298}]",12682.29999999702,,,,,,,,,,,,,,,,,,,,
,Hangman_replay,16,239937,0.0-12.0-1.0,,536,"[139, 73, 107, 249, 107, 188, 201, 229, 172, 17, 192, 104, 182, 207, 176, 12, 50, 249, 209, 99, 187, 138, 61, 90, 241, 7, 33, 116, 153, 222, 153, 122]",268,66a3ed3c5d10d0e7d8a6b9da,5c3820ee1ede2b0001155929,66a47f4d88fcd5395dea05b7,1,2,0,False,3,39,,,,,,,HAWAII,"{'letter': ['', 'A', 'H', 'W', 'I'], 't': [0, 40812.10000000894, 50603.10000000894, 53080.90000000596, 55131.29999999702], 'hit': [None, 2, 1, 1, 2], 'asked': ['', 'A', 'AH', 'AHW', 'AHWI'], 'word_state': ['______', '_A_A__', 'HA_A__', 'HAWA__', 'HAWAII']}","['A', 'H', 'W', 'I']",4.0,15.0,0.0,,,,,,,,,,
,instructions,17,244276,0.0-12.0-2.0,,536,"[139, 73, 107, 249, 107, 188, 201, 229, 172, 17, 192, 104, 182, 207, 176, 12, 50, 249, 209, 99, 187, 138, 61, 90, 241, 7, 33, 116, 153, 222, 153, 122]",268,66a3ed3c5d10d0e7d8a6b9da,5c3820ee1ede2b0001155929,66a47f4d88fcd5395dea05b7,1,2,0,False,3,39,"[{""page_index"":0,""viewing_time"":4337.5999999940395}]",4338.20000000298,,,,,,,,,,,,,,,,,,,,
,Guess_leaderboard,18,248645,0.0-12.0-3.0,,536,"[139, 73, 107, 249, 107, 188, 201, 229, 172, 17, 192, 104, 182, 207, 176, 12, 50, 249, 209, 99, 187, 138, 61, 90, 241, 7, 33, 116, 153, 222, 153, 122]",268,66a3ed3c5d10d0e7d8a6b9da,5c3820ee1ede2b0001155929,66a47f4d88fcd5395dea05b7,1,2,0,False,3,39,,,,,,,HAWAII,,,,,,3604.9000000059605,39.0,50.0,0.0,58.0,19.0,,,,
,instructions,19,250966,0.0-12.0-0.1,,536,"[139, 73, 107, 249, 107, 188, 201, 229, 172, 17, 192, 104, 182, 207, 176, 12, 50, 249, 209, 99, 187, 138, 61, 90, 241, 7, 33, 116, 153, 222, 153, 122]",268,66a3ed3c5d10d0e7d8a6b9da,5c3820ee1ede2b0001155929,66a47f4d88fcd5395dea05b7,1,2,0,False,3,39,"[{""page_index"":0,""viewing_time"":2320.1000000089407}]",2320.2999999970198,,,,,,,,,,,,,,,,,,,,
,Hangman_replay,20,339311,0.0-12.0-1.1,,536,"[139, 73, 107, 249, 107, 188, 201, 229, 172, 17, 192, 104, 182, 207, 176, 12, 50, 249, 209, 99, 187, 138, 61, 90, 241, 7, 33, 116, 153, 222, 153, 122]",268,66a3ed3c5d10d0e7d8a6b9da,5c3820ee1ede2b0001155929,66a47f4d88fcd5395dea05b7,1,2,0,False,3,39,,,,,,,NECTARINE,"{'letter': ['', 'P', 'S', 'T', 'E', 'I', 'N', 'A', 'D', 'C', 'R'], 't': [0, 16769.19999998808, 64019.59999999404, 64815.19999998808, 66702.59999999404, 68996.19999998808, 71482.39999999106, 75059.69999998808, 81173.69999998808, 84017.79999999702, 86333.59999999404], 'hit': [None, 0, 0, 1, 2, 1, 2, 1, 0, 1, 1], 'asked': ['', 'P', 'PS', 'PST', 'PSTE', 'PSTEI', 'PSTEIN', 'PSTEINA', 'PSTEINAD', 'PSTEINADC', 'PSTEINADCR'], 'word_state': ['_________', '_________', '_________', '___T_____', '_E_T____E', '_E_T__I_E', 'NE_T__INE', 'NE_TA_INE', 'NE_TA_INE', 'NECTA_INE', 'NECTARINE']}","['P', 'S', 'T', 'E', 'I', 'N', 'A', 'D', 'C', 'R']",10.0,12.0,0.0,,,,,,,,,,
,instructions,21,349524,0.0-12.0-2.1,,536,"[139, 73, 107, 249, 107, 188, 201, 229, 172, 17, 192, 104, 182, 207, 176, 12, 50, 249, 209, 99, 187, 138, 61, 90, 241, 7, 33, 116, 153, 222, 153, 122]",268,66a3ed3c5d10d0e7d8a6b9da,5c3820ee1ede2b0001155929,66a47f4d88fcd5395dea05b7,1,2,0,False,3,39,"[{""page_index"":0,""viewing_time"":10212.5}]",10213.10000000894,,,,,,,,,,,,,,,,,,,,
,Guess_leaderboard,22,352635,0.0-12.0-3.1,,536,"[139, 73, 107, 249, 107, 188, 201, 229, 172, 17, 192, 104, 182, 207, 176, 12, 50, 249, 209, 99, 187, 138, 61, 90, 241, 7, 33, 116, 153, 222, 153, 122]",268,66a3ed3c5d10d0e7d8a6b9da,5c3820ee1ede2b0001155929,66a47f4d88fcd5395dea05b7,1,2,0,False,3,39,,,,,,,NECTARINE,,,,,,2357.7000000029802,71.0,79.0,1.0,54.0,17.0,,,,
,instructions,23,354244,0.0-12.0-0.2,,536,"[139, 73, 107, 249, 107, 188, 201, 229, 172, 17, 192, 104, 182, 207, 176, 12, 50, 249, 209, 99, 187, 138, 61, 90, 241, 7, 33, 116, 153, 222, 153, 122]",268,66a3ed3c5d10d0e7d8a6b9da,5c3820ee1ede2b0001155929,66a47f4d88fcd5395dea05b7,1,2,0,False,3,39,"[{""page_index"":0,""viewing_time"":1609}]",1609.2000000029802,,,,,,,,,,,,,,,,,,,,
,Hangman_replay,24,392275,0.0-12.0-1.2,,536,"[139, 73, 107, 249, 107, 188, 201, 229, 172, 17, 192, 104, 182, 207, 176, 12, 50, 249, 209, 99, 187, 138, 61, 90, 241, 7, 33, 116, 153, 222, 153, 122]",268,66a3ed3c5d10d0e7d8a6b9da,5c3820ee1ede2b0001155929,66a47f4d88fcd5395dea05b7,1,2,0,False,3,39,,,,,,,THIRTY FOUR,"{'letter': ['', 'Y', 'T', 'W', 'H', 'I', 'R', 'F', 'O', 'U'], 't': [0, 7975.899999991059, 21062.29999999702, 23185.20000000298, 27466.09999999404, 30337.70000000298, 30777.20000000298, 34533.79999999702, 35105.89999999106, 36024.39999999106], 'hit': [None, 1, 2, 0, 1, 1, 2, 1, 1, 1], 'asked': ['', 'Y', 'YT', 'YTW', 'YTWH', 'YTWHI', 'YTWHIR', 'YTWHIRF', 'YTWHIRFO', 'YTWHIRFOU'], 'word_state': ['______ ____', '_____Y ____', 'T___TY ____', 'T___TY ____', 'TH__TY ____', 'THI_TY ____', 'THIRTY ___R', 'THIRTY F__R', 'THIRTY FO_R', 'THIRTY FOUR']}","['Y', 'T', 'W', 'H', 'I', 'R', 'F', 'O', 'U']",9.0,14.0,0.0,,,,,,,,,,
,instructions,25,393493,0.0-12.0-2.2,,536,"[139, 73, 107, 249, 107, 188, 201, 229, 172, 17, 192, 104, 182, 207, 176, 12, 50, 249, 209, 99, 187, 138, 61, 90, 241, 7, 33, 116, 153, 222, 153, 122]",268,66a3ed3c5d10d0e7d8a6b9da,5c3820ee1ede2b0001155929,66a47f4d88fcd5395dea05b7,1,2,0,False,3,39,"[{""page_index"":0,""viewing_time"":1216.7000000029802}]",1217.0,,,,,,,,,,,,,,,,,,,,
,Guess_leaderboard,26,396717,0.0-12.0-3.2,,536,"[139, 73, 107, 249, 107, 188, 201, 229, 172, 17, 192, 104, 182, 207, 176, 12, 50, 249, 209, 99, 187, 138, 61, 90, 241, 7, 33, 116, 153, 222, 153, 122]",268,66a3ed3c5d10d0e7d8a6b9da,5c3820ee1ede2b0001155929,66a47f4d88fcd5395dea05b7,1,2,0,False,3,39,,,,,,,THIRTY FOUR,,,,,,2465.6000000089407,23.0,89.0,2.0,67.0,44.0,,,,
,instructions,27,398512,0.0-12.0-0.3,,536,"[139, 73, 107, 249, 107, 188, 201, 229, 172, 17, 192, 104, 182, 207, 176, 12, 50, 249, 209, 99, 187, 138, 61, 90, 241, 7, 33, 116, 153, 222, 153, 122]",268,66a3ed3c5d10d0e7d8a6b9da,5c3820ee1ede2b0001155929,66a47f4d88fcd5395dea05b7,1,2,0,False,3,39,"[{""page_index"":0,""viewing_time"":1793.7999999970198}]",1794.0,,,,,,,,,,,,,,,,,,,,
,Hangman_replay,28,434155,0.0-12.0-1.3,,536,"[139, 73, 107, 249, 107, 188, 201, 229, 172, 17, 192, 104, 182, 207, 176, 12, 50, 249, 209, 99, 187, 138, 61, 90, 241, 7, 33, 116, 153, 222, 153, 122]",268,66a3ed3c5d10d0e7d8a6b9da,5c3820ee1ede2b0001155929,66a47f4d88fcd5395dea05b7,1,2,0,False,3,39,,,,,,,USAIN BOLT,"{'letter': ['', 'N', 'B', 'E', 'O', 'A', 'K', 'S', 'I', 'U', 'L', 'T'], 't': [0, 3851.5999999940395, 6761.899999991059, 9719.199999988079, 11276.79999999702, 12729.59999999404, 20390, 22033.39999999106, 27678.79999999702, 30874.79999999702, 32428, 33635.59999999404], 'hit': [None, 1, 1, 0, 1, 1, 0, 1, 1, 1, 1, 1], 'asked': ['', 'N', 'NB', 'NBE', 'NBEO', 'NBEOA', 'NBEOAK', 'NBEOAKS', 'NBEOAKSI', 'NBEOAKSIU', 'NBEOAKSIUL', 'NBEOAKSIULT'], 'word_state': ['_____ ____', '____N ____', '____N B___', '____N B___', '____N BO__', '__A_N BO__', '__A_N BO__', '_SA_N BO__', '_SAIN BO__', 'USAIN BO__', 'USAIN BOL_', 'USAIN BOLT']}","['N', 'B', 'E', 'O', 'A', 'K', 'S', 'I', 'U', 'L', 'T']",11.0,13.0,0.0,,,,,,,,,,
,instructions,29,444972,0.0-12.0-2.3,,536,"[139, 73, 107, 249, 107, 188, 201, 229, 172, 17, 192, 104, 182, 207, 176, 12, 50, 249, 209, 99, 187, 138, 61, 90, 241, 7, 33, 116, 153, 222, 153, 122]",268,66a3ed3c5d10d0e7d8a6b9da,5c3820ee1ede2b0001155929,66a47f4d88fcd5395dea05b7,1,2,0,False,3,39,"[{""page_index"":0,""viewing_time"":10816.90000000596}]",10817.40000000596,,,,,,,,,,,,,,,,,,,,
,Guess_leaderboard,30,447435,0.0-12.0-3.3,,536,"[139, 73, 107, 249, 107, 188, 201, 229, 172, 17, 192, 104, 182, 207, 176, 12, 50, 249, 209, 99, 187, 138, 61, 90, 241, 7, 33, 116, 153, 222, 153, 122]",268,66a3ed3c5d10d0e7d8a6b9da,5c3820ee1ede2b0001155929,66a47f4d88fcd5395dea05b7,1,2,0,False,3,39,,,,,,,USAIN BOLT,,,,,,1706.7000000029802,52.0,60.0,3.0,76.0,24.0,,,,
,instructions,31,448332,0.0-12.0-0.4,,536,"[139, 73, 107, 249, 107, 188, 201, 229, 172, 17, 192, 104, 182, 207, 176, 12, 50, 249, 209, 99, 187, 138, 61, 90, 241, 7, 33, 116, 153, 222, 153, 122]",268,66a3ed3c5d10d0e7d8a6b9da,5c3820ee1ede2b0001155929,66a47f4d88fcd5395dea05b7,1,2,0,False,3,39,"[{""page_index"":0,""viewing_time"":896.2999999970198}]",896.4000000059605,,,,,,,,,,,,,,,,,,,,
,Hangman_replay,32,483665,0.0-12.0-1.4,,536,"[139, 73, 107, 249, 107, 188, 201, 229, 172, 17, 192, 104, 182, 207, 176, 12, 50, 249, 209, 99, 187, 138, 61, 90, 241, 7, 33, 116, 153, 222, 153, 122]",268,66a3ed3c5d10d0e7d8a6b9da,5c3820ee1ede2b0001155929,66a47f4d88fcd5395dea05b7,1,2,0,False,3,39,,,,,,,THUMB,"{'letter': ['', 'E', 'A', 'I', 'O', 'U', 'C', 'B', 'T', 'H', 'M'], 't': [0, 3141.2000000029802, 4343.5, 5593, 10649, 12427.09999999404, 16233.20000000298, 17420.29999999702, 23692.79999999702, 28562.29999999702, 33320.70000000298], 'hit': [None, 0, 0, 0, 0, 1, 0, 1, 1, 1, 1], 'asked': ['', 'E', 'EA', 'EAI', 'EAIO', 'EAIOU', 'EAIOUC', 'EAIOUCB', 'EAIOUCBT', 'EAIOUCBTH', 'EAIOUCBTHM'], 'word_state': ['_____', '_____', '_____', '_____', '_____', '__U__', '__U__', '__U_B', 'T_U_B', 'THU_B', 'THUMB']}","['E', 'A', 'I', 'O', 'U', 'C', 'B', 'T', 'H', 'M']",10.0,10.0,0.0,,,,,,,,,,
,instructions,33,484914,0.0-12.0-2.4,,536,"[139, 73, 107, 249, 107, 188, 201, 229, 172, 17, 192, 104, 182, 207, 176, 12, 50, 249, 209, 99, 187, 138, 61, 90, 241, 7, 33, 116, 153, 222, 153, 122]",268,66a3ed3c5d10d0e7d8a6b9da,5c3820ee1ede2b0001155929,66a47f4d88fcd5395dea05b7,1,2,0,False,3,39,"[{""page_index"":0,""viewing_time"":1248.9000000059605}]",1249.2000000029802,,,,,,,,,,,,,,,,,,,,
,Guess_leaderboard,34,488813,0.0-12.0-3.4,,536,"[139, 73, 107, 249, 107, 188, 201, 229, 172, 17, 192, 104, 182, 207, 176, 12, 50, 249, 209, 99, 187, 138, 61, 90, 241, 7, 33, 116, 153, 222, 153, 122]",268,66a3ed3c5d10d0e7d8a6b9da,5c3820ee1ede2b0001155929,66a47f4d88fcd5395dea05b7,1,2,0,False,3,39,,,,,,,THUMB,,,,,,3141.300000011921,84.0,95.0,4.0,67.0,17.0,,,,
,survey-text,35,497146,0.0-13.0,,536,"[139, 73, 107, 249, 107, 188, 201, 229, 172, 17, 192, 104, 182, 207, 176, 12, 50, 249, 209, 99, 187, 138, 61, 90, 241, 7, 33, 116, 153, 222, 153, 122]",268,66a3ed3c5d10d0e7d8a6b9da,5c3820ee1ede2b0001155929,66a47f4d88fcd5395dea05b7,1,2,0,False,3,39,,8331.70000000298,"{""Q0"":""thumb""}",,,,,,,,,,,,,,,,thumb,,,
,survey-multi-choice,36,506817,0.0-14.0,,536,"[139, 73, 107, 249, 107, 188, 201, 229, 172, 17, 192, 104, 182, 207, 176, 12, 50, 249, 209, 99, 187, 138, 61, 90, 241, 7, 33, 116, 153, 222, 153, 122]",268,66a3ed3c5d10d0e7d8a6b9da,5c3820ee1ede2b0001155929,66a47f4d88fcd5395dea05b7,1,2,0,False,3,39,,9670.09999999404,"{""Q0"":""3. I would be <b>third</b> out of the six of us.""}",[0],,self-rating,,,,,,,,3.0,,,,,,,,
,html-slider-response,37,513370,0.0-15.0,,536,"[139, 73, 107, 249, 107, 188, 201, 229, 172, 17, 192, 104, 182, 207, 176, 12, 50, 249, 209, 99, 187, 138, 61, 90, 241, 7, 33, 116, 153, 222, 153, 122]",268,66a3ed3c5d10d0e7d8a6b9da,5c3820ee1ede2b0001155929,66a47f4d88fcd5395dea05b7,1,2,0,False,3,39,,6552.29999999702,,,,,,,,,,,,,,,,,,39.0,"<p>Overall, how confident were you in your answer to this last question?</p>",39.0
,survey-text,38,538940,0.0-16.0,,536,"[139, 73, 107, 249, 107, 188, 201, 229, 172, 17, 192, 104, 182, 207, 176, 12, 50, 249, 209, 99, 187, 138, 61, 90, 241, 7, 33, 116, 153, 222, 153, 122]",268,66a3ed3c5d10d0e7d8a6b9da,5c3820ee1ede2b0001155929,66a47f4d88fcd5395dea05b7,1,2,0,False,3,39,,25567.5,"{""Q0"":""How fair someone is in their judgment of other people. ""}",,,,,,,,,,,,,,,,,,,
,survey-text,39,556459,0.0-17.0,,536,"[139, 73, 107, 249, 107, 188, 201, 229, 172, 17, 192, 104, 182, 207, 176, 12, 50, 249, 209, 99, 187, 138, 61, 90, 241, 7, 33, 116, 153, 222, 153, 122]",268,66a3ed3c5d10d0e7d8a6b9da,5c3820ee1ede2b0001155929,66a47f4d88fcd5395dea05b7,1,2,0,False,3,39,,17518.59999999404,"{""Q0"":""No, it was interesting for me! I had no issues! ""}",,,,,,,,,,,,,,,,,,,
,instructions,40,575590,0.0-18.0,,536,"[139, 73, 107, 249, 107, 188, 201, 229, 172, 17, 192, 104, 182, 207, 176, 12, 50, 249, 209, 99, 187, 138, 61, 90, 241, 7, 33, 116, 153, 222, 153, 122]",268,66a3ed3c5d10d0e7d8a6b9da,5c3820ee1ede2b0001155929,66a47f4d88fcd5395dea05b7,1,2,0,False,3,39,"[{""page_index"":0,""viewing_time"":19130.20000000298}]",19130.39999999106,,,,,,,,,,,,,,,,,,,,
