[{"success":true,"trial_type":"fullscreen","trial_index":0,"time_elapsed":23768,"internal_node_id":"0.0-0.0","protocol_sum":"","subject_identifier":136,"subject_sum":[162,24,85,218,8,203,16,45,29,33,124,83,220,88,36,163,167,149,193,193,164,78,151,27,240,26,185,218,58,42,203,191],"subject_pair":68,"STUDY_ID":"669a702db1122fc5150a13ce","PROLIFIC_PID":"66745423e75fde5ccb81d42b","SESSION_ID":"669b3c605c9a0ab8c376540b","practice_instructions":1,"leaderboard_instructions":2,"bonus":0,"reveal_word":false,"self_rating":"3","confidence":"99"},{"view_history":"[{\"page_index\":0,\"viewing_time\":320070.5}]","rt":320070.90000003576,"trial_type":"instructions","trial_index":1,"time_elapsed":343839,"internal_node_id":"0.0-1.0","protocol_sum":"","subject_identifier":136,"subject_sum":[162,24,85,218,8,203,16,45,29,33,124,83,220,88,36,163,167,149,193,193,164,78,151,27,240,26,185,218,58,42,203,191],"subject_pair":68,"STUDY_ID":"669a702db1122fc5150a13ce","PROLIFIC_PID":"66745423e75fde5ccb81d42b","SESSION_ID":"669b3c605c9a0ab8c376540b","practice_instructions":1,"leaderboard_instructions":2,"bonus":0,"reveal_word":false,"self_rating":"3","confidence":"99"},{"view_history":"[{\"page_index\":0,\"viewing_time\":82493.30000001192}]","rt":82493.80000001192,"trial_type":"instructions","trial_index":2,"time_elapsed":426335,"internal_node_id":"0.0-2.0-0.0","protocol_sum":"","subject_identifier":136,"subject_sum":[162,24,85,218,8,203,16,45,29,33,124,83,220,88,36,163,167,149,193,193,164,78,151,27,240,26,185,218,58,42,203,191],"subject_pair":68,"STUDY_ID":"669a702db1122fc5150a13ce","PROLIFIC_PID":"66745423e75fde5ccb81d42b","SESSION_ID":"669b3c605c9a0ab8c376540b","practice_instructions":1,"leaderboard_instructions":2,"bonus":0,"reveal_word":false,"self_rating":"3","confidence":"99"},{"rt":19145.80000001192,"responses":"{\"Q0\":\"... reveal the word with as <b>few letter guesses</b> as possible\"}","question_order":"[0]","trial_type":"survey-multi-choice","trial_index":3,"time_elapsed":445483,"internal_node_id":"0.0-2.0-1.0","protocol_sum":"","subject_identifier":136,"subject_sum":[162,24,85,218,8,203,16,45,29,33,124,83,220,88,36,163,167,149,193,193,164,78,151,27,240,26,185,218,58,42,203,191],"subject_pair":68,"correct":true,"test_part":"multichoice_nonpretend","STUDY_ID":"669a702db1122fc5150a13ce","PROLIFIC_PID":"66745423e75fde5ccb81d42b","SESSION_ID":"669b3c605c9a0ab8c376540b","practice_instructions":1,"leaderboard_instructions":2,"bonus":0,"reveal_word":false,"self_rating":"3","confidence":"99"},{"view_history":"[{\"page_index\":0,\"viewing_time\":1024.1000000238419}]","rt":1024.300000011921,"trial_type":"instructions","trial_index":4,"time_elapsed":446509,"internal_node_id":"0.0-3.0","protocol_sum":"","subject_identifier":136,"subject_sum":[162,24,85,218,8,203,16,45,29,33,124,83,220,88,36,163,167,149,193,193,164,78,151,27,240,26,185,218,58,42,203,191],"subject_pair":68,"STUDY_ID":"669a702db1122fc5150a13ce","PROLIFIC_PID":"66745423e75fde5ccb81d42b","SESSION_ID":"669b3c605c9a0ab8c376540b","practice_instructions":1,"leaderboard_instructions":2,"bonus":0,"reveal_word":false,"self_rating":"3","confidence":"99"},{"word":"ZEBRA","click_log":{"letter":["","C","A","M","E","I","F","H","R","Q","P","N","L","U","V","W","X","Y","Z","K","J","T","S","B"],"t":[0,8751.600000023842,9510.900000035763,10698.300000011921,11543.700000047684,13430,14715.400000035763,15138.100000023842,15638.800000011921,15827.900000035763,16055.800000011921,16776,17359.30000001192,18062.30000001192,18290,18481.900000035763,19072.400000035763,19286.100000023842,19492.900000035763,21048.700000047684,22058,22761.80000001192,23316.400000035763,27101.100000023842],"hit":[null,0,1,0,1,0,0,0,1,0,0,0,0,0,0,0,0,0,1,0,0,0,0,1],"asked":["","C","CA","CAM","CAME","CAMEI","CAMEIF","CAMEIFH","CAMEIFHR","CAMEIFHRQ","CAMEIFHRQP","CAMEIFHRQPN","CAMEIFHRQPNL","CAMEIFHRQPNLU","CAMEIFHRQPNLUV","CAMEIFHRQPNLUVW","CAMEIFHRQPNLUVWX","CAMEIFHRQPNLUVWXY","CAMEIFHRQPNLUVWXYZ","CAMEIFHRQPNLUVWXYZK","CAMEIFHRQPNLUVWXYZKJ","CAMEIFHRQPNLUVWXYZKJT","CAMEIFHRQPNLUVWXYZKJTS","CAMEIFHRQPNLUVWXYZKJTSB"],"word_state":["_____","_____","____A","____A","_E__A","_E__A","_E__A","_E__A","_E_RA","_E_RA","_E_RA","_E_RA","_E_RA","_E_RA","_E_RA","_E_RA","_E_RA","_E_RA","ZE_RA","ZE_RA","ZE_RA","ZE_RA","ZE_RA","ZEBRA"]},"hover_log":{"letter":["?","?","?","?","?","?","?","?","?","?","?","?","?","?","?","?","?","?","?","?","?","?","?","?","?","?","?","?","?","?","?","?","?","?","?","?","?","?","?","?","?","?","?","?","?","?","?","?","?","?","?","?","?","?","?","?","?","?","?","?","?","?","?","?","?","?","?","?","?","?","?","?","?","?","?","?","?","?","?","?","?","?","?","?","?","?","?","?","?","?","?","?","?","?","?","?","?","?","?","?","?","?","?","?","?","?","?","?","?","?","?","?","?","?","?","?","?","?","?","?","?","?","?","?","?","?","?","?","?","?","?","?","?","?","?","?","?","?","?","?","?","?","?","?","?","?","?","?","?","?","?","?","?","?","?","?","?","?","?","?","?","?","?","?","?","?","?","?","?","?","?","?","?","?","?","?","?","?","?","?","?","?","?","?","?","?","?","?","?","?","?","?","?","?","?","?","?","?","?","?","?","?","?","?","?","?","?","?","?","?","?","?","?","?","?","?","?","?","?","?","?","?","?","?","?","?","?","?","?","?","?","?","?","?","?","?","?","?","?","?","?","?","?","?","?","?","?","?","?","?","?","?","?","?","?","?","?","?","?","?","?","?","?","?","?","?","?","?","?","?","?","?","?","?","?","?","?","?","?","?","?","?","?","?","?","?","?","?","?","?","?","?","?","?","?","?","?","?","?","?","?","?","?","?","?","?","?","?","?","?","?","?","?","?","?","?","?","?","?","?","?","?","?","?","?","?","?","?","?","?","?","?","?","?","?","?","?","?","?","?","?","?","?","?","?","?","?","?","?","?","?","?","?","?","?","?","?","?","?","?","?","?","?","?","?","?","?","?","?","?","?","?","?","?","?","?","?","?","?","?","?","?","?","?","?","?","?","?","?","?","?","?","?","?","?","?","?","?","?","?","?","?","?","?","?","?","?","?","?","?","?","?","?","?","?","?","?","?","?","?","?","?","?","?","?","?","?","?","?","?","?","?","?","?","?","?","?","?","?","?","?","?","?","?","?","?","?","?","?","?","?","?","?","?","?","?","?","?","?","?","?","?","?","?","?","?","?","?","?","?","?","?","?","?","?","?","?","?","?","?","?","?","?","?","?","?","?","?","?","?","?","?","?","?","?","?","?","?","?","?","?","?","?","?","?","?","?","?","?","?","?","?","?","?","?","?","?","?","?","?","?","?","?","C","C","C","C","C","C","C","C","C","C","C","C","C","C","C","C","C","C","C","C","C","C","C","C","C","C","C","C","C","C","C","C","C","C","C","C","C","C","C","C","C","C","C","C","C","A","A","A","A","A","A","A","A","A","A","A","A","A","A","A","A","A","A","A","A","A","A","A","A","A","A","A","A","A","A","A","A","A","A","A","A","A","A","A","A","A","A","A","A","A","A","A","A","A","A","A","A","A","A","A","A","A","A","A","A","A","A","A","A","A","A","A","A","A","A","A","M","M","M","M","M","M","M","M","M","M","M","M","M","M","M","M","M","M","M","M","M","M","M","M","M","M","M","M","M","M","M","M","M","M","M","M","M","M","M","M","M","M","M","M","M","M","M","M","M","M","M","E","E","E","E","E","E","E","E","E","E","E","E","E","E","E","E","E","E","E","E","E","E","E","E","E","E","E","E","E","E","E","E","E","E","E","E","E","E","E","E","E","E","E","E","E","E","E","E","E","E","E","E","E","E","E","E","E","E","E","E","E","E","E","E","E","E","E","E","E","E","E","E","E","E","E","E","E","E","E","E","E","E","E","E","E","E","E","E","E","E","E","E","E","E","E","E","E","E","E","E","E","E","E","E","E","E","E","E","E","E","I","I","I","I","I","I","I","I","I","I","I","I","I","I","I","I","I","I","I","I","I","I","I","I","I","I","I","I","I","I","I","I","I","I","I","I","I","I","I","I","I","I","I","I","I","I","I","I","I","I","I","I","I","I","I","I","I","I","I","I","I","I","I","I","I","I","I","I","I","I","I","I","I","I","I","I","I","I","F","F","F","F","F","F","F","F","F","F","F","F","F","?","?","?","?","?","?","?","?","?","?","?","?","?","H","H","H","H","H","H","H","H","H","H","H","H","H","H","H","H","H","H","H","H","H","H","H","H","H","H","H","H","H","H","R","R","R","R","R","R","R","R","R","R","R","R","R","Q","Q","Q","Q","Q","Q","Q","Q","Q","Q","Q","Q","P","P","P","P","P","P","P","P","P","P","P","P","?","?","?","?","?","?","?","?","?","?","?","?","?","?","?","?","?","?","?","?","?","?","?","?","?","?","?","?","?","?","?","N","N","N","N","N","N","N","N","N","N","N","N","N","N","N","N","M","M","M","M","M","M","M","M","M","M","M","M","M","M","M","M","M","M","M","M","M","L","L","L","L","L","L","L","L","L","L","L","L","L","L","L","L","L","L","L","L","L","L","L","L","L","L","L","L","L","L","L","L","L","L","L","L","L","L","L","L","L","U","U","U","U","U","U","U","U","U","U","U","U","U","U","U","V","V","V","V","V","V","V","V","V","V","V","V","V","W","W","W","W","W","W","W","W","W","W","W","W","W","W","W","W","W","W","W","W","W","W","W","W","W","W","W","W","W","W","W","W","W","W","X","X","X","X","X","X","X","X","X","X","X","X","X","Y","Y","Y","Y","Y","Y","Y","Y","Y","Y","Y","Y","Y","?","?","?","?","Z","Z","Z","Z","Z","Z","Z","Z","Z","Z","Z","Z","Z","Z","Z","Z","Z","Z","Z","Z","Z","Z","Z","Z","Z","Z","Z","Z","Z","Z","Z","Z","Z","Z","Z","Z","Z","Z","Z","Z","Z","Z","Z","Z","Z","Z","Z","Z","Z","Z","Z","Z","Z","Z","Z","Z","Z","Z","Z","Z","Z","Z","Z","Z","Z","Z","Z","Z","Z","Z","Z","Z","Z","Z","Z","Z","Z","Z","Z","Z","Z","Z","Z","Z","Z","Z","Z","Z","Z","K","K","K","K","K","K","K","K","K","K","K","K","?","?","?","?","?","?","?","?","?","?","?","?","?","?","?","?","?","?","?","?","?","?","?","?","?","?","?","?","?","?","?","?","?","?","?","?","?","?","?","?","?","?","?","?","?","?","?","?","J","J","J","J","J","J","J","J","J","J","J","J","J","J","J","J","J","J","J","J","J","J","J","J","J","J","J","J","J","J","J","J","J","J","J","J","J","J","J","J","J","J","T","T","T","T","T","T","T","T","T","T","T","T","T","T","T","T","T","T","T","T","T","T","T","T","T","T","T","T","T","T","T","T","T","T","T","T","S","S","S","S","S","S","S","S","S","S","S","S","S","S","S","S","S","S","S","S","S","S","S","S","S","S","S","S","S","S","S","S","S","S","S","S","S","S","S","S","S","S","S","S","S","S","S","S","S","D","D","D","?","?","?","?","?","?","?","?","?","?","?","?","?","?","?","?","?","?","?","?","?","?","?","?","?","?","?","?","?","?","?","?","?","?","?","?","?","?","?","?","?","?","?","?","?","?","?","?","?","?","?","?","?","?","?","?","?","?","?","?","?","?","?","?","?","?","?","?","?","?","?","?","?","?","?","?","?","?","?","?","?","?","?","?","?","?","?","?","?","?","?","?","?","?","?","?","?","?","?","?","?","?","?","?","?","?","?","?","?","?","?","?","?","?","?","?","?","?","?","?","?","?","?","?","?","?","?","?","?","?","?","?","?","?","?","?","?","?","?","?","?","?","?","?","?","?","?","?","?","?","?","?","?","?","?","?","?","?","?","?","?","?","?","?","?","?","?","?","?","?","?","?","?","B","B","B","B","B","B","B","B","B","B","B","B","B","B","B","B","B","B","B","B","B","B","B","B","B","B","B","B","B","B","B","B","B","B","B","B","B","B","B","B","B","B","B","B","B","B","B","B","B","B","B","B","B","B","B","B","B","B","B","B","B","B","B","B","B","B","B","B","B","B","B","B","B","B","B","B","B","B","B","B","B","B","B","B","B","B","B","B","B","B","B","B","B","B","B","B","B","B","B","B","B","B","B","B","B","B","B","B","B","B","B","B","B","B","B","B","B","B","B","B","B","B","B","B","B","B","B"],"t":[39,49,69,81,97,112,130,143,162,177,196,213,226,246,259,279,296,309,329,346,360,379,393,411,429,443,462,476,494,510,526,543,560,579,593,610,627,646,659,677,695,709,727,744,760,776,792,810,827,846,859,876,892,909,926,943,960,977,996,1009,1026,1044,1059,1076,1092,1111,1125,1143,1161,1179,1192,1209,1226,1242,1261,1276,1293,1312,1326,1342,1360,1376,1396,1410,1425,1442,1459,1476,1492,1510,1525,1542,1559,1576,1592,1610,1625,1642,1659,1675,1692,1709,1725,1743,1758,1775,1796,1808,1826,1842,1859,1876,1892,1909,1926,1942,1958,1975,1992,2008,2025,2042,2058,2075,2092,2111,2125,2143,2160,2176,2193,2210,2225,2243,2260,2276,2292,2309,2326,2342,2358,2375,2391,2408,2425,2442,2459,2475,2492,2510,2525,2542,2561,2575,2592,2608,2625,2641,2658,2675,2692,2709,2725,2742,2758,2776,2793,2808,2825,2844,2858,2873,2885,2899,2917,2934,2951,2967,2984,3001,3016,3033,3050,3069,3083,3100,3116,3134,3149,3166,3183,3200,3216,3233,3250,3266,3284,3299,3316,3335,3349,3367,3384,3399,3416,3434,3449,3466,3484,3500,3516,3535,3549,3566,3582,3599,3616,3632,3651,3665,3682,3702,3715,3733,3750,3768,3783,3800,3818,3834,3849,3866,3883,3900,3918,3932,3950,3966,3982,3999,4016,4036,4049,4066,4085,4099,4116,4133,4149,4166,4182,4200,4215,4232,4249,4265,4284,4299,4316,4336,4351,4366,4382,4401,4415,4433,4451,4465,4483,4501,4515,4532,4549,4566,4586,4600,4615,4632,4649,4666,4683,4701,4715,4732,4749,4766,4782,4799,4816,4836,4848,4865,4882,4899,4915,4933,4948,4966,4982,5000,5015,5035,5048,5066,5083,5099,5115,5131,5148,5165,5182,5199,5216,5233,5249,5265,5283,5300,5315,5331,5348,5365,5382,5398,5415,5431,5449,5465,5482,5499,5515,5535,5548,5565,5582,5599,5615,5635,5648,5666,5682,5698,5715,5731,5746,5758,5773,5791,5809,5824,5840,5859,5873,5891,5909,5924,5940,5956,5974,5990,6008,6025,6042,6057,6073,6091,6106,6125,6142,6157,6174,6189,6207,6223,6240,6257,6275,6289,6308,6325,6340,6357,6372,6389,6406,6424,6440,6457,6472,6491,6507,6525,6539,6556,6574,6591,6607,6625,6640,6657,6673,6691,6708,6725,6739,6756,6774,6791,6808,6825,6841,6856,6873,6890,6908,6925,6939,6957,6973,6990,7005,7025,7039,7058,7075,7089,7107,7125,7140,7158,7175,7189,7206,7222,7239,7255,7275,7292,7305,7325,7341,7358,7373,7391,7406,7422,7439,7458,7476,7488,7506,7523,7538,7556,7573,7589,7606,7623,7639,7655,7676,7688,7705,7722,7740,7755,7772,7789,7805,7823,7839,7855,7872,7890,7906,7922,7940,7955,7972,7989,8006,8026,8038,8055,8072,8090,8105,8122,8140,8155,8171,8189,8205,8222,8238,8255,8271,8290,8305,8322,8339,8358,8371,8389,8405,8422,8440,8454,8472,8489,8505,8521,8542,8554,8571,8589,8605,8622,8641,8654,8669,8681,8697,8716,8730,8748,8764,8780,8799,8814,8833,8848,8865,8880,8898,8913,8932,8949,8965,8981,8998,9014,9032,9046,9065,9081,9098,9115,9130,9148,9165,9181,9198,9215,9231,9247,9265,9281,9298,9315,9330,9346,9365,9381,9398,9415,9431,9445,9463,9482,9496,9515,9535,9548,9565,9580,9596,9613,9631,9647,9665,9680,9696,9715,9730,9748,9763,9781,9798,9815,9830,9847,9865,9880,9897,9913,9931,9947,9965,9981,9995,10014,10031,10047,10062,10081,10096,10114,10129,10148,10164,10180,10196,10213,10231,10246,10264,10279,10297,10312,10331,10346,10362,10381,10395,10414,10429,10446,10463,10479,10498,10512,10529,10546,10562,10578,10596,10612,10631,10647,10662,10679,10696,10712,10730,10745,10762,10778,10795,10813,10829,10846,10862,10878,10896,10915,10929,10945,10962,10980,10995,11013,11028,11046,11062,11078,11097,11114,11129,11146,11162,11178,11195,11213,11231,11245,11264,11278,11296,11312,11328,11347,11362,11380,11396,11413,11430,11447,11462,11480,11495,11511,11528,11546,11561,11578,11595,11612,11629,11645,11661,11680,11696,11711,11728,11746,11762,11780,11795,11814,11828,11846,11862,11878,11896,11911,11928,11946,11961,11978,11996,12012,12029,12044,12063,12078,12095,12112,12128,12145,12162,12178,12196,12213,12228,12245,12263,12277,12296,12311,12329,12344,12363,12377,12396,12411,12429,12446,12461,12480,12494,12511,12528,12545,12562,12580,12596,12611,12630,12645,12663,12678,12695,12713,12727,12745,12762,12779,12794,12812,12829,12844,12862,12877,12894,12911,12927,12944,12962,12979,12994,13012,13027,13044,13062,13077,13094,13110,13131,13143,13161,13180,13194,13212,13227,13244,13263,13277,13294,13310,13328,13344,13361,13380,13394,13411,13427,13444,13460,13479,13493,13510,13529,13544,13560,13577,13597,13610,13627,13644,13663,13677,13694,13710,13727,13744,13761,13779,13793,13811,13827,13846,13860,13878,13894,13912,13926,13944,13960,13977,13993,14012,14026,14044,14062,14079,14093,14110,14128,14144,14163,14179,14193,14210,14226,14244,14260,14276,14293,14312,14327,14344,14360,14379,14393,14409,14427,14443,14459,14477,14493,14510,14526,14543,14561,14576,14593,14611,14626,14644,14659,14677,14692,14712,14726,14743,14762,14777,14793,14811,14827,14847,14860,14876,14894,14910,14933,14947,14961,14978,14996,15010,15030,15043,15060,15078,15094,15109,15126,15142,15160,15178,15193,15209,15226,15242,15261,15276,15295,15310,15326,15345,15359,15377,15392,15410,15425,15442,15461,15476,15495,15509,15526,15543,15559,15576,15593,15609,15626,15642,15660,15676,15692,15710,15725,15745,15759,15779,15792,15809,15825,15842,15859,15876,15896,15909,15926,15942,15960,15976,15995,16009,16026,16043,16058,16076,16092,16108,16126,16144,16159,16175,16193,16208,16226,16244,16259,16275,16293,16308,16326,16343,16362,16378,16394,16408,16425,16444,16458,16476,16494,16511,16528,16542,16559,16577,16594,16611,16625,16644,16661,16675,16693,16708,16726,16743,16761,16775,16791,16810,16825,16842,16859,16872,16885,16900,16917,16934,16952,16967,16984,17000,17017,17034,17050,17068,17083,17101,17117,17134,17150,17169,17184,17202,17219,17233,17251,17266,17285,17301,17318,17333,17352,17367,17385,17402,17418,17435,17451,17468,17485,17501,17517,17535,17552,17569,17583,17602,17617,17635,17650,17668,17683,17700,17718,17735,17751,17767,17785,17802,17817,17834,17851,17866,17884,17902,17918,17935,17951,17968,17985,18001,18017,18033,18049,18066,18084,18100,18116,18133,18150,18161,18176,18192,18208,18225,18241,18258,18276,18291,18310,18324,18343,18358,18377,18391,18409,18425,18441,18458,18474,18492,18508,18526,18543,18557,18574,18593,18610,18625,18643,18658,18675,18692,18710,18724,18743,18757,18775,18791,18809,18824,18841,18858,18876,18891,18908,18927,18941,18959,18977,18991,19010,19025,19041,19057,19074,19090,19109,19124,19141,19159,19174,19193,19207,19227,19240,19257,19275,19291,19309,19324,19342,19357,19374,19392,19407,19424,19441,19456,19475,19492,19507,19524,19540,19557,19574,19591,19607,19624,19642,19659,19674,19692,19707,19724,19740,19756,19775,19790,19809,19824,19840,19858,19875,19890,19908,19924,19942,19957,19975,19992,20007,20026,20040,20059,20074,20090,20106,20125,20142,20157,20174,20192,20207,20224,20241,20257,20275,20291,20307,20325,20342,20358,20375,20390,20409,20424,20440,20457,20474,20491,20508,20523,20540,20557,20576,20594,20611,20627,20643,20660,20675,20691,20707,20725,20742,20758,20774,20789,20808,20823,20842,20857,20873,20890,20908,20923,20941,20956,20975,20990,21007,21023,21039,21056,21073,21090,21107,21123,21141,21156,21173,21189,21207,21223,21241,21258,21274,21289,21306,21325,21339,21356,21374,21391,21406,21425,21439,21457,21475,21489,21505,21523,21539,21558,21574,21589,21607,21623,21641,21658,21672,21690,21705,21722,21739,21758,21773,21791,21806,21824,21840,21858,21873,21891,21905,21924,21939,21957,21974,21991,22008,22022,22041,22056,22075,22089,22105,22114,22130,22147,22164,22180,22196,22215,22233,22248,22264,22280,22297,22314,22332,22347,22366,22380,22399,22413,22430,22448,22464,22483,22497,22513,22533,22547,22563,22580,22596,22615,22630,22648,22663,22681,22697,22714,22734,22746,22764,22780,22797,22813,22830,22846,22863,22880,22900,22913,22931,22948,22963,22980,22997,23013,23030,23046,23063,23080,23096,23114,23130,23148,23163,23182,23196,23214,23229,23246,23263,23281,23296,23314,23330,23347,23364,23378,23392,23406,23422,23438,23454,23471,23488,23505,23522,23539,23554,23575,23591,23604,23621,23639,23655,23671,23688,23704,23721,23738,23754,23771,23788,23804,23821,23838,23854,23871,23888,23904,23921,23938,23954,23971,23987,24004,24021,24037,24055,24071,24088,24104,24121,24139,24154,24171,24187,24204,24220,24237,24254,24271,24289,24305,24323,24337,24354,24370,24388,24404,24423,24440,24453,24473,24487,24504,24521,24537,24554,24570,24587,24604,24620,24637,24655,24674,24687,24704,24720,24737,24754,24771,24788,24804,24820,24837,24855,24870,24887,24904,24920,24937,24954,24970,24987,25003,25020,25037,25054,25070,25087,25105,25123,25137,25154,25170,25187,25204,25222,25237,25253,25272,25289,25303,25320,25337,25353,25370,25387,25403,25420,25436,25453,25470,25486,25504,25521,25539,25553,25570,25586,25604,25620,25636,25654,25670,25686,25703,25720,25736,25754,25769,25788,25803,25820,25836,25853,25869,25886,25903,25920,25936,25953,25970,25987,26003,26019,26036,26053,26069,26086,26103,26119,26139,26153,26170,26186,26203,26220,26237,26255,26269,26286,26303,26319,26336,26353,26369,26386,26403,26420,26436,26453,26469,26486,26503,26520,26536,26553,26569,26586,26603,26619,26636,26653,26669,26686,26703,26720,26737,26752,26769,26786,26803,26819,26835,26855,26869,26886,26902,26919,26936,26952,26969,26986,27002,27019,27037,27055,27069,27086,27106,27119,27136,27152,27169,27186,27202,27221,27236,27252,27269,27286,27303,27319,27335,27352,27369,27385,27402,27421,27436,27452,27469,27486,27503,27519,27535,27552,27569,27585,27602,27621,27635,27652,27669,27685,27702,27719,27735,27752,27770,27785,27802,27819,27835,27852,27869,27885,27902,27918,27937,27952,27971,27987,28003,28018,28035,28051,28069,28086,28101,28118,28135,28152,28168,28185,28205,28220,28239,28251,28271,28285,28301,28318,28335,28354,28368,28388,28402,28418,28435,28452,28470,28485,28505,28521,28535,28551,28568,28584,28605,28619,28635,28651,28669,28685,28703,28718,28735,28754,28769,28785,28801,28820,28836,28851,28868,28887,28903,28920,28935,28952,28968,28986,29002,29020,29037,29054,29070,29084,29102,29119],"hit":[null],"x":[-2.0408163265306123,-2.0408163265306123,-2.0408163265306123,-2.0408163265306123,-2.0408163265306123,-2.0408163265306123,-2.0408163265306123,-2.0408163265306123,-2.0408163265306123,-2.0408163265306123,-2.0408163265306123,-2.0408163265306123,-2.0408163265306123,-2.0408163265306123,-2.0408163265306123,-2.0408163265306123,-2.0408163265306123,-2.0408163265306123,-2.0408163265306123,-2.0408163265306123,-2.0408163265306123,-2.0408163265306123,-2.0408163265306123,-2.0408163265306123,-2.0408163265306123,-2.0408163265306123,-2.0408163265306123,-2.0408163265306123,-2.0408163265306123,-2.0408163265306123,-2.0408163265306123,-2.0408163265306123,-2.0408163265306123,-2.0408163265306123,-2.0408163265306123,-2.0408163265306123,-2.0408163265306123,-2.0408163265306123,-2.0408163265306123,-2.0408163265306123,-2.0408163265306123,-2.0408163265306123,-2.0408163265306123,-2.0408163265306123,-2.0408163265306123,-2.0408163265306123,-2.0408163265306123,-2.0408163265306123,-2.0408163265306123,-2.0408163265306123,-2.0408163265306123,-2.0408163265306123,-2.0408163265306123,-2.0408163265306123,-2.0408163265306123,-2.0408163265306123,-2.0408163265306123,-2.0408163265306123,-2.0408163265306123,-2.0408163265306123,-2.0408163265306123,-2.0408163265306123,-2.0408163265306123,-2.0408163265306123,-2.0408163265306123,-2.0408163265306123,-2.0408163265306123,-2.0408163265306123,-2.0408163265306123,-2.0408163265306123,-2.0408163265306123,-2.0408163265306123,-2.0408163265306123,-2.0408163265306123,-2.0408163265306123,-2.0408163265306123,-2.0408163265306123,-2.0408163265306123,-2.0408163265306123,-2.0408163265306123,-2.0408163265306123,-2.0408163265306123,-2.0408163265306123,-2.0408163265306123,-2.0408163265306123,-2.0408163265306123,-2.0408163265306123,-2.0408163265306123,-2.0408163265306123,-2.0408163265306123,-2.0408163265306123,-2.0408163265306123,-2.0408163265306123,-2.0408163265306123,-2.0408163265306123,-2.0408163265306123,-2.0408163265306123,-2.0408163265306123,-2.0408163265306123,-2.0408163265306123,-2.0408163265306123,-2.0408163265306123,-2.0408163265306123,-2.0408163265306123,-2.0408163265306123,-2.0408163265306123,-2.0408163265306123,-2.0408163265306123,-2.0408163265306123,-2.0408163265306123,-2.0408163265306123,-2.0408163265306123,-2.0408163265306123,-2.0408163265306123,-2.0408163265306123,-2.0408163265306123,-2.0408163265306123,-2.0408163265306123,-2.0408163265306123,-2.0408163265306123,-2.0408163265306123,-2.0408163265306123,-2.0408163265306123,-2.0408163265306123,-2.0408163265306123,-2.0408163265306123,-2.0408163265306123,-2.0408163265306123,-2.0408163265306123,-2.0408163265306123,-2.0408163265306123,-2.0408163265306123,-2.0408163265306123,-2.0408163265306123,-2.0408163265306123,-2.0408163265306123,-2.0408163265306123,-2.0408163265306123,-2.0408163265306123,-2.0408163265306123,-2.0408163265306123,-2.0408163265306123,-2.0408163265306123,-2.0408163265306123,-2.0408163265306123,-2.0408163265306123,-2.0408163265306123,-2.0408163265306123,-2.0408163265306123,-2.0408163265306123,-2.0408163265306123,-2.0408163265306123,-2.0408163265306123,-2.0408163265306123,-2.0408163265306123,-2.0408163265306123,-2.0408163265306123,-2.0408163265306123,-2.0408163265306123,-2.0408163265306123,-2.0408163265306123,-2.0408163265306123,-2.0408163265306123,-2.0408163265306123,-2.0408163265306123,-2.0408163265306123,-2.0408163265306123,-2.0408163265306123,-2.0408163265306123,-2.0408163265306123,-2.0408163265306123,-2.0408163265306123,-2.0408163265306123,-2.0408163265306123,-2.0408163265306123,-2.0408163265306123,-2.0408163265306123,-2.0408163265306123,-2.0408163265306123,-2.0408163265306123,-2.0408163265306123,-2.0408163265306123,-2.0408163265306123,-2.0408163265306123,-2.0408163265306123,-2.0408163265306123,-2.0408163265306123,-2.0408163265306123,-2.0408163265306123,-2.0408163265306123,-2.0408163265306123,-2.0408163265306123,-2.0408163265306123,-2.0408163265306123,-2.0408163265306123,-2.0408163265306123,-2.0408163265306123,-2.0408163265306123,-2.0408163265306123,-2.0408163265306123,-2.0408163265306123,-2.0408163265306123,-2.0408163265306123,-2.0408163265306123,-2.0408163265306123,-2.0408163265306123,-2.0408163265306123,-2.0408163265306123,-2.0408163265306123,-2.0408163265306123,-2.0408163265306123,-2.0408163265306123,-2.0408163265306123,-2.0408163265306123,-2.0408163265306123,-2.0408163265306123,-2.0408163265306123,-2.0408163265306123,-2.0408163265306123,-2.0408163265306123,-2.0408163265306123,-2.0408163265306123,-2.0408163265306123,-2.0408163265306123,-2.0408163265306123,-2.0408163265306123,-2.0408163265306123,-2.0408163265306123,-2.0408163265306123,-2.0408163265306123,-2.0408163265306123,-2.0408163265306123,-2.0408163265306123,-2.0408163265306123,-2.0408163265306123,-2.0408163265306123,-2.0408163265306123,-2.0408163265306123,-2.0408163265306123,-2.0408163265306123,-2.0408163265306123,-2.0408163265306123,-2.0408163265306123,-2.0408163265306123,-2.0408163265306123,-2.0408163265306123,-2.0408163265306123,-2.0408163265306123,-2.0408163265306123,-2.0408163265306123,-2.0408163265306123,-2.0408163265306123,-2.0408163265306123,-2.0408163265306123,-2.0408163265306123,-2.0408163265306123,-2.0408163265306123,-2.0408163265306123,-2.0408163265306123,-2.0408163265306123,-2.0408163265306123,-2.0408163265306123,-2.0408163265306123,-2.0408163265306123,-2.0408163265306123,-2.0408163265306123,-2.0408163265306123,-2.0408163265306123,-2.0408163265306123,-2.0408163265306123,-2.0408163265306123,-2.0408163265306123,-2.0408163265306123,-2.0408163265306123,-2.0408163265306123,-2.0408163265306123,-2.0408163265306123,-2.0408163265306123,-2.0408163265306123,-2.0408163265306123,-2.0408163265306123,-2.0408163265306123,-2.0408163265306123,-2.0408163265306123,-2.0408163265306123,-2.0408163265306123,-2.0408163265306123,-2.0408163265306123,-2.0408163265306123,-2.0408163265306123,-2.0408163265306123,-2.0408163265306123,-2.0408163265306123,-2.0408163265306123,-2.0408163265306123,-2.0408163265306123,-2.0408163265306123,-2.0408163265306123,-2.0408163265306123,-2.0408163265306123,-2.0408163265306123,-2.0408163265306123,-2.0408163265306123,-2.0408163265306123,-2.0408163265306123,-2.0408163265306123,-2.0408163265306123,-2.0408163265306123,-2.0408163265306123,-2.0408163265306123,-2.0408163265306123,-2.0408163265306123,-2.0408163265306123,-2.0408163265306123,-2.0408163265306123,-2.0408163265306123,-2.0408163265306123,-2.0408163265306123,-2.0408163265306123,-2.0408163265306123,-2.0408163265306123,-2.0408163265306123,-2.0408163265306123,-2.0408163265306123,-2.0408163265306123,-2.0408163265306123,-2.0408163265306123,-2.0408163265306123,-2.0408163265306123,-2.0408163265306123,-2.0408163265306123,-2.0408163265306123,-2.0408163265306123,-2.0408163265306123,-2.0408163265306123,-2.0408163265306123,-2.0408163265306123,-2.0408163265306123,-2.0408163265306123,-2.0408163265306123,-2.0408163265306123,-2.0408163265306123,-2.0408163265306123,-2.0408163265306123,-2.0408163265306123,-2.0408163265306123,-2.0408163265306123,-2.0408163265306123,-2.0408163265306123,-2.0408163265306123,-2.0408163265306123,-2.0408163265306123,-2.0408163265306123,-2.0408163265306123,-2.0408163265306123,-2.0408163265306123,-2.0408163265306123,-2.0408163265306123,-2.0408163265306123,-2.0408163265306123,-2.0408163265306123,-2.0408163265306123,-2.0408163265306123,-2.0408163265306123,-2.0408163265306123,-2.0408163265306123,-2.0408163265306123,-2.0408163265306123,-2.0408163265306123,-2.0408163265306123,-2.0408163265306123,-2.0408163265306123,-2.0408163265306123,-2.0408163265306123,-2.0408163265306123,-2.0408163265306123,-2.0408163265306123,-2.0408163265306123,-2.0408163265306123,-2.0408163265306123,-2.0408163265306123,-2.0408163265306123,-2.0408163265306123,-2.0408163265306123,-2.0408163265306123,-2.0408163265306123,-2.0408163265306123,-2.0408163265306123,-2.0408163265306123,-2.0408163265306123,-2.0408163265306123,-2.0408163265306123,-2.0408163265306123,-2.0408163265306123,-2.0408163265306123,-2.0408163265306123,-2.0408163265306123,-2.0408163265306123,-2.0408163265306123,-2.0408163265306123,-2.0408163265306123,-2.0408163265306123,-2.0408163265306123,-2.0408163265306123,-2.0408163265306123,-2.0408163265306123,-2.0408163265306123,-2.0408163265306123,-2.0408163265306123,-2.0408163265306123,-2.0408163265306123,-2.0408163265306123,-2.0408163265306123,-2.0408163265306123,-2.0408163265306123,-2.0408163265306123,-2.0408163265306123,-2.0408163265306123,-2.0408163265306123,-2.0408163265306123,-2.0408163265306123,-2.0408163265306123,-2.0408163265306123,-2.0408163265306123,-2.0408163265306123,-2.0408163265306123,-2.0408163265306123,-2.0408163265306123,-2.0408163265306123,-2.0408163265306123,-2.0408163265306123,-2.0408163265306123,-2.0408163265306123,-2.0408163265306123,-2.0408163265306123,-2.0408163265306123,-2.0408163265306123,-2.0408163265306123,-2.0408163265306123,-2.0408163265306123,-2.0408163265306123,-2.0408163265306123,-2.0408163265306123,-2.0408163265306123,-2.0408163265306123,-2.0408163265306123,-2.0408163265306123,-2.0408163265306123,-2.0408163265306123,-2.0408163265306123,-2.0408163265306123,-2.0408163265306123,-2.0408163265306123,-2.0408163265306123,-2.0408163265306123,-2.0408163265306123,-2.0408163265306123,-2.0408163265306123,-2.0408163265306123,-2.0408163265306123,-2.0408163265306123,-2.0408163265306123,-2.0408163265306123,-2.0408163265306123,-2.0408163265306123,-2.0408163265306123,-2.0408163265306123,-2.0408163265306123,-2.0408163265306123,-2.0408163265306123,-2.0408163265306123,-2.0408163265306123,-2.0408163265306123,-2.0408163265306123,-2.0408163265306123,-2.0408163265306123,-2.0408163265306123,-2.0408163265306123,-2.0408163265306123,-2.0408163265306123,-2.0408163265306123,-2.0408163265306123,-2.0408163265306123,-2.0408163265306123,-2.0408163265306123,-2.0408163265306123,-2.0408163265306123,-2.0408163265306123,-2.0408163265306123,-2.0408163265306123,-2.0408163265306123,-2.0408163265306123,-2.0408163265306123,-2.0408163265306123,-2.0408163265306123,-2.0408163265306123,-2.0408163265306123,-2.0408163265306123,-2.0408163265306123,-2.0408163265306123,-2.0408163265306123,-2.0408163265306123,-2.0408163265306123,-2.0408163265306123,-2.0408163265306123,-2.0408163265306123,-2.0408163265306123,-2.0408163265306123,-2.0408163265306123,-2.0408163265306123,-2.0408163265306123,-2.0408163265306123,-2.0408163265306123,-2.0408163265306123,-2.0408163265306123,-2.0408163265306123,-2.0408163265306123,-2.0408163265306123,-2.0408163265306123,-2.0408163265306123,-2.0408163265306123,-2.0408163265306123,-2.0408163265306123,0.2693877966225553,0.2693877966225553,0.2693877966225553,0.2687074829931973,0.2687074829931973,0.2687074829931973,0.2687074829931973,0.2687074829931973,0.2687074829931973,0.2687074829931973,0.2687074829931973,0.2687074829931973,0.2687074829931973,0.2687074829931973,0.2687074829931973,0.2687074829931973,0.2687074829931973,0.2687074829931973,0.2687074829931973,0.2687074829931973,0.2687074829931973,0.2687074829931973,0.2687074829931973,0.2687074829931973,0.2687074829931973,0.2687074829931973,0.2687074829931973,0.2687074829931973,0.2687074829931973,0.2687074829931973,0.2687074829931973,0.2687074829931973,0.2687074829931973,0.2687074829931973,0.2687074829931973,0.2687074829931973,0.2687074829931973,0.2687074829931973,0.2687074829931973,0.2687074829931973,0.2687074829931973,0.2687074829931973,0.2687074829931973,0.2687074829931973,0.2687074829931973,0.02176879052402211,0.02176879052402211,0.02176879052402211,0.02040816326530612,0.02040816326530612,0.02040816326530612,0.02040816326530612,0.02040816326530612,0.02040816326530612,0.02040816326530612,0.02040816326530612,0.02040816326530612,0.02040816326530612,0.02040816326530612,0.02040816326530612,0.02040816326530612,0.02040816326530612,0.02040816326530612,0.02040816326530612,0.02040816326530612,0.02040816326530612,0.02040816326530612,0.02040816326530612,0.02040816326530612,0.02040816326530612,0.02040816326530612,0.02040816326530612,0.02040816326530612,0.02040816326530612,0.02040816326530612,0.02040816326530612,0.02040816326530612,0.02040816326530612,0.02040816326530612,0.02040816326530612,0.02040816326530612,0.02040816326530612,0.02040816326530612,0.02040816326530612,0.02040816326530612,0.02040816326530612,0.02040816326530612,0.02040816326530612,0.02040816326530612,0.02040816326530612,0.02040816326530612,0.02040816326530612,0.02040816326530612,0.02040816326530612,0.02040816326530612,0.02040816326530612,0.02040816326530612,0.02040816326530612,0.02040816326530612,0.02040816326530612,0.02040816326530612,0.02040816326530612,0.02040816326530612,0.02040816326530612,0.02040816326530612,0.02040816326530612,0.02040816326530612,0.02040816326530612,0.02040816326530612,0.02040816326530612,0.02040816326530612,0.02040816326530612,0.02040816326530612,0.02040816326530612,0.02040816326530612,0.02040816326530612,0.43265310274500424,0.43265310274500424,0.43265310274500424,0.43265310274500424,0.43197278911564624,0.43197278911564624,0.43197278911564624,0.43197278911564624,0.43197278911564624,0.43197278911564624,0.43197278911564624,0.43197278911564624,0.43197278911564624,0.43197278911564624,0.43197278911564624,0.43197278911564624,0.43197278911564624,0.43197278911564624,0.43197278911564624,0.43197278911564624,0.43197278911564624,0.43197278911564624,0.43197278911564624,0.43197278911564624,0.43197278911564624,0.43197278911564624,0.43197278911564624,0.43197278911564624,0.43197278911564624,0.43197278911564624,0.43197278911564624,0.43197278911564624,0.43197278911564624,0.43197278911564624,0.43197278911564624,0.43197278911564624,0.43197278911564624,0.43197278911564624,0.43197278911564624,0.43197278911564624,0.43197278911564624,0.43197278911564624,0.43197278911564624,0.43197278911564624,0.43197278911564624,0.43197278911564624,0.43197278911564624,0.43197278911564624,0.43197278911564624,0.43197278911564624,0.43197278911564624,0.5306122448979592,0.5306122448979592,0.5306122448979592,0.5306122448979592,0.5306122448979592,0.5306122448979592,0.5306122448979592,0.5306122448979592,0.5306122448979592,0.5306122448979592,0.5306122448979592,0.5306122448979592,0.5306122448979592,0.5306122448979592,0.5306122448979592,0.5306122448979592,0.5306122448979592,0.5306122448979592,0.5306122448979592,0.5306122448979592,0.5306122448979592,0.5306122448979592,0.5306122448979592,0.5306122448979592,0.5306122448979592,0.5306122448979592,0.5306122448979592,0.5306122448979592,0.5306122448979592,0.5306122448979592,0.5306122448979592,0.5306122448979592,0.5306122448979592,0.5306122448979592,0.5306122448979592,0.5306122448979592,0.5306122448979592,0.5306122448979592,0.5306122448979592,0.5306122448979592,0.5306122448979592,0.5306122448979592,0.5306122448979592,0.5306122448979592,0.5306122448979592,0.5306122448979592,0.5306122448979592,0.5306122448979592,0.5306122448979592,0.5306122448979592,0.5306122448979592,0.5306122448979592,0.5306122448979592,0.5306122448979592,0.5306122448979592,0.5306122448979592,0.5306122448979592,0.5306122448979592,0.5306122448979592,0.5306122448979592,0.5306122448979592,0.5306122448979592,0.5306122448979592,0.5306122448979592,0.5306122448979592,0.5306122448979592,0.5306122448979592,0.5306122448979592,0.5306122448979592,0.5306122448979592,0.5306122448979592,0.5306122448979592,0.5306122448979592,0.5306122448979592,0.5306122448979592,0.5306122448979592,0.5306122448979592,0.5306122448979592,0.5306122448979592,0.5306122448979592,0.5306122448979592,0.5306122448979592,0.5306122448979592,0.5306122448979592,0.5306122448979592,0.5306122448979592,0.5306122448979592,0.5306122448979592,0.5306122448979592,0.5306122448979592,0.5306122448979592,0.5306122448979592,0.5306122448979592,0.5306122448979592,0.5306122448979592,0.5306122448979592,0.5306122448979592,0.5306122448979592,0.5306122448979592,0.5306122448979592,0.5306122448979592,0.5306122448979592,0.5306122448979592,0.5306122448979592,0.5306122448979592,0.5306122448979592,0.5306122448979592,0.5306122448979592,0.5306122448979592,0.5306122448979592,1.1537415381191538,1.1537415381191538,1.1537415381191538,1.1537415381191538,1.1537415381191538,1.1537415381191538,1.1537415381191538,1.153061224489796,1.153061224489796,1.153061224489796,1.153061224489796,1.153061224489796,1.153061224489796,1.153061224489796,1.153061224489796,1.153061224489796,1.153061224489796,1.153061224489796,1.153061224489796,1.153061224489796,1.153061224489796,1.153061224489796,1.153061224489796,1.153061224489796,1.153061224489796,1.153061224489796,1.153061224489796,1.153061224489796,1.153061224489796,1.153061224489796,1.153061224489796,1.153061224489796,1.153061224489796,1.153061224489796,1.153061224489796,1.153061224489796,1.153061224489796,1.153061224489796,1.153061224489796,1.153061224489796,1.153061224489796,1.153061224489796,1.153061224489796,1.153061224489796,1.153061224489796,1.153061224489796,1.153061224489796,1.153061224489796,1.153061224489796,1.153061224489796,1.153061224489796,1.153061224489796,1.153061224489796,1.153061224489796,1.153061224489796,1.153061224489796,1.153061224489796,1.153061224489796,1.153061224489796,1.153061224489796,1.153061224489796,1.153061224489796,1.153061224489796,1.153061224489796,1.153061224489796,1.153061224489796,1.153061224489796,1.153061224489796,1.153061224489796,1.153061224489796,1.153061224489796,1.153061224489796,1.153061224489796,1.153061224489796,1.153061224489796,1.153061224489796,1.153061224489796,1.153061224489796,0.7319728306361607,0.7319728306361607,0.7319728306361607,0.7319728306361607,0.7319728306361607,0.7319728306361607,0.7312925170068028,0.7312925170068028,0.7312925170068028,0.7312925170068028,0.7312925170068028,0.7312925170068028,0.7312925170068028,0.8190475775271046,0.8190475775271046,0.8190475775271046,0.8163265306122449,0.8163265306122449,0.8163265306122449,0.8163265306122449,0.8163265306122449,0.8163265306122449,0.8163265306122449,0.8163265306122449,0.8163265306122449,0.8163265306122449,1.0013606272587159,1.0013606272587159,1.0013606272587159,1.0013606272587159,1.0013606272587159,1,1,1,1,1,1,1,1,1,1,1,1,1,1,1,1,1,1,1,1,1,1,1,1,1,1.118367305418261,1.118367305418261,1.118367305418261,1.118367305418261,1.118367305418261,1.1156462585034013,1.1156462585034013,1.1156462585034013,1.1156462585034013,1.1156462585034013,1.1156462585034013,1.1156462585034013,1.1156462585034013,1.0068027210884354,1.0068027210884354,1.0068027210884354,1.0068027210884354,1.0068027210884354,1.0068027210884354,1.0068027210884354,1.0068027210884354,1.0068027210884354,1.0068027210884354,1.0068027210884354,1.0068027210884354,0.8979591836734694,0.8979591836734694,0.8979591836734694,0.8979591836734694,0.8979591836734694,0.8979591836734694,0.8979591836734694,0.8979591836734694,0.8979591836734694,0.8979591836734694,0.8979591836734694,0.8979591836734694,0.783673552428784,0.783673552428784,0.783673552428784,0.783673552428784,0.783673552428784,0.783673552428784,0.782312925170068,0.782312925170068,0.782312925170068,0.782312925170068,0.782312925170068,0.782312925170068,0.782312925170068,0.782312925170068,0.782312925170068,0.782312925170068,0.782312925170068,0.782312925170068,0.782312925170068,0.782312925170068,0.782312925170068,0.782312925170068,0.782312925170068,0.782312925170068,0.782312925170068,0.782312925170068,0.782312925170068,0.782312925170068,0.782312925170068,0.782312925170068,0.782312925170068,0.5959184088674533,0.5959184088674533,0.5959184088674533,0.5959184088674533,0.5959184088674533,0.5959184088674533,0.5952380952380952,0.5952380952380952,0.5952380952380952,0.5952380952380952,0.5952380952380952,0.5952380952380952,0.5952380952380952,0.5952380952380952,0.5952380952380952,0.5952380952380952,0.446258544921875,0.446258544921875,0.445578231292517,0.445578231292517,0.445578231292517,0.445578231292517,0.445578231292517,0.445578231292517,0.445578231292517,0.445578231292517,0.445578231292517,0.445578231292517,0.445578231292517,0.445578231292517,0.445578231292517,0.445578231292517,0.445578231292517,0.445578231292517,0.445578231292517,0.445578231292517,0.445578231292517,0.2802721918845663,0.2802721918845663,0.2802721918845663,0.2802721918845663,0.2789115646258503,0.2789115646258503,0.2789115646258503,0.2789115646258503,0.2789115646258503,0.2789115646258503,0.2789115646258503,0.2789115646258503,0.2789115646258503,0.2789115646258503,0.2789115646258503,0.2789115646258503,0.2789115646258503,0.2789115646258503,0.2789115646258503,0.2789115646258503,0.2789115646258503,0.2789115646258503,0.2789115646258503,0.2789115646258503,0.2789115646258503,0.2789115646258503,0.2789115646258503,0.2789115646258503,0.2789115646258503,0.2789115646258503,0.2789115646258503,0.2789115646258503,0.2789115646258503,0.2789115646258503,0.2789115646258503,0.2789115646258503,0.2789115646258503,0.2789115646258503,0.2789115646258503,0.2789115646258503,0.2789115646258503,0.3346939605920493,0.3346939605920493,0.3346939605920493,0.3346939605920493,0.3346939605920493,0.3333333333333333,0.3333333333333333,0.3333333333333333,0.3333333333333333,0.3333333333333333,0.3333333333333333,0.3333333333333333,0.3333333333333333,0.3333333333333333,0.3333333333333333,0.45714294018388607,0.45714294018388607,0.45714294018388607,0.45714294018388607,0.4557823129251701,0.4557823129251701,0.4557823129251701,0.4557823129251701,0.4557823129251701,0.4557823129251701,0.4557823129251701,0.4557823129251701,0.4557823129251701,0.5714285714285714,0.5714285714285714,0.5714285714285714,0.5714285714285714,0.5714285714285714,0.5714285714285714,0.5714285714285714,0.5714285714285714,0.5714285714285714,0.5714285714285714,0.5714285714285714,0.5714285714285714,0.5714285714285714,0.5714285714285714,0.5714285714285714,0.5714285714285714,0.5714285714285714,0.5714285714285714,0.5714285714285714,0.5714285714285714,0.5714285714285714,0.5714285714285714,0.5714285714285714,0.5714285714285714,0.5714285714285714,0.5714285714285714,0.5714285714285714,0.5714285714285714,0.5714285714285714,0.5714285714285714,0.5714285714285714,0.5714285714285714,0.5714285714285714,0.5714285714285714,0.6993198524526998,0.6993198524526998,0.6993198524526998,0.6993198524526998,0.6972789115646258,0.6972789115646258,0.6972789115646258,0.6972789115646258,0.6972789115646258,0.6972789115646258,0.6972789115646258,0.6972789115646258,0.6972789115646258,0.8272109258742559,0.8272109258742559,0.8272109258742559,0.8272109258742559,0.826530612244898,0.826530612244898,0.826530612244898,0.826530612244898,0.826530612244898,0.826530612244898,0.826530612244898,0.826530612244898,0.826530612244898,1.0095237680032951,1.0095237680032951,1.0095237680032951,1.0095237680032951,1.0068027210884354,1.0068027210884354,1.0068027210884354,1.0068027210884354,1.0068027210884354,1.0068027210884354,1.0068027210884354,1.0068027210884354,1.0068027210884354,1.0068027210884354,1.0068027210884354,1.0068027210884354,1.0068027210884354,1.0068027210884354,1.0068027210884354,1.0068027210884354,1.0068027210884354,1.0068027210884354,1.0068027210884354,1.0068027210884354,1.0068027210884354,1.0068027210884354,1.0068027210884354,1.0068027210884354,1.0068027210884354,1.0068027210884354,1.0068027210884354,1.0068027210884354,1.0068027210884354,1.0068027210884354,1.0068027210884354,1.0068027210884354,1.0068027210884354,1.0068027210884354,1.0068027210884354,1.0068027210884354,1.0068027210884354,1.0068027210884354,1.0068027210884354,1.0068027210884354,1.0068027210884354,1.0068027210884354,1.0068027210884354,1.0068027210884354,1.0068027210884354,1.0068027210884354,1.0068027210884354,1.0068027210884354,1.0068027210884354,1.0068027210884354,1.0068027210884354,1.0068027210884354,1.0068027210884354,1.0068027210884354,1.0068027210884354,1.0068027210884354,1.0068027210884354,1.0068027210884354,1.0068027210884354,1.0068027210884354,1.0068027210884354,1.0068027210884354,1.0068027210884354,1.0068027210884354,1.0068027210884354,1.0068027210884354,1.0068027210884354,1.0068027210884354,1.0068027210884354,1.0068027210884354,1.0068027210884354,1.0068027210884354,1.0068027210884354,1.0068027210884354,1.0068027210884354,1.0068027210884354,1.0068027210884354,1.0068027210884354,1.0068027210884354,1.0068027210884354,1.0068027210884354,1.0068027210884354,1.0068027210884354,1.0068027210884354,1.0068027210884354,1.0068027210884354,1.0068027210884354,1.0068027210884354,1.0068027210884354,0.14693881703071854,0.14693881703071854,0.14693881703071854,0.14693881703071854,0.14625850340136054,0.14625850340136054,0.14625850340136054,0.14625850340136054,0.14625850340136054,0.14625850340136054,0.14625850340136054,0.14625850340136054,0.19047619047619047,0.19047619047619047,0.19047619047619047,0.19047619047619047,0.19047619047619047,0.19047619047619047,0.19047619047619047,0.19047619047619047,0.19047619047619047,0.19047619047619047,0.19047619047619047,0.19047619047619047,0.19047619047619047,0.19047619047619047,0.19047619047619047,0.19047619047619047,0.19047619047619047,0.19047619047619047,0.19047619047619047,0.19047619047619047,0.19047619047619047,0.19047619047619047,0.19047619047619047,0.19047619047619047,0.19047619047619047,0.19047619047619047,0.19047619047619047,0.19047619047619047,0.07074825779921344,0.07074825779921344,0.07074825779921344,0.07074825779921344,0.07074825779921344,0.06802721088435375,0.06802721088435375,0.06802721088435375,0.06802721088435375,0.06802721088435375,0.06802721088435375,0.06802721088435375,0.06802721088435375,0.06802721088435375,0.06802721088435375,0.06802721088435375,0.06802721088435375,0.06802721088435375,0.06802721088435375,0.06802721088435375,-0.024489837438881803,-0.024489837438881803,-0.024489837438881803,-0.024489837438881803,-0.024489837438881803,-0.027210884353741496,-0.027210884353741496,-0.027210884353741496,-0.027210884353741496,-0.027210884353741496,-0.027210884353741496,-0.027210884353741496,-0.027210884353741496,-0.027210884353741496,-0.027210884353741496,-0.027210884353741496,-0.027210884353741496,-0.027210884353741496,-0.027210884353741496,-0.027210884353741496,-0.027210884353741496,-0.027210884353741496,-0.027210884353741496,-0.027210884353741496,-0.027210884353741496,-0.027210884353741496,-0.027210884353741496,-0.027210884353741496,-0.027210884353741496,-0.027210884353741496,-0.027210884353741496,-0.027210884353741496,-0.027210884353741496,-0.027210884353741496,-0.027210884353741496,-0.027210884353741496,-0.027210884353741496,-0.027210884353741496,-0.027210884353741496,-0.027210884353741496,-0.027210884353741496,-0.027210884353741496,0.14149672320099915,0.14149672320099915,0.14149672320099915,0.14149672320099915,0.14149672320099915,0.13945578231292516,0.13945578231292516,0.13945578231292516,0.13945578231292516,0.13945578231292516,0.13945578231292516,0.13945578231292516,0.13945578231292516,0.13945578231292516,0.13945578231292516,0.13945578231292516,0.13945578231292516,0.13945578231292516,0.13945578231292516,0.13945578231292516,0.13945578231292516,0.13945578231292516,0.13945578231292516,0.13945578231292516,0.13945578231292516,0.13945578231292516,0.13945578231292516,0.13945578231292516,0.13945578231292516,0.13945578231292516,0.13945578231292516,0.13945578231292516,0.13945578231292516,0.13945578231292516,0.13945578231292516,0.13945578231292516,0.03809527961575255,0.03809527961575255,0.03809527961575255,0.03741496598639456,0.03741496598639456,0.03741496598639456,0.03741496598639456,0.03741496598639456,0.03741496598639456,0.03741496598639456,0.03741496598639456,0.03741496598639456,0.03741496598639456,0.03741496598639456,0.03741496598639456,0.03741496598639456,0.03741496598639456,0.03741496598639456,0.03741496598639456,0.03741496598639456,0.03741496598639456,0.03741496598639456,0.03741496598639456,0.03741496598639456,0.03741496598639456,0.03741496598639456,0.03741496598639456,0.03741496598639456,0.03741496598639456,0.03741496598639456,0.03741496598639456,0.03741496598639456,0.03741496598639456,0.03741496598639456,0.03741496598639456,0.03741496598639456,0.03741496598639456,0.03741496598639456,0.03741496598639456,0.03741496598639456,0.03741496598639456,0.03741496598639456,0.03741496598639456,0.03741496598639456,0.03741496598639456,0.03741496598639456,0.03741496598639456,0.03741496598639456,0.03741496598639456,0.37278924020780185,0.37278924020780185,0.37278924020780185,0.3707482993197279,0.3707482993197279,0.3707482993197279,0.3707482993197279,0.3707482993197279,0.3707482993197279,0.3707482993197279,0.3707482993197279,0.3707482993197279,0.3707482993197279,0.3707482993197279,0.3707482993197279,0.3707482993197279,0.3707482993197279,0.3707482993197279,0.3707482993197279,0.3707482993197279,0.3707482993197279,0.3707482993197279,0.3707482993197279,0.3707482993197279,0.3707482993197279,0.3707482993197279,0.3707482993197279,0.3707482993197279,0.3707482993197279,0.3707482993197279,0.3707482993197279,0.3707482993197279,0.3707482993197279,0.3707482993197279,0.3707482993197279,0.3707482993197279,0.3707482993197279,0.3707482993197279,0.3707482993197279,0.3707482993197279,0.3707482993197279,0.3707482993197279,0.3707482993197279,0.3707482993197279,0.3707482993197279,0.3707482993197279,0.3707482993197279,0.3707482993197279,0.3707482993197279,0.3707482993197279,0.3707482993197279,0.3707482993197279,0.3707482993197279,0.3707482993197279,0.3707482993197279,0.3707482993197279,0.3707482993197279,0.3707482993197279,0.3707482993197279,0.3707482993197279,0.3707482993197279,0.3707482993197279,0.3707482993197279,0.3707482993197279,0.3707482993197279,0.3707482993197279,0.3707482993197279,0.3707482993197279,0.3707482993197279,0.3707482993197279,0.3707482993197279,0.3707482993197279,0.3707482993197279,0.3707482993197279,0.3707482993197279,0.3707482993197279,0.3707482993197279,0.3707482993197279,0.3707482993197279,0.3707482993197279,0.3707482993197279,0.3707482993197279,0.3707482993197279,0.3707482993197279,0.3707482993197279,0.3707482993197279,0.3707482993197279,0.3707482993197279,0.3707482993197279,0.3707482993197279,0.3707482993197279,0.3707482993197279,0.3707482993197279,0.3707482993197279,0.3707482993197279,0.3707482993197279,0.3707482993197279,0.3707482993197279,0.3707482993197279,0.3707482993197279,0.3707482993197279,0.3707482993197279,0.3707482993197279,0.3707482993197279,0.3707482993197279,0.3707482993197279,0.3707482993197279,0.3707482993197279,0.3707482993197279,0.3707482993197279,0.3707482993197279,0.3707482993197279,0.3707482993197279,0.3707482993197279,0.3707482993197279,0.3707482993197279,0.3707482993197279,0.3707482993197279,0.3707482993197279,0.3707482993197279,0.3707482993197279,0.3707482993197279,0.3707482993197279,0.3707482993197279,0.3707482993197279,0.3707482993197279,0.3707482993197279,0.3707482993197279,0.3707482993197279,0.3707482993197279,0.3707482993197279,0.3707482993197279,0.3707482993197279,0.3707482993197279,0.3707482993197279,0.3707482993197279,0.3707482993197279,0.3707482993197279,0.3707482993197279,0.3707482993197279,0.3707482993197279,0.3707482993197279,0.3707482993197279,0.3707482993197279,0.3707482993197279,0.3707482993197279,0.3707482993197279,0.3707482993197279,0.3707482993197279,0.3707482993197279,0.3707482993197279,0.3707482993197279,0.3707482993197279,0.3707482993197279,0.3707482993197279,0.3707482993197279,0.3707482993197279,0.3707482993197279,0.3707482993197279,0.3707482993197279,0.3707482993197279,0.3707482993197279,0.3707482993197279,0.3707482993197279,0.3707482993197279,0.3707482993197279,0.3707482993197279,0.3707482993197279,0.3707482993197279,0.3707482993197279,0.3707482993197279,0.3707482993197279,0.3707482993197279,0.3707482993197279,0.3707482993197279,0.3707482993197279,0.17687074829931973,0.17687074829931973,0.17687074829931973,0.17687074829931973,0.17687074829931973,0.17687074829931973,0.17687074829931973,0.17687074829931973,0.17687074829931973,0.17687074829931973,0.17687074829931973,0.17687074829931973,0.17687074829931973,0.17687074829931973,0.17687074829931973,0.17687074829931973,0.17687074829931973,0.17687074829931973,0.17687074829931973,0.17687074829931973,0.17687074829931973,0.17687074829931973,0.17687074829931973,0.17687074829931973,0.17687074829931973,0.17687074829931973,0.17687074829931973,0.17687074829931973,0.17687074829931973,0.17687074829931973,0.17687074829931973,0.17687074829931973,0.17687074829931973,0.17687074829931973,0.17687074829931973,0.17687074829931973,0.17687074829931973,0.17687074829931973,0.17687074829931973,0.17687074829931973,0.17687074829931973,0.17687074829931973,0.17687074829931973,0.17687074829931973,0.17687074829931973,0.17687074829931973,0.17687074829931973,0.17687074829931973,0.17687074829931973,0.17687074829931973,0.17687074829931973,0.17687074829931973,0.17687074829931973,0.17687074829931973,0.17687074829931973,0.17687074829931973,0.17687074829931973,0.17687074829931973,0.17687074829931973,0.17687074829931973,0.17687074829931973,0.17687074829931973,0.17687074829931973,0.17687074829931973,0.17687074829931973,0.17687074829931973,0.17687074829931973,0.17687074829931973,0.17687074829931973,0.17687074829931973,0.17687074829931973,0.17687074829931973,0.17687074829931973,0.17687074829931973,0.17687074829931973,0.17687074829931973,0.17687074829931973,0.17687074829931973,0.17687074829931973,0.17687074829931973,0.17687074829931973,0.17687074829931973,0.17687074829931973,0.17687074829931973,0.17687074829931973,0.17687074829931973,0.17687074829931973,0.17687074829931973,0.17687074829931973,0.17687074829931973,0.17687074829931973,0.17687074829931973,0.17687074829931973,0.17687074829931973,0.17687074829931973,0.17687074829931973,0.17687074829931973,0.17687074829931973,0.17687074829931973,0.17687074829931973,0.17687074829931973,0.17687074829931973,0.17687074829931973,0.17687074829931973,0.17687074829931973,0.17687074829931973,0.17687074829931973,0.17687074829931973,0.17687074829931973,0.17687074829931973,0.17687074829931973,0.17687074829931973,0.17687074829931973,0.17687074829931973,0.17687074829931973,0.17687074829931973,0.17687074829931973,0.17687074829931973,0.17687074829931973,0.17687074829931973,0.17687074829931973,0.17687074829931973,0.17687074829931973,0.17687074829931973,0.17687074829931973,0.17687074829931973,0.17687074829931973],"y":[-3.4285714285714284,-3.4285714285714284,-3.4285714285714284,-3.4285714285714284,-3.4285714285714284,-3.4285714285714284,-3.4285714285714284,-3.4285714285714284,-3.4285714285714284,-3.4285714285714284,-3.4285714285714284,-3.4285714285714284,-3.4285714285714284,-3.4285714285714284,-3.4285714285714284,-3.4285714285714284,-3.4285714285714284,-3.4285714285714284,-3.4285714285714284,-3.4285714285714284,-3.4285714285714284,-3.4285714285714284,-3.4285714285714284,-3.4285714285714284,-3.4285714285714284,-3.4285714285714284,-3.4285714285714284,-3.4285714285714284,-3.4285714285714284,-3.4285714285714284,-3.4285714285714284,-3.4285714285714284,-3.4285714285714284,-3.4285714285714284,-3.4285714285714284,-3.4285714285714284,-3.4285714285714284,-3.4285714285714284,-3.4285714285714284,-3.4285714285714284,-3.4285714285714284,-3.4285714285714284,-3.4285714285714284,-3.4285714285714284,-3.4285714285714284,-3.4285714285714284,-3.4285714285714284,-3.4285714285714284,-3.4285714285714284,-3.4285714285714284,-3.4285714285714284,-3.4285714285714284,-3.4285714285714284,-3.4285714285714284,-3.4285714285714284,-3.4285714285714284,-3.4285714285714284,-3.4285714285714284,-3.4285714285714284,-3.4285714285714284,-3.4285714285714284,-3.4285714285714284,-3.4285714285714284,-3.4285714285714284,-3.4285714285714284,-3.4285714285714284,-3.4285714285714284,-3.4285714285714284,-3.4285714285714284,-3.4285714285714284,-3.4285714285714284,-3.4285714285714284,-3.4285714285714284,-3.4285714285714284,-3.4285714285714284,-3.4285714285714284,-3.4285714285714284,-3.4285714285714284,-3.4285714285714284,-3.4285714285714284,-3.4285714285714284,-3.4285714285714284,-3.4285714285714284,-3.4285714285714284,-3.4285714285714284,-3.4285714285714284,-3.4285714285714284,-3.4285714285714284,-3.4285714285714284,-3.4285714285714284,-3.4285714285714284,-3.4285714285714284,-3.4285714285714284,-3.4285714285714284,-3.4285714285714284,-3.4285714285714284,-3.4285714285714284,-3.4285714285714284,-3.4285714285714284,-3.4285714285714284,-3.4285714285714284,-3.4285714285714284,-3.4285714285714284,-3.4285714285714284,-3.4285714285714284,-3.4285714285714284,-3.4285714285714284,-3.4285714285714284,-3.4285714285714284,-3.4285714285714284,-3.4285714285714284,-3.4285714285714284,-3.4285714285714284,-3.4285714285714284,-3.4285714285714284,-3.4285714285714284,-3.4285714285714284,-3.4285714285714284,-3.4285714285714284,-3.4285714285714284,-3.4285714285714284,-3.4285714285714284,-3.4285714285714284,-3.4285714285714284,-3.4285714285714284,-3.4285714285714284,-3.4285714285714284,-3.4285714285714284,-3.4285714285714284,-3.4285714285714284,-3.4285714285714284,-3.4285714285714284,-3.4285714285714284,-3.4285714285714284,-3.4285714285714284,-3.4285714285714284,-3.4285714285714284,-3.4285714285714284,-3.4285714285714284,-3.4285714285714284,-3.4285714285714284,-3.4285714285714284,-3.4285714285714284,-3.4285714285714284,-3.4285714285714284,-3.4285714285714284,-3.4285714285714284,-3.4285714285714284,-3.4285714285714284,-3.4285714285714284,-3.4285714285714284,-3.4285714285714284,-3.4285714285714284,-3.4285714285714284,-3.4285714285714284,-3.4285714285714284,-3.4285714285714284,-3.4285714285714284,-3.4285714285714284,-3.4285714285714284,-3.4285714285714284,-3.4285714285714284,-3.4285714285714284,-3.4285714285714284,-3.4285714285714284,-3.4285714285714284,-3.4285714285714284,-3.4285714285714284,-3.4285714285714284,-3.4285714285714284,-3.4285714285714284,-3.4285714285714284,-3.4285714285714284,-3.4285714285714284,-3.4285714285714284,-3.4285714285714284,-3.4285714285714284,-3.4285714285714284,-3.4285714285714284,-3.4285714285714284,-3.4285714285714284,-3.4285714285714284,-3.4285714285714284,-3.4285714285714284,-3.4285714285714284,-3.4285714285714284,-3.4285714285714284,-3.4285714285714284,-3.4285714285714284,-3.4285714285714284,-3.4285714285714284,-3.4285714285714284,-3.4285714285714284,-3.4285714285714284,-3.4285714285714284,-3.4285714285714284,-3.4285714285714284,-3.4285714285714284,-3.4285714285714284,-3.4285714285714284,-3.4285714285714284,-3.4285714285714284,-3.4285714285714284,-3.4285714285714284,-3.4285714285714284,-3.4285714285714284,-3.4285714285714284,-3.4285714285714284,-3.4285714285714284,-3.4285714285714284,-3.4285714285714284,-3.4285714285714284,-3.4285714285714284,-3.4285714285714284,-3.4285714285714284,-3.4285714285714284,-3.4285714285714284,-3.4285714285714284,-3.4285714285714284,-3.4285714285714284,-3.4285714285714284,-3.4285714285714284,-3.4285714285714284,-3.4285714285714284,-3.4285714285714284,-3.4285714285714284,-3.4285714285714284,-3.4285714285714284,-3.4285714285714284,-3.4285714285714284,-3.4285714285714284,-3.4285714285714284,-3.4285714285714284,-3.4285714285714284,-3.4285714285714284,-3.4285714285714284,-3.4285714285714284,-3.4285714285714284,-3.4285714285714284,-3.4285714285714284,-3.4285714285714284,-3.4285714285714284,-3.4285714285714284,-3.4285714285714284,-3.4285714285714284,-3.4285714285714284,-3.4285714285714284,-3.4285714285714284,-3.4285714285714284,-3.4285714285714284,-3.4285714285714284,-3.4285714285714284,-3.4285714285714284,-3.4285714285714284,-3.4285714285714284,-3.4285714285714284,-3.4285714285714284,-3.4285714285714284,-3.4285714285714284,-3.4285714285714284,-3.4285714285714284,-3.4285714285714284,-3.4285714285714284,-3.4285714285714284,-3.4285714285714284,-3.4285714285714284,-3.4285714285714284,-3.4285714285714284,-3.4285714285714284,-3.4285714285714284,-3.4285714285714284,-3.4285714285714284,-3.4285714285714284,-3.4285714285714284,-3.4285714285714284,-3.4285714285714284,-3.4285714285714284,-3.4285714285714284,-3.4285714285714284,-3.4285714285714284,-3.4285714285714284,-3.4285714285714284,-3.4285714285714284,-3.4285714285714284,-3.4285714285714284,-3.4285714285714284,-3.4285714285714284,-3.4285714285714284,-3.4285714285714284,-3.4285714285714284,-3.4285714285714284,-3.4285714285714284,-3.4285714285714284,-3.4285714285714284,-3.4285714285714284,-3.4285714285714284,-3.4285714285714284,-3.4285714285714284,-3.4285714285714284,-3.4285714285714284,-3.4285714285714284,-3.4285714285714284,-3.4285714285714284,-3.4285714285714284,-3.4285714285714284,-3.4285714285714284,-3.4285714285714284,-3.4285714285714284,-3.4285714285714284,-3.4285714285714284,-3.4285714285714284,-3.4285714285714284,-3.4285714285714284,-3.4285714285714284,-3.4285714285714284,-3.4285714285714284,-3.4285714285714284,-3.4285714285714284,-3.4285714285714284,-3.4285714285714284,-3.4285714285714284,-3.4285714285714284,-3.4285714285714284,-3.4285714285714284,-3.4285714285714284,-3.4285714285714284,-3.4285714285714284,-3.4285714285714284,-3.4285714285714284,-3.4285714285714284,-3.4285714285714284,-3.4285714285714284,-3.4285714285714284,-3.4285714285714284,-3.4285714285714284,-3.4285714285714284,-3.4285714285714284,-3.4285714285714284,-3.4285714285714284,-3.4285714285714284,-3.4285714285714284,-3.4285714285714284,-3.4285714285714284,-3.4285714285714284,-3.4285714285714284,-3.4285714285714284,-3.4285714285714284,-3.4285714285714284,-3.4285714285714284,-3.4285714285714284,-3.4285714285714284,-3.4285714285714284,-3.4285714285714284,-3.4285714285714284,-3.4285714285714284,-3.4285714285714284,-3.4285714285714284,-3.4285714285714284,-3.4285714285714284,-3.4285714285714284,-3.4285714285714284,-3.4285714285714284,-3.4285714285714284,-3.4285714285714284,-3.4285714285714284,-3.4285714285714284,-3.4285714285714284,-3.4285714285714284,-3.4285714285714284,-3.4285714285714284,-3.4285714285714284,-3.4285714285714284,-3.4285714285714284,-3.4285714285714284,-3.4285714285714284,-3.4285714285714284,-3.4285714285714284,-3.4285714285714284,-3.4285714285714284,-3.4285714285714284,-3.4285714285714284,-3.4285714285714284,-3.4285714285714284,-3.4285714285714284,-3.4285714285714284,-3.4285714285714284,-3.4285714285714284,-3.4285714285714284,-3.4285714285714284,-3.4285714285714284,-3.4285714285714284,-3.4285714285714284,-3.4285714285714284,-3.4285714285714284,-3.4285714285714284,-3.4285714285714284,-3.4285714285714284,-3.4285714285714284,-3.4285714285714284,-3.4285714285714284,-3.4285714285714284,-3.4285714285714284,-3.4285714285714284,-3.4285714285714284,-3.4285714285714284,-3.4285714285714284,-3.4285714285714284,-3.4285714285714284,-3.4285714285714284,-3.4285714285714284,-3.4285714285714284,-3.4285714285714284,-3.4285714285714284,-3.4285714285714284,-3.4285714285714284,-3.4285714285714284,-3.4285714285714284,-3.4285714285714284,-3.4285714285714284,-3.4285714285714284,-3.4285714285714284,-3.4285714285714284,-3.4285714285714284,-3.4285714285714284,-3.4285714285714284,-3.4285714285714284,-3.4285714285714284,-3.4285714285714284,-3.4285714285714284,-3.4285714285714284,-3.4285714285714284,-3.4285714285714284,-3.4285714285714284,-3.4285714285714284,-3.4285714285714284,-3.4285714285714284,-3.4285714285714284,-3.4285714285714284,-3.4285714285714284,-3.4285714285714284,-3.4285714285714284,-3.4285714285714284,-3.4285714285714284,-3.4285714285714284,-3.4285714285714284,-3.4285714285714284,-3.4285714285714284,-3.4285714285714284,-3.4285714285714284,-3.4285714285714284,-3.4285714285714284,-3.4285714285714284,-3.4285714285714284,-3.4285714285714284,-3.4285714285714284,-3.4285714285714284,-3.4285714285714284,-3.4285714285714284,-3.4285714285714284,-3.4285714285714284,-3.4285714285714284,-3.4285714285714284,-3.4285714285714284,-3.4285714285714284,-3.4285714285714284,-3.4285714285714284,-3.4285714285714284,-3.4285714285714284,-3.4285714285714284,-3.4285714285714284,-3.4285714285714284,-3.4285714285714284,-3.4285714285714284,-3.4285714285714284,-3.4285714285714284,-3.4285714285714284,-3.4285714285714284,-3.4285714285714284,-3.4285714285714284,-3.4285714285714284,-3.4285714285714284,-3.4285714285714284,-3.4285714285714284,-3.4285714285714284,-3.4285714285714284,-3.4285714285714284,-3.4285714285714284,-3.4285714285714284,-3.4285714285714284,-3.4285714285714284,-3.4285714285714284,-3.4285714285714284,-3.4285714285714284,-3.4285714285714284,-3.4285714285714284,-3.4285714285714284,-3.4285714285714284,-3.4285714285714284,-3.4285714285714284,-3.4285714285714284,-3.4285714285714284,-3.4285714285714284,-3.4285714285714284,-3.4285714285714284,-3.4285714285714284,-3.4285714285714284,-3.4285714285714284,-3.4285714285714284,-3.4285714285714284,-3.4285714285714284,-3.4285714285714284,-3.4285714285714284,-3.4285714285714284,-3.4285714285714284,-3.4285714285714284,-3.4285714285714284,-3.4285714285714284,-3.4285714285714284,-3.4285714285714284,-3.4285714285714284,-3.4285714285714284,-3.4285714285714284,-3.4285714285714284,-0.013333275204613096,-0.013333275204613096,-0.013333275204613096,-0.01904761904761905,-0.01904761904761905,-0.01904761904761905,-0.01904761904761905,-0.01904761904761905,-0.01904761904761905,-0.01904761904761905,-0.01904761904761905,-0.01904761904761905,-0.01904761904761905,-0.01904761904761905,-0.01904761904761905,-0.01904761904761905,-0.01904761904761905,-0.01904761904761905,-0.01904761904761905,-0.01904761904761905,-0.01904761904761905,-0.01904761904761905,-0.01904761904761905,-0.01904761904761905,-0.01904761904761905,-0.01904761904761905,-0.01904761904761905,-0.01904761904761905,-0.01904761904761905,-0.01904761904761905,-0.01904761904761905,-0.01904761904761905,-0.01904761904761905,-0.01904761904761905,-0.01904761904761905,-0.01904761904761905,-0.01904761904761905,-0.01904761904761905,-0.01904761904761905,-0.01904761904761905,-0.01904761904761905,-0.01904761904761905,-0.01904761904761905,-0.01904761904761905,-0.01904761904761905,-0.06666666666666667,-0.06666666666666667,-0.06666666666666667,-0.06666666666666667,-0.06666666666666667,-0.06666666666666667,-0.06666666666666667,-0.06666666666666667,-0.06666666666666667,-0.06666666666666667,-0.06666666666666667,-0.06666666666666667,-0.06666666666666667,-0.06666666666666667,-0.06666666666666667,-0.06666666666666667,-0.06666666666666667,-0.06666666666666667,-0.06666666666666667,-0.06666666666666667,-0.06666666666666667,-0.06666666666666667,-0.06666666666666667,-0.06666666666666667,-0.06666666666666667,-0.06666666666666667,-0.06666666666666667,-0.06666666666666667,-0.06666666666666667,-0.06666666666666667,-0.06666666666666667,-0.06666666666666667,-0.06666666666666667,-0.06666666666666667,-0.06666666666666667,-0.06666666666666667,-0.06666666666666667,-0.06666666666666667,-0.06666666666666667,-0.06666666666666667,-0.06666666666666667,-0.06666666666666667,-0.06666666666666667,-0.06666666666666667,-0.06666666666666667,-0.06666666666666667,-0.06666666666666667,-0.06666666666666667,-0.06666666666666667,-0.06666666666666667,-0.06666666666666667,-0.06666666666666667,-0.06666666666666667,-0.06666666666666667,-0.06666666666666667,-0.06666666666666667,-0.06666666666666667,-0.06666666666666667,-0.06666666666666667,-0.06666666666666667,-0.06666666666666667,-0.06666666666666667,-0.06666666666666667,-0.06666666666666667,-0.06666666666666667,-0.06666666666666667,-0.06666666666666667,-0.06666666666666667,-0.06666666666666667,-0.06666666666666667,-0.06666666666666667,0.6114286876860119,0.6114286876860119,0.6114286876860119,0.6114286876860119,0.6095238095238096,0.6095238095238096,0.6095238095238096,0.6095238095238096,0.6095238095238096,0.6095238095238096,0.6095238095238096,0.6095238095238096,0.6095238095238096,0.6095238095238096,0.6095238095238096,0.6095238095238096,0.6095238095238096,0.6095238095238096,0.6095238095238096,0.6095238095238096,0.6095238095238096,0.6095238095238096,0.6095238095238096,0.6095238095238096,0.6095238095238096,0.6095238095238096,0.6095238095238096,0.6095238095238096,0.6095238095238096,0.6095238095238096,0.6095238095238096,0.6095238095238096,0.6095238095238096,0.6095238095238096,0.6095238095238096,0.6095238095238096,0.6095238095238096,0.6095238095238096,0.6095238095238096,0.6095238095238096,0.6095238095238096,0.6095238095238096,0.6095238095238096,0.6095238095238096,0.6095238095238096,0.6095238095238096,0.6095238095238096,0.6095238095238096,0.6095238095238096,0.6095238095238096,0.6095238095238096,0.09333350771949404,0.09333350771949404,0.09333350771949404,0.08571428571428572,0.08571428571428572,0.08571428571428572,0.08571428571428572,0.08571428571428572,0.08571428571428572,0.08571428571428572,0.08571428571428572,0.08571428571428572,0.08571428571428572,0.08571428571428572,0.08571428571428572,0.08571428571428572,0.08571428571428572,0.08571428571428572,0.08571428571428572,0.08571428571428572,0.08571428571428572,0.08571428571428572,0.08571428571428572,0.08571428571428572,0.08571428571428572,0.08571428571428572,0.08571428571428572,0.08571428571428572,0.08571428571428572,0.08571428571428572,0.08571428571428572,0.08571428571428572,0.08571428571428572,0.08571428571428572,0.08571428571428572,0.08571428571428572,0.08571428571428572,0.08571428571428572,0.08571428571428572,0.08571428571428572,0.08571428571428572,0.08571428571428572,0.08571428571428572,0.08571428571428572,0.08571428571428572,0.08571428571428572,0.08571428571428572,0.08571428571428572,0.08571428571428572,0.08571428571428572,0.08571428571428572,0.08571428571428572,0.08571428571428572,0.08571428571428572,0.08571428571428572,0.08571428571428572,0.08571428571428572,0.08571428571428572,0.08571428571428572,0.08571428571428572,0.08571428571428572,0.08571428571428572,0.08571428571428572,0.08571428571428572,0.08571428571428572,0.08571428571428572,0.08571428571428572,0.08571428571428572,0.08571428571428572,0.08571428571428572,0.08571428571428572,0.08571428571428572,0.08571428571428572,0.08571428571428572,0.08571428571428572,0.08571428571428572,0.08571428571428572,0.08571428571428572,0.08571428571428572,0.08571428571428572,0.08571428571428572,0.08571428571428572,0.08571428571428572,0.08571428571428572,0.08571428571428572,0.08571428571428572,0.08571428571428572,0.08571428571428572,0.08571428571428572,0.08571428571428572,0.08571428571428572,0.08571428571428572,0.08571428571428572,0.08571428571428572,0.08571428571428572,0.08571428571428572,0.08571428571428572,0.08571428571428572,0.08571428571428572,0.08571428571428572,0.08571428571428572,0.08571428571428572,0.08571428571428572,0.08571428571428572,0.08571428571428572,0.08571428571428572,0.08571428571428572,0.08571428571428572,0.08571428571428572,0.08571428571428572,-0.07428559802827381,-0.07428559802827381,-0.07428559802827381,-0.07428559802827381,-0.07428559802827381,-0.07428559802827381,-0.07428559802827381,-0.0761904761904762,-0.0761904761904762,-0.0761904761904762,-0.0761904761904762,-0.0761904761904762,-0.0761904761904762,-0.0761904761904762,-0.0761904761904762,-0.0761904761904762,-0.0761904761904762,-0.0761904761904762,-0.0761904761904762,-0.0761904761904762,-0.0761904761904762,-0.0761904761904762,-0.0761904761904762,-0.0761904761904762,-0.0761904761904762,-0.0761904761904762,-0.0761904761904762,-0.0761904761904762,-0.0761904761904762,-0.0761904761904762,-0.0761904761904762,-0.0761904761904762,-0.0761904761904762,-0.0761904761904762,-0.0761904761904762,-0.0761904761904762,-0.0761904761904762,-0.0761904761904762,-0.0761904761904762,-0.0761904761904762,-0.0761904761904762,-0.0761904761904762,-0.0761904761904762,-0.0761904761904762,-0.0761904761904762,-0.0761904761904762,-0.0761904761904762,-0.0761904761904762,-0.0761904761904762,-0.0761904761904762,-0.0761904761904762,-0.0761904761904762,-0.0761904761904762,-0.0761904761904762,-0.0761904761904762,-0.0761904761904762,-0.0761904761904762,-0.0761904761904762,-0.0761904761904762,-0.0761904761904762,-0.0761904761904762,-0.0761904761904762,-0.0761904761904762,-0.0761904761904762,-0.0761904761904762,-0.0761904761904762,-0.0761904761904762,-0.0761904761904762,-0.0761904761904762,-0.0761904761904762,-0.0761904761904762,-0.0761904761904762,-0.0761904761904762,-0.0761904761904762,-0.0761904761904762,-0.0761904761904762,-0.0761904761904762,-0.0761904761904762,-0.05142851329985119,-0.05142851329985119,-0.05142851329985119,-0.05142851329985119,-0.05142851329985119,-0.05142851329985119,-0.05714285714285714,-0.05714285714285714,-0.05714285714285714,-0.05714285714285714,-0.05714285714285714,-0.05714285714285714,-0.05714285714285714,0.13904767717633928,0.13904767717633928,0.13904767717633928,0.13333333333333333,0.13333333333333333,0.13333333333333333,0.13333333333333333,0.13333333333333333,0.13333333333333333,0.13333333333333333,0.13333333333333333,0.13333333333333333,0.13333333333333333,-0.036190359933035716,-0.036190359933035716,-0.036190359933035716,-0.036190359933035716,-0.036190359933035716,-0.0380952380952381,-0.0380952380952381,-0.0380952380952381,-0.0380952380952381,-0.0380952380952381,-0.0380952380952381,-0.0380952380952381,-0.0380952380952381,-0.0380952380952381,-0.0380952380952381,-0.0380952380952381,-0.0380952380952381,-0.0380952380952381,-0.0380952380952381,-0.0380952380952381,-0.0380952380952381,-0.0380952380952381,-0.0380952380952381,-0.0380952380952381,-0.0380952380952381,-0.0380952380952381,-0.0380952380952381,-0.0380952380952381,-0.0380952380952381,-0.0380952380952381,0.42857142857142855,0.42857142857142855,0.42857142857142855,0.42857142857142855,0.42857142857142855,0.42857142857142855,0.42857142857142855,0.42857142857142855,0.42857142857142855,0.42857142857142855,0.42857142857142855,0.42857142857142855,0.42857142857142855,0.5580952962239584,0.5580952962239584,0.5580952962239584,0.5580952962239584,0.5523809523809524,0.5523809523809524,0.5523809523809524,0.5523809523809524,0.5523809523809524,0.5523809523809524,0.5523809523809524,0.5523809523809524,0.4666666666666667,0.4666666666666667,0.4666666666666667,0.4666666666666667,0.4666666666666667,0.4666666666666667,0.4666666666666667,0.4666666666666667,0.4666666666666667,0.4666666666666667,0.4666666666666667,0.4666666666666667,0.4666666666666667,0.4666666666666667,0.4666666666666667,0.4666666666666667,0.4666666666666667,0.4666666666666667,0.4666666666666667,0.4666666666666667,0.4666666666666667,0.4666666666666667,0.4666666666666667,0.4666666666666667,0.4666666666666667,0.4666666666666667,0.4666666666666667,0.4666666666666667,0.4666666666666667,0.4666666666666667,0.4666666666666667,0.4666666666666667,0.4666666666666667,0.4666666666666667,0.4666666666666667,0.4666666666666667,0.4666666666666667,0.4666666666666667,0.4666666666666667,0.4666666666666667,0.4666666666666667,0.4666666666666667,0.4666666666666667,0.44380958193824405,0.44380958193824405,0.44380958193824405,0.44380958193824405,0.44380958193824405,0.44380958193824405,0.4380952380952381,0.4380952380952381,0.4380952380952381,0.4380952380952381,0.4380952380952381,0.4380952380952381,0.4380952380952381,0.4380952380952381,0.4380952380952381,0.4380952380952381,0.5276189894903274,0.5276189894903274,0.5238095238095238,0.5238095238095238,0.5238095238095238,0.5238095238095238,0.5238095238095238,0.5238095238095238,0.5238095238095238,0.5238095238095238,0.5238095238095238,0.5238095238095238,0.5238095238095238,0.5238095238095238,0.5238095238095238,0.5238095238095238,0.5238095238095238,0.5238095238095238,0.5238095238095238,0.5238095238095238,0.5238095238095238,0.5580952962239584,0.5580952962239584,0.5580952962239584,0.5580952962239584,0.5523809523809524,0.5523809523809524,0.5523809523809524,0.5523809523809524,0.5523809523809524,0.5523809523809524,0.5523809523809524,0.5523809523809524,0.5523809523809524,0.5523809523809524,0.5523809523809524,0.5523809523809524,0.5523809523809524,0.5523809523809524,0.5523809523809524,0.5523809523809524,0.5523809523809524,0.5523809523809524,0.5523809523809524,0.5523809523809524,0.5523809523809524,0.5523809523809524,0.5523809523809524,0.5523809523809524,0.5523809523809524,0.5523809523809524,0.5523809523809524,0.5523809523809524,0.5523809523809524,0.5523809523809524,0.5523809523809524,0.5523809523809524,0.5523809523809524,0.5523809523809524,0.5523809523809524,0.5523809523809524,0.5523809523809524,0.9619047619047619,0.9619047619047619,0.9619047619047619,0.9619047619047619,0.9619047619047619,0.9619047619047619,0.9619047619047619,0.9619047619047619,0.9619047619047619,0.9619047619047619,0.9619047619047619,0.9619047619047619,0.9619047619047619,0.9619047619047619,0.9619047619047619,1.0228573753720238,1.0228573753720238,1.0228573753720238,1.0228573753720238,1.019047619047619,1.019047619047619,1.019047619047619,1.019047619047619,1.019047619047619,1.019047619047619,1.019047619047619,1.019047619047619,1.019047619047619,1.0457141694568453,1.0457141694568453,1.0457141694568453,1.0380952380952382,1.0380952380952382,1.0380952380952382,1.0380952380952382,1.0380952380952382,1.0380952380952382,1.0380952380952382,1.0380952380952382,1.0380952380952382,1.0380952380952382,1.0380952380952382,1.0380952380952382,1.0380952380952382,1.0380952380952382,1.0380952380952382,1.0380952380952382,1.0380952380952382,1.0380952380952382,1.0380952380952382,1.0380952380952382,1.0380952380952382,1.0380952380952382,1.0380952380952382,1.0380952380952382,1.0380952380952382,1.0380952380952382,1.0380952380952382,1.0380952380952382,1.0380952380952382,1.0380952380952382,1.0380952380952382,0.9771432059151786,0.9771432059151786,0.9771432059151786,0.9771432059151786,0.9714285714285714,0.9714285714285714,0.9714285714285714,0.9714285714285714,0.9714285714285714,0.9714285714285714,0.9714285714285714,0.9714285714285714,0.9714285714285714,1.1371430896577381,1.1371430896577381,1.1371430896577381,1.1371430896577381,1.1333333333333333,1.1333333333333333,1.1333333333333333,1.1333333333333333,1.1333333333333333,1.1333333333333333,1.1333333333333333,1.1333333333333333,1.1333333333333333,1.167619396391369,1.167619396391369,1.167619396391369,1.167619396391369,1.161904761904762,1.161904761904762,1.161904761904762,1.161904761904762,1.161904761904762,1.161904761904762,1.161904761904762,1.161904761904762,1.161904761904762,1.161904761904762,1.161904761904762,1.161904761904762,1.161904761904762,1.161904761904762,1.161904761904762,1.161904761904762,1.161904761904762,1.161904761904762,1.161904761904762,1.161904761904762,1.161904761904762,1.161904761904762,1.161904761904762,1.161904761904762,1.161904761904762,1.161904761904762,1.161904761904762,1.161904761904762,1.161904761904762,1.161904761904762,1.161904761904762,1.161904761904762,1.161904761904762,1.161904761904762,1.161904761904762,1.161904761904762,1.161904761904762,1.161904761904762,1.161904761904762,1.161904761904762,1.161904761904762,1.161904761904762,1.161904761904762,1.161904761904762,1.161904761904762,1.161904761904762,1.161904761904762,1.161904761904762,1.161904761904762,1.161904761904762,1.161904761904762,1.161904761904762,1.161904761904762,1.161904761904762,1.161904761904762,1.161904761904762,1.161904761904762,1.161904761904762,1.161904761904762,1.161904761904762,1.161904761904762,1.161904761904762,1.161904761904762,1.161904761904762,1.161904761904762,1.161904761904762,1.161904761904762,1.161904761904762,1.161904761904762,1.161904761904762,1.161904761904762,1.161904761904762,1.161904761904762,1.161904761904762,1.161904761904762,1.161904761904762,1.161904761904762,1.161904761904762,1.161904761904762,1.161904761904762,1.161904761904762,1.161904761904762,1.161904761904762,1.161904761904762,1.161904761904762,1.161904761904762,1.161904761904762,1.161904761904762,1.161904761904762,0.4514285132998512,0.4514285132998512,0.4514285132998512,0.4514285132998512,0.44761904761904764,0.44761904761904764,0.44761904761904764,0.44761904761904764,0.44761904761904764,0.44761904761904764,0.44761904761904764,0.44761904761904764,0.8704764229910714,0.8704764229910714,0.8704764229910714,0.8666666666666667,0.8666666666666667,0.8666666666666667,0.8666666666666667,0.8666666666666667,0.8666666666666667,0.8666666666666667,0.8666666666666667,0.8666666666666667,0.8666666666666667,0.8666666666666667,0.8666666666666667,0.8666666666666667,0.8666666666666667,0.8666666666666667,0.8666666666666667,0.8666666666666667,0.8666666666666667,0.8666666666666667,0.8666666666666667,0.8666666666666667,0.8666666666666667,0.8666666666666667,0.8666666666666667,0.8666666666666667,0.9771432059151786,0.9771432059151786,0.9771432059151786,0.9771432059151786,0.9771432059151786,0.9714285714285714,0.9714285714285714,0.9714285714285714,0.9714285714285714,0.9714285714285714,0.9714285714285714,0.9714285714285714,0.9714285714285714,0.9714285714285714,0.9714285714285714,0.9714285714285714,0.9714285714285714,0.9714285714285714,0.9714285714285714,0.9714285714285714,0.4895237513950893,0.4895237513950893,0.4895237513950893,0.4895237513950893,0.4895237513950893,0.4857142857142857,0.4857142857142857,0.4857142857142857,0.4857142857142857,0.4857142857142857,0.4857142857142857,0.4857142857142857,0.4857142857142857,0.4857142857142857,0.4857142857142857,0.4857142857142857,0.4857142857142857,0.4857142857142857,0.4857142857142857,0.4857142857142857,0.4857142857142857,0.4857142857142857,0.4857142857142857,0.4857142857142857,0.4857142857142857,0.4857142857142857,0.4857142857142857,0.4857142857142857,0.4857142857142857,0.4857142857142857,0.4857142857142857,0.4857142857142857,0.4857142857142857,0.4857142857142857,0.4857142857142857,0.4857142857142857,0.4857142857142857,0.4857142857142857,0.4857142857142857,0.4857142857142857,0.4857142857142857,0.4857142857142857,0.9314284551711309,0.9314284551711309,0.9314284551711309,0.9314284551711309,0.9314284551711309,0.9238095238095239,0.9238095238095239,0.9238095238095239,0.9238095238095239,0.9238095238095239,0.9238095238095239,0.9238095238095239,0.9238095238095239,0.9238095238095239,0.9238095238095239,0.9238095238095239,0.9238095238095239,0.9238095238095239,0.9238095238095239,0.9238095238095239,0.9238095238095239,0.9238095238095239,0.9238095238095239,0.9238095238095239,0.9238095238095239,0.9238095238095239,0.9238095238095239,0.9238095238095239,0.9238095238095239,0.9238095238095239,0.9238095238095239,0.9238095238095239,0.9238095238095239,0.9238095238095239,0.9238095238095239,0.9238095238095239,0.9542858305431547,0.9542858305431547,0.9542858305431547,0.9523809523809523,0.9523809523809523,0.9523809523809523,0.9523809523809523,0.9523809523809523,0.9523809523809523,0.9523809523809523,0.9523809523809523,0.9523809523809523,0.9523809523809523,0.9523809523809523,0.9523809523809523,0.9523809523809523,0.9523809523809523,0.9523809523809523,0.9523809523809523,0.9523809523809523,0.9523809523809523,0.9523809523809523,0.9523809523809523,0.9523809523809523,0.9523809523809523,0.9523809523809523,0.9523809523809523,0.9523809523809523,0.9523809523809523,0.9523809523809523,0.9523809523809523,0.9523809523809523,0.9523809523809523,0.9523809523809523,0.9523809523809523,0.9523809523809523,0.9523809523809523,0.9523809523809523,0.9523809523809523,0.9523809523809523,0.9523809523809523,0.9523809523809523,0.9523809523809523,0.9523809523809523,0.9523809523809523,0.9523809523809523,0.9523809523809523,0.9523809523809523,0.9523809523809523,0.047619047619047616,0.047619047619047616,0.047619047619047616,0.047619047619047616,0.047619047619047616,0.047619047619047616,0.047619047619047616,0.047619047619047616,0.047619047619047616,0.047619047619047616,0.047619047619047616,0.047619047619047616,0.047619047619047616,0.047619047619047616,0.047619047619047616,0.047619047619047616,0.047619047619047616,0.047619047619047616,0.047619047619047616,0.047619047619047616,0.047619047619047616,0.047619047619047616,0.047619047619047616,0.047619047619047616,0.047619047619047616,0.047619047619047616,0.047619047619047616,0.047619047619047616,0.047619047619047616,0.047619047619047616,0.047619047619047616,0.047619047619047616,0.047619047619047616,0.047619047619047616,0.047619047619047616,0.047619047619047616,0.047619047619047616,0.047619047619047616,0.047619047619047616,0.047619047619047616,0.047619047619047616,0.047619047619047616,0.047619047619047616,0.047619047619047616,0.047619047619047616,0.047619047619047616,0.047619047619047616,0.047619047619047616,0.047619047619047616,0.047619047619047616,0.047619047619047616,0.047619047619047616,0.047619047619047616,0.047619047619047616,0.047619047619047616,0.047619047619047616,0.047619047619047616,0.047619047619047616,0.047619047619047616,0.047619047619047616,0.047619047619047616,0.047619047619047616,0.047619047619047616,0.047619047619047616,0.047619047619047616,0.047619047619047616,0.047619047619047616,0.047619047619047616,0.047619047619047616,0.047619047619047616,0.047619047619047616,0.047619047619047616,0.047619047619047616,0.047619047619047616,0.047619047619047616,0.047619047619047616,0.047619047619047616,0.047619047619047616,0.047619047619047616,0.047619047619047616,0.047619047619047616,0.047619047619047616,0.047619047619047616,0.047619047619047616,0.047619047619047616,0.047619047619047616,0.047619047619047616,0.047619047619047616,0.047619047619047616,0.047619047619047616,0.047619047619047616,0.047619047619047616,0.047619047619047616,0.047619047619047616,0.047619047619047616,0.047619047619047616,0.047619047619047616,0.047619047619047616,0.047619047619047616,0.047619047619047616,0.047619047619047616,0.047619047619047616,0.047619047619047616,0.047619047619047616,0.047619047619047616,0.047619047619047616,0.047619047619047616,0.047619047619047616,0.047619047619047616,0.047619047619047616,0.047619047619047616,0.047619047619047616,0.047619047619047616,0.047619047619047616,0.047619047619047616,0.047619047619047616,0.047619047619047616,0.047619047619047616,0.047619047619047616,0.047619047619047616,0.047619047619047616,0.047619047619047616,0.047619047619047616,0.047619047619047616,0.047619047619047616,0.047619047619047616,0.047619047619047616,0.047619047619047616,0.047619047619047616,0.047619047619047616,0.047619047619047616,0.047619047619047616,0.047619047619047616,0.047619047619047616,0.047619047619047616,0.047619047619047616,0.047619047619047616,0.047619047619047616,0.047619047619047616,0.047619047619047616,0.047619047619047616,0.047619047619047616,0.047619047619047616,0.047619047619047616,0.047619047619047616,0.047619047619047616,0.047619047619047616,0.047619047619047616,0.047619047619047616,0.047619047619047616,0.047619047619047616,0.047619047619047616,0.047619047619047616,0.047619047619047616,0.047619047619047616,0.047619047619047616,0.047619047619047616,0.047619047619047616,0.047619047619047616,0.047619047619047616,0.047619047619047616,0.047619047619047616,0.047619047619047616,0.047619047619047616,0.047619047619047616,0.047619047619047616,0.047619047619047616,0.047619047619047616,0.047619047619047616,0.047619047619047616,0.047619047619047616,0.047619047619047616,0.047619047619047616,0.047619047619047616,0.047619047619047616,0.047619047619047616,0.024761962890625,0.024761962890625,0.024761962890625,0.024761962890625,0.024761962890625,0.01904761904761905,0.01904761904761905,0.01904761904761905,0.01904761904761905,0.01904761904761905,0.01904761904761905,0.01904761904761905,0.01904761904761905,0.01904761904761905,0.01904761904761905,0.01904761904761905,0.01904761904761905,0.01904761904761905,0.01904761904761905,0.01904761904761905,0.01904761904761905,0.01904761904761905,0.01904761904761905,0.01904761904761905,0.01904761904761905,0.01904761904761905,0.01904761904761905,0.01904761904761905,0.01904761904761905,0.01904761904761905,0.01904761904761905,0.01904761904761905,0.01904761904761905,0.01904761904761905,0.01904761904761905,0.01904761904761905,0.01904761904761905,0.01904761904761905,0.01904761904761905,0.01904761904761905,0.01904761904761905,0.01904761904761905,0.01904761904761905,0.01904761904761905,0.01904761904761905,0.01904761904761905,0.01904761904761905,0.01904761904761905,0.01904761904761905,0.01904761904761905,0.01904761904761905,0.01904761904761905,0.01904761904761905,0.01904761904761905,0.01904761904761905,0.01904761904761905,0.01904761904761905,0.01904761904761905,0.01904761904761905,0.01904761904761905,0.01904761904761905,0.01904761904761905,0.01904761904761905,0.01904761904761905,0.01904761904761905,0.01904761904761905,0.01904761904761905,0.01904761904761905,0.01904761904761905,0.01904761904761905,0.01904761904761905,0.01904761904761905,0.01904761904761905,0.01904761904761905,0.01904761904761905,0.01904761904761905,0.01904761904761905,0.01904761904761905,0.01904761904761905,0.01904761904761905,0.01904761904761905,0.01904761904761905,0.01904761904761905,0.01904761904761905,0.01904761904761905,0.01904761904761905,0.01904761904761905,0.01904761904761905,0.01904761904761905,0.01904761904761905,0.01904761904761905,0.01904761904761905,0.01904761904761905,0.01904761904761905,0.01904761904761905,0.01904761904761905,0.01904761904761905,0.01904761904761905,0.01904761904761905,0.01904761904761905,0.01904761904761905,0.01904761904761905,0.01904761904761905,0.01904761904761905,0.01904761904761905,0.01904761904761905,0.01904761904761905,0.01904761904761905,0.01904761904761905,0.01904761904761905,0.01904761904761905,0.01904761904761905,0.01904761904761905,0.01904761904761905,0.01904761904761905,0.01904761904761905,0.01904761904761905,0.01904761904761905,0.01904761904761905,0.01904761904761905,0.01904761904761905,0.01904761904761905,0.01904761904761905,0.01904761904761905,0.01904761904761905,0.01904761904761905,0.01904761904761905]},"final_keyboard_state":["C","A","M","E","I","F","H","R","Q","P","N","L","U","V","W","X","Y","Z","K","J","T","S","B"],"num_clicks":23,"points":-3,"cheat":false,"trial_type":"Hangman","trial_index":5,"time_elapsed":475632,"internal_node_id":"0.0-4.0","protocol_sum":"","subject_identifier":136,"subject_sum":[162,24,85,218,8,203,16,45,29,33,124,83,220,88,36,163,167,149,193,193,164,78,151,27,240,26,185,218,58,42,203,191],"subject_pair":68,"STUDY_ID":"669a702db1122fc5150a13ce","PROLIFIC_PID":"66745423e75fde5ccb81d42b","SESSION_ID":"669b3c605c9a0ab8c376540b","practice_instructions":1,"leaderboard_instructions":2,"bonus":0,"reveal_word":false,"self_rating":"3","confidence":"99"},{"view_history":"[{\"page_index\":0,\"viewing_time\":1800.800000011921},{\"page_index\":1,\"viewing_time\":1719.1000000238419}]","rt":3520.100000023842,"trial_type":"instructions","trial_index":6,"time_elapsed":479154,"internal_node_id":"0.0-5.0","protocol_sum":"","subject_identifier":136,"subject_sum":[162,24,85,218,8,203,16,45,29,33,124,83,220,88,36,163,167,149,193,193,164,78,151,27,240,26,185,218,58,42,203,191],"subject_pair":68,"STUDY_ID":"669a702db1122fc5150a13ce","PROLIFIC_PID":"66745423e75fde5ccb81d42b","SESSION_ID":"669b3c605c9a0ab8c376540b","practice_instructions":1,"leaderboard_instructions":2,"bonus":0,"reveal_word":false,"self_rating":"3","confidence":"99"},{"rt":3375.100000023842,"responses":"{\"Q0\":\"\"}","question_order":"[0]","trial_type":"survey-multi-choice","trial_index":7,"time_elapsed":482530,"internal_node_id":"0.0-6.0","protocol_sum":"","subject_identifier":136,"subject_sum":[162,24,85,218,8,203,16,45,29,33,124,83,220,88,36,163,167,149,193,193,164,78,151,27,240,26,185,218,58,42,203,191],"subject_pair":68,"correct":false,"test_part":"multichoice_leaderboard","STUDY_ID":"669a702db1122fc5150a13ce","PROLIFIC_PID":"66745423e75fde5ccb81d42b","SESSION_ID":"669b3c605c9a0ab8c376540b","practice_instructions":1,"leaderboard_instructions":2,"bonus":0,"reveal_word":false,"self_rating":"3","confidence":"99"},{"view_history":"[{\"page_index\":0,\"viewing_time\":2245.300000011921}]","rt":2245.5,"trial_type":"instructions","trial_index":8,"time_elapsed":484776,"internal_node_id":"0.0-7.0-0.0","protocol_sum":"","subject_identifier":136,"subject_sum":[162,24,85,218,8,203,16,45,29,33,124,83,220,88,36,163,167,149,193,193,164,78,151,27,240,26,185,218,58,42,203,191],"subject_pair":68,"STUDY_ID":"669a702db1122fc5150a13ce","PROLIFIC_PID":"66745423e75fde5ccb81d42b","SESSION_ID":"669b3c605c9a0ab8c376540b","practice_instructions":1,"leaderboard_instructions":2,"bonus":0,"reveal_word":false,"self_rating":"3","confidence":"99"},{"rt":8860.099999964237,"responses":"{\"Q0\":\"...from <b>a previous session</b> that is not part of the upcoming tournament.\"}","question_order":"[0]","trial_type":"survey-multi-choice","trial_index":9,"time_elapsed":493637,"internal_node_id":"0.0-7.0-1.0","protocol_sum":"","subject_identifier":136,"subject_sum":[162,24,85,218,8,203,16,45,29,33,124,83,220,88,36,163,167,149,193,193,164,78,151,27,240,26,185,218,58,42,203,191],"subject_pair":68,"correct":true,"test_part":"multichoice_leaderboard","STUDY_ID":"669a702db1122fc5150a13ce","PROLIFIC_PID":"66745423e75fde5ccb81d42b","SESSION_ID":"669b3c605c9a0ab8c376540b","practice_instructions":1,"leaderboard_instructions":2,"bonus":0,"reveal_word":false,"self_rating":"3","confidence":"99"},{"view_history":"[{\"page_index\":0,\"viewing_time\":14938.899999976158}]","rt":14939.099999964237,"trial_type":"instructions","trial_index":10,"time_elapsed":508578,"internal_node_id":"0.0-8.0","protocol_sum":"","subject_identifier":136,"subject_sum":[162,24,85,218,8,203,16,45,29,33,124,83,220,88,36,163,167,149,193,193,164,78,151,27,240,26,185,218,58,42,203,191],"subject_pair":68,"STUDY_ID":"669a702db1122fc5150a13ce","PROLIFIC_PID":"66745423e75fde5ccb81d42b","SESSION_ID":"669b3c605c9a0ab8c376540b","practice_instructions":1,"leaderboard_instructions":2,"bonus":0,"reveal_word":false,"self_rating":"3","confidence":"99"},{"rt":6405.300000011921,"responses":"{\"Q0\":\"...how well players did (in terms of <b>points</b>) in <b>previous games.</b>\"}","question_order":"[0]","trial_type":"survey-multi-choice","trial_index":11,"time_elapsed":514984,"internal_node_id":"0.0-9.0","protocol_sum":"","subject_identifier":136,"subject_sum":[162,24,85,218,8,203,16,45,29,33,124,83,220,88,36,163,167,149,193,193,164,78,151,27,240,26,185,218,58,42,203,191],"subject_pair":68,"correct":false,"test_part":"multichoice_tournament","STUDY_ID":"669a702db1122fc5150a13ce","PROLIFIC_PID":"66745423e75fde5ccb81d42b","SESSION_ID":"669b3c605c9a0ab8c376540b","practice_instructions":1,"leaderboard_instructions":2,"bonus":0,"reveal_word":false,"self_rating":"3","confidence":"99"},{"view_history":"[{\"page_index\":0,\"viewing_time\":1029.300000011921}]","rt":1029.3999999761581,"trial_type":"instructions","trial_index":12,"time_elapsed":516015,"internal_node_id":"0.0-10.0-0.0","protocol_sum":"","subject_identifier":136,"subject_sum":[162,24,85,218,8,203,16,45,29,33,124,83,220,88,36,163,167,149,193,193,164,78,151,27,240,26,185,218,58,42,203,191],"subject_pair":68,"STUDY_ID":"669a702db1122fc5150a13ce","PROLIFIC_PID":"66745423e75fde5ccb81d42b","SESSION_ID":"669b3c605c9a0ab8c376540b","practice_instructions":1,"leaderboard_instructions":2,"bonus":0,"reveal_word":false,"self_rating":"3","confidence":"99"},{"rt":2356.399999976158,"responses":"{\"Q0\":\"...players' leaderboard position (in terms of <b>speed</b>) in an <b>upcoming tournament.</b>\"}","question_order":"[0]","trial_type":"survey-multi-choice","trial_index":13,"time_elapsed":518372,"internal_node_id":"0.0-10.0-1.0","protocol_sum":"","subject_identifier":136,"subject_sum":[162,24,85,218,8,203,16,45,29,33,124,83,220,88,36,163,167,149,193,193,164,78,151,27,240,26,185,218,58,42,203,191],"subject_pair":68,"correct":false,"test_part":"multichoice_tournament","STUDY_ID":"669a702db1122fc5150a13ce","PROLIFIC_PID":"66745423e75fde5ccb81d42b","SESSION_ID":"669b3c605c9a0ab8c376540b","practice_instructions":1,"leaderboard_instructions":2,"bonus":0,"reveal_word":false,"self_rating":"3","confidence":"99"},{"view_history":"[{\"page_index\":0,\"viewing_time\":3472.099999964237}]","rt":3472.199999988079,"trial_type":"instructions","trial_index":14,"time_elapsed":521846,"internal_node_id":"0.0-10.1-0.1","protocol_sum":"","subject_identifier":136,"subject_sum":[162,24,85,218,8,203,16,45,29,33,124,83,220,88,36,163,167,149,193,193,164,78,151,27,240,26,185,218,58,42,203,191],"subject_pair":68,"STUDY_ID":"669a702db1122fc5150a13ce","PROLIFIC_PID":"66745423e75fde5ccb81d42b","SESSION_ID":"669b3c605c9a0ab8c376540b","practice_instructions":1,"leaderboard_instructions":2,"bonus":0,"reveal_word":false,"self_rating":"3","confidence":"99"},{"rt":6987.799999952316,"responses":"{\"Q0\":\"...players' leaderboard position (in terms of <b>points</b>) in an <b>upcoming tournament.</b>\"}","question_order":"[0]","trial_type":"survey-multi-choice","trial_index":15,"time_elapsed":528835,"internal_node_id":"0.0-10.1-1.1","protocol_sum":"","subject_identifier":136,"subject_sum":[162,24,85,218,8,203,16,45,29,33,124,83,220,88,36,163,167,149,193,193,164,78,151,27,240,26,185,218,58,42,203,191],"subject_pair":68,"correct":true,"test_part":"multichoice_tournament","STUDY_ID":"669a702db1122fc5150a13ce","PROLIFIC_PID":"66745423e75fde5ccb81d42b","SESSION_ID":"669b3c605c9a0ab8c376540b","practice_instructions":1,"leaderboard_instructions":2,"bonus":0,"reveal_word":false,"self_rating":"3","confidence":"99"},{"view_history":"[{\"page_index\":0,\"viewing_time\":91153.5}]","rt":91153.60000002384,"trial_type":"instructions","trial_index":16,"time_elapsed":619989,"internal_node_id":"0.0-11.0","protocol_sum":"","subject_identifier":136,"subject_sum":[162,24,85,218,8,203,16,45,29,33,124,83,220,88,36,163,167,149,193,193,164,78,151,27,240,26,185,218,58,42,203,191],"subject_pair":68,"STUDY_ID":"669a702db1122fc5150a13ce","PROLIFIC_PID":"66745423e75fde5ccb81d42b","SESSION_ID":"669b3c605c9a0ab8c376540b","practice_instructions":1,"leaderboard_instructions":2,"bonus":0,"reveal_word":false,"self_rating":"3","confidence":"99"},{"view_history":"[{\"page_index\":0,\"viewing_time\":7943.300000011921}]","rt":7943.5,"trial_type":"instructions","trial_index":17,"time_elapsed":627933,"internal_node_id":"0.0-12.0-0.0","protocol_sum":"","subject_identifier":136,"subject_sum":[162,24,85,218,8,203,16,45,29,33,124,83,220,88,36,163,167,149,193,193,164,78,151,27,240,26,185,218,58,42,203,191],"subject_pair":68,"STUDY_ID":"669a702db1122fc5150a13ce","PROLIFIC_PID":"66745423e75fde5ccb81d42b","SESSION_ID":"669b3c605c9a0ab8c376540b","practice_instructions":1,"leaderboard_instructions":2,"bonus":0,"reveal_word":false,"self_rating":"3","confidence":"99"},{"word":"THIRTY FOUR","click_log":{"letter":["","E","O","F","U","R","T","W","H","I","Y"],"t":[0,5225.399999976158,8581.099999964237,13428.199999988079,15546.099999964237,17842.099999964237,22865.19999998808,25346.899999976158,28995.399999976158,30276.5,32591.899999976158],"hit":[null,0,1,1,1,2,2,0,1,1,1],"asked":["","E","EO","EOF","EOFU","EOFUR","EOFURT","EOFURTW","EOFURTWH","EOFURTWHI","EOFURTWHIY"],"word_state":["______ ____","______ ____","______ _O__","______ FO__","______ FOU_","___R__ FOUR","T__RT_ FOUR","T__RT_ FOUR","TH_RT_ FOUR","THIRT_ FOUR","THIRTY FOUR"]},"hover_log":{"letter":["?","?","?","?","?","?","?","?","?","?","?","?","?","?","?","?","?","?","?","?","?","?","?","?","?","?","?","?","?","?","?","?","?","?","?","?","?","?","?","?","?","?","?","?","?","?","?","?","?","?","?","?","?","?","?","?","?","?","?","?","?","?","?","?","?","?","?","?","?","?","?","?","?","?","?","?","?","?","?","?","?","?","?","?","?","?","?","?","?","?","?","?","?","?","?","?","?","?","?","?","?","?","?","?","?","?","?","?","?","?","?","?","?","?","?","?","?","?","?","?","?","?","?","?","?","?","?","?","?","?","?","?","?","?","?","?","?","?","?","?","?","?","?","?","?","?","?","?","?","?","?","?","?","?","?","?","?","?","?","?","?","?","?","?","?","?","?","?","?","?","?","?","?","?","?","?","?","?","?","?","?","?","?","?","?","?","?","?","?","?","?","?","?","?","?","?","?","?","?","?","?","?","?","?","?","?","?","?","?","?","?","?","?","?","?","?","?","?","?","?","?","?","?","?","?","?","?","?","?","?","?","?","?","?","?","?","?","?","?","?","?","?","?","?","?","?","?","?","?","?","?","?","?"