[{"success":true,"trial_type":"fullscreen","trial_index":0,"time_elapsed":5577,"internal_node_id":"0.0-0.0","protocol_sum":"","subject_identifier":531,"subject_sum":[118,139,132,239,5,246,85,213,127,226,45,72,132,81,240,117,54,95,108,209,138,19,7,52,102,170,130,108,192,235,219,251],"subject_pair":265,"STUDY_ID":"66a3ed3c5d10d0e7d8a6b9da","PROLIFIC_PID":"63d2eec88a81e2462be70762","SESSION_ID":"66a46c9fd781a86c8d1d0352","practice_instructions":1,"leaderboard_instructions":0,"bonus":0,"reveal_word":true,"self_rating":"3","confidence":"63"},{"view_history":"[{\"page_index\":0,\"viewing_time\":4270.70000000298}]","rt":4272.300000000745,"trial_type":"instructions","trial_index":1,"time_elapsed":9852,"internal_node_id":"0.0-1.0","protocol_sum":"","subject_identifier":531,"subject_sum":[118,139,132,239,5,246,85,213,127,226,45,72,132,81,240,117,54,95,108,209,138,19,7,52,102,170,130,108,192,235,219,251],"subject_pair":265,"STUDY_ID":"66a3ed3c5d10d0e7d8a6b9da","PROLIFIC_PID":"63d2eec88a81e2462be70762","SESSION_ID":"66a46c9fd781a86c8d1d0352","practice_instructions":1,"leaderboard_instructions":0,"bonus":0,"reveal_word":true,"self_rating":"3","confidence":"63"},{"view_history":"[{\"page_index\":0,\"viewing_time\":181180.19999999925}]","rt":181180.69999999925,"trial_type":"instructions","trial_index":2,"time_elapsed":191035,"internal_node_id":"0.0-2.0-0.0","protocol_sum":"","subject_identifier":531,"subject_sum":[118,139,132,239,5,246,85,213,127,226,45,72,132,81,240,117,54,95,108,209,138,19,7,52,102,170,130,108,192,235,219,251],"subject_pair":265,"STUDY_ID":"66a3ed3c5d10d0e7d8a6b9da","PROLIFIC_PID":"63d2eec88a81e2462be70762","SESSION_ID":"66a46c9fd781a86c8d1d0352","practice_instructions":1,"leaderboard_instructions":0,"bonus":0,"reveal_word":true,"self_rating":"3","confidence":"63"},{"rt":7307.699999999255,"responses":"{\"Q0\":\"... reveal the word with as <b>few letter guesses</b> as possible\"}","question_order":"[0]","trial_type":"survey-multi-choice","trial_index":3,"time_elapsed":198347,"internal_node_id":"0.0-2.0-1.0","protocol_sum":"","subject_identifier":531,"subject_sum":[118,139,132,239,5,246,85,213,127,226,45,72,132,81,240,117,54,95,108,209,138,19,7,52,102,170,130,108,192,235,219,251],"subject_pair":265,"correct":true,"test_part":"multichoice_nonpretend","STUDY_ID":"66a3ed3c5d10d0e7d8a6b9da","PROLIFIC_PID":"63d2eec88a81e2462be70762","SESSION_ID":"66a46c9fd781a86c8d1d0352","practice_instructions":1,"leaderboard_instructions":0,"bonus":0,"reveal_word":true,"self_rating":"3","confidence":"63"},{"view_history":"[{\"page_index\":0,\"viewing_time\":1787.2999999970198}]","rt":1787.7999999970198,"trial_type":"instructions","trial_index":4,"time_elapsed":200138,"internal_node_id":"0.0-3.0","protocol_sum":"","subject_identifier":531,"subject_sum":[118,139,132,239,5,246,85,213,127,226,45,72,132,81,240,117,54,95,108,209,138,19,7,52,102,170,130,108,192,235,219,251],"subject_pair":265,"STUDY_ID":"66a3ed3c5d10d0e7d8a6b9da","PROLIFIC_PID":"63d2eec88a81e2462be70762","SESSION_ID":"66a46c9fd781a86c8d1d0352","practice_instructions":1,"leaderboard_instructions":0,"bonus":0,"reveal_word":true,"self_rating":"3","confidence":"63"},{"word":"ZEBRA","click_log":{"letter":["","H","S","Z","E","B","R","A"],"t":[0,40817,53392.599999997765,63828.39999999851,66306,67926.39999999851,69326.5,70697.89999999851],"hit":[null,0,0,1,1,1,1,1],"asked":["","H","HS","HSZ","HSZE","HSZEB","HSZEBR","HSZEBRA"],"word_state":["_____","_____","_____","Z____","ZE___","ZEB__","ZEBR_","ZEBRA"]},"hover_log":{"letter":["?","?","?","?","?","?","?","?","?","?","?","?","?","?","?","?","?","?","?","?","?","?","J","J","J","?","?","S","S","S","?","?","?","?","?","?","?","?","?","?","?","?","?","?","?","?","?","?","?","?","?","?","?","?","?","?","?","?","?","?","?","?","?","?","?","?","?","?","?","?","?","?","?","?","?","?","?","?","?","?","?","?","?","?","?","?","?","?","?","?","?","?","?","?","?","?","?","?","?","?","?","?","?","?","?","?","?","?","?","?","?","?","?","?","?","?","?","?","?","?","?","?","?","?","?","?","?","?","?","?","?","?","?","?","?","?","?","?","?","?","?","?","?","?","?","?","?","?","?","?","?","?","?","?","?","?","?","?","?","?","?","?","?","?","?","?","?","?","?","?","?","?","?","?","?","?","?","?","?","?","?","?","?","?","?","?","?","?","?","?","S","?","?","?","?","?","?","?","?","?","?","?","?","?","?","?","?","?","?","?","?","?","?","?","?","?","?","?","?","?","?","?","?","?","?","?","?","?","?","?","?","?","?","?","?","?","?","?","?","?","?","?","?","?","?","?","?","?","?","?","?","?","?","?","?","?","?","?","?","?","?","?","?","?","?","?","?","?","?","?","?","?","?","?","?","?","?","?","?","?","?","?","?","?","?","?","?","?","?","?","?","?","?","?","?","?","?","?","?","?","?","?","?","?","?","?","?","?","?","?","?","?","?","?","?","?","?","?","?","?","?","?","?","?","?","?","?","?","?","?","?","?","?","?","?","?","?","?","?","?","?","?","?","?","?","?","?","?","?","?","?","?","?","?","?","?","?","?","?","?","?","?","?","?","?","?","?","?","?","?","?","?","?","?","?","?","?","?","?","?","?","?","?","?","?","?","?","?","?","?","?","?","?","?","?","?","?","?","?","?","?","?","?","?","?","?","?","?","?","?","?","?","?","?","?","?","?","?","?","?","?","?","?","?","?","?","?","?","?","?","?","?","?","?","?","?","?","?","?","?","?","?","?","?","?","?","?","?","?","?","?","?","?","?","?","?","?","?","?","?","?","?","?","?","?","?","?","?","?","?","?","?","?","?","?","?","?","?","?","?","?","?","?","?","?","?","?","?","?","?","?","?","?","?","?","?","?","?","?","?","?","?","?","?","?","?","?","?","?","?","?","?","?","?","?","?","?","?","?","?","?","?","?","?","?","?","?","?","?","?","?","?","?","?","?","?","?","?","?","?","?","?","?","?","?","?","?","?","?","?","?","?","?","?","?","?","?","?","?","?","?","?","?","?","?","?","?","?","?","?","?","?","?","?","?","?","?","?","?","?","?","?","?","?","?","?","?","?","?","?","?","?","?","?","?","?","?","?","?","?","?","?","?","?","?","?","?","?","?","?","?","?","?","?","?","?","?","?","?","?","?","?","?","?","?","?","?","?","?","?","?","?","?","?","?","?","?","?","?","?","?","?","?","?","?","?","?","?","?","?","?","?","?","?","?","?","?","?","?","?","?","?","?","?","?","?","?","?","?","?","?","?","?","?","?","?","?","?","?","?","?","?","?","?","?","?","?","?","?","?","?","?","?","?","?","?","?","?","?","?","?","?","?","?","?","?","?","?","?","?","?","?","?","?","?","?","?","?","?","?","?","?","?","?","?","?","?","?","?","?","?","?","?","?","?","?","?","?","?","?","?","?","?","?","?","?","?","?","?","?","?","?","?","?","?","?","?","?","?","?","?","?","?","?","?","?","?","?","?","?","?","?","?","?","?","?","?","?","?","?","?","?","?","?","?","?","?","?","?","?","?","?","?","?","?","?","?","?","?","?","?","?","?","?","?","?","?","?","?","?","?","?","?","?","?","?","?","?","?","?","?","?","?","?","?","?","?","?","?","?","?","?","?","?","?","?","?","?","?","?","?","?","?","?","?","?","?","?","?","?","?","?","?","?","?","?","?","?","?","?","?","?","?","?","?","?","?","?","?","?","?","?","?","?","?","?","?","?","?","?","?","?","?","?","?","?","?","?","?","?","?","?","?","?","?","?","?","?","?","?","?","?","?","?","?","?","?","?","?","?","?","?","?","?","?","?","?","?","?","?","?","?","?","?","?","?","?","?","?","?","?","?","?","?","?","?","?","?","?","?","?","?","?","?","?","?","?","?","?","?","?","?","?","?","?","?","?","?","?","?","?","?","?","?","?","?","?","?","?","?","?","?","?","?","?","?","?","?","?","?","?","?","?","?","?","?","?","?","?","?","?","?","?","?","?","?","?","?","?","?","?","?","?","?","?","?","?","?","?","?","?","?","?","?","?","?","?","?","?","?","?","?","?","?","?","?","?","?","?","?","?","?","?","?","?","?","?","?","?","?","?","?","?","?","?","?","?","?","?","?","?","?","?","?","?","?","?","?","?","?","?","?","?","?","?","?","?","?","?","?","?","?","?","?","?","?","?","?","?","?","?","?","?","?","?","?","?","?","?","?","?","?","?","?","?","?","?","?","?","?","?","?","?","?","?","?","?","?","?","?","?","?","?","?","?","?","?","?","?","?","?","?","?","?","?","?","?","?","?","?","?","?","?","?","?","?","?","?","?","?","?","?","?","?","?","?","?","?","?","?","?","?","?","?","?","?","?","?","?","?","?","?","?","?","?","?","?","?","?","?","?","?","?","?","?","?","?","?","?","?","?","?","?","?","?","?","?","?","?","?","?","?","?","?","?","?","?","?","?","?","?","?","?","?","?","?","?","?","?","?","?","?","?","?","?","?","?","?","?","?","?","?","?","?","?","?","?","?","?","?","?","?","?","?","?","?","?","?","?","?","?","?","?","?","?","?","?","?","?","?","?","?","?","?","?","?","?","?","?","?","?","?","?","?","?","?","?","?","?","?","?","?","?","?","?","?","?","?","?","?","?","?","?","?","?","?","?","?","?","?","?","?","?","?","?","?","?","?","?","?","?","?","?","?","?","?","?","?","?","?","?","?","?","?","?","?","?","?","?","?","?","?","?","?","?","?","?","?","?","?","?","?","?","?","?","?","?","?","?","?","?","?","?","?","?","?","?","?","?","?","?","?","?","?","?","?","?","?","?","?","?","?","?","?","?","?","?","?","?","?","?","?","?","?","?","?","?","?","?","?","?","?","?","?","?","?","?","?","?","?","?","?","?","?","?","?","?","?","?","?","?","?","?","?","?","?","?","?","?","?","?","?","?","?","?","?","?","?","?","?","?","?","?","?","?","?","?","?","?","?","?","?","?","?","?","?","?","?","?","?","?","?","?","?","?","?","?","?","?","?","?","?","?","?","?","?","?","?","?","?","?","?","?","?","?","?","?","?","?","?","?","?","?","?","?","?","?","?","?","?","?","?","?","?","?","?","?","?","?","?","?","?","?","?","?","?","?","?","?","?","?","?","?","?","?","?","?","?","?","?","?","?","?","?","?","?","?","?","?","?","?","?","?","?","?","?","?","?","?","?","?","?","?","?","?","?","?","?","?","?","?","?","?","?","?","?","?","?","?","?","?","?","?","?","?","?","?","?","?","?","?","?","?","?","?","?","?","?","?","?","?","?","?","?","?","?","?","?","?","?","?","?","?","?","?","?","?","?","?","?","?","?","?","?","?","?","?","?","?","?","?","?","?","?","?","?","?","?","?","?","?","?","?","?","?","?","?","?","?","?","?","?","?","?","?","?","?","?","?","?","?","?","?","?","?","?","?","?","?","?","?","?","?","?","?","?","?","?","?","?","?","?","?","?","?","?","?","?","?","?","?","?","?","?","?","?","?","?","?","?","?","?","?","?","?","?","?","?","?","?","?","?","?","?","?","?","?","?","?","?","?","?","?","?","?","?","?","?","?","?","?","?","?","?","?","?","?","?","?","?","?","?","?","?","?","?","?","?","?","?","?","?","?","?","?","?","?","?","?","?","?","?","?","?","?","?","?","?","?","?","?","?","?","?","?","?","?","?","?","?","?","?","?","?","?","?","?","?","?","?","?","?","?","?","?","?","?","?","?","?","?","?","?","?","?","?","?","?","?","?","?","?","?","?","?","?","?","?","?","?","?","?","?","?","?","?","?","?","?","?","?","?","?","?","?","?","?","?","?","?","?","?","?","?","?","?","?","?","?","?","?","?","?","?","?","?","?","?","?","?","?","?","?","?","?","?","?","?","?","?","?","?","?","?","?","?","?","?","?","?","?","?","?","?","?","?","?","?","?","?","?","?","?","?","?","?","?","?","?","?","?","?","?","?","?","?","?","?","?","?","?","?","?","?","?","?","?","?","?","?","?","?","?","?","?","?","?","?","?","?","?","?","?","?","?","?","?","?","?","?","?","?","?","?","?","?","?","?","?","?","?","?","?","?","?","?","?","?","?","?","?","?","?","?","?","?","?","?","?","?","?","?","?","?","?","?","?","?","?","?","?","?","?","?","?","?","?","?","?","?","?","?","?","?","?","?","?","?","?","?","?","?","?","?","?","?","?","?","?","?","?","?","?","?","?","?","?","?","?","?","?","?","?","?","?","?","?","?","?","?","?","?","?","?","?","?","?","?","?","?","?","?","?","?","?","?","?","?","?","?","?","?","?","?","?","?","?","?","?","?","?","?","?","?","?","?","?","?","?","?","?","?","?","?","?","?","?","?","?","?","?","?","?","?","?","?","?","?","?","?","?","?","?","?","?","?","?","?","?","?","?","?","?","?","?","?","?","?","?","?","?","?","?","?","?","?","?","?","?","?","?","?","?","?","?","?","?","?","?","?","?","?","?","?","?","?","?","?","?","?","?","?","?","?","?","?","?","?","?","?","?","?","?","?","?","?","?","?","?","?","?","?","?","?","?","?","?","?","?","?","?","?","?","?","?","?","?","?","?","?","?","?","?","?","?","?","?","?","?","?","?","?","?","?","?","?","?","?","?","?","?","?","?","?","?","?","?","?","?","?","?","?","?","?","?","?","?","?","?","?","?","?","?","?","?","?","?","?","?","?","?","?","?","?","?","?","?","?","?","?","?","?","?","?","?","?","?","?","?","?","?","?","?","?","?","?","?","?","?","?","?","?","?","?","?","?","?","?","?","?","?","?","?","?","?","?","?","?","?","?","?","?","?","?","?","?","?","?","?","?","?","?","?","?","?","?","?","?","?","?","?","?","?","?","?","?","?","?","?","?","?","?","?","?","?","?","?","?","?","?","?","?","?","?","?","?","?","?","?","?","?","?","?","?","?","?","?","?","?","?","?","?","?","?","?","?","?","?","?","?","?","?","?","?","?","?","?","?","?","?","?","?","?","?","?","?","?","?","?","?","?","?","?","?","?","?","?","?","?","?","?","?","C","C","C","?","?","?","?","?","D","D","D","D","?","?","E","E","E","E","E","E","?","?","?","?","?","?","?","?","?","?","?","?","?","?","?","?","?","?","?","?","?","?","?","?","?","?","?","?","?","?","?","?","?","?","?","?","?","?","?","?","?","?","?","?","?","?","H","H","H","H","H","H","H","H","H","H","H","H","H","H","H","H","H","H","H","H","H","H","H","H","H","H","H","H","H","H","H","H","H","H","H","H","H","H","H","H","H","H","H","H","H","H","H","H","?","?","U","?","?","?","?","?","?","?","?","?","?","?","?","?","?","?","?","?","?","?","?","?","?","?","?","?","?","?","?","?","?","?","?","?","?","?","?","?","?","?","?","?","?","?","?","?","?","?","?","?","?","?","?","?","?","?","?","?","?","?","?","?","?","?","?","?","?","?","?","?","?","?","?","?","?","?","?","?","?","?","?","?","?","?","?","?","?","?","?","?","?","?","?","?","?","?","?","?","?","?","?","?","?","?","?","?","?","?","?","?","?","?","?","?","?","?","?","?","?","?","?","?","?","?","?","?","?","?","?","?","?","?","?","?","?","?","?","?","?","?","?","?","?","?","?","?","?","?","?","?","?","?","?","?","?","?","?","?","?","?","?","?","?","?","?","?","?","?","?","?","?","?","?","?","?","?","?","?","?","?","?","?","?","?","?","?","?","?","?","?","?","?","?","?","?","?","?","?","?","?","?","?","?","?","?","?","?","?","?","?","?","?","?","?","?","?","?","?","?","?","?","?","?","?","?","?","?","?","?","?","?","?","?","?","?","?","?","?","?","?","?","?","?","?","?","?","?","?","?","?","?","?","?","?","?","?","?","?","?","?","?","?","?","?","?","?","?","?","?","?","?","?","?","?","?","?","?","?","?","?","?","?","?","?","?","?","?","?","?","?","?","?","?","?","?","?","?","?","?","?","?","?","?","?","?","?","?","?","?","?","?","?","?","?","?","?","?","?","?","?","?","?","?","?","?","?","?","?","?","?","?","?","?","?","?","?","?","?","?","?","?","?","?","?","?","?","?","?","?","?","?","?","?","?","?","?","?","?","?","?","?","?","?","?","?","?","?","?","?","?","?","?","?","?","?","?","?","?","?","?","?","?","?","?","?","?","?","?","?","?","?","?","?","?","?","?","?","?","?","?","?","?","?","?","?","?","?","?","?","?","?","?","?","?","?","?","?","?","?","?","?","?","?","?","?","?","?","?","?","?","?","?","?","?","?","?","?","?","?","?","?","?","?","?","?","?","?","?","?","?","?","?","?","?","?","?","?","?","?","?","?","?","?","?","?","?","?","?","?","?","?","?","?","?","?","?","?","?","?","?","?","?","?","?","?","?","?","?","?","?","?","?","?","?","?","?","?","?","?","?","?","?","?","?","?","?","?","?","?","?","?","?","?","?","?","?","?","?","?","?","?","?","?","?","?","?","?","?","?","?","?","?","?","?","?","?","?","?","?","?","?","?","?","?","?","?","?","?","?","?","?","?","?","?","?","?","?","?","?","?","?","?","?","?","?","?","?","?","?","?","?","?","?","?","?","?","?","?","?","?","?","?","?","?","?","?","?","?","?","?","?","?","?","?","?","?","?","?","?","?","?","?","?","?","?","?","?","?","?","?","?","?","?","?","?","?","?","?","?","?","?","?","?","?","?","?","?","?","?","?","?","?","?","?","?","?","?","?","?","?","?","?","?","?","?","?","?","?","?","?","?","?","?","?","?","?","?","?","?","?","?","?","?","?","?","?","?","?","?","?","?","?","?","?","?","?","?","?","?","?","?","?","?","?","?","?","?","?","?","?","?","?","?","?","?","?","?","T","?","?","?","?","?","?","?","?","?","S","S","S","S","S","S","S","S","S","S","S","S","S","S","S","S","S","S","S","S","S","S","S","S","S","S","S","S","S","S","S","S","S","S","S","S","S","S","S","S","S","S","S","?","?","?","?","?","?","?","?","?","?","?","?","?","?","?","?","?","?","?","?","?","?","?","?","?","?","?","?","?","?","?","?","?","?","?","?","?","?","?","?","?","?","?","?","?","?","?","?","?","?","?","?","?","?","?","?","?","?","?","?","?","?","?","?","?","?","?","?","?","?","?","?","?","?","?","?","?","?","?","?","?","?","?","?","?","?","?","?","?","?","?","?","?","?","?","?","?","?","?","?","?","?","?","?","?","?","?","?","?","?","?","?","?","?","?","?","?","?","?","?","?","?","?","?","?","?","?","?","?","?","?","?","?","?","?","?","?","?","?","?","?","?","?","?","?","?","?","?","?","?","?","?","?","?","?","?","?","?","?","?","?","?","?","?","?","?","?","?","?","?","?","?","?","?","?","?","?","?","?","?","?","?","?","?","?","?","?","?","?","?","?","?","?","?","?","?","?","?","?","?","?","?","?","?","?","?","?","?","?","?","?","?","?","?","?","?","?","?","?","?","?","?","?","?","?","?","?","?","?","?","?","?","?","?","?","?","?","?","?","?","?","?","?","?","?","?","?","?","?","?","?","?","?","?","?","?","?","?","?","?","?","?","?","?","?","?","?","?","?","?","?","?","?","?","?","?","?","?","?","?","?","?","?","?","?","?","?","?","?","?","?","?","?","?","?","?","?","?","?","?","?","?","?","?","?","?","?","?","?","?","?","?","?","?","?","?","?","?","?","?","?","?","?","?","?","?","?","?","?","?","?","?","?","?","?","?","?","?","?","?","?","?","?","?","?","?","?","?","?","?","?","?","?","?","?","?","?","?","?","?","?","?","?","?","?","?","?","?","?","?","?","?","?","?","?","?","?","?","?","?","?","?","?","?","?","?","?","?","?","?","?","?","?","?","?","?","?","?","?","?","?","?","?","?","?","?","?","?","?","?","?","?","?","?","?","?","?","?","?","?","?","?","?","?","?","?","?","?","?","?","?","?","?","?","?","?","?","?","?","?","?","?","?","?","?","?","?","?","?","?","?","?","?","?","?","?","?","?","?","?","?","?","?","?","?","?","?","?","?","?","?","?","?","?","?","?","?","?","?","?","?","?","?","?","?","?","?","?","?","?","?","?","?","?","?","?","?","?","?","?","?","?","?","?","?","?","?","?","?","?","?","?","?","?","?","?","?","?","?","?","?","?","?","?","?","?","?","?","?","?","?","?","?","?","?","?","?","?","?","?","?","?","?","?","?","?","?","?","?","?","?","?","?","?","?","?","?","?","Z","?","?","?","?","?","?","?","?","?","?","?","?","?","?","?","?","?","?","?","?","?","?","?","Z","Z","Z","Z","Z","Z","Z","Z","Z","Z","Z","Z","Z","Z","Z","Z","Z","Z","Z","Z","Z","Z","Z","Z","Z","Z","Z","Z","Z","Z","Z","Z","Z","Z","Z","X","?","?","?","?","?","?","?","?","?","?","?","?","?","?","?","?","?","?","?","?","?","?","?","?","?","?","?","?","?","?","?","?","?","?","?","?","?","?","?","?","?","?","?","?","?","?","?","?","?","?","?","?","?","?","?","?","?","?","?","V","?","?","?","?","?","?","?","?","?","?","?","?","?","?","?","?","?","?","C","M","?","?","?","?","?","?","?","?","?","?","?","?","?","?","?","N","N","N","N","N","N","?","?","?","?","?","?","?","E","E","E","E","E","E","E","E","E","E","E","E","E","E","E","E","E","E","E","E","E","E","E","E","E","E","E","E","E","E","E","E","E","E","E","E","E","E","E","E","E","E","E","E","E","?","?","D","D","D","D","D","D","D","D","D","D","?","?","?","?","?","?","?","?","?","?","B","A","?","?","?","?","?","?","?","?","?","?","?","?","?","?","?","?","?","?","?","?","?","?","?","?","?","?","?","?","?","?","?","B","B","B","B","B","B","B","B","B","B","B","B","B","B","B","B","B","B","B","B","B","B","B","B","B","B","B","B","B","?","L","?","W","?","?","?","?","?","?","?","?","?","?","?","?","?","?","?","?","?","?","?","?","?","?","?","?","?","?","?","?","?","?","?","R","R","R","R","R","R","R","R","R","R","R","R","R","R","R","R","R","R","R","R","R","R","R","R","R","R","R","R","R","R","R","R","R","R","R","R","R","R","R","R","R","R","R","R","R","R","R","R","R","R","R","?","G","?","?","?","?","?","?","?","?","?","?","?","?","?","?","?","?","?","?","?","?","?","?","?","?","?","?","?","?","?","?","?","?","?","?","?","?","?","?","?","?","?","?","?","?","?","?","?","?","?","?","?","?","A","A","A","A","A","A","A","A","A","A","A","A","A","A","A","A","A","A","A","A","A","A","A","A","A","A","A","A","A","A","A","A","A","A","A","A","A","A","A","A","A","A","A","A","A","A","A","A","A","A","A","A","A","A","A","A","A","A","A","A","A","A","A","A","A","A","A","A","A","A","A","A","A","A","A","A","A","A","A","A","A","A","A","A","A","A","A","A","A","A","A","A","A","A","A","A","A","A","A","A","A","A","A","A","A","A","A","A","A","A","A","A","A","A","A","A","A","A","A","A","A","A","A","A","A","A","A","A","A","A","A"],"t":[61,79,92,106,115,129,147,163,180,197,211,228,244,261,279,295,313,331,346,362,381,422,440,452,465,482,497,516,531,547,565,582,598,614,630,647,663,679,698,712,728,745,760,778,795,811,828,845,862,878,895,912,928,945,961,978,995,1011,1028,1045,1061,1078,1095,1111,1128,1146,1162,1180,1194,1212,1233,1247,1262,1280,1294,1311,1328,1344,1361,1378,1394,1411,1427,1444,1461,1480,1495,1511,1528,1544,1561,1582,1594,1611,1628,1644,1662,1678,1695,1711,1727,1745,1762,1779,1800,1823,1840,1858,1873,1890,1907,1923,1940,1957,1973,1990,2007,2023,2040,2056,2073,2090,2107,2123,2140,2156,2173,2191,2207,2223,2240,2256,2273,2290,2306,2323,2340,2356,2373,2390,2406,2423,2440,2460,2474,2490,2508,2523,2540,2557,2573,2590,2607,2623,2640,2656,2673,2690,2707,2723,2739,2756,2773,2789,2806,2823,2841,2857,2873,2890,2907,2923,2940,2957,2973,2990,3006,3023,3040,3056,3073,3090,3106,3123,3141,3160,3175,3190,3208,3227,3248,3272,3286,3298,3312,3328,3346,3361,3376,3393,3409,3426,3443,3459,3476,3493,3510,3528,3543,3560,3576,3593,3610,3628,3644,3662,3678,3695,3710,3728,3745,3761,3778,3795,3811,3828,3845,3860,3876,3894,3912,3926,3943,3959,3976,3993,4011,4027,4043,4059,4076,4094,4109,4127,4143,4160,4176,4193,4210,4227,4244,4260,4277,4295,4309,4327,4343,4360,4376,4393,4409,4426,4442,4459,4476,4494,4511,4526,4543,4562,4577,4594,4612,4628,4642,4673,4682,4700,4716,4730,4745,4763,4779,4796,4814,4828,4844,4859,4875,4892,4908,4925,4942,4958,4975,4991,5009,5025,5042,5058,5075,5091,5108,5125,5141,5158,5175,5192,5208,5225,5242,5258,5275,5292,5308,5325,5341,5358,5375,5391,5408,5425,5441,5458,5476,5493,5508,5524,5541,5558,5574,5591,5608,5625,5641,5658,5674,5691,5708,5725,5741,5758,5775,5792,5808,5824,5841,5857,5875,5891,5908,5924,5941,5958,5975,5991,6007,6024,6041,6058,6074,6091,6108,6125,6147,6158,6174,6192,6208,6224,6241,6258,6274,6290,6307,6324,6341,6357,6374,6390,6407,6424,6441,6457,6474,6491,6508,6524,6541,6557,6574,6591,6607,6624,6641,6657,6674,6691,6708,6724,6741,6757,6774,6790,6809,6824,6840,6857,6874,6891,6907,6924,6940,6957,6974,6990,7007,7024,7040,7057,7074,7090,7107,7124,7140,7157,7174,7190,7207,7224,7240,7257,7274,7291,7307,7324,7340,7357,7374,7390,7407,7424,7443,7457,7478,7490,7507,7542,7555,7571,7587,7604,7621,7637,7654,7670,7688,7704,7720,7737,7754,7770,7788,7804,7820,7837,7854,7870,7887,7904,7920,7937,7954,7970,7987,8004,8020,8037,8054,8070,8087,8104,8120,8137,8153,8170,8187,8203,8220,8237,8253,8271,8287,8303,8320,8337,8353,8370,8387,8403,8420,8437,8454,8470,8487,8504,8520,8537,8553,8570,8587,8603,8620,8637,8653,8670,8687,8704,8720,8737,8753,8770,8787,8805,8821,8836,8853,8870,8886,8903,8920,8937,8953,8970,8988,9007,9022,9037,9053,9070,9087,9103,9120,9136,9153,9170,9186,9203,9220,9236,9253,9270,9286,9303,9320,9336,9353,9370,9386,9403,9420,9436,9453,9470,9486,9503,9520,9536,9553,9570,9586,9603,9620,9636,9653,9670,9686,9703,9720,9736,9753,9770,9786,9803,9819,9836,9853,9870,9886,9903,9920,9936,9953,9969,9987,10003,10019,10036,10053,10069,10086,10103,10119,10136,10153,10169,10186,10203,10219,10236,10253,10269,10286,10303,10319,10336,10353,10369,10386,10403,10419,10437,10454,10471,10486,10503,10520,10536,10553,10569,10586,10603,10619,10636,10652,10669,10686,10704,10719,10736,10753,10769,10786,10802,10819,10836,10852,10869,10886,10903,10919,10936,10953,10969,10986,11002,11019,11036,11052,11069,11086,11102,11119,11136,11152,11169,11186,11202,11219,11236,11252,11269,11286,11302,11319,11336,11352,11369,11386,11402,11419,11436,11452,11469,11486,11502,11519,11536,11552,11569,11586,11602,11619,11635,11652,11669,11686,11702,11719,11735,11752,11769,11785,11802,11819,11835,11852,11869,11885,11917,11928,11952,11969,11985,12002,12019,12035,12052,12069,12085,12102,12119,12135,12152,12169,12186,12202,12218,12235,12252,12269,12285,12302,12319,12335,12352,12368,12385,12402,12419,12435,12452,12469,12485,12502,12519,12535,12552,12569,12585,12602,12618,12635,12652,12668,12686,12702,12718,12735,12752,12768,12785,12802,12818,12835,12852,12868,12885,12902,12918,12935,12952,12968,12985,13002,13018,13035,13052,13068,13085,13102,13118,13135,13152,13168,13185,13202,13218,13235,13252,13268,13285,13302,13326,13341,13353,13368,13385,13402,13418,13435,13452,13468,13485,13502,13518,13535,13552,13568,13585,13602,13618,13635,13652,13668,13685,13702,13718,13735,13751,13768,13785,13801,13818,13835,13852,13868,13885,13901,13918,13935,13951,13968,13985,14001,14018,14035,14051,14068,14085,14102,14118,14135,14151,14168,14185,14201,14218,14235,14251,14268,14285,14302,14318,14335,14351,14368,14385,14401,14418,14434,14451,14468,14484,14501,14518,14534,14552,14568,14584,14601,14618,14634,14651,14668,14684,14701,14718,14734,14751,14769,14787,14802,14818,14834,14851,14868,14884,14901,14918,14934,14951,14968,14984,15001,15018,15034,15051,15068,15084,15101,15118,15134,15151,15168,15184,15201,15217,15234,15251,15268,15284,15301,15317,15334,15351,15367,15384,15401,15417,15434,15451,15467,15484,15501,15517,15534,15551,15567,15584,15601,15617,15634,15651,15667,15684,15701,15717,15734,15751,15767,15784,15801,15817,15835,15851,15867,15884,15901,15917,15934,15951,15967,15984,16001,16017,16034,16051,16067,16084,16101,16117,16134,16151,16167,16185,16201,16217,16241,16256,16269,16284,16301,16317,16334,16350,16367,16384,16400,16417,16434,16451,16467,16484,16501,16517,16534,16551,16567,16584,16600,16617,16634,16650,16667,16684,16700,16717,16734,16750,16767,16784,16800,16817,16834,16850,16867,16884,16900,16917,16934,16950,16967,16984,17000,17017,17034,17050,17067,17084,17100,17117,17133,17150,17167,17183,17200,17217,17234,17250,17267,17283,17300,17317,17333,17350,17367,17383,17400,17417,17433,17450,17467,17484,17500,17517,17533,17552,17567,17583,17600,17617,17633,17650,17667,17683,17706,17720,17735,17750,17767,17783,17800,17817,17833,17850,17867,17883,17900,17917,17933,17950,17967,17983,18000,18017,18033,18050,18066,18083,18100,18117,18133,18150,18166,18183,18200,18216,18233,18250,18266,18283,18300,18316,18333,18350,18366,18383,18400,18416,18433,18450,18466,18483,18500,18516,18533,18550,18566,18583,18600,18616,18633,18650,18666,18683,18700,18716,18733,18750,18766,18783,18800,18816,18833,18850,18867,18884,18900,18916,18934,18950,18966,18983,18999,19016,19033,19050,19066,19083,19100,19117,19133,19157,19172,19199,19216,19233,19249,19266,19283,19299,19316,19333,19349,19366,19383,19399,19417,19433,19449,19466,19483,19499,19516,19533,19549,19566,19583,19599,19616,19633,19650,19666,19683,19699,19716,19733,19749,19766,19783,19799,19816,19832,19849,19866,19883,19899,19916,19932,19949,19966,19982,19999,20016,20032,20049,20066,20083,20099,20116,20133,20149,20166,20182,20199,20216,20232,20249,20266,20282,20299,20316,20332,20349,20366,20382,20399,20416,20432,20449,20466,20482,20499,20516,20532,20549,20566,20582,20599,20616,20633,20652,20667,20682,20699,20716,20732,20749,20765,20782,20799,20815,20832,20849,20865,20882,20899,20915,20932,20949,20965,20982,20999,21015,21032,21049,21065,21082,21099,21116,21132,21149,21165,21182,21199,21215,21232,21249,21265,21282,21299,21315,21332,21349,21365,21382,21399,21416,21432,21449,21465,21482,21499,21515,21532,21549,21566,21582,21598,21615,21632,21648,21665,21682,21699,21715,21732,21748,21765,21782,21799,21815,21832,21848,21865,21882,21898,21915,21932,21948,21965,21982,21998,22015,22032,22048,22065,22089,22104,22119,22134,22148,22165,22182,22198,22215,22232,22249,22265,22282,22299,22315,22332,22348,22365,22382,22398,22415,22432,22448,22465,22482,22498,22515,22532,22548,22565,22582,22598,22615,22632,22648,22665,22682,22698,22715,22732,22748,22765,22782,22799,22815,22831,22848,22865,22882,22898,22915,22931,22948,22965,22982,22998,23015,23031,23048,23065,23081,23098,23115,23131,23148,23165,23181,23198,23215,23231,23248,23265,23281,23298,23315,23331,23348,23364,23381,23398,23415,23431,23448,23465,23481,23498,23514,23532,23551,23565,23581,23598,23614,23631,23648,23664,23682,23698,23714,23731,23748,23765,23781,23798,23814,23831,23848,23864,23881,23898,23914,23931,23948,23964,23981,23998,24014,24031,24048,24064,24081,24098,24114,24131,24148,24164,24181,24198,24214,24231,24248,24264,24281,24298,24314,24331,24348,24365,24381,24397,24414,24431,24447,24464,24481,24497,24514,24531,24547,24564,24581,24597,24614,24631,24647,24664,24681,24699,24714,24731,24747,24764,24781,24797,24814,24831,24847,24864,24881,24897,24914,24931,24947,24964,24981,25008,25021,25047,25064,25081,25097,25115,25131,25147,25164,25181,25197,25214,25231,25247,25264,25281,25297,25314,25331,25347,25364,25381,25397,25414,25430,25447,25464,25480,25497,25514,25531,25547,25564,25581,25597,25614,25630,25647,25664,25680,25697,25714,25730,25747,25764,25780,25797,25814,25830,25847,25864,25880,25897,25914,25930,25947,25964,25980,25997,26014,26030,26047,26064,26080,26097,26114,26130,26147,26164,26180,26197,26214,26230,26247,26264,26280,26297,26314,26331,26347,26364,26380,26397,26413,26430,26447,26470,26485,26500,26513,26530,26547,26563,26581,26597,26613,26630,26647,26663,26680,26698,26713,26730,26747,26763,26780,26797,26813,26830,26847,26863,26880,26897,26913,26930,26947,26963,26980,26997,27013,27030,27046,27063,27080,27096,27113,27130,27147,27163,27180,27197,27213,27230,27247,27263,27280,27296,27313,27330,27347,27364,27381,27396,27413,27430,27446,27463,27480,27496,27513,27530,27546,27563,27580,27596,27613,27630,27646,27663,27680,27697,27713,27730,27746,27763,27780,27796,27813,27830,27846,27863,27880,27896,27913,27936,27951,27965,27980,27996,28013,28029,28046,28063,28080,28096,28113,28130,28146,28163,28179,28196,28213,28229,28246,28263,28279,28296,28313,28330,28346,28363,28379,28396,28413,28429,28446,28463,28479,28496,28513,28529,28546,28563,28580,28596,28613,28629,28646,28663,28679,28696,28713,28729,28746,28763,28779,28797,28812,28829,28846,28863,28879,28896,28912,28929,28946,28962,28979,28996,29012,29029,29046,29062,29079,29096,29113,29129,29146,29162,29179,29196,29212,29229,29246,29262,29279,29296,29312,29329,29346,29362,29394,29405,29429,29446,29462,29479,29496,29512,29529,29546,29563,29579,29597,29612,29629,29646,29662,29679,29697,29712,29729,29746,29762,29779,29797,29812,29829,29846,29862,29880,29895,29912,29929,29945,29962,29979,29995,30012,30029,30045,30062,30079,30095,30112,30129,30145,30162,30179,30195,30212,30229,30245,30262,30279,30295,30312,30329,30345,30362,30379,30395,30412,30429,30445,30462,30479,30496,30512,30529,30545,30562,30579,30595,30612,30629,30645,30662,30679,30696,30712,30728,30746,30762,30778,30795,30813,30828,30852,30865,30880,30895,30912,30928,30945,30962,30978,30995,31012,31028,31045,31062,31078,31095,31112,31128,31145,31162,31179,31195,31212,31229,31246,31262,31278,31295,31312,31328,31345,31362,31378,31395,31412,31428,31445,31462,31478,31495,31512,31528,31545,31562,31578,31595,31612,31629,31645,31662,31679,31695,31712,31728,31745,31762,31778,31795,31812,31828,31845,31862,31878,31895,31912,31928,31945,31962,31978,31995,32012,32028,32045,32062,32078,32095,32112,32129,32145,32162,32179,32207,32219,32231,32248,32264,32281,32297,32314,32331,32347,32365,32381,32398,32414,32431,32447,32464,32481,32497,32514,32531,32548,32564,32581,32597,32614,32631,32647,32664,32681,32697,32714,32732,32748,32764,32781,32798,32815,32831,32848,32864,32881,32897,32914,32931,32947,32965,32982,32997,33014,33031,33047,33064,33081,33101,33114,33131,33147,33164,33181,33197,33214,33231,33247,33264,33281,33297,33314,33331,33347,33364,33381,33397,33414,33431,33447,33464,33481,33497,33514,33531,33547,33564,33581,33597,33614,33639,33655,33678,33695,33711,33728,33745,33761,33777,33795,33811,33827,33844,33861,33877,33894,33911,33927,33944,33961,33977,33994,34011,34027,34044,34061,34077,34094,34111,34127,34144,34161,34177,34194,34211,34227,34244,34261,34277,34294,34311,34327,34344,34361,34377,34394,34411,34427,34444,34461,34477,34494,34511,34527,34544,34560,34577,34594,34611,34627,34644,34660,34677,34694,34711,34727,34744,34760,34777,34794,34810,34827,34844,34860,34877,34894,34910,34927,34944,34960,34978,34994,35010,35027,35044,35060,35077,35101,35116,35128,35144,35160,35177,35194,35210,35227,35244,35260,35277,35294,35310,35327,35343,35360,35377,35393,35410,35427,35444,35461,35477,35494,35511,35527,35544,35560,35577,35593,35610,35627,35644,35661,35677,35694,35711,35727,35743,35760,35777,35793,35811,35828,35843,35860,35877,35894,35910,35927,35943,35960,35977,35993,36010,36027,36043,36060,36077,36093,36110,36127,36143,36160,36177,36193,36210,36227,36243,36260,36277,36293,36310,36327,36343,36360,36376,36393,36410,36426,36443,36460,36476,36493,36511,36526,36543,36566,36581,36597,36610,36626,36643,36660,36676,36693,36710,36726,36743,36760,36777,36793,36810,36826,36843,36860,36876,36893,36910,36926,36943,36960,36976,36995,37010,37026,37043,37060,37076,37093,37110,37126,37143,37160,37176,37193,37209,37226,37243,37260,37276,37293,37309,37326,37343,37359,37376,37393,37409,37426,37443,37459,37476,37493,37509,37526,37543,37560,37577,37593,37609,37627,37643,37659,37676,37693,37709,37726,37743,37760,37777,37794,37809,37826,37843,37859,37876,37893,37909,37926,37942,37959,37976,37993,38010,38028,38044,38059,38076,38093,38109,38126,38143,38159,38176,38193,38209,38226,38242,38259,38276,38292,38309,38326,38342,38359,38376,38392,38409,38426,38442,38460,38476,38492,38509,38526,38543,38559,38576,38592,38609,38626,38642,38659,38676,38692,38709,38726,38742,38759,38776,38793,38809,38826,38843,38859,38875,38894,38910,38927,38945,38961,38977,38994,39010,39029,39043,39059,39076,39092,39109,39125,39142,39159,39175,39192,39210,39226,39243,39261,39276,39294,39310,39327,39343,39367,39378,39393,39411,39427,39444,39463,39478,39499,39512,39528,39544,39560,39578,39595,39610,39627,39644,39660,39678,39694,39711,39727,39744,39760,39777,39794,39810,39827,39844,39861,39877,39894,39911,39927,39944,39961,39977,39993,40010,40025,40043,40059,40076,40093,40110,40127,40144,40160,40177,40194,40210,40227,40244,40260,40277,40294,40310,40326,40343,40360,40377,40394,40410,40426,40444,40461,40477,40494,40511,40527,40543,40561,40576,40592,40609,40625,40643,40660,40675,40693,40709,40727,40745,40760,40776,40794,40811,40830,40843,40860,40877,40899,40916,40928,40943,40960,40977,40993,41010,41026,41042,41059,41076,41093,41109,41125,41142,41159,41176,41193,41210,41227,41243,41260,41278,41293,41311,41327,41342,41358,41375,41392,41408,41425,41442,41458,41475,41492,41508,41525,41542,41558,41575,41592,41608,41625,41643,41658,41675,41692,41708,41725,41742,41758,41775,41792,41808,41825,41842,41858,41875,41892,41908,41925,41942,41958,41975,41991,42008,42025,42041,42058,42075,42091,42108,42125,42141,42158,42175,42191,42208,42225,42242,42258,42275,42291,42309,42325,42348,42363,42376,42392,42408,42425,42441,42458,42475,42491,42508,42525,42541,42558,42574,42592,42608,42624,42641,42658,42674,42691,42708,42724,42741,42758,42774,42792,42808,42824,42841,42858,42874,42891,42908,42924,42941,42958,42974,42991,43008,43024,43041,43058,43074,43091,43108,43124,43141,43158,43174,43191,43207,43224,43241,43258,43274,43291,43307,43324,43341,43357,43374,43391,43407,43424,43441,43457,43474,43491,43507,43524,43541,43559,43574,43591,43607,43624,43641,43657,43674,43691,43707,43724,43741,43758,43774,43791,43807,43824,43842,43860,43875,43891,43907,43924,43941,43957,43974,43991,44007,44024,44040,44057,44074,44091,44107,44124,44141,44157,44174,44191,44207,44224,44240,44257,44274,44290,44307,44324,44342,44357,44374,44390,44407,44424,44440,44457,44474,44490,44507,44524,44540,44557,44574,44590,44607,44624,44640,44657,44674,44691,44707,44724,44740,44757,44774,44790,44807,44824,44840,44857,44874,44890,44907,44924,44940,44957,44973,44990,45007,45024,45040,45057,45073,45090,45107,45125,45141,45157,45173,45190,45207,45224,45248,45263,45275,45290,45307,45324,45340,45357,45373,45390,45407,45423,45440,45457,45473,45490,45507,45523,45540,45557,45573,45590,45607,45623,45640,45657,45673,45690,45707,45723,45740,45756,45773,45790,45806,45823,45840,45856,45873,45890,45906,45923,45940,45956,45973,45990,46006,46023,46040,46056,46073,46091,46106,46123,46140,46156,46173,46190,46206,46223,46240,46256,46273,46290,46306,46323,46340,46356,46373,46390,46406,46423,46440,46457,46473,46490,46506,46523,46540,46556,46573,46590,46606,46623,46640,46656,46673,46690,46707,46730,46744,46757,46773,46789,46806,46823,46839,46856,46873,46890,46906,46923,46939,46956,46973,46989,47006,47023,47039,47056,47073,47089,47106,47123,47139,47156,47173,47189,47206,47223,47240,47256,47273,47289,47306,47323,47339,47356,47373,47389,47406,47423,47439,47456,47473,47489,47506,47523,47539,47556,47572,47590,47606,47623,47639,47656,47672,47689,47706,47722,47739,47756,47772,47789,47806,47823,47839,47856,47872,47889,47906,47922,47939,47956,47972,47989,48006,48022,48039,48056,48072,48089,48106,48122,48140,48159,48173,48189,48206,48222,48239,48256,48272,48289,48306,48322,48339,48356,48372,48389,48406,48422,48439,48455,48472,48489,48505,48522,48539,48556,48573,48589,48605,48623,48639,48655,48672,48689,48705,48722,48739,48755,48772,48789,48805,48822,48839,48855,48872,48889,48905,48922,48939,48955,48972,48989,49005,49022,49039,49055,49072,49089,49105,49122,49139,49155,49172,49189,49205,49222,49239,49255,49272,49289,49305,49323,49338,49355,49372,49388,49405,49422,49438,49456,49472,49488,49505,49522,49538,49555,49572,49589,49608,49623,49638,49655,49672,49688,49705,49722,49738,49755,49772,49788,49805,49822,49838,49855,49872,49888,49905,49922,49939,49955,49972,49989,50005,50022,50039,50055,50072,50089,50105,50122,50138,50155,50172,50189,50205,50222,50239,50255,50272,50288,50306,50322,50338,50355,50372,50388,50405,50422,50438,50455,50472,50489,50505,50522,50538,50556,50571,50588,50605,50622,50638,50655,50672,50689,50705,50721,50738,50755,50771,50788,50805,50821,50838,50855,50871,50888,50905,50922,50938,50955,50971,50988,51005,51021,51038,51055,51072,51092,51108,51122,51138,51155,51171,51188,51204,51221,51238,51255,51272,51288,51305,51322,51338,51355,51372,51388,51405,51421,51438,51454,51471,51488,51504,51521,51538,51554,51571,51588,51604,51621,51638,51654,51671,51688,51704,51721,51738,51754,51771,51788,51804,51821,51838,51855,51871,51887,51904,51921,51937,51954,51971,51987,52004,52021,52038,52054,52071,52088,52104,52121,52138,52154,52171,52187,52204,52221,52237,52254,52271,52287,52304,52321,52338,52354,52371,52387,52404,52421,52437,52454,52471,52487,52504,52521,52539,52558,52573,52587,52604,52621,52637,52654,52671,52688,52704,52722,52739,52756,52772,52789,52805,52822,52838,52856,52872,52890,52912,52924,52939,52956,52972,52989,53006,53023,53039,53056,53073,53089,53105,53123,53139,53155,53172,53189,53205,53221,53238,53254,53272,53288,53306,53321,53338,53354,53371,53389,53406,53420,53437,53454,53470,53487,53504,53521,53537,53554,53570,53587,53604,53620,53637,53654,53671,53688,53704,53721,53738,53755,53772,53788,53805,53822,53839,53855,53872,53889,53906,53922,53939,53955,53984,53996,54021,54037,54053,54070,54087,54103,54120,54137,54153,54170,54187,54203,54220,54237,54253,54270,54287,54303,54320,54337,54353,54370,54387,54403,54420,54437,54453,54470,54487,54503,54520,54537,54553,54570,54587,54603,54620,54637,54653,54670,54687,54703,54720,54737,54753,54770,54786,54803,54820,54836,54853,54870,54886,54903,54920,54936,54953,54970,54986,55003,55020,55036,55053,55070,55086,55103,55120,55136,55153,55170,55186,55203,55220,55236,55253,55270,55286,55303,55320,55336,55353,55370,55386,55403,55427,55443,55455,55470,55486,55503,55520,55536,55553,55570,55586,55603,55620,55636,55653,55670,55686,55703,55720,55737,55753,55769,55786,55803,55819,55836,55853,55869,55886,55903,55919,55936,55953,55970,55986,56003,56019,56036,56053,56069,56086,56103,56119,56136,56153,56169,56186,56203,56220,56236,56253,56269,56286,56303,56319,56336,56353,56369,56386,56403,56419,56436,56453,56469,56486,56503,56519,56536,56553,56569,56586,56603,56619,56636,56653,56669,56686,56703,56719,56736,56752,56769,56786,56802,56819,56836,56852,56869,56886,56902,56934,56945,56969,56986,57002,57019,57036,57052,57069,57086,57102,57119,57136,57152,57169,57186,57202,57219,57236,57252,57269,57286,57302,57319,57336,57352,57369,57386,57402,57419,57436,57452,57469,57486,57502,57519,57536,57552,57569,57586,57602,57619,57636,57652,57669,57685,57704,57719,57735,57752,57769,57785,57802,57819,57835,57852,57869,57886,57902,57919,57935,57952,57969,57985,58002,58019,58035,58052,58069,58085,58102,58119,58135,58152,58169,58185,58202,58219,58235,58252,58269,58286,58302,58319,58335,58353,58371,58386,58402,58419,58435,58452,58468,58485,58502,58519,58535,58552,58568,58585,58602,58619,58635,58652,58668,58685,58702,58718,58735,58752,58768,58785,58802,58818,58835,58852,58868,58885,58902,58918,58935,58952,58968,58985,59002,59018,59035,59052,59068,59085,59102,59118,59135,59152,59169,59186,59202,59218,59235,59252,59268,59285,59302,59318,59335,59352,59368,59385,59402,59418,59435,59451,59468,59485,59501,59518,59535,59551,59568,59585,59602,59618,59635,59651,59668,59685,59701,59718,59735,59751,59768,59785,59801,59818,59835,59863,59875,59901,59918,59935,59951,59968,59985,60001,60018,60035,60051,60068,60085,60101,60118,60135,60151,60168,60185,60201,60218,60236,60252,60268,60284,60301,60318,60334,60351,60368,60384,60401,60418,60434,60451,60468,60484,60501,60518,60535,60551,60568,60584,60601,60618,60634,60651,60668,60684,60701,60718,60734,60751,60768,60784,60801,60818,60834,60851,60868,60884,60901,60918,60934,60951,60968,60984,61001,61019,61034,61051,61068,61084,61101,61117,61134,61151,61168,61184,61201,61217,61234,61251,61268,61284,61316,61327,61351,61367,61384,61401,61417,61434,61451,61467,61484,61501,61517,61534,61551,61567,61584,61601,61617,61634,61651,61667,61684,61701,61717,61734,61751,61767,61784,61801,61817,61834,61851,61867,61884,61901,61917,61934,61951,61967,61984,62001,62017,62034,62051,62067,62084,62101,62117,62134,62151,62167,62184,62201,62217,62234,62250,62267,62284,62301,62317,62334,62350,62367,62384,62400,62417,62434,62450,62468,62484,62500,62517,62534,62550,62568,62584,62601,62617,62634,62651,62668,62685,62702,62718,62735,62754,62772,62789,62804,62820,62835,62852,62869,62885,62902,62920,62936,62952,62969,62985,63002,63018,63035,63052,63068,63086,63102,63118,63136,63153,63169,63185,63202,63218,63235,63253,63268,63285,63301,63318,63335,63351,63367,63385,63402,63418,63436,63452,63469,63485,63502,63519,63536,63552,63568,63586,63602,63618,63634,63652,63668,63684,63701,63717,63734,63751,63767,63784,63800,63817,63836,63858,63884,63901,63917,63934,63950,63967,63984,64001,64017,64034,64051,64067,64084,64102,64119,64135,64153,64167,64187,64211,64239,64267,64284,64300,64317,64334,64350,64367,64384,64400,64417,64433,64450,64467,64483,64500,64517,64533,64550,64567,64583,64600,64617,64633,64650,64666,64683,64700,64716,64733,64750,64768,64785,64800,64816,64833,64850,64866,64883,64900,64916,64933,64950,64966,64983,65000,65016,65033,65050,65067,65083,65100,65116,65133,65150,65167,65185,65201,65218,65235,65251,65267,65283,65300,65316,65333,65350,65366,65383,65399,65416,65433,65450,65466,65485,65501,65518,65535,65551,65568,65585,65602,65618,65634,65652,65669,65689,65703,65718,65737,65751,65768,65785,65800,65818,65834,65852,65868,65884,65901,65918,65934,65951,65968,65985,66001,66018,66035,66051,66067,66084,66101,66116,66133,66151,66167,66183,66200,66218,66233,66250,66267,66283,66300,66318,66333,66350,66366,66383,66399,66416,66433,66449,66466,66483,66499,66517,66533,66549,66567,66583,66600,66616,66634,66650,66667,66684,66702,66716,66736,66753,66768,66785,66802,66817,66834,66851,66866,66884,66901,66918,66934,66950,66966,66984,67001,67017,67034,67051,67088,67105,67120,67138,67152,67169,67184,67199,67216,67233,67251,67266,67283,67300,67316,67333,67350,67366,67384,67401,67417,67434,67451,67467,67484,67501,67517,67534,67551,67568,67584,67600,67618,67633,67650,67668,67684,67700,67718,67733,67751,67767,67785,67801,67817,67834,67852,67866,67884,67899,67916,67934,67949,67966,67983,67999,68016,68033,68049,68066,68083,68100,68116,68135,68152,68170,68187,68202,68219,68234,68250,68268,68284,68301,68317,68334,68350,68368,68405,68418,68433,68451,68466,68484,68501,68516,68534,68550,68567,68584,68601,68616,68634,68651,68666,68684,68700,68718,68732,68751,68768,68783,68799,68817,68833,68849,68867,68884,68900,68918,68934,68949,68966,68982,69000,69016,69033,69049,69066,69082,69100,69116,69134,69150,69167,69182,69199,69215,69232,69249,69265,69282,69299,69315,69334,69349,69365,69382,69399,69415,69432,69449,69465,69482,69499,69515,69532,69549,69565,69582,69599,69617,69633,69650,69667,69683,69698,69729,69740,69754,69768,69785,69802,69818,69835,69852,69868,69885,69902,69920,69936,69952,69971,69989,70006,70020,70038,70055,70070,70090,70106,70121,70139,70155,70171,70187,70205,70222,70236,70255,70272,70287,70305,70322,70338,70353,70371,70387,70403,70419,70435,70453,70470,70487,70504,70521,70538,70555,70571,70588,70602,70619,70637,70651,70669,70685,70714,70723,70737,70752,70769,70786,70803,70818,70835,70852,70869,70885,70902,70918,70935,70952,70968,70985,71018,71031,71048,71065,71082,71098,71115,71132,71148,71165,71182,71199,71215,71232,71248,71265,71282,71298,71315,71332,71348,71365,71382,71398,71415,71432,71448,71465,71482,71498,71515,71531,71548,71565,71581,71598,71615,71632,71648,71665,71682,71699,71715,71731,71748,71765,71781,71798,71815,71831,71848,71865,71881,71898,71915,71931,71948,71965,71981,71998,72014,72031,72048,72064,72081,72097,72114,72131,72148,72164,72181,72198,72215,72231,72248,72264,72295,72307,72331,72348,72364,72381,72398,72414,72431,72447,72464,72481,72497,72514,72531,72547,72564,72581,72597,72614,72631,72648,72664,72681,72697,72716],"hit":[null],"x":[-1.751700680272109,-1.751700680272109,-1.751700680272109,-1.751700680272109,-1.751700680272109,-1.751700680272109,-1.751700680272109,-1.751700680272109,-1.751700680272109,-1.751700680272109,-1.751700680272109,-1.751700680272109,-1.751700680272109,-1.751700680272109,-1.751700680272109,-1.751700680272109,-1.751700680272109,-1.751700680272109,-1.751700680272109,-1.751700680272109,-1.751700680272109,-1.751700680272109,0.027210884353741496,0.027210884353741496,0.023809523809523808,0.006802721088435374,-0.006802721088435374,-0.02040816326530612,-0.03741496598639456,-0.04421768707482993,-0.047619047619047616,-0.05102040816326531,-0.05102040816326531,-0.05782312925170068,-0.05782312925170068,-0.05782312925170068,-0.05782312925170068,-0.05782312925170068,-0.05782312925170068,-0.05782312925170068,-0.05782312925170068,-0.05782312925170068,-0.05782312925170068,-0.05782312925170068,-0.05782312925170068,-0.05782312925170068,-0.05782312925170068,-0.05782312925170068,-0.05782312925170068,-0.05782312925170068,-0.05782312925170068,-0.05782312925170068,-0.05782312925170068,-0.05782312925170068,-0.05782312925170068,-0.05782312925170068,-0.05782312925170068,-0.05782312925170068,-0.05782312925170068,-0.05782312925170068,-0.05782312925170068,-0.05782312925170068,-0.05782312925170068,-0.05782312925170068,-0.05782312925170068,-0.05782312925170068,-0.05782312925170068,-0.05782312925170068,-0.05782312925170068,-0.05782312925170068,-0.05782312925170068,-0.05782312925170068,-0.05782312925170068,-0.05782312925170068,-0.05782312925170068,-0.05782312925170068,-0.05782312925170068,-0.05782312925170068,-0.05782312925170068,-0.05782312925170068,-0.05782312925170068,-0.05782312925170068,-0.05782312925170068,-0.05782312925170068,-0.05782312925170068,-0.05782312925170068,-0.05782312925170068,-0.05782312925170068,-0.05782312925170068,-0.05782312925170068,-0.05782312925170068,-0.05782312925170068,-0.05782312925170068,-0.05782312925170068,-0.05782312925170068,-0.05782312925170068,-0.05782312925170068,-0.05782312925170068,-0.05782312925170068,-0.05782312925170068,-0.05782312925170068,-0.05782312925170068,-0.05782312925170068,-0.05782312925170068,-0.05782312925170068,-0.05782312925170068,-0.05782312925170068,-0.05782312925170068,-0.05782312925170068,-0.05782312925170068,-0.05782312925170068,-0.05782312925170068,-0.05782312925170068,-0.05782312925170068,-0.05782312925170068,-0.05782312925170068,-0.05782312925170068,-0.05782312925170068,-0.05782312925170068,-0.05782312925170068,-0.05782312925170068,-0.05782312925170068,-0.05782312925170068,-0.05782312925170068,-0.05782312925170068,-0.05782312925170068,-0.05782312925170068,-0.05782312925170068,-0.05782312925170068,-0.05782312925170068,-0.05782312925170068,-0.05782312925170068,-0.05782312925170068,-0.05782312925170068,-0.05782312925170068,-0.05782312925170068,-0.05782312925170068,-0.05782312925170068,-0.05782312925170068,-0.05782312925170068,-0.05782312925170068,-0.05782312925170068,-0.05782312925170068,-0.05782312925170068,-0.05782312925170068,-0.05782312925170068,-0.05782312925170068,-0.05782312925170068,-0.05782312925170068,-0.05782312925170068,-0.05782312925170068,-0.05782312925170068,-0.05782312925170068,-0.05782312925170068,-0.05782312925170068,-0.05782312925170068,-0.05782312925170068,-0.05782312925170068,-0.05782312925170068,-0.05782312925170068,-0.05782312925170068,-0.05782312925170068,-0.05782312925170068,-0.05782312925170068,-0.05782312925170068,-0.05782312925170068,-0.05782312925170068,-0.05782312925170068,-0.05782312925170068,-0.05782312925170068,-0.05782312925170068,-0.05782312925170068,-0.05782312925170068,-0.05782312925170068,-0.05782312925170068,-0.05782312925170068,-0.05782312925170068,-0.05782312925170068,-0.05782312925170068,-0.05782312925170068,-0.05782312925170068,-0.05782312925170068,-0.05782312925170068,-0.05782312925170068,-0.05782312925170068,-0.05782312925170068,-0.05782312925170068,-0.05782312925170068,-0.05442176870748299,-0.03741496598639456,0.003401360544217687,0.19727891156462585,0.30952380952380953,0.3401360544217687,0.35714285714285715,0.36054421768707484,0.3673469387755102,0.3673469387755102,0.3673469387755102,0.3673469387755102,0.3673469387755102,0.3673469387755102,0.3673469387755102,0.3673469387755102,0.3673469387755102,0.3673469387755102,0.3673469387755102,0.3673469387755102,0.3673469387755102,0.3673469387755102,0.3673469387755102,0.3673469387755102,0.3673469387755102,0.3673469387755102,0.36394557823129253,0.36394557823129253,0.36394557823129253,0.36054421768707484,0.35374149659863946,0.35034013605442177,0.3401360544217687,0.3333333333333333,0.3299319727891156,0.32653061224489793,0.3231292517006803,0.3197278911564626,0.3163265306122449,0.3163265306122449,0.3163265306122449,0.3163265306122449,0.3129251700680272,0.3129251700680272,0.3129251700680272,0.3129251700680272,0.3129251700680272,0.3129251700680272,0.3129251700680272,0.3129251700680272,0.3129251700680272,0.3129251700680272,0.3129251700680272,0.3129251700680272,0.3129251700680272,0.3129251700680272,0.3129251700680272,0.3129251700680272,0.3129251700680272,0.3129251700680272,0.3129251700680272,0.3129251700680272,0.3163265306122449,0.3163265306122449,0.3197278911564626,0.3231292517006803,0.3231292517006803,0.3231292517006803,0.3231292517006803,0.32653061224489793,0.32653061224489793,0.32653061224489793,0.32653061224489793,0.32653061224489793,0.32653061224489793,0.32653061224489793,0.32653061224489793,0.32653061224489793,0.3299319727891156,0.3299319727891156,0.3299319727891156,0.3299319727891156,0.3333333333333333,0.3333333333333333,0.336734693877551,0.336734693877551,0.336734693877551,0.3401360544217687,0.3401360544217687,0.3401360544217687,0.3401360544217687,0.3435374149659864,0.3435374149659864,0.3435374149659864,0.3469387755102041,0.3469387755102041,0.3401360544217687,0.30612244897959184,0.30272108843537415,0.30272108843537415,0.30272108843537415,0.30272108843537415,0.30272108843537415,0.30272108843537415,0.30272108843537415,0.30272108843537415,0.30272108843537415,0.30272108843537415,0.30272108843537415,0.30272108843537415,0.30272108843537415,0.30272108843537415,0.30272108843537415,0.30272108843537415,0.30272108843537415,0.30272108843537415,0.30272108843537415,0.30272108843537415,0.30272108843537415,0.30272108843537415,0.30272108843537415,0.30272108843537415,0.30272108843537415,0.30272108843537415,0.30272108843537415,0.30272108843537415,0.30272108843537415,0.30272108843537415,0.30272108843537415,0.30272108843537415,0.30272108843537415,0.30272108843537415,0.30272108843537415,0.30272108843537415,0.30272108843537415,0.30272108843537415,0.30272108843537415,0.30272108843537415,0.30272108843537415,0.30272108843537415,0.30272108843537415,0.30272108843537415,0.30272108843537415,0.30272108843537415,0.30272108843537415,0.30272108843537415,0.30272108843537415,0.30272108843537415,0.30272108843537415,0.30272108843537415,0.30272108843537415,0.30272108843537415,0.30272108843537415,0.30272108843537415,0.30272108843537415,0.30272108843537415,0.30272108843537415,0.30272108843537415,0.30272108843537415,0.30272108843537415,0.30272108843537415,0.30272108843537415,0.30272108843537415,0.30272108843537415,0.30272108843537415,0.30272108843537415,0.30272108843537415,0.30272108843537415,0.30272108843537415,0.30272108843537415,0.30272108843537415,0.30272108843537415,0.30272108843537415,0.30272108843537415,0.30272108843537415,0.30272108843537415,0.30272108843537415,0.30272108843537415,0.30272108843537415,0.30272108843537415,0.30272108843537415,0.30272108843537415,0.30272108843537415,0.30272108843537415,0.30272108843537415,0.30272108843537415,0.30272108843537415,0.30272108843537415,0.30272108843537415,0.30272108843537415,0.30272108843537415,0.30272108843537415,0.30272108843537415,0.30272108843537415,0.30272108843537415,0.30272108843537415,0.30272108843537415,0.30272108843537415,0.30272108843537415,0.30272108843537415,0.30272108843537415,0.30272108843537415,0.30272108843537415,0.30272108843537415,0.30272108843537415,0.30272108843537415,0.30272108843537415,0.30272108843537415,0.30272108843537415,0.30272108843537415,0.30272108843537415,0.30272108843537415,0.30272108843537415,0.30272108843537415,0.30272108843537415,0.30272108843537415,0.30272108843537415,0.30272108843537415,0.30272108843537415,0.30272108843537415,0.30272108843537415,0.30272108843537415,0.30272108843537415,0.30272108843537415,0.30272108843537415,0.30272108843537415,0.30272108843537415,0.30272108843537415,0.30272108843537415,0.30272108843537415,0.30272108843537415,0.30272108843537415,0.30272108843537415,0.30272108843537415,0.30272108843537415,0.30272108843537415,0.30272108843537415,0.30272108843537415,0.30272108843537415,0.30272108843537415,0.30272108843537415,0.30272108843537415,0.30272108843537415,0.30272108843537415,0.30272108843537415,0.30272108843537415,0.30272108843537415,0.30272108843537415,0.30272108843537415,0.30272108843537415,0.30272108843537415,0.30272108843537415,0.30272108843537415,0.30272108843537415,0.30272108843537415,0.30272108843537415,0.30272108843537415,0.30272108843537415,0.30272108843537415,0.30272108843537415,0.30272108843537415,0.30272108843537415,0.30272108843537415,0.30272108843537415,0.30272108843537415,0.30272108843537415,0.30272108843537415,0.30272108843537415,0.30272108843537415,0.30272108843537415,0.30272108843537415,0.30272108843537415,0.30272108843537415,0.30272108843537415,0.30272108843537415,0.30272108843537415,0.30272108843537415,0.30272108843537415,0.30272108843537415,0.30272108843537415,0.30272108843537415,0.30272108843537415,0.30272108843537415,0.30272108843537415,0.30272108843537415,0.30272108843537415,0.30272108843537415,0.30272108843537415,0.30272108843537415,0.30272108843537415,0.30272108843537415,0.30272108843537415,0.30272108843537415,0.30272108843537415,0.30272108843537415,0.30272108843537415,0.30272108843537415,0.30272108843537415,0.30272108843537415,0.30272108843537415,0.30272108843537415,0.30272108843537415,0.30272108843537415,0.30272108843537415,0.30272108843537415,0.30272108843537415,0.30272108843537415,0.30272108843537415,0.30272108843537415,0.30272108843537415,0.30272108843537415,0.30272108843537415,0.30272108843537415,0.30272108843537415,0.30272108843537415,0.30272108843537415,0.30272108843537415,0.30272108843537415,0.30272108843537415,0.30272108843537415,0.30272108843537415,0.30272108843537415,0.30272108843537415,0.30272108843537415,0.30272108843537415,0.30272108843537415,0.30272108843537415,0.30272108843537415,0.30272108843537415,0.30272108843537415,0.30272108843537415,0.30272108843537415,0.30272108843537415,0.30272108843537415,0.30272108843537415,0.30272108843537415,0.30272108843537415,0.30272108843537415,0.30272108843537415,0.30272108843537415,0.30272108843537415,0.30272108843537415,0.30272108843537415,0.30272108843537415,0.30272108843537415,0.30272108843537415,0.30272108843537415,0.30272108843537415,0.30272108843537415,0.30272108843537415,0.30272108843537415,0.30272108843537415,0.30272108843537415,0.30272108843537415,0.30272108843537415,0.30272108843537415,0.30272108843537415,0.30272108843537415,0.30272108843537415,0.30272108843537415,0.30272108843537415,0.30272108843537415,0.30272108843537415,0.30272108843537415,0.30272108843537415,0.30272108843537415,0.30272108843537415,0.30272108843537415,0.30272108843537415,0.30272108843537415,0.30272108843537415,0.30272108843537415,0.30272108843537415,0.30272108843537415,0.30272108843537415,0.30272108843537415,0.30272108843537415,0.30272108843537415,0.30272108843537415,0.30272108843537415,0.30272108843537415,0.30272108843537415,0.30272108843537415,0.30272108843537415,0.30272108843537415,0.30272108843537415,0.30272108843537415,0.30272108843537415,0.30272108843537415,0.30272108843537415,0.30272108843537415,0.30272108843537415,0.30272108843537415,0.30272108843537415,0.30272108843537415,0.30272108843537415,0.30272108843537415,0.30272108843537415,0.30272108843537415,0.30272108843537415,0.30272108843537415,0.30272108843537415,0.30272108843537415,0.30272108843537415,0.30272108843537415,0.30272108843537415,0.30272108843537415,0.30272108843537415,0.30272108843537415,0.30272108843537415,0.30272108843537415,0.30272108843537415,0.30272108843537415,0.30272108843537415,0.30272108843537415,0.30272108843537415,0.30272108843537415,0.30272108843537415,0.30272108843537415,0.30272108843537415,0.30272108843537415,0.30272108843537415,0.30272108843537415,0.30272108843537415,0.30272108843537415,0.30272108843537415,0.30272108843537415,0.30272108843537415,0.30272108843537415,0.30272108843537415,0.30272108843537415,0.30272108843537415,0.30272108843537415,0.30272108843537415,0.30272108843537415,0.30272108843537415,0.30272108843537415,0.30272108843537415,0.30272108843537415,0.30272108843537415,0.30272108843537415,0.30272108843537415,0.30272108843537415,0.30272108843537415,0.30272108843537415,0.30272108843537415,0.30272108843537415,0.30272108843537415,0.30272108843537415,0.30272108843537415,0.30272108843537415,0.30272108843537415,0.30272108843537415,0.30272108843537415,0.30272108843537415,0.30272108843537415,0.30272108843537415,0.30272108843537415,0.30272108843537415,0.30272108843537415,0.30272108843537415,0.30272108843537415,0.30272108843537415,0.30272108843537415,0.30272108843537415,0.30272108843537415,0.30272108843537415,0.30272108843537415,0.30272108843537415,0.30272108843537415,0.30272108843537415,0.30272108843537415,0.30272108843537415,0.30272108843537415,0.30272108843537415,0.30272108843537415,0.30272108843537415,0.30272108843537415,0.30272108843537415,0.30272108843537415,0.30272108843537415,0.30272108843537415,0.30272108843537415,0.30272108843537415,0.30272108843537415,0.30272108843537415,0.30272108843537415,0.30272108843537415,0.30272108843537415,0.30272108843537415,0.30272108843537415,0.30272108843537415,0.30272108843537415,0.30272108843537415,0.30272108843537415,0.30272108843537415,0.30272108843537415,0.30272108843537415,0.30272108843537415,0.30272108843537415,0.30272108843537415,0.30272108843537415,0.30272108843537415,0.30272108843537415,0.30272108843537415,0.30272108843537415,0.30272108843537415,0.30272108843537415,0.30272108843537415,0.30272108843537415,0.30272108843537415,0.30272108843537415,0.30272108843537415,0.30272108843537415,0.30272108843537415,0.30272108843537415,0.30272108843537415,0.30272108843537415,0.30272108843537415,0.30272108843537415,0.30272108843537415,0.30272108843537415,0.30272108843537415,0.30272108843537415,0.30272108843537415,0.30272108843537415,0.30272108843537415,0.30272108843537415,0.30272108843537415,0.30272108843537415,0.30272108843537415,0.30272108843537415,0.30272108843537415,0.30272108843537415,0.30272108843537415,0.30272108843537415,0.30272108843537415,0.30272108843537415,0.30272108843537415,0.30272108843537415,0.30272108843537415,0.30272108843537415,0.30272108843537415,0.30272108843537415,0.30272108843537415,0.30272108843537415,0.30272108843537415,0.30272108843537415,0.30272108843537415,0.30272108843537415,0.30272108843537415,0.30272108843537415,0.30272108843537415,0.30272108843537415,0.30272108843537415,0.30272108843537415,0.30272108843537415,0.30272108843537415,0.30272108843537415,0.30272108843537415,0.30272108843537415,0.30272108843537415,0.30272108843537415,0.30272108843537415,0.30272108843537415,0.30272108843537415,0.30272108843537415,0.30272108843537415,0.30272108843537415,0.30272108843537415,0.30272108843537415,0.30272108843537415,0.30272108843537415,0.30272108843537415,0.30272108843537415,0.30272108843537415,0.30272108843537415,0.30272108843537415,0.30272108843537415,0.30272108843537415,0.30272108843537415,0.30272108843537415,0.30272108843537415,0.30272108843537415,0.30272108843537415,0.30272108843537415,0.30272108843537415,0.30272108843537415,0.30272108843537415,0.30272108843537415,0.30272108843537415,0.30272108843537415,0.30272108843537415,0.30272108843537415,0.30272108843537415,0.30272108843537415,0.30272108843537415,0.30272108843537415,0.30272108843537415,0.30272108843537415,0.30272108843537415,0.30272108843537415,0.30272108843537415,0.30272108843537415,0.30272108843537415,0.30272108843537415,0.30272108843537415,0.30272108843537415,0.30272108843537415,0.30272108843537415,0.30272108843537415,0.30272108843537415,0.30272108843537415,0.30272108843537415,0.30272108843537415,0.30272108843537415,0.30272108843537415,0.30272108843537415,0.30272108843537415,0.30272108843537415,0.30272108843537415,0.30272108843537415,0.30272108843537415,0.30272108843537415,0.30272108843537415,0.30272108843537415,0.30272108843537415,0.30272108843537415,0.30272108843537415,0.30272108843537415,0.30272108843537415,0.30272108843537415,0.30272108843537415,0.30272108843537415,0.30272108843537415,0.30272108843537415,0.30272108843537415,0.30272108843537415,0.30272108843537415,0.30272108843537415,0.30272108843537415,0.30272108843537415,0.30272108843537415,0.30272108843537415,0.30272108843537415,0.30272108843537415,0.30272108843537415,0.30272108843537415,0.30272108843537415,0.30272108843537415,0.30272108843537415,0.30272108843537415,0.30272108843537415,0.30272108843537415,0.30272108843537415,0.30272108843537415,0.30272108843537415,0.30272108843537415,0.30272108843537415,0.30272108843537415,0.30272108843537415,0.30272108843537415,0.30272108843537415,0.30272108843537415,0.30272108843537415,0.30272108843537415,0.30272108843537415,0.30272108843537415,0.30272108843537415,0.30272108843537415,0.30272108843537415,0.30272108843537415,0.30272108843537415,0.30272108843537415,0.30272108843537415,0.30272108843537415,0.30272108843537415,0.30272108843537415,0.30272108843537415,0.30272108843537415,0.30272108843537415,0.30272108843537415,0.30272108843537415,0.30272108843537415,0.30272108843537415,0.30272108843537415,0.30272108843537415,0.30272108843537415,0.30272108843537415,0.30272108843537415,0.30272108843537415,0.30272108843537415,0.30272108843537415,0.30272108843537415,0.30272108843537415,0.30272108843537415,0.30272108843537415,0.30272108843537415,0.30272108843537415,0.30272108843537415,0.30272108843537415,0.30272108843537415,0.30272108843537415,0.30272108843537415,0.30272108843537415,0.30272108843537415,0.30272108843537415,0.30272108843537415,0.30272108843537415,0.30272108843537415,0.30272108843537415,0.30272108843537415,0.30272108843537415,0.30272108843537415,0.30272108843537415,0.30272108843537415,0.30272108843537415,0.30272108843537415,0.30272108843537415,0.30272108843537415,0.30272108843537415,0.30272108843537415,0.30272108843537415,0.30272108843537415,0.30272108843537415,0.30272108843537415,0.30272108843537415,0.30272108843537415,0.30272108843537415,0.30272108843537415,0.30272108843537415,0.30272108843537415,0.30272108843537415,0.30272108843537415,0.30272108843537415,0.30272108843537415,0.30272108843537415,0.30272108843537415,0.30272108843537415,0.30272108843537415,0.30272108843537415,0.30272108843537415,0.30272108843537415,0.30272108843537415,0.30272108843537415,0.30272108843537415,0.30272108843537415,0.30272108843537415,0.30272108843537415,0.30272108843537415,0.30272108843537415,0.30272108843537415,0.30272108843537415,0.30272108843537415,0.30272108843537415,0.30272108843537415,0.30272108843537415,0.30272108843537415,0.30272108843537415,0.30272108843537415,0.30272108843537415,0.30272108843537415,0.30272108843537415,0.30272108843537415,0.30272108843537415,0.30272108843537415,0.30272108843537415,0.30272108843537415,0.30272108843537415,0.30272108843537415,0.30272108843537415,0.30272108843537415,0.30272108843537415,0.30272108843537415,0.30272108843537415,0.30272108843537415,0.30272108843537415,0.30272108843537415,0.30272108843537415,0.30272108843537415,0.30272108843537415,0.30272108843537415,0.30272108843537415,0.30272108843537415,0.30272108843537415,0.30272108843537415,0.30272108843537415,0.30272108843537415,0.30272108843537415,0.30272108843537415,0.30272108843537415,0.30272108843537415,0.30272108843537415,0.30272108843537415,0.30272108843537415,0.30272108843537415,0.30272108843537415,0.30272108843537415,0.30272108843537415,0.30272108843537415,0.30272108843537415,0.30272108843537415,0.30272108843537415,0.30272108843537415,0.30272108843537415,0.30272108843537415,0.30272108843537415,0.30272108843537415,0.30272108843537415,0.30272108843537415,0.30272108843537415,0.30272108843537415,0.30272108843537415,0.30272108843537415,0.30272108843537415,0.30272108843537415,0.30272108843537415,0.30272108843537415,0.30272108843537415,0.30272108843537415,0.30272108843537415,0.30272108843537415,0.30272108843537415,0.30272108843537415,0.30272108843537415,0.30272108843537415,0.30272108843537415,0.30272108843537415,0.30272108843537415,0.30272108843537415,0.30272108843537415,0.30272108843537415,0.30272108843537415,0.30272108843537415,0.30272108843537415,0.30272108843537415,0.30272108843537415,0.30272108843537415,0.30272108843537415,0.30272108843537415,0.30272108843537415,0.30272108843537415,0.30272108843537415,0.30272108843537415,0.30272108843537415,0.30272108843537415,0.30272108843537415,0.30272108843537415,0.30272108843537415,0.30272108843537415,0.30272108843537415,0.30272108843537415,0.30272108843537415,0.30272108843537415,0.30272108843537415,0.30272108843537415,0.30272108843537415,0.30272108843537415,0.30272108843537415,0.30272108843537415,0.30272108843537415,0.30272108843537415,0.30272108843537415,0.30272108843537415,0.30272108843537415,0.30272108843537415,0.30272108843537415,0.30272108843537415,0.30272108843537415,0.30272108843537415,0.30272108843537415,0.30272108843537415,0.30272108843537415,0.30272108843537415,0.30272108843537415,0.30272108843537415,0.30272108843537415,0.30272108843537415,0.30272108843537415,0.30272108843537415,0.30272108843537415,0.30272108843537415,0.30272108843537415,0.30272108843537415,0.30272108843537415,0.30272108843537415,0.30272108843537415,0.30272108843537415,0.30272108843537415,0.30272108843537415,0.30272108843537415,0.30272108843537415,0.30272108843537415,0.30272108843537415,0.30272108843537415,0.30272108843537415,0.30272108843537415,0.30272108843537415,0.30272108843537415,0.30272108843537415,0.30272108843537415,0.30272108843537415,0.30272108843537415,0.30272108843537415,0.30272108843537415,0.30272108843537415,0.30272108843537415,0.30272108843537415,0.30272108843537415,0.30272108843537415,0.30272108843537415,0.30272108843537415,0.30272108843537415,0.30272108843537415,0.30272108843537415,0.30272108843537415,0.30272108843537415,0.30272108843537415,0.30272108843537415,0.30272108843537415,0.30272108843537415,0.30272108843537415,0.30272108843537415,0.30272108843537415,0.30272108843537415,0.30272108843537415,0.30272108843537415,0.30272108843537415,0.30272108843537415,0.30272108843537415,0.30272108843537415,0.30272108843537415,0.30272108843537415,0.30272108843537415,0.30272108843537415,0.30272108843537415,0.30272108843537415,0.30272108843537415,0.30272108843537415,0.30272108843537415,0.30272108843537415,0.30272108843537415,0.30272108843537415,0.30272108843537415,0.30272108843537415,0.30272108843537415,0.30272108843537415,0.30272108843537415,0.30272108843537415,0.30272108843537415,0.30272108843537415,0.30272108843537415,0.30272108843537415,0.30272108843537415,0.30272108843537415,0.30272108843537415,0.30272108843537415,0.30272108843537415,0.30272108843537415,0.30272108843537415,0.30272108843537415,0.30272108843537415,0.30272108843537415,0.30272108843537415,0.30272108843537415,0.30272108843537415,0.30272108843537415,0.30272108843537415,0.30272108843537415,0.30272108843537415,0.30272108843537415,0.30272108843537415,0.30272108843537415,0.30272108843537415,0.30272108843537415,0.30272108843537415,0.30272108843537415,0.30272108843537415,0.30272108843537415,0.30272108843537415,0.30272108843537415,0.30272108843537415,0.30272108843537415,0.30272108843537415,0.30272108843537415,0.30272108843537415,0.30272108843537415,0.30272108843537415,0.30272108843537415,0.30272108843537415,0.30272108843537415,0.30272108843537415,0.30272108843537415,0.30272108843537415,0.30272108843537415,0.30272108843537415,0.30272108843537415,0.30272108843537415,0.30272108843537415,0.30272108843537415,0.30272108843537415,0.30272108843537415,0.30272108843537415,0.30272108843537415,0.30272108843537415,0.30272108843537415,0.30272108843537415,0.30272108843537415,0.30272108843537415,0.30272108843537415,0.30272108843537415,0.30272108843537415,0.30272108843537415,0.30272108843537415,0.30272108843537415,0.30272108843537415,0.30272108843537415,0.30272108843537415,0.30272108843537415,0.30272108843537415,0.30272108843537415,0.30272108843537415,0.30272108843537415,0.30272108843537415,0.30272108843537415,0.30272108843537415,0.30272108843537415,0.30272108843537415,0.30272108843537415,0.30272108843537415,0.30272108843537415,0.30272108843537415,0.30272108843537415,0.30272108843537415,0.30272108843537415,0.30272108843537415,0.30272108843537415,0.30272108843537415,0.30272108843537415,0.30272108843537415,0.30272108843537415,0.30272108843537415,0.30272108843537415,0.30272108843537415,0.30272108843537415,0.30272108843537415,0.30272108843537415,0.30272108843537415,0.30272108843537415,0.30272108843537415,0.30272108843537415,0.30272108843537415,0.30272108843537415,0.30272108843537415,0.30272108843537415,0.30272108843537415,0.30272108843537415,0.30272108843537415,0.30272108843537415,0.30272108843537415,0.30272108843537415,0.30272108843537415,0.30272108843537415,0.30272108843537415,0.30272108843537415,0.30272108843537415,0.30272108843537415,0.30272108843537415,0.30272108843537415,0.30272108843537415,0.30272108843537415,0.30272108843537415,0.30272108843537415,0.30272108843537415,0.30272108843537415,0.30272108843537415,0.30272108843537415,0.30272108843537415,0.30272108843537415,0.30272108843537415,0.30272108843537415,0.30272108843537415,0.30272108843537415,0.30272108843537415,0.30272108843537415,0.30272108843537415,0.30272108843537415,0.30272108843537415,0.30272108843537415,0.30272108843537415,0.30272108843537415,0.30272108843537415,0.30272108843537415,0.30272108843537415,0.30272108843537415,0.30272108843537415,0.30272108843537415,0.30272108843537415,0.30272108843537415,0.30272108843537415,0.30272108843537415,0.30272108843537415,0.30272108843537415,0.30272108843537415,0.30272108843537415,0.30272108843537415,0.30272108843537415,0.30272108843537415,0.30272108843537415,0.30272108843537415,0.30272108843537415,0.30272108843537415,0.30272108843537415,0.30272108843537415,0.30272108843537415,0.30272108843537415,0.30272108843537415,0.30272108843537415,0.30272108843537415,0.30272108843537415,0.30272108843537415,0.30272108843537415,0.30272108843537415,0.30272108843537415,0.30272108843537415,0.30272108843537415,0.30272108843537415,0.30272108843537415,0.30272108843537415,0.30272108843537415,0.30272108843537415,0.30272108843537415,0.30272108843537415,0.30272108843537415,0.30272108843537415,0.30272108843537415,0.30272108843537415,0.30272108843537415,0.30272108843537415,0.30272108843537415,0.30272108843537415,0.30272108843537415,0.30272108843537415,0.30272108843537415,0.30272108843537415,0.30272108843537415,0.30272108843537415,0.30272108843537415,0.30272108843537415,0.30272108843537415,0.30272108843537415,0.30272108843537415,0.30272108843537415,0.30272108843537415,0.30272108843537415,0.30272108843537415,0.30272108843537415,0.30272108843537415,0.30272108843537415,0.30272108843537415,0.30272108843537415,0.30272108843537415,0.30272108843537415,0.30272108843537415,0.30272108843537415,0.30272108843537415,0.30272108843537415,0.30272108843537415,0.30272108843537415,0.30272108843537415,0.30272108843537415,0.30272108843537415,0.30272108843537415,0.30272108843537415,0.30272108843537415,0.30272108843537415,0.30272108843537415,0.30272108843537415,0.30272108843537415,0.30272108843537415,0.30272108843537415,0.30272108843537415,0.30272108843537415,0.30272108843537415,0.30272108843537415,0.30272108843537415,0.30272108843537415,0.30272108843537415,0.30272108843537415,0.30272108843537415,0.30272108843537415,0.30272108843537415,0.30272108843537415,0.30272108843537415,0.30272108843537415,0.30272108843537415,0.30272108843537415,0.30272108843537415,0.30272108843537415,0.30272108843537415,0.30272108843537415,0.30272108843537415,0.30272108843537415,0.30272108843537415,0.30272108843537415,0.30272108843537415,0.30272108843537415,0.30272108843537415,0.30272108843537415,0.30272108843537415,0.30272108843537415,0.30272108843537415,0.30272108843537415,0.30272108843537415,0.30272108843537415,0.30272108843537415,0.30272108843537415,0.30272108843537415,0.30272108843537415,0.30272108843537415,0.30272108843537415,0.30272108843537415,0.30272108843537415,0.30272108843537415,0.30272108843537415,0.30272108843537415,0.30272108843537415,0.30272108843537415,0.30272108843537415,0.30272108843537415,0.30272108843537415,0.30272108843537415,0.30272108843537415,0.30272108843537415,0.30272108843537415,0.30272108843537415,0.30272108843537415,0.30272108843537415,0.30272108843537415,0.30272108843537415,0.30272108843537415,0.30272108843537415,0.30272108843537415,0.30272108843537415,0.30272108843537415,0.30272108843537415,0.30272108843537415,0.30272108843537415,0.30272108843537415,0.30272108843537415,0.30272108843537415,0.30272108843537415,0.30272108843537415,0.30272108843537415,0.30272108843537415,0.30272108843537415,0.30272108843537415,0.30272108843537415,0.30272108843537415,0.30272108843537415,0.30272108843537415,0.30272108843537415,0.30272108843537415,0.30272108843537415,0.30272108843537415,0.30272108843537415,0.30272108843537415,0.30272108843537415,0.30272108843537415,0.30272108843537415,0.30272108843537415,0.30272108843537415,0.30272108843537415,0.30272108843537415,0.30272108843537415,0.30272108843537415,0.30272108843537415,0.30272108843537415,0.30272108843537415,0.30272108843537415,0.30272108843537415,0.30272108843537415,0.30272108843537415,0.30272108843537415,0.30272108843537415,0.30272108843537415,0.30272108843537415,0.30272108843537415,0.30272108843537415,0.30272108843537415,0.30272108843537415,0.30272108843537415,0.30272108843537415,0.30272108843537415,0.30272108843537415,0.30272108843537415,0.30272108843537415,0.30272108843537415,0.30272108843537415,0.30272108843537415,0.30272108843537415,0.30272108843537415,0.30272108843537415,0.30272108843537415,0.30272108843537415,0.30272108843537415,0.30272108843537415,0.30272108843537415,0.30272108843537415,0.30272108843537415,0.30272108843537415,0.30272108843537415,0.30272108843537415,0.30272108843537415,0.30272108843537415,0.30272108843537415,0.30272108843537415,0.30272108843537415,0.30272108843537415,0.30272108843537415,0.30272108843537415,0.30272108843537415,0.30272108843537415,0.30272108843537415,0.30272108843537415,0.30272108843537415,0.30272108843537415,0.30272108843537415,0.30272108843537415,0.30272108843537415,0.30272108843537415,0.30272108843537415,0.30272108843537415,0.30272108843537415,0.30272108843537415,0.30272108843537415,0.30272108843537415,0.30272108843537415,0.30272108843537415,0.30272108843537415,0.30272108843537415,0.30272108843537415,0.30272108843537415,0.30272108843537415,0.30272108843537415,0.30272108843537415,0.30272108843537415,0.30272108843537415,0.30272108843537415,0.30272108843537415,0.30272108843537415,0.30272108843537415,0.30272108843537415,0.30272108843537415,0.30272108843537415,0.30272108843537415,0.30272108843537415,0.30272108843537415,0.30272108843537415,0.30272108843537415,0.30272108843537415,0.30272108843537415,0.30272108843537415,0.30272108843537415,0.30272108843537415,0.30272108843537415,0.30272108843537415,0.30272108843537415,0.30272108843537415,0.30272108843537415,0.30272108843537415,0.30272108843537415,0.30272108843537415,0.30272108843537415,0.30272108843537415,0.30272108843537415,0.30272108843537415,0.30272108843537415,0.30272108843537415,0.30272108843537415,0.30272108843537415,0.30272108843537415,0.30272108843537415,0.30272108843537415,0.30272108843537415,0.30272108843537415,0.30272108843537415,0.30272108843537415,0.30272108843537415,0.30272108843537415,0.30272108843537415,0.30272108843537415,0.30272108843537415,0.30272108843537415,0.30272108843537415,0.30272108843537415,0.30272108843537415,0.30272108843537415,0.30272108843537415,0.30272108843537415,0.30272108843537415,0.30272108843537415,0.30272108843537415,0.30272108843537415,0.30272108843537415,0.30272108843537415,0.30272108843537415,0.30272108843537415,0.30272108843537415,0.30272108843537415,0.30272108843537415,0.30272108843537415,0.30272108843537415,0.30272108843537415,0.30272108843537415,0.30272108843537415,0.30272108843537415,0.30272108843537415,0.30272108843537415,0.30272108843537415,0.30272108843537415,0.30272108843537415,0.30272108843537415,0.30272108843537415,0.30272108843537415,0.30272108843537415,0.30272108843537415,0.30272108843537415,0.30272108843537415,0.30272108843537415,0.30272108843537415,0.30272108843537415,0.30272108843537415,0.30272108843537415,0.30272108843537415,0.30272108843537415,0.30272108843537415,0.30272108843537415,0.30272108843537415,0.30272108843537415,0.30272108843537415,0.30272108843537415,0.30272108843537415,0.30272108843537415,0.30272108843537415,0.30272108843537415,0.30272108843537415,0.30272108843537415,0.30272108843537415,0.30272108843537415,0.30272108843537415,0.30272108843537415,0.30272108843537415,0.30272108843537415,0.30272108843537415,0.30272108843537415,0.30272108843537415,0.30272108843537415,0.30272108843537415,0.30272108843537415,0.30272108843537415,0.30272108843537415,0.30272108843537415,0.30272108843537415,0.30272108843537415,0.30272108843537415,0.30272108843537415,0.30272108843537415,0.30272108843537415,0.30272108843537415,0.30272108843537415,0.30272108843537415,0.30272108843537415,0.30272108843537415,0.30272108843537415,0.30272108843537415,0.30272108843537415,0.30272108843537415,0.30272108843537415,0.30272108843537415,0.30272108843537415,0.30272108843537415,0.30272108843537415,0.30272108843537415,0.30272108843537415,0.30272108843537415,0.30272108843537415,0.30272108843537415,0.30272108843537415,0.30272108843537415,0.30272108843537415,0.30272108843537415,0.30272108843537415,0.30272108843537415,0.30272108843537415,0.30272108843537415,0.30272108843537415,0.30272108843537415,0.30272108843537415,0.30272108843537415,0.30272108843537415,0.30272108843537415,0.30272108843537415,0.30272108843537415,0.30272108843537415,0.30272108843537415,0.30272108843537415,0.30272108843537415,0.30272108843537415,0.30272108843537415,0.30272108843537415,0.30272108843537415,0.30272108843537415,0.30272108843537415,0.30272108843537415,0.30272108843537415,0.30272108843537415,0.30272108843537415,0.30272108843537415,0.30272108843537415,0.30272108843537415,0.30272108843537415,0.30272108843537415,0.30272108843537415,0.30272108843537415,0.30272108843537415,0.30272108843537415,0.30272108843537415,0.30272108843537415,0.30272108843537415,0.30272108843537415,0.30272108843537415,0.30272108843537415,0.30272108843537415,0.30272108843537415,0.30272108843537415,0.30272108843537415,0.30272108843537415,0.30272108843537415,0.30272108843537415,0.30272108843537415,0.30272108843537415,0.30272108843537415,0.30272108843537415,0.30272108843537415,0.30272108843537415,0.30272108843537415,0.30272108843537415,0.30272108843537415,0.30272108843537415,0.30272108843537415,0.30272108843537415,0.30272108843537415,0.30272108843537415,0.30272108843537415,0.30272108843537415,0.30272108843537415,0.30272108843537415,0.30272108843537415,0.30272108843537415,0.30272108843537415,0.30272108843537415,0.30272108843537415,0.30272108843537415,0.30272108843537415,0.30272108843537415,0.30272108843537415,0.30272108843537415,0.30272108843537415,0.30272108843537415,0.30272108843537415,0.30272108843537415,0.30272108843537415,0.30272108843537415,0.30272108843537415,0.30272108843537415,0.30272108843537415,0.30272108843537415,0.30272108843537415,0.30272108843537415,0.30272108843537415,0.30272108843537415,0.30272108843537415,0.30272108843537415,0.30272108843537415,0.30272108843537415,0.30272108843537415,0.30272108843537415,0.30272108843537415,0.30272108843537415,0.30272108843537415,0.30272108843537415,0.30272108843537415,0.30272108843537415,0.30272108843537415,0.30272108843537415,0.30272108843537415,0.30272108843537415,0.30272108843537415,0.30272108843537415,0.30272108843537415,0.30272108843537415,0.30272108843537415,0.30272108843537415,0.30272108843537415,0.30272108843537415,0.30272108843537415,0.30272108843537415,0.30272108843537415,0.30272108843537415,0.30272108843537415,0.30272108843537415,0.30272108843537415,0.30272108843537415,0.30272108843537415,0.30272108843537415,0.30272108843537415,0.30272108843537415,0.30272108843537415,0.30272108843537415,0.30272108843537415,0.30272108843537415,0.30272108843537415,0.30272108843537415,0.30272108843537415,0.30272108843537415,0.30272108843537415,0.30272108843537415,0.30272108843537415,0.30272108843537415,0.30272108843537415,0.30272108843537415,0.30272108843537415,0.30272108843537415,0.30272108843537415,0.30272108843537415,0.30272108843537415,0.30272108843537415,0.30272108843537415,0.30272108843537415,0.30272108843537415,0.30272108843537415,0.30272108843537415,0.30272108843537415,0.30272108843537415,0.30272108843537415,0.30272108843537415,0.30272108843537415,0.30272108843537415,0.30272108843537415,0.30272108843537415,0.30272108843537415,0.30272108843537415,0.30272108843537415,0.30272108843537415,0.30272108843537415,0.30272108843537415,0.30272108843537415,0.30272108843537415,0.30272108843537415,0.30272108843537415,0.30272108843537415,0.30272108843537415,0.30272108843537415,0.30272108843537415,0.30272108843537415,0.30272108843537415,0.30272108843537415,0.30272108843537415,0.30272108843537415,0.30272108843537415,0.30272108843537415,0.30272108843537415,0.30272108843537415,0.30272108843537415,0.30272108843537415,0.30272108843537415,0.30272108843537415,0.30272108843537415,0.30272108843537415,0.30272108843537415,0.30272108843537415,0.30272108843537415,0.30272108843537415,0.30272108843537415,0.30272108843537415,0.30272108843537415,0.30272108843537415,0.30272108843537415,0.30272108843537415,0.30272108843537415,0.30272108843537415,0.30272108843537415,0.30272108843537415,0.30272108843537415,0.30272108843537415,0.30272108843537415,0.30272108843537415,0.30272108843537415,0.30272108843537415,0.30272108843537415,0.30272108843537415,0.30272108843537415,0.30272108843537415,0.30272108843537415,0.30272108843537415,0.30272108843537415,0.30272108843537415,0.30272108843537415,0.30272108843537415,0.30272108843537415,0.30272108843537415,0.30272108843537415,0.30272108843537415,0.30272108843537415,0.30272108843537415,0.30272108843537415,0.30272108843537415,0.30272108843537415,0.30272108843537415,0.30272108843537415,0.30272108843537415,0.30272108843537415,0.30272108843537415,0.30272108843537415,0.30272108843537415,0.30272108843537415,0.30272108843537415,0.30272108843537415,0.30272108843537415,0.30272108843537415,0.30272108843537415,0.30272108843537415,0.30272108843537415,0.30272108843537415,0.30272108843537415,0.30272108843537415,0.30272108843537415,0.30272108843537415,0.30272108843537415,0.30272108843537415,0.30272108843537415,0.30272108843537415,0.30272108843537415,0.30272108843537415,0.30272108843537415,0.30272108843537415,0.30272108843537415,0.30272108843537415,0.30272108843537415,0.30272108843537415,0.30272108843537415,0.30272108843537415,0.30272108843537415,0.30272108843537415,0.30272108843537415,0.30272108843537415,0.30272108843537415,0.30272108843537415,0.30272108843537415,0.30272108843537415,0.30272108843537415,0.30272108843537415,0.30272108843537415,0.30272108843537415,0.30272108843537415,0.30272108843537415,0.30272108843537415,0.30272108843537415,0.30272108843537415,0.30272108843537415,0.30272108843537415,0.30272108843537415,0.30272108843537415,0.30272108843537415,0.30272108843537415,0.30272108843537415,0.30272108843537415,0.30272108843537415,0.30272108843537415,0.30272108843537415,0.30272108843537415,0.30272108843537415,0.30272108843537415,0.30272108843537415,0.30272108843537415,0.30272108843537415,0.30272108843537415,0.30272108843537415,0.30272108843537415,0.30272108843537415,0.30272108843537415,0.30272108843537415,0.30272108843537415,0.30272108843537415,0.30272108843537415,0.30272108843537415,0.30272108843537415,0.30272108843537415,0.30272108843537415,0.30272108843537415,0.30272108843537415,0.30272108843537415,0.30272108843537415,0.30272108843537415,0.30272108843537415,0.30272108843537415,0.30272108843537415,0.30272108843537415,0.30272108843537415,0.30272108843537415,0.30272108843537415,0.30272108843537415,0.30272108843537415,0.30272108843537415,0.30272108843537415,0.30272108843537415,0.30272108843537415,0.30272108843537415,0.30272108843537415,0.30272108843537415,0.30272108843537415,0.30272108843537415,0.30272108843537415,0.30272108843537415,0.30272108843537415,0.30272108843537415,0.30272108843537415,0.30272108843537415,0.30272108843537415,0.30272108843537415,0.30272108843537415,0.30272108843537415,0.30272108843537415,0.30272108843537415,0.30272108843537415,0.30272108843537415,0.30272108843537415,0.30272108843537415,0.30272108843537415,0.30272108843537415,0.30272108843537415,0.30272108843537415,0.30272108843537415,0.30272108843537415,0.30272108843537415,0.30272108843537415,0.30272108843537415,0.30272108843537415,0.30272108843537415,0.30272108843537415,0.30272108843537415,0.30272108843537415,0.30272108843537415,0.30272108843537415,0.30272108843537415,0.30272108843537415,0.30272108843537415,0.30272108843537415,0.30272108843537415,0.30272108843537415,0.30272108843537415,0.30272108843537415,0.30272108843537415,0.30272108843537415,0.30272108843537415,0.30272108843537415,0.30272108843537415,0.30272108843537415,0.30272108843537415,0.30272108843537415,0.30272108843537415,0.30272108843537415,0.30272108843537415,0.30272108843537415,0.30272108843537415,0.30272108843537415,0.30272108843537415,0.30272108843537415,0.30272108843537415,0.30272108843537415,0.30272108843537415,0.30272108843537415,0.30272108843537415,0.30272108843537415,0.30272108843537415,0.30272108843537415,0.30272108843537415,0.30272108843537415,0.30272108843537415,0.30272108843537415,0.30272108843537415,0.30272108843537415,0.30272108843537415,0.30272108843537415,0.30272108843537415,0.30272108843537415,0.30272108843537415,0.30272108843537415,0.30272108843537415,0.30272108843537415,0.30272108843537415,0.30272108843537415,0.30272108843537415,0.30272108843537415,0.30272108843537415,0.30272108843537415,0.30272108843537415,0.30272108843537415,0.30272108843537415,0.30272108843537415,0.30272108843537415,0.30272108843537415,0.30272108843537415,0.30272108843537415,0.30272108843537415,0.30272108843537415,0.30272108843537415,0.30272108843537415,0.30272108843537415,0.30272108843537415,0.30272108843537415,0.30272108843537415,0.30272108843537415,0.30272108843537415,0.30272108843537415,0.30272108843537415,0.30272108843537415,0.30272108843537415,0.30272108843537415,0.30272108843537415,0.30272108843537415,0.30272108843537415,0.30272108843537415,0.30272108843537415,0.30272108843537415,0.30272108843537415,0.30272108843537415,0.30272108843537415,0.30272108843537415,0.30272108843537415,0.30272108843537415,0.30272108843537415,0.30272108843537415,0.30272108843537415,0.30272108843537415,0.30272108843537415,0.30272108843537415,0.30272108843537415,0.30272108843537415,0.30272108843537415,0.30272108843537415,0.30272108843537415,0.30272108843537415,0.30272108843537415,0.30272108843537415,0.30272108843537415,0.30272108843537415,0.30272108843537415,0.30272108843537415,0.30272108843537415,0.30272108843537415,0.30272108843537415,0.30272108843537415,0.30272108843537415,0.30272108843537415,0.30272108843537415,0.30272108843537415,0.30272108843537415,0.30272108843537415,0.30272108843537415,0.30272108843537415,0.30272108843537415,0.30272108843537415,0.30272108843537415,0.30272108843537415,0.30272108843537415,0.30272108843537415,0.30272108843537415,0.30272108843537415,0.30272108843537415,0.30272108843537415,0.30272108843537415,0.30272108843537415,0.30272108843537415,0.30272108843537415,0.30272108843537415,0.30272108843537415,0.30272108843537415,0.30272108843537415,0.30272108843537415,0.30272108843537415,0.30272108843537415,0.30272108843537415,0.30272108843537415,0.30272108843537415,0.30272108843537415,0.30272108843537415,0.30272108843537415,0.30272108843537415,0.30272108843537415,0.30272108843537415,0.30272108843537415,0.30272108843537415,0.30272108843537415,0.30272108843537415,0.30272108843537415,0.30272108843537415,0.30272108843537415,0.30272108843537415,0.30272108843537415,0.30272108843537415,0.30272108843537415,0.30272108843537415,0.30272108843537415,0.30272108843537415,0.30272108843537415,0.30272108843537415,0.30272108843537415,0.30272108843537415,0.30272108843537415,0.30272108843537415,0.30272108843537415,0.30272108843537415,0.30272108843537415,0.30272108843537415,0.30272108843537415,0.30272108843537415,0.30272108843537415,0.30272108843537415,0.30272108843537415,0.30272108843537415,0.30272108843537415,0.30272108843537415,0.30272108843537415,0.30272108843537415,0.30272108843537415,0.30272108843537415,0.30272108843537415,0.30272108843537415,0.30272108843537415,0.30272108843537415,0.30272108843537415,0.30272108843537415,0.30272108843537415,0.30272108843537415,0.30272108843537415,0.30272108843537415,0.30272108843537415,0.30272108843537415,0.30272108843537415,0.30272108843537415,0.30272108843537415,0.30272108843537415,0.30272108843537415,0.30272108843537415,0.30272108843537415,0.30272108843537415,0.30272108843537415,0.30272108843537415,0.30272108843537415,0.30272108843537415,0.30272108843537415,0.30272108843537415,0.30272108843537415,0.30272108843537415,0.30272108843537415,0.30272108843537415,0.30272108843537415,0.30272108843537415,0.30272108843537415,0.30272108843537415,0.30272108843537415,0.30272108843537415,0.30272108843537415,0.30272108843537415,0.30272108843537415,0.30272108843537415,0.30272108843537415,0.30272108843537415,0.30272108843537415,0.30272108843537415,0.30272108843537415,0.30272108843537415,0.30272108843537415,0.30272108843537415,0.30272108843537415,0.30272108843537415,0.30272108843537415,0.30272108843537415,0.30272108843537415,0.30272108843537415,0.30272108843537415,0.30272108843537415,0.30272108843537415,0.30272108843537415,0.30272108843537415,0.30272108843537415,0.30272108843537415,0.30272108843537415,0.30272108843537415,0.30272108843537415,0.30272108843537415,0.30272108843537415,0.30272108843537415,0.30272108843537415,0.30272108843537415,0.30272108843537415,0.30272108843537415,0.30272108843537415,0.30272108843537415,0.30272108843537415,0.30272108843537415,0.30272108843537415,0.30272108843537415,0.30272108843537415,0.30272108843537415,0.30272108843537415,0.30272108843537415,0.30272108843537415,0.30272108843537415,0.30272108843537415,0.30272108843537415,0.30272108843537415,0.30272108843537415,0.30272108843537415,0.30272108843537415,0.30272108843537415,0.30272108843537415,0.30272108843537415,0.30272108843537415,0.30272108843537415,0.30272108843537415,0.30272108843537415,0.30272108843537415,0.30272108843537415,0.30272108843537415,0.30272108843537415,0.30272108843537415,0.30272108843537415,0.30272108843537415,0.30272108843537415,0.30272108843537415,0.30272108843537415,0.30272108843537415,0.30272108843537415,0.30272108843537415,0.30272108843537415,0.30272108843537415,0.30272108843537415,0.30272108843537415,0.30272108843537415,0.30272108843537415,0.30272108843537415,0.30272108843537415,0.30272108843537415,0.30272108843537415,0.30272108843537415,0.29931972789115646,0.29931972789115646,0.29931972789115646,0.29931972789115646,0.29931972789115646,0.29931972789115646,0.30272108843537415,0.3129251700680272,0.3163265306122449,0.3197278911564626,0.32653061224489793,0.3333333333333333,0.3435374149659864,0.36054421768707484,0.3843537414965986,0.41156462585034015,0.43537414965986393,0.47619047619047616,0.4965986394557823,0.5170068027210885,0.54421768707483,0.5510204081632653,0.5544217687074829,0.564625850340136,0.5680272108843537,0.5748299319727891,0.5782312925170068,0.5884353741496599,0.5952380952380952,0.5986394557823129,0.608843537414966,0.6156462585034014,0.6224489795918368,0.6428571428571429,0.6564625850340136,0.6700680272108843,0.7108843537414966,0.7380952380952381,0.7619047619047619,0.7857142857142857,0.8197278911564626,0.8299319727891157,0.8367346938775511,0.8469387755102041,0.8469387755102041,0.8503401360544217,0.8503401360544217,0.8537414965986394,0.8537414965986394,0.8571428571428571,0.8571428571428571,0.8605442176870748,0.8639455782312925,0.8775510204081632,0.8843537414965986,0.8945578231292517,0.9013605442176871,0.9115646258503401,0.9149659863945578,0.9183673469387755,0.9251700680272109,0.9285714285714286,0.9285714285714286,0.9319727891156463,0.935374149659864,0.9387755102040817,0.9421768707482994,0.9421768707482994,0.9455782312925171,0.9489795918367347,0.9523809523809523,0.9523809523809523,0.9625850340136054,0.9659863945578231,0.9693877551020408,0.9727891156462585,0.9761904761904762,0.9761904761904762,0.9795918367346939,0.9829931972789115,0.9829931972789115,0.9829931972789115,0.9829931972789115,0.9863945578231292,0.9863945578231292,0.9863945578231292,0.9863945578231292,0.9863945578231292,0.9863945578231292,0.9863945578231292,0.9863945578231292,0.9863945578231292,0.9863945578231292,0.9863945578231292,0.9863945578231292,0.9863945578231292,0.9863945578231292,0.9863945578231292,0.9863945578231292,0.9863945578231292,0.9863945578231292,0.9863945578231292,0.9863945578231292,0.9863945578231292,0.9863945578231292,0.9863945578231292,0.9863945578231292,0.9863945578231292,0.9863945578231292,0.9863945578231292,0.9863945578231292,0.9863945578231292,0.9863945578231292,0.9863945578231292,0.9863945578231292,0.9863945578231292,0.9863945578231292,0.9863945578231292,0.9863945578231292,0.95578231292517,0.8435374149659864,0.6496598639455783,0.2857142857142857,0.17346938775510204,0.14965986394557823,0.14965986394557823,0.14965986394557823,0.14965986394557823,0.14965986394557823,0.14965986394557823,0.14965986394557823,0.14965986394557823,0.14965986394557823,0.14965986394557823,0.14965986394557823,0.14965986394557823,0.14965986394557823,0.14965986394557823,0.14965986394557823,0.14965986394557823,0.14965986394557823,0.14965986394557823,0.14965986394557823,0.14965986394557823,0.14965986394557823,0.14965986394557823,0.14965986394557823,0.14965986394557823,0.14965986394557823,0.14965986394557823,0.14965986394557823,0.14965986394557823,0.14965986394557823,0.14965986394557823,0.14965986394557823,0.14965986394557823,0.14965986394557823,0.14965986394557823,0.14965986394557823,0.14965986394557823,0.14965986394557823,0.14965986394557823,0.14965986394557823,0.14965986394557823,0.14965986394557823,0.14965986394557823,0.14965986394557823,0.14965986394557823,0.14965986394557823,0.14965986394557823,0.14965986394557823,0.14965986394557823,0.14965986394557823,0.14965986394557823,0.14965986394557823,0.14965986394557823,0.14965986394557823,0.14965986394557823,0.14965986394557823,0.14965986394557823,0.14965986394557823,0.14965986394557823,0.14965986394557823,0.14965986394557823,0.14965986394557823,0.14965986394557823,0.14965986394557823,0.14965986394557823,0.14965986394557823,0.14965986394557823,0.14965986394557823,0.14965986394557823,0.14965986394557823,0.14965986394557823,0.14965986394557823,0.14965986394557823,0.14965986394557823,0.14965986394557823,0.14965986394557823,0.14965986394557823,0.14965986394557823,0.14965986394557823,0.14965986394557823,0.14965986394557823,0.14965986394557823,0.14965986394557823,0.14965986394557823,0.14965986394557823,0.14965986394557823,0.14965986394557823,0.14965986394557823,0.14965986394557823,0.14965986394557823,0.14965986394557823,0.14965986394557823,0.14965986394557823,0.14965986394557823,0.14965986394557823,0.14965986394557823,0.14965986394557823,0.14965986394557823,0.14965986394557823,0.14965986394557823,0.14965986394557823,0.14965986394557823,0.14965986394557823,0.14965986394557823,0.14965986394557823,0.14965986394557823,0.14965986394557823,0.14965986394557823,0.14965986394557823,0.14965986394557823,0.14965986394557823,0.14965986394557823,0.14965986394557823,0.14965986394557823,0.14965986394557823,0.14965986394557823,0.14965986394557823,0.14965986394557823,0.14965986394557823,0.14965986394557823,0.14965986394557823,0.14965986394557823,0.14965986394557823,0.14965986394557823,0.14965986394557823,0.14965986394557823,0.14965986394557823,0.14965986394557823,0.14965986394557823,0.14965986394557823,0.14965986394557823,0.14965986394557823,0.14965986394557823,0.14965986394557823,0.14965986394557823,0.14965986394557823,0.14965986394557823,0.14965986394557823,0.14965986394557823,0.14965986394557823,0.14965986394557823,0.14965986394557823,0.14965986394557823,0.14965986394557823,0.14965986394557823,0.14965986394557823,0.14965986394557823,0.14965986394557823,0.14965986394557823,0.14965986394557823,0.14965986394557823,0.14965986394557823,0.14965986394557823,0.14965986394557823,0.14965986394557823,0.14965986394557823,0.14965986394557823,0.14965986394557823,0.14965986394557823,0.14965986394557823,0.14965986394557823,0.14965986394557823,0.14965986394557823,0.14965986394557823,0.14965986394557823,0.14965986394557823,0.14965986394557823,0.14965986394557823,0.14965986394557823,0.14965986394557823,0.14965986394557823,0.14965986394557823,0.14965986394557823,0.14965986394557823,0.14965986394557823,0.14965986394557823,0.14965986394557823,0.14965986394557823,0.14965986394557823,0.14965986394557823,0.14965986394557823,0.14965986394557823,0.14965986394557823,0.14965986394557823,0.14965986394557823,0.14965986394557823,0.14965986394557823,0.14965986394557823,0.14965986394557823,0.14965986394557823,0.14965986394557823,0.14965986394557823,0.14965986394557823,0.14965986394557823,0.14965986394557823,0.14965986394557823,0.14965986394557823,0.14965986394557823,0.14965986394557823,0.14965986394557823,0.14965986394557823,0.14965986394557823,0.14965986394557823,0.14965986394557823,0.14965986394557823,0.14965986394557823,0.14965986394557823,0.14965986394557823,0.14965986394557823,0.14965986394557823,0.14965986394557823,0.14965986394557823,0.14965986394557823,0.14965986394557823,0.14965986394557823,0.14965986394557823,0.14965986