[{"success":true,"trial_type":"fullscreen","trial_index":0,"time_elapsed":3582,"internal_node_id":"0.0-0.0","protocol_sum":"","subject_identifier":339,"subject_sum":[245,126,92,177,244,83,44,0,129,131,5,126,204,148,40,56,1,252,181,175,226,209,193,144,227,223,211,140,77,160,128,66],"subject_pair":169,"STUDY_ID":"66a0b3911f23dfc7665bb169","PROLIFIC_PID":"668023fa59d86547a149ae97","SESSION_ID":"66a20a8c55df3fda0c122c0c","practice_instructions":1,"leaderboard_instructions":0,"bonus":0,"reveal_word":true,"self_rating":"2","confidence":"85"},{"view_history":"[{\"page_index\":0,\"viewing_time\":4199.79999999702}]","rt":4200.19999999553,"trial_type":"instructions","trial_index":1,"time_elapsed":7784,"internal_node_id":"0.0-1.0","protocol_sum":"","subject_identifier":339,"subject_sum":[245,126,92,177,244,83,44,0,129,131,5,126,204,148,40,56,1,252,181,175,226,209,193,144,227,223,211,140,77,160,128,66],"subject_pair":169,"STUDY_ID":"66a0b3911f23dfc7665bb169","PROLIFIC_PID":"668023fa59d86547a149ae97","SESSION_ID":"66a20a8c55df3fda0c122c0c","practice_instructions":1,"leaderboard_instructions":0,"bonus":0,"reveal_word":true,"self_rating":"2","confidence":"85"},{"view_history":"[{\"page_index\":0,\"viewing_time\":34758.5}]","rt":34758.80000000447,"trial_type":"instructions","trial_index":2,"time_elapsed":42544,"internal_node_id":"0.0-2.0-0.0","protocol_sum":"","subject_identifier":339,"subject_sum":[245,126,92,177,244,83,44,0,129,131,5,126,204,148,40,56,1,252,181,175,226,209,193,144,227,223,211,140,77,160,128,66],"subject_pair":169,"STUDY_ID":"66a0b3911f23dfc7665bb169","PROLIFIC_PID":"668023fa59d86547a149ae97","SESSION_ID":"66a20a8c55df3fda0c122c0c","practice_instructions":1,"leaderboard_instructions":0,"bonus":0,"reveal_word":true,"self_rating":"2","confidence":"85"},{"rt":16231.60000000149,"responses":"{\"Q0\":\"... reveal the word with as <b>few letter guesses</b> as possible\"}","question_order":"[0]","trial_type":"survey-multi-choice","trial_index":3,"time_elapsed":58782,"internal_node_id":"0.0-2.0-1.0","protocol_sum":"","subject_identifier":339,"subject_sum":[245,126,92,177,244,83,44,0,129,131,5,126,204,148,40,56,1,252,181,175,226,209,193,144,227,223,211,140,77,160,128,66],"subject_pair":169,"correct":true,"test_part":"multichoice_nonpretend","STUDY_ID":"66a0b3911f23dfc7665bb169","PROLIFIC_PID":"668023fa59d86547a149ae97","SESSION_ID":"66a20a8c55df3fda0c122c0c","practice_instructions":1,"leaderboard_instructions":0,"bonus":0,"reveal_word":true,"self_rating":"2","confidence":"85"},{"view_history":"[{\"page_index\":0,\"viewing_time\":38521.79999999702}]","rt":38521.89999999851,"trial_type":"instructions","trial_index":4,"time_elapsed":97305,"internal_node_id":"0.0-3.0","protocol_sum":"","subject_identifier":339,"subject_sum":[245,126,92,177,244,83,44,0,129,131,5,126,204,148,40,56,1,252,181,175,226,209,193,144,227,223,211,140,77,160,128,66],"subject_pair":169,"STUDY_ID":"66a0b3911f23dfc7665bb169","PROLIFIC_PID":"668023fa59d86547a149ae97","SESSION_ID":"66a20a8c55df3fda0c122c0c","practice_instructions":1,"leaderboard_instructions":0,"bonus":0,"reveal_word":true,"self_rating":"2","confidence":"85"},{"word":"ZEBRA","click_log":{"letter":["","A","E","B","Z","R"],"t":[0,23130,41116.89999999851,96813.89999999851,98725.69999999553,100994.39999999851],"hit":[null,1,1,1,1,1],"asked":["","A","AE","AEB","AEBZ","AEBZR"],"word_state":["_____","____A","_E__A","_EB_A","ZEB_A","ZEBRA"]},"hover_log":{"letter":["?","?","?","?","?","?","?","?","?","?","?","?","?","?","?","?","?","?","?","?","?","?","?","?","?","?","?","?","?","?","?","?","?","?","?","?","?","?","?","?","?","?","?","?","?","?","?","?","?","?","?","?","?","?","?","?","?","?","?","?","?","?","?","?","?","?","?","?","?","?","?","?","?","?","?","?","?","?","?","?","?","?","?","?","?","?","?","?","?","?","?","?","?","?","?","?","?","?","?","?","?","?","?","?","?","?","?","?","?","?","?","?","?","?","?","?","?","?","?","?","?","?","?","?","?","?","?","?","?","?","?","?","?","?","?","?","?","?","?","?","?","?","?","?","?","?","?","?","?","?","?","?","?","?","?","?","?","?","?","?","?","?","?","?","?","?","?","?","?","?","?","?","?","?","?","?","?","?","?","?","?","?","?","?","?","?","?","?","?","?","?","?","?","?","?","?","?","?","?","?","?","?","?","?","?","?","?","?","?","?","?","?","?","?","?","?","?","?","?","?","?","?","?","?","?","?","?","?","?","?","?","?","?","?","?","?","?","?","?","?","?","?","?","?","?","?","?","?","?","?","?","?","?","?","?","?","?","?","?","?","?","?","?","?","?","?","?","?","?","?","?","?","?","?","?","?","?","?","?","?","?","?","?","?","?","?","?","?","?","?","?","?","?","?","?","?","?","?","?","?","?","?","?","?","?","?","?","?","?","?","?","?","?","?","?","?","?","?","?","?","?","?","?","?","?","?","?","?","?","?","?","?","?","?","?","?","?","?","?","?","?","?","?","?","?","?","?","?","?","?","?","?","?","?","?","?","?","?","?","?","?","?","?","?","?","?","?","?","?","?","?","?","?","?","?","?","?","?","?","?","?","?","?","?","?","?","?","?","?","?","?","?","?","?","?","?","?","?","?","?","?","?","?","?","?","?","?","?","?","?","?","?","?","?","?","?","?","?","?","?","?","?","?","?","?","?","?","?","?","?","?","?","?","?","?","?","?","?","?","?","?","?","?","?","?","?","?","?","?","?","?","?","?","?","?","?","?","?","?","?","?","?","?","?","?","?","?","?","?","?","?","?","?","?","?","?","?","?","?","?","?","?","?","?","?","?","?","?","?","?","?","?","?","?","?","?","?","?","?","?","?","?","?","?","?","?","?","?","?","?","?","?","?","?","?","?","?","?","?","?","?","?","?","?","?","?","?","?","?","?","?","?","?","?","?","?","?","?","?","?","?","?","?","?","?","?","?","?","?","?","?","?","?","?","?","?","?","?","?","?","?","?","?","?","?","?","?","?","?","?","?","?","?","?","?","?","?","?","?","?","?","?","?","?","?","?","?","?","?","?","?","?","?","?","?","?","?","?","?","?","?","?","?","?","?","?","?","?","?","?","?","?","?","?","?","?","?","?","?","?","?","?","?","?","?","?","?","?","?","?","?","?","?","?","?","?","?","?","?","?","?","?","?","?","?","?","?","?","?","?","?","?","?","?","?","?","?","?","?","?","?","?","?","?","?","?","?","?","?","?","?","?","?","?","?","?","?","?","?","?","?","?","?","?","?","?","?","?","?","?","?","?","?","?","?","?","?","?","?","?","?","?","?","?","?","?","?","?","?","?","?","?","?","?","?","?","?","?","?","?","?","?","?","?","?","?","?","?","?","?","?","?","?","?","?","?","?","?","?","?","?","?","?","?","?","?","?","?","?","?","?","?","?","?","?","?","?","?","?","?","?","?","?","?","?","?","?","?","?","?","?","?","?","?","?","?","?","?","?","?","?","?","?","?","?","?","?","?","?","?","?","?","?","?","?","?","?","?","?","?","?","?","?","?","?","?","?","?","?","?","?","?","?","?","?","?","?","?","?","?","?","?","?","?","?","?","?","?","?","?","?","?","?","?","?","?","?","?","?","?","?","?","?","?","?","?","?","?","?","?","?","?","?","?","?","?","?","?","?","?","?","?","?","?","?","?","?","?","?","?","?","?","?","?","?","?","?","?","?","?","?","?","?","?","?","?","?","?","?","?","?","?","?","?","?","?","?","?","?","?","?","?","?","?","?","?","?","?","?","?","?","?","?","?","?","?","?","?","?","?","?","?","?","?","?","?","?","?","?","?","?","?","?","?","?","?","?","?","?","?","?","?","?","?","?","?","?","?","?","?","?","?","?","?","?","?","?","?","?","?","?","?","?","?","?","?","?","?","?","?","?","?","?","?","?","?","?","?","?","?","?","?","?","?","?","?","?","?","?","?","?","?","?","?","?","?","?","?","?","?","?","?","?","?","?","?","?","?","?","?","?","?","?","?","?","?","?","?","?","?","?","?","?","?","?","?","?","?","?","?","?","?","?","?","?","?","?","?","?","?","?","?","?","?","?","?","?","?","?","?","?","?","?","?","?","?","?","?","?","?","?","?","?","?","?","?","?","?","?","?","?","?","?","?","?","?","?","?","?","?","?","?","?","?","?","?","?","?","?","?","?","?","?","?","?","?","?","?","?","?","?","?","?","?","?","?","?","?","?","?","?","?","?","?","?","?","?","?","?","?","?","?","?","?","?","?","?","?","?","?","?","?","?","?","?","?","?","?","?","?","?","?","?","?","?","?","?","?","?","?","?","?","?","?","?","?","?","?","?","?","?","?","?","?","?","?","?","?","?","?","?","?","?","?","?","?","?","?","?","?","?","?","?","?","?","?","?","?","?","?","?","?","?","?","?","?","?","?","?","?","?","?","?","?","?","?","?","?","?","?","?","?","?","?","?","?","?","?","?","?","?","?","?","?","?","?","?","?","?","?","?","?","?","?","?","?","?","?","?","?","?","?","?","?","?","?","?","?","?","?","?","?","?","?","?","?","?","?","?","?","?","?","?","?","?","?","?","?","?","?","?","?","?","?","?","?","?","?","?","?","?","?","?","?","?","?","?","?","?","?","?","?","?","?","?","?","?","?","?","?","?","?","?","?","?","?","?","?","?","?","?","?","?","?","?","?","?","?","?","J","J","J","?","?","A","A","A","?","?","?","?","?","?","?","?","?","?","?","?","?","?","?","?","?","?","?","?","?","?","?","?","?","?","?","?","?","?","A","A","A","A","A","A","A","A","A","A","A","A","A","A","A","A","A","A","A","A","A","A","A","A","A","A","A","A","A","A","A","A","A","A","A","A","A","A","A","A","A","A","A","A","A","A","A","A","A","A","A","A","A","A","A","A","A","A","A","A","A","A","A","A","A","A","A","A","A","A","A","A","A","A","A","A","A","A","A","A","A","A","A","A","A","A","A","A","A","A","A","A","A","A","A","A","A","A","?","?","?","?","?","?","?","?","?","?","?","?","?","?","?","?","?","?","?","?","?","?","?","?","?","?","?","?","?","?","?","?","?","?","?","?","?","?","?","?","?","?","?","?","?","?","?","?","?","?","?","?","?","?","?","?","?","?","?","?","?","?","?","?","?","?","?","?","?","?","?","?","?","?","?","?","?","?","?","?","?","?","?","?","?","?","?","?","?","?","?","?","?","?","?","?","?","?","?","?","?","?","?","?","?","?","?","?","?","B","B","B","B","B","B","B","B","B","?","?","?","?","?","?","?","?","?","?","?","?","?","?","?","?","?","?","?","?","C","C","C","C","C","C","C","?","?","D","D","D","D","D","D","D","D","D","D","D","D","D","D","D","D","D","D","D","?","?","?","?","?","?","?","?","?","?","?","?","?","?","E","E","E","E","E","E","E","E","E","E","E","E","E","E","E","E","E","?","?","?","?","?","?","D","D","D","D","D","D","D","D","D","D","D","D","D","D","D","D","D","D","D","D","D","D","D","D","D","D","D","D","D","D","D","D","D","D","D","D","D","D","D","D","D","D","D","D","D","D","D","D","D","D","D","D","D","D","D","D","D","D","D","D","D","D","D","D","D","D","D","D","D","D","D","D","D","D","D","D","D","D","D","D","D","D","D","D","D","D","D","D","D","D","D","D","D","D","D","D","D","D","D","D","D","D","D","D","D","D","D","D","D","D","D","D","D","D","D","D","D","D","D","D","D","D","D","D","D","D","D","D","D","D","D","D","D","D","D","D","D","D","D","D","D","D","D","D","D","D","D","D","D","D","D","D","D","D","D","D","D","D","D","D","D","D","D","D","D","D","D","D","D","D","D","D","D","D","D","D","D","D","D","D","D","D","D","D","D","D","D","D","D","D","D","D","D","D","D","D","D","D","D","D","D","D","D","D","D","D","D","D","D","D","D","D","D","D","D","D","D","D","D","D","D","D","D","D","D","D","D","D","D","D","D","D","D","D","D","D","D","D","D","D","D","D","D","D","D","D","D","D","D","D","D","D","D","D","D","D","D","D","D","D","D","D","D","D","D","D","D","D","D","D","D","D","D","D","D","D","D","D","D","D","D","D","D","D","D","D","D","D","D","D","D","D","D","D","D","D","D","D","D","D","D","D","D","D","D","D","D","D","D","D","D","D","D","D","D","D","D","D","D","D","D","D","D","D","D","D","D","D","D","D","D","D","D","D","D","D","D","D","D","D","D","D","D","D","D","D","D","D","D","D","D","D","D","D","D","D","D","D","D","D","D","D","D","D","D","D","D","D","D","D","D","D","D","D","D","D","D","D","D","D","D","D","D","D","D","D","D","D","D","D","D","D","D","D","D","D","D","D","D","D","D","D","D","D","D","D","D","D","D","D","D","D","D","D","D","D","D","D","D","D","D","D","D","D","D","D","D","D","D","D","D","D","D","D","D","D","D","D","D","D","D","D","D","D","D","D","D","D","D","D","D","D","D","D","D","D","D","D","D","D","D","D","D","D","D","D","D","D","D","D","D","D","D","D","D","D","D","D","D","D","D","D","D","D","D","D","D","D","D","D","D","D","D","D","D","D","D","D","D","D","D","D","D","D","D","D","D","D","D","D","D","D","D","D","D","D","D","D","D","D","D","D","D","D","D","D","D","D","D","D","D","D","D","D","D","D","D","D","D","D","D","D","D","D","D","D","D","D","D","D","D","D","D","D","D","D","D","D","D","D","D","D","D","D","D","D","D","D","D","D","D","D","D","D","D","D","D","D","D","D","D","D","D","D","D","D","D","D","D","D","D","D","D","D","D","D","D","D","D","D","D","D","D","D","D","D","D","D","D","D","D","D","D","D","D","D","D","D","D","D","D","D","D","D","D","D","D","D","D","D","D","D","D","D","D","D","D","D","D","D","D","D","D","D","D","D","D","D","D","D","D","D","D","D","D","D","D","D","D","D","D","D","D","D","D","D","D","D","D","D","D","D","D","D","D","D","D","D","D","D","D","D","D","D","D","D","D","D","D","D","D","D","D","D","D","D","D","D","D","D","D","D","D","D","D","D","D","D","D","D","D","D","D","D","D","D","D","D","D","D","?","?","?","E","E","E","E","E","E","?","?","?","?","?","?","?","?","?","?","?","?","?","?","?","?","?","?","?","?","?","?","?","?","?","?","?","?","?","?","?","?","?","?","?","?","?","?","?","?","E","E","E","E","E","E","E","E","E","E","E","E","E","E","E","E","E","E","E","E","E","E","E","E","E","E","E","E","E","E","E","E","E","E","E","E","E","E","E","E","E","E","E","E","E","E","E","E","E","E","E","E","E","E","E","E","E","E","E","E","E","E","E","E","E","E","E","E","E","E","E","E","E","E","E","E","E","E","E","?","?","?","?","?","?","?","?","O","O","O","O","O","O","O","O","O","O","?","?","?","?","?","?","?","?","?","?","?","?","?","?","?","?","?","?","?","?","?","?","?","?","?","?","?","?","?","?","?","?","?","?","?","?","?","?","?","?","?","?","?","?","?","?","?","?","?","?","?","?","?","?","?","?","?","?","?","?","?","?","?","?","?","?","?","?","?","?","?","?","?","?","?","?","?","?","?","?","?","?","?","?","?","?","?","?","?","?","?","?","?","?","?","?","?","?","?","?","?","?","?","?","?","?","?","?","?","?","?","?","?","?","?","?","?","?","?","?","?","?","?","?","?","?","?","?","?","?","?","?","?","?","?","?","?","?","?","?","?","?","?","?","?","?","?","?","?","?","?","?","?","?","?","?","?","?","?","?","?","?","?","?","?","?","?","?","?","?","?","?","?","?","?","?","?","?","?","?","?","?","?","?","?","?","?","?","?","?","?","?","?","?","?","?","?","?","?","?","?","?","?","?","?","?","?","?","?","?","?","?","?","?","?","?","?","?","?","?","?","?","?","?","?","?","?","?","?","?","?","?","?","?","?","?","?","?","?","?","?","?","?","?","?","?","?","?","?","?","?","?","?","?","?","?","?","?","?","?","?","?","?","?","?","?","?","?","?","?","?","?","?","?","?","?","?","?","?","?","?","?","?","?","?","?","?","?","?","?","?","?","?","?","?","?","?","?","?","?","?","?","?","?","?","?","?","?","?","?","?","?","?","?","?","?","?","?","?","?","?","?","?","?","?","?","?","?","?","?","?","?","?","?","?","?","?","?","?","?","?","?","?","?","?","?","?","?","?","?","?","?","?","?","?","?","?","?","?","?","?","?","?","?","?","?","?","?","?","?","?","?","?","?","?","?","?","?","?","?","?","?","?","?","?","?","?","?","?","?","?","?","?","?","?","?","?","?","?","?","?","?","?","?","?","?","?","?","?","?","?","?","?","?","?","?","?","?","?","?","?","?","?","?","?","?","?","?","?","?","?","?","?","?","?","?","?","?","?","?","?","?","?","?","?","?","?","?","?","?","?","?","?","?","?","?","?","?","?","?","?","?","?","?","?","?","?","?","?","?","?","?","?","?","?","?","?","?","?","?","?","?","?","?","?","?","?","?","?","?","?","?","?","?","?","?","?","?","?","?","?","?","?","?","?","?","?","?","?","?","?","?","?","?","?","?","?","?","?","?","?","?","?","?","?","?","?","?","?","?","?","?","?","?","?","?","?","?","?","?","?","?","?","?","?","?","?","?","?","?","?","?","?","?","?","?","?","?","?","?","?","?","?","?","?","?","?","?","?","?","?","?","?","?","?","?","?","?","?","?","?","?","?","?","?","?","?","?","?","?","?","?","?","?","?","?","?","?","?","?","?","?","?","?","?","?","?","?","?","?","?","?","?","?","?","?","?","?","?","?","?","?","?","?","?","?","?","?","?","?","?","?","?","?","?","?","?","?","?","?","?","?","?","?","?","?","?","?","?","?","?","?","?","?","?","?","?","?","?","?","?","?","?","?","?","?","?","?","?","?","?","?","?","?","?","?","?","?","?","?","?","?","?","?","?","?","?","?","?","?","?","?","?","?","?","?","?","?","?","?","?","?","?","?","?","?","?","?","?","?","?","?","?","?","?","?","?","?","?","?","?","?","?","?","?","?","?","?","?","?","?","?","?","?","?","?","?","?","?","?","?","?","?","?","?","?","?","?","?","?","?","?","?","?","?","?","?","?","?","?","?","?","?","?","?","?","?","?","?","?","?","?","?","?","?","?","?","?","?","?","?","?","?","?","?","?","?","?","?","?","?","?","?","?","?","?","?","?","?","?","?","?","?","?","?","?","?","?","?","?","?","?","?","?","?","?","?","?","?","?","?","?","?","?","?","?","?","?","?","?","?","?","?","?","?","?","?","?","?","?","?","?","?","?","?","?","?","?","?","?","?","?","?","?","?","?","?","?","?","?","?","?","?","?","?","?","?","?","?","?","?","?","?","?","?","?","?","?","?","?","?","?","?","?","?","?","?","?","?","?","?","?","?","?","?","?","?","?","?","?","?","?","?","?","?","?","?","?","?","?","?","?","?","?","?","?","?","?","?","?","?","?","?","?","?","?","?","?","?","?","?","?","?","?","?","?","?","?","?","?","?","?","?","?","?","?","?","?","?","?","?","?","?","?","?","?","?","?","?","?","?","?","?","?","?","?","?","?","?","?","?","?","?","?","?","?","?","?","?","?","?","?","?","?","?","?","?","?","?","?","?","?","?","?","?","?","?","?","?","?","?","?","?","?","?","?","?","?","?","?","?","?","?","?","?","?","?","?","?","?","?","?","?","?","?","?","?","?","?","?","?","?","?","?","?","?","?","?","?","?","?","?","?","?","?","?","?","?","?","?","?","?","?","?","?","?","?","?","?","?","?","?","?","?","?","?","?","?","?","?","?","?","?","?","?","?","?","?","?","?","?","?","?","?","?","?","?","?","?","?","?","?","?","?","?","?","?","?","?","?","?","?","?","?","?","?","?","?","?","?","?","?","?","?","?","?","?","?","?","?","?","?","?","?","?","?","?","?","?","?","?","?","?","?","?","?","?","?","?","?","?","?","?","?","?","?","?","?","?","?","?","?","?","?","?","?","?","?","?","?","?","?","?","?","?","?","?","?","?","?","?","?","?","?","?","?","?","?","?","?","?","?","?","?","?","?","?","?","?","?","?","?","?","?","?","?","?","?","?","?","?","?","?","?","?","?","?","?","?","?","?","?","?","?","?","?","?","?","?","?","?","?","?","?","?","?","?","?","?","?","?","?","?","?","?","?","?","?","?","?","?","?","?","?","?","?","?","?","?","?","?","?","?","?","?","?","?","?","?","?","?","?","?","?","?","?","?","?","?","?","?","?","?","?","?","?","?","?","?","?","?","?","?","?","?","?","?","?","?","?","?","?","?","?","?","?","?","?","?","?","?","?","?","?","?","?","?","?","?","?","?","?","?","?","?","?","?","?","?","?","?","?","?","?","?","?","?","?","?","?","?","?","?","?","?","?","?","?","?","?","?","?","?","?","?","?","?","?","?","?","?","?","?","?","?","?","?","?","?","?","?","?","?","?","?","?","?","?","?","?","?","?","?","?","?","?","?","?","?","?","?","?","?","?","?","?","?","?","?","?","?","?","?","?","?","?","?","?","?","?","?","?","?","?","?","?","?","?","?","?","?","?","?","?","?","?","?","?","?","?","?","?","?","?","?","?","?","?","?","?","?","?","?","?","?","?","?","?","?","?","?","?","?","?","?","?","?","?","?","?","?","?","?","?","?","?","?","?","?","?","?","?","?","?","?","?","?","?","?","?","?","?","?","?","?","?","?","?","?","?","?","?","?","?","?","?","?","?","?","?","?","?","?","?","?","?","?","?","?","?","?","?","?","?","?","?","?","?","?","?","?","?","?","?","?","?","?","?","?","?","?","?","?","?","?","?","?","?","?","?","?","?","?","?","?","?","?","?","?","?","?","?","?","?","?","?","?","?","?","?","?","?","?","?","?","?","?","?","?","?","?","?","?","?","?","?","?","?","?","?","?","?","?","?","?","?","?","?","?","?","?","?","?","?","?","?","?","?","?","?","?","?","?","?","?","?","?","?","?","?","?","?","?","?","?","?","?","?","?","?","?","?","?","?","?","?","?","?","?","?","?","?","?","?","?","?","?","?","?","?","?","?","?","?","?","?","?","?","?","?","?","?","?","?","?","?","?","?","?","?","?","?","?","?","?","?","?","?","?","?","?","?","?","?","?","?","?","?","?","?","?","?","?","?","?","?","?","?","?","?","?","?","?","?","?","?","?","?","?","?","?","?","?","?","?","?","?","?","?","?","?","?","?","?","?","?","?","?","?","?","?","?","?","?","?","?","?","?","?","?","Y","Y","?","?","?","X","X","X","X","X","X","X","?","?","?","W","W","W","W","W","W","W","W","W","W","W","W","W","W","W","W","W","W","W","W","W","W","W","W","W","W","W","W","W","W","W","W","W","W","W","W","W","W","W","W","W","W","W","W","W","W","W","W","W","W","W","W","W","W","W","W","W","W","W","W","W","W","W","W","W","W","W","W","W","W","W","W","W","W","W","W","W","W","W","W","W","W","W","W","W","W","W","W","W","W","W","W","W","W","W","W","W","W","W","W","W","W","W","W","W","W","W","W","W","W","W","W","W","W","W","W","W","W","W","W","W","W","W","W","W","W","W","W","W","W","W","W","W","W","W","W","W","W","W","W","W","W","W","W","W","W","W","W","W","W","W","W","W","W","W","W","W","W","W","W","W","W","W","W","W","W","W","W","W","W","W","W","W","W","W","W","W","W","W","W","W","W","W","W","W","W","W","W","W","W","W","W","W","W","W","W","W","W","W","W","W","W","W","W","W","W","W","W","W","W","W","W","W","W","W","W","W","W","W","W","W","W","W","W","W","W","W","W","W","W","W","W","W","W","W","W","W","W","W","W","W","W","W","W","W","W","W","W","W","W","W","W","W","W","W","W","W","W","W","W","W","W","W","W","W","W","W","W","W","W","W","W","?","?","V","V","?","?","?","L","L","L","L","L","L","L","L","L","L","?","?","?","?","?","?","?","?","?","?","?","?","?","?","?","?","?","?","?","?","?","?","?","?","?","B","?","?","?","?","?","?","?","?","?","?","?","?","?","?","?","?","?","?","?","?","?","?","?","?","?","?","?","?","?","?","?","?","?","?","?","?","?","?","?","?","?","?","?","?","?","?","?","?","?","?","?","?","?","?","?","?","?","?","?","?","?","?","?","?","?","?","?","?","?","?","?","?","?","?","?","?","?","D","D","D","D","D","D","D","D","?","?","?","?","?","?","?","?","?","?","?","?","?","?","?","?","?","?","?","?","?","?","?","?","?","?","?","?","?","?","?","?","?","?","?","?","?","?","?","?","?","?","?","?","?","?","?","?","?","?","?","?","?","?","?","?","?","?","?","?","?","?","?","?","?","?","?","?","?","?","?","?","?","?","?","?","?","?","?","?","?","?","?","?","?","?","?","?","?","?","?","?","?","?","?","?","?","?","?","?","?","?","?","?","?","?","?","?","?","?","?","?","?","?","?","?","?","?","?","?","?","?","?","?","?","?","?","?","?","?","?","?","?","?","?","?","?","?","?","?","?","?","?","?","?","?","?","?","?","?","?","?","?","?","?","?","?","?","?","?","?","?","?","?","?","?","?","?","?","?","?","?","?","?","?","?","?","?","?","?","?","?","?","?","?","?","?","?","?","?","?","?","?","?","?","?","?","?","?","?","?","?","?","?","?","?","?","?","?","?","?","?","?","?","?","?","?","?","?","?","?","?","?","?","?","?","?","?","?","?","?","?","?","?","?","?","?","?","?","?","?","?","?","?","?","?","?","?","?","?","?","?","?","?","?","?","?","?","?","?","?","?","?","?","?","?","?","?","?","?","?","?","?","?","?","?","?","?","?","?","?","?","?","?","?","?","?","?","?","?","?","?","?","N","N","?","?","?","?","O","O","?","P","P","Q","Q","?","?","?","?","?","?","?","?","?","?","?","?","?","?","?","?","?","?","?","?","?","?","?","?","?","?","?","?","?","?","?","?","?","?","?","?","?","?","?","?","?","?","?","?","?","?","?","?","?","?","?","?","?","?","?","?","?","?","?","?","?","?","?","?","?","?","?","?","?","?","?","?","?","?","?","?","?","?","?","?","?","?","?","?","?","?","?","?","?","?","?","?","?","?","?","?","?","?","?","?","?","?","?","?","?","?","?","?","?","?","?","?","?","?","?","?","?","?","?","?","?","?","?","?","?","?","?","?","?","?","?","?","?","?","?","?","?","?","?","?","?","?","?","?","?","?","?","?","?","?","?","?","?","?","?","?","?","?","?","?","?","?","?","?","?","?","?","?","?","?","?","?","?","?","?","?","?","?","?","?","?","?","?","?","?","?","?","?","?","?","?","?","?","?","?","?","?","?","?","?","?","?","?","?","?","?","?","?","?","?","?","?","?","?","?","?","?","?","?","?","?","?","?","?","?","?","?","?","?","?","?","?","?","?","?","?","?","?","?","?","?","?","?","?","?","?","?","?","?","?","?","?","?","?","?","?","?","?","?","?","?","?","?","?","?","?","?","?","?","?","?","?","?","?","?","?","?","?","?","?","?","?","?","?","?","?","?","?","?","?","?","?","?","?","?","?","?","?","?","?","?","?","?","?","?","?","?","?","?","?","?","?","?","?","?","?","?","?","?","?","?","?","?","?","?","?","?","?","?","?","?","?","?","?","?","?","?","?","?","?","?","?","?","?","?","?","?","?","?","?","?","?","?","?","?","?","?","?","?","?","?","?","?","?","?","?","?","?","?","?","?","?","?","?","?","?","?","?","?","?","?","?","?","?","?","?","?","?","?","?","?","?","?","?","?","?","?","?","?","?","?","?","?","?","?","?","?","?","?","?","?","?","?","?","?","?","?","?","?","?","?","?","?","?","?","?","?","?","?","?","?","?","?","?","?","?","?","?","?","?","?","?","?","?","?","?","?","?","?","?","?","?","?","?","?","?","?","?","?","?","?","?","?","?","?","?","?","?","?","?","?","?","?","?","?","?","?","?","?","?","?","?","?","?","?","?","?","?","?","?","?","?","?","?","?","?","?","?","?","?","?","?","?","?","?","?","?","?","?","?","?","?","?","?","?","?","?","?","?","?","?","?","?","?","?","?","?","?","?","?","?","?","?","?","?","?","?","?","?","?","?","?","?","?","?","?","?","?","?","?","?","?","?","?","?","?","?","?","?","?","?","?","?","?","?","?","?","?","?","?","?","?","?","?","?","?","?","?","?","?","?","?","?","?","?","?","?","?","?","?","?","?","?","?","?","?","?","?","?","?","?","?","?","?","?","?","?","?","?","?","?","?","?","?","?","?","?","?","?","?","?","?","?","?","?","?","?","?","?","?","?","?","?","?","?","?","?","?","Z","Z","Z","Z","Z","Z","Z","Z","Z","Z","Z","Z","Z","Z","Z","Z","Z","Z","Z","Z","Z","Z","Z","Z","Z","Z","Z","Z","Z","Z","Z","Z","Z","Z","Z","Z","Z","Z","Z","Z","Y","?","?","?","N","N","N","?","?","?","?","?","?","?","?","?","?","?","?","?","?","?","?","?","?","?","?","?","?","?","?","?","?","?","?","?","?","?","?","?","?","?","?","?","?","?","?","?","?","?","?","?","F","F","F","F","F","F","F","F","F","F","F","F","F","F","F","F","F","F","F","F","F","F","F","F","F","F","F","F","F","F","F","F","F","F","F","F","F","F","F","F","F","?","?","?","?","?","?","?","?","?","?","?","?","?","?","?","?","?","?","?","?","?","C","C","?","?","?","?","?","?","B","B","B","B","B","B","B","B","B","B","B","B","B","B","B","B","B","B","B","B","B","B","B","B","B","B","B","B","B","B","B","B","B","B","B","B","B","B","B","B","B","B","B","B","B","B","B","B","B","B","B","B","B","B","B","B","B","B","B","B","B","B","B","B","B","B","B","B","B","B","B","B","B","B","B","B","B","B","?","?","?","?","?","?","?","?","N","N","?","O","O","?","?","?","?","?","?","?","?","?","?","?","?","?","?","?","?","?","?","?","?","?","Z","Z","Z","Z","Z","Z","Z","Z","Z","Z","Z","Z","Z","Z","Z","Z","Z","Z","Z","Z","Z","Z","Z","Z","Z","Z","Z","Z","Z","Z","Z","Z","Z","Z","Z","Z","Z","Z","Z","Z","Z","Z","Z","Z","Z","Z","Z","Z","Z","Z","Z","Z","Z","?","?","O","N","N","?","?","?","?","?","?","?","?","?","?","?","?","?","?","?","?","?","?","?","D","D","D","D","D","D","D","D","D","D","D","?","?","?","?","?","?","O","O","O","O","O","O","O","O","O","O","O","O","O","O","O","O","O","O","O","O","O","O","O","O","O","O","O","O","O","O","O","O","O","?","P","P","Q","Q","Q","Q","Q","?","R","R","R","R","R","R","R","R","R","R","R","R","R","R","R","R","R","R","R","R","R","R","R","R","R","R","R","R","R","R","R","R","R","R","R","R","R","R","R","R","R","R","R","R","R","R","R","R","R","R","R","R","R","R","R","R","R","R","R","R","R","R","R","R","R","R","R","R","R","R","R","R","R","R","R","R","R","R","R","R","R","R","R","R","R","R","R","?","?","?","?","?","?","?","Y","Y","Y","Y","Y","Y","Y","Y","Y","Y","Y","Y","Y","Y","Y","Y","Y","Y","Y","Y","Y","Y","Y","Y","Y","Y","Y","Y","Y","Y","Y","Y","Y","Y","Y","Y","Y","Y","Y","Y","Y","Y","Y","Y","Y","Y","Y","Y","Y","Y","Y","Y","Y","Y","Y","Y","Y","Y","Y","Y","Y","Y","Y","Y","Y"],"t":[26,36,50,65,85,104,121,137,154,171,186,203,219,236,253,270,286,303,320,336,352,368,386,402,420,445,467,484,501,518,534,550,567,584,601,617,633,650,667,684,700,717,734,750,767,785,801,817,833,850,867,884,900,917,933,950,967,986,1003,1018,1032,1048,1065,1081,1098,1116,1132,1149,1165,1181,1198,1215,1231,1249,1265,1283,1298,1315,1331,1350,1366,1383,1400,1417,1433,1450,1468,1483,1500,1516,1533,1552,1568,1583,1600,1616,1634,1651,1668,1684,1700,1717,1734,1750,1768,1784,1800,1816,1833,1850,1866,1883,1901,1917,1933,1950,1966,1983,2000,2016,2033,2050,2066,2083,2100,2116,2133,2150,2166,2184,2199,2216,2233,2251,2266,2283,2300,2316,2333,2350,2367,2383,2400,2417,2433,2450,2466,2486,2502,2516,2535,2548,2564,2581,2598,2615,2631,2648,2664,2681,2698,2715,2731,2748,2766,2783,2799,2821,2832,2849,2866,2883,2899,2917,2935,2950,2966,2982,2999,3016,3033,3049,3067,3082,3099,3116,3132,3150,3166,3182,3199,3216,3232,3250,3268,3283,3299,3316,3332,3349,3366,3382,3399,3417,3433,3448,3464,3481,3502,3516,3532,3549,3566,3582,3599,3616,3632,3649,3666,3682,3699,3716,3732,3749,3766,3782,3801,3820,3835,3849,3864,3881,3898,3914,3931,3947,3964,3982,3999,4017,4037,4047,4064,4081,4098,4114,4132,4149,4165,4182,4199,4215,4232,4249,4267,4283,4300,4315,4332,4349,4365,4382,4399,4415,4433,4450,4465,4482,4499,4515,4532,4548,4565,4583,4599,4615,4632,4649,4666,4682,4699,4715,4732,4749,4766,4782,4799,4815,4832,4849,4865,4882,4899,4916,4932,4949,4965,4984,5001,5015,5032,5049,5065,5082,5099,5115,5133,5148,5166,5182,5200,5215,5232,5249,5265,5282,5298,5315,5332,5348,5365,5382,5398,5415,5432,5448,5466,5482,5498,5523,5549,5565,5582,5598,5615,5631,5649,5665,5682,5699,5716,5733,5750,5765,5782,5799,5815,5831,5848,5866,5882,5898,5916,5932,5948,5965,5983,5998,6015,6033,6048,6065,6082,6098,6115,6132,6148,6165,6182,6198,6215,6233,6248,6266,6282,6298,6315,6332,6348,6365,6382,6399,6415,6432,6448,6466,6482,6498,6515,6533,6549,6565,6582,6598,6615,6631,6648,6665,6682,6698,6715,6731,6748,6765,6781,6801,6815,6832,6848,6865,6881,6898,6915,6933,6950,6964,6980,6996,7013,7029,7046,7063,7079,7096,7113,7129,7145,7164,7180,7197,7213,7232,7248,7266,7281,7298,7315,7332,7348,7364,7381,7398,7414,7431,7448,7466,7481,7497,7514,7532,7548,7565,7582,7598,7615,7631,7648,7665,7682,7698,7714,7731,7747,7764,7781,7798,7814,7831,7848,7865,7881,7898,7915,7933,7948,7964,7981,7998,8015,8032,8048,8064,8081,8098,8114,8131,8148,8164,8181,8198,8214,8231,8248,8264,8281,8298,8314,8331,8349,8364,8381,8398,8415,8431,8449,8465,8483,8508,8517,8529,8548,8564,8579,8596,8613,8631,8647,8664,8681,8697,8714,8731,8748,8764,8781,8801,8814,8831,8847,8864,8881,8897,8914,8931,8948,8964,8981,8999,9015,9031,9048,9064,9081,9097,9114,9131,9148,9164,9181,9198,9214,9231,9249,9265,9281,9298,9314,9331,9347,9364,9381,9398,9414,9431,9448,9464,9482,9497,9514,9530,9547,9564,9580,9597,9614,9631,9647,9665,9681,9697,9714,9731,9747,9764,9781,9798,9814,9831,9847,9864,9881,9897,9915,9932,9950,9967,9980,9997,10014,10031,10047,10064,10080,10097,10114,10131,10147,10164,10180,10197,10214,10230,10247,10264,10280,10297,10314,10330,10347,10364,10380,10397,10414,10430,10447,10464,10480,10498,10515,10530,10547,10564,10581,10597,10614,10630,10647,10664,10680,10697,10714,10731,10747,10764,10781,10797,10814,10830,10847,10864,10880,10897,10914,10930,10947,10964,10980,10997,11014,11030,11047,11064,11080,11097,11113,11130,11147,11164,11180,11197,11214,11230,11247,11264,11280,11297,11313,11330,11347,11363,11380,11397,11414,11432,11449,11462,11480,11495,11512,11529,11547,11563,11580,11597,11613,11630,11647,11663,11680,11697,11713,11730,11747,11763,11780,11799,11814,11830,11847,11863,11880,11897,11913,11932,11947,11963,11980,11997,12013,12030,12046,12064,12080,12097,12115,12130,12147,12164,12180,12197,12213,12230,12247,12263,12280,12297,12313,12330,12346,12363,12380,12397,12413,12430,12446,12463,12480,12497,12513,12530,12547,12563,12580,12597,12613,12630,12647,12664,12681,12698,12713,12730,12746,12763,12780,12797,12813,12830,12847,12863,12880,12897,12918,12935,12947,12963,12980,12997,13013,13030,13046,13063,13080,13096,13113,13130,13146,13163,13181,13196,13213,13232,13247,13263,13280,13296,13313,13330,13346,13363,13381,13397,13413,13430,13446,13463,13480,13498,13515,13529,13546,13563,13580,13596,13613,13629,13646,13663,13678,13695,13712,13728,13745,13763,13780,13796,13813,13830,13847,13863,13880,13897,13914,13930,13947,13964,13980,13997,14013,14031,14046,14063,14080,14096,14113,14130,14146,14163,14180,14196,14213,14230,14246,14263,14280,14297,14314,14330,14346,14363,14380,14399,14417,14430,14446,14463,14480,14496,14514,14529,14546,14563,14580,14596,14613,14630,14646,14663,14681,14696,14714,14729,14747,14764,14779,14797,14813,14829,14846,14863,14881,14896,14913,14930,14946,14963,14979,14996,15013,15030,15047,15063,15079,15096,15113,15129,15146,15163,15180,15197,15213,15230,15247,15263,15279,15297,15313,15329,15346,15363,15379,15397,15413,15430,15446,15463,15479,15496,15513,15530,15546,15563,15579,15597,15613,15629,15646,15663,15679,15696,15713,15729,15746,15763,15780,15798,15814,15829,15847,15863,15882,15896,15911,15928,15944,15961,15978,15994,16012,16029,16047,16062,16079,16096,16112,16129,16146,16162,16179,16196,16213,16229,16246,16262,16279,16296,16312,16329,16346,16362,16379,16396,16412,16429,16446,16462,16479,16496,16513,16530,16546,16562,16579,16597,16612,16629,16645,16663,16679,16696,16712,16729,16746,16762,16779,16796,16812,16829,16846,16862,16880,16897,16912,16929,16945,16962,16979,16995,17012,17029,17046,17062,17080,17096,17114,17129,17146,17162,17180,17196,17214,17229,17246,17263,17279,17295,17312,17329,17345,17364,17383,17394,17411,17429,17445,17462,17479,17495,17512,17530,17546,17564,17580,17597,17614,17630,17647,17664,17680,17697,17714,17730,17747,17764,17780,17799,17814,17830,17847,17863,17880,17897,17913,17930,17947,17963,17980,17997,18013,18030,18047,18063,18080,18096,18113,18130,18147,18164,18181,18197,18214,18230,18246,18264,18280,18297,18313,18330,18347,18363,18380,18397,18414,18430,18447,18463,18480,18498,18515,18531,18547,18564,18580,18597,18614,18630,18647,18663,18680,18697,18713,18730,18747,18764,18781,18797,18814,18833,18851,18862,18879,18897,18913,18929,18946,18963,18980,18997,19013,19030,19047,19063,19080,19096,19113,19129,19147,19164,19180,19197,19213,19230,19247,19263,19280,19296,19313,19330,19347,19363,19380,19397,19413,19430,19447,19463,19480,19497,19514,19531,19547,19561,19578,19597,19613,19630,19647,19663,19680,19697,19713,19730,19747,19763,19780,19799,19813,19829,19847,19863,19879,19896,19912,19930,19947,19963,19980,19997,20013,20030,20046,20065,20080,20096,20113,20130,20146,20165,20180,20196,20214,20230,20246,20263,20280,20296,20315,20333,20345,20361,20378,20396,20412,20430,20446,20463,20482,20496,20513,20530,20545,20563,20579,20596,20613,20630,20646,20663,20680,20697,20713,20730,20746,20762,20779,20797,20813,20830,20847,20866,20878,20894,20912,20928,20946,20963,20980,20996,21013,21029,21046,21063,21080,21097,21113,21130,21146,21163,21180,21195,21213,21229,21246,21262,21280,21296,21313,21330,21346,21363,21380,21396,21413,21429,21445,21462,21480,21497,21514,21531,21545,21563,21579,21596,21613,21629,21645,21663,21679,21696,21713,21730,21745,21763,21780,21798,21818,21829,21845,21862,21878,21896,21913,21929,21946,21963,21982,21996,22013,22048,22057,22082,22096,22115,22132,22147,22165,22180,22197,22214,22234,22249,22260,22277,22293,22312,22329,22346,22363,22379,22397,22412,22428,22445,22462,22478,22497,22512,22529,22546,22562,22579,22595,22614,22629,22645,22664,22680,22697,22714,22729,22746,22761,22778,22794,22811,22828,22844,22861,22878,22895,22912,22930,22944,22961,22978,22995,23015,23030,23045,23062,23079,23095,23113,23129,23143,23159,23175,23192,23210,23227,23245,23262,23277,23294,23310,23327,23344,23360,23378,23394,23410,23427,23443,23460,23477,23494,23510,23530,23545,23562,23582,23596,23612,23629,23645,23662,23679,23696,23712,23729,23745,23762,23778,23795,23812,23828,23845,23863,23880,23899,23915,23932,23944,23960,23976,23993,24010,24026,24043,24059,24077,24093,24112,24129,24145,24162,24180,24196,24215,24229,24246,24265,24279,24297,24313,24329,24348,24364,24379,24398,24412,24430,24448,24463,24481,24497,24514,24531,24547,24561,24578,24594,24612,24628,24644,24661,24679,24697,24710,24727,24745,24763,24779,24796,24812,24828,24846,24861,24878,24895,24913,24928,24946,24961,24978,24995,25011,25030,25046,25062,25079,25095,25112,25129,25145,25162,25179,25194,25212,25228,25244,25262,25278,25295,25312,25327,25345,25361,25379,25395,25411,25428,25446,25461,25478,25496,25511,25530,25545,25561,25578,25594,25612,25629,25645,25663,25679,25694,25712,25729,25744,25763,25778,25798,25812,25828,25846,25863,25878,25898,25910,25926,25944,25960,25977,25993,26010,26027,26043,26059,26078,26093,26110,26129,26145,26159,26175,26192,26213,26228,26244,26263,26278,26295,26312,26327,26344,26361,26377,26394,26411,26428,26444,26461,26477,26496,26511,26529,26548,26562,26580,26595,26612,26629,26645,26663,26680,26695,26713,26730,26745,26763,26777,26798,26812,26828,26846,26862,26878,26895,26913,26928,26946,26961,26978,26995,27011,27030,27045,27062,27079,27095,27112,27129,27144,27162,27180,27195,27213,27230,27245,27263,27278,27294,27312,27328,27347,27363,27378,27395,27411,27427,27445,27461,27477,27494,27510,27529,27547,27569,27592,27609,27627,27643,27661,27676,27692,27710,27726,27742,27760,27776,27793,27811,27825,27842,27861,27877,27894,27910,27928,27944,27960,27977,27995,28010,28028,28044,28060,28078,28093,28110,28128,28144,28161,28178,28195,28211,28228,28243,28261,28277,28293,28311,28327,28344,28361,28377,28394,28410,28427,28444,28460,28477,28495,28510,28528,28545,28558,28576,28592,28610,28628,28643,28660,28679,28693,28711,28726,28743,28761,28777,28796,28811,28827,28844,28861,28877,28896,28912,28926,28942,28958,28975,28992,29008,29025,29042,29058,29077,29093,29110,29127,29143,29160,29178,29194,29212,29227,29243,29263,29276,29293,29311,29326,29343,29360,29377,29393,29410,29426,29444,29461,29477,29494,29510,29526,29544,29560,29577,29594,29610,29628,29644,29661,29678,29693,29710,29728,29742,29760,29776,29794,29811,29827,29843,29860,29876,29893,29911,29926,29944,29959,29977,29994,30010,30026,30044,30059,30077,30093,30109,30127,30147,30161,30176,30192,30208,30225,30242,30261,30277,30293,30310,30326,30343,30362,30382,30408,30425,30443,30459,30476,30493,30510,30526,30545,30562,30577,30594,30610,30627,30643,30659,30677,30694,30709,30727,30744,30760,30777,30793,30810,30826,30843,30861,30876,30893,30910,30926,30945,30959,30974,30992,31008,31026,31043,31059,31076,31093,31110,31127,31143,31160,31177,31194,31210,31227,31243,31260,31277,31294,31310,31327,31342,31360,31376,31393,31410,31426,31444,31460,31476,31494,31509,31526,31544,31560,31577,31595,31609,31627,31643,31659,31678,31692,31709,31727,31742,31760,31777,31795,31810,31826,31844,31861,31878,31895,31908,31924,31941,31957,31974,31991,32007,32024,32042,32057,32074,32091,32107,32125,32141,32159,32177,32192,32209,32227,32243,32260,32277,32292,32309,32325,32343,32360,32376,32392,32412,32426,32443,32459,32476,32493,32509,32525,32544,32561,32577,32593,32609,32627,32642,32659,32677,32693,32709,32727,32742,32759,32776,32796,32810,32828,32842,32860,32875,32893,32910,32925,32943,32960,32977,32993,33010,33025,33043,33058,33075,33093,33108,33126,33144,33159,33176,33194,33209,33226,33243,33259,33276,33293,33309,33326,33342,33361,33381,33390,33408,33424,33441,33457,33474,33491,33507,33524,33543,33559,33575,33593,33609,33625,33642,33658,33676,33693,33709,33726,33742,33758,33776,33792,33808,33826,33842,33860,33875,33893,33910,33926,33942,33960,33975,33993,34009,34025,34042,34060,34075,34090,34107,34124,34141,34157,34175,34192,34208,34225,34242,34259,34276,34292,34309,34325,34342,34358,34376,34392,34409,34425,34441,34458,34475,34491,34508,34525,34542,34558,34576,34593,34608,34626,34643,34659,34675,34691,34710,34725,34742,34758,34775,34792,34812,34826,34840,34857,34873,34890,34907,34923,34941,34958,34975,34991,35008,35025,35042,35058,35075,35092,35109,35125,35141,35158,35175,35192,35208,35226,35241,35258,35275,35291,35308,35325,35341,35358,35375,35392,35408,35425,35442,35458,35475,35491,35508,35525,35544,35559,35575,35592,35609,35625,35641,35659,35675,35692,35709,35726,35741,35758,35775,35791,35808,35825,35841,35858,35875,35891,35908,35925,35942,35958,35975,35992,36008,36025,36041,36058,36075,36091,36108,36124,36141,36158,36175,36191,36208,36225,36241,36261,36279,36290,36306,36324,36341,36358,36374,36391,36408,36425,36441,36458,36475,36491,36509,36524,36541,36558,36576,36592,36608,36625,36641,36659,36675,36692,36709,36725,36741,36758,36775,36791,36808,36825,36841,36858,36874,36891,36908,36924,36941,36958,36975,36991,37008,37025,37041,37058,37074,37091,37108,37124,37141,37158,37174,37191,37209,37225,37241,37258,37274,37291,37308,37324,37342,37358,37375,37391,37408,37424,37441,37458,37475,37491,37508,37524,37542,37558,37574,37591,37609,37625,37641,37658,37675,37692,37708,37724,37744,37762,37773,37789,37806,37823,37839,37856,37873,37889,37906,37923,37939,37957,37974,37991,38007,38024,38041,38057,38074,38091,38107,38124,38141,38157,38174,38191,38207,38224,38241,38257,38274,38291,38307,38324,38341,38357,38374,38391,38407,38424,38441,38457,38474,38491,38508,38524,38541,38557,38574,38590,38607,38624,38641,38657,38674,38690,38707,38724,38740,38757,38774,38792,38807,38824,38841,38857,38874,38890,38907,38924,38940,38957,38974,38990,39007,39024,39040,39057,39074,39090,39107,39124,39140,39157,39174,39190,39207,39226,39240,39256,39272,39289,39306,39322,39339,39356,39372,39389,39406,39423,39440,39457,39474,39490,39508,39524,39540,39557,39574,39591,39608,39623,39639,39656,39672,39690,39706,39723,39740,39756,39773,39791,39806,39823,39840,39856,39874,39889,39906,39927,39942,39959,39977,39992,40009,40026,40041,40059,40075,40090,40108,40124,40141,40158,40174,40191,40208,40224,40241,40257,40274,40292,40307,40324,40342,40357,40376,40393,40408,40426,40442,40458,40476,40492,40509,40527,40541,40559,40574,40591,40611,40624,40643,40660,40674,40690,40706,40723,40738,40755,40772,40791,40805,40822,40839,40857,40873,40890,40907,40925,40940,40957,40975,40993,41011,41026,41042,41057,41073,41090,41109,41121,41137,41156,41173,41190,41206,41223,41240,41256,41273,41290,41306,41323,41340,41356,41373,41390,41407,41423,41440,41457,41474,41490,41507,41523,41540,41559,41575,41590,41609,41625,41640,41656,41677,41693,41710,41725,41742,41760,41776,41795,41810,41826,41844,41860,41877,41894,41909,41927,41944,41959,41978,41995,42010,42027,42042,42065,42079,42092,42108,42124,42140,42158,42174,42190,42209,42226,42241,42259,42274,42290,42306,42325,42340,42356,42373,42390,42406,42424,42442,42458,42475,42491,42509,42525,42541,42560,42577,42594,42611,42629,42644,42659,42674,42691,42708,42724,42741,42758,42773,42793,42808,42824,42842,42857,42873,42890,42906,42925,42941,42958,42974,42991,43008,43025,43041,43058,43074,43091,43109,43125,43141,43160,43177,43192,43211,43227,43243,43260,43276,43294,43311,43325,43344,43360,43375,43393,43409,43425,43442,43460,43477,43493,43506,43523,43539,43557,43575,43591,43608,43626,43641,43659,43675,43691,43709,43725,43741,43759,43775,43794,43809,43825,43842,43858,43874,43892,43908,43925,43941,43957,43975,43991,44008,44025,44041,44059,44075,44091,44110,44126,44141,44159,44176,44191,44210,44228,44241,44258,44276,44293,44310,44325,44341,44359,44375,44392,44407,44424,44442,44458,44477,44491,44507,44525,44540,44557,44574,44590,44608,44626,44642,44658,44675,44691,44708,44725,44741,44758,44774,44793,44808,44824,44842,44858,44879,44893,44906,44922,44940,44955,44973,44989,45008,45026,45042,45057,45075,45091,45107,45125,45145,45160,45176,45192,45208,45226,45242,45258,45274,45292,45309,45324,45341,45360,45374,45392,45409,45424,45442,45458,45476,45493,45508,45524,45542,45557,45575,45591,45607,45627,45643,45657,45675,45691,45708,45725,45741,45758,45774,45790,45810,45823,45841,45858,45874,45891,45908,45923,45941,45956,45974,45990,46007,46024,46041,46057,46075,46092,46107,46125,46141,46157,46175,46191,46208,46226,46241,46258,46274,46292,46310,46322,46339,46355,46373,46389,46405,46422,46439,46457,46471,46489,46505,46524,46540,46557,46574,46590,46607,46627,46643,46656,46674,46690,46708,46737,46758,46773,46790,46808,46824,46842,46858,46874,46892,46909,46924,46941,46957,46974,46992,47007,47025,47040,47057,47075,47092,47107,47124,47141,47157,47175,47191,47206,47222,47240,47257,47272,47290,47306,47322,47339,47356,47372,47390,47409,47425,47440,47456,47474,47489,47507,47522,47539,47556,47572,47590,47606,47623,47639,47656,47672,47689,47706,47726,47743,47754,47771,47793,47805,47822,47841,47855,47872,47890,47906,47922,47939,47956,47972,47989,48006,48022,48039,48055,48072,48089,48106,48122,48139,48157,48172,48189,48205,48223,48239,48255,48272,48289,48305,48322,48339,48356,48373,48390,48405,48423,48439,48455,48472,48489,48505,48522,48538,48556,48572,48589,48605,48623,48640,48655,48672,48689,48705,48722,48739,48756,48772,48792,48805,48822,48840,48855,48872,48889,48905,48922,48940,48955,48972,48990,49005,49022,49039,49055,49072,49089,49105,49122,49141,49158,49170,49187,49204,49222,49238,49255,49272,49288,49305,49322,49339,49355,49372,49389,49405,49424,49438,49456,49471,49488,49505,49522,49538,49555,49572,49588,49605,49622,49640,49656,49672,49688,49705,49722,49738,49756,49774,49789,49805,49822,49839,49855,49872,49889,49905,49922,49938,49955,49972,49988,50005,50022,50038,50055,50072,50088,50105,50122,50138,50155,50171,50189,50206,50222,50238,50255,50271,50288,50305,50322,50339,50355,50371,50388,50405,50422,50438,50455,50473,50488,50505,50522,50538,50559,50573,50586,50603,50620,50637,50653,50670,50687,50703,50721,50738,50755,50771,50791,50805,50821,50839,50855,50871,50888,50905,50921,50938,50955,50971,50988,51005,51022,51038,51055,51072,51090,51107,51123,51140,51153,51171,51188,51205,51221,51238,51254,51271,51288,51305,51321,51338,51355,51371,51388,51405,51421,51438,51454,51471,51488,51506,51521,51538,51555,51571,51588,51605,51621,51639,51656,51671,51688,51704,51721,51738,51754,51771,51789,51804,51821,51837,51854,51871,51888,51904,51921,51938,51954,51971,51987,52007,52025,52039,52054,52071,52087,52104,52121,52137,52154,52171,52188,52204,52221,52237,52254,52271,52288,52304,52321,52338,52354,52371,52388,52404,52421,52437,52454,52471,52488,52504,52521,52538,52554,52571,52588,52604,52621,52637,52656,52672,52689,52704,52721,52737,52754,52771,52788,52808,52821,52837,52854,52871,52887,52904,52921,52938,52954,52971,52987,53004,53021,53038,53054,53071,53088,53104,53121,53138,53154,53171,53187,53204,53221,53238,53254,53271,53287,53304,53321,53338,53354,53371,53388,53404,53423,53442,53453,53469,53487,53504,53520,53537,53554,53571,53587,53604,53621,53637,53654,53671,53688,53704,53721,53737,53754,53771,53787,53804,53820,53837,53854,53870,53887,53904,53920,53937,53954,53970,53987,54004,54020,54037,54054,54070,54087,54104,54120,54137,54154,54171,54187,54204,54220,54237,54254,54270,54287,54304,54320,54337,54354,54370,54387,54404,54420,54437,54454,54470,54487,54505,54520,54537,54554,54570,54587,54604,54620,54637,54655,54671,54687,54704,54720,54737,54754,54770,54788,54804,54820,54840,54857,54869,54885,54903,54920,54937,54953,54970,54987,55003,55020,55037,55053,55070,55087,55103,55120,55137,55153,55171,55189,55205,55220,55237,55254,55270,55287,55303,55320,55337,55354,55370,55387,55404,55420,55437,55454,55470,55487,55505,55521,55537,55554,55570,55587,55603,55620,55637,55654,55671,55688,55703,55720,55737,55753,55770,55790,55803,55820,55837,55853,55870,55887,55903,55920,55937,55953,55970,55987,56004,56020,56037,56053,56070,56087,56103,56121,56138,56154,56172,56187,56203,56219,56235,56253,56273,56285,56303,56320,56337,56353,56370,56387,56403,56420,56437,56453,56470,56487,56503,56520,56537,56553,56570,56586,56603,56621,56637,56653,56671,56688,56704,56720,56737,56753,56770,56789,56810,56819,56836,56852,56868,56885,56902,56918,56935,56952,56968,56985,57003,57020,57038,57053,57070,57086,57105,57119,57136,57154,57169,57186,57203,57220,57236,57253,57270,57287,57303,57320,57337,57353,57370,57388,57403,57420,57436,57453,57470,57486,57503,57520,57536,57553,57569,57586,57603,57620,57637,57653,57671,57688,57706,57721,57735,57751,57768,57786,57803,57820,57836,57853,57870,57886,57905,57920,57937,57951,57968,57984,58001,58017,58034,58051,58067,58084,58100,58117,58135,58152,58169,58186,58203,58219,58236,58253,58269,58286,58303,58319,58336,58353,58370,58386,58403,58419,58436,58453,58470,58486,58503,58520,58537,58553,58570,58586,58603,58619,58636,58653,58671,58687,58703,58720,58736,58753,58770,58789,58804,58820,58836,58853,58869,58886,58903,58921,58936,58953,58971,58986,59003,59020,59036,59053,59069,59086,59103,59122,59141,59153,59169,59186,59203,59219,59240,59253,59269,59286,59303,59319,59336,59352,59369,59386,59403,59419,59436,59453,59470,59486,59504,59519,59537,59556,59569,59585,59602,59620,59636,59653,59670,59686,59703,59719,59736,59752,59769,59789,59804,59819,59836,59852,59870,59886,59903,59921,59936,59952,59969,59986,60002,60019,60036,60053,60070,60086,60102,60120,60136,60152,60169,60186,60203,60220,60236,60252,60270,60286,60303,60319,60336,60353,60369,60386,60402,60419,60436,60452,60470,60486,60502,60519,60538,60556,60567,60584,60601,60618,60635,60652,60671,60686,60702,60719,60735,60752,60769,60785,60802,60819,60836,60852,60869,60886,60902,60920,60935,60952,60968,60985,61003,61019,61045,61069,61086,61102,61119,61137,61152,61169,61186,61203,61220,61235,61252,61269,61286,61302,61319,61337,61352,61371,61387,61403,61420,61437,61454,61470,61485,61503,61519,61536,61554,61569,61585,61603,61621,61637,61653,61670,61687,61702,61719,61737,61752,61769,61786,61802,61820,61838,61852,61869,61885,61902,61919,61936,61952,61971,61990,62000,62017,62034,62050,62067,62084,62102,62118,62135,62154,62168,62186,62202,62218,62236,62252,62269,62285,62302,62319,62336,62352,62368,62385,62402,62419,62435,62454,62471,62486,62503,62520,62536,62552,62573,62593,62613,62636,62656,62672,62687,62703,62719,62737,62753,62769,62787,62802,62819,62835,62852,62869,62885,62903,62919,62936,62952,62970,62985,63002,63019,63035,63053,63069,63085,63103,63119,63135,63153,63169,63187,63202,63220,63236,63252,63269,63289,63307,63321,63337,63352,63372,63388,63401,63418,63433,63450,63468,63486,63504,63523,63536,63553,63569,63585,63603,63619,63635,63652,63670,63687,63702,63719,63736,63752,63769,63785,63805,63822,63837,63851,63869,63887,63900,63916,63932,63949,63966,63985,64001,64018,64036,64052,64069,64085,64102,64119,64136,64152,64169,64189,64202,64219,64236,64252,64268,64285,64302,64318,64336,64351,64368,64385,64402,64419,64436,64452,64468,64486,64502,64519,64536,64551,64568,64585,64602,64618,64635,64652,64670,64686,64702,64719,64735,64752,64772,64791,64800,64818,64833,64850,64867,64885,64902,64918,64935,64952,64969,64986,65003,65018,65037,65054,65070,65087,65103,65120,65137,65153,65170,65186,65203,65220,65238,65258,65271,65286,65303,65319,65336,65352,65370,65387,65402,65419,65436,65452,65469,65486,65502,65519,65537,65553,65571,65586,65602,65619,65636,65653,65672,65686,65702,65719,65736,65753,65769,65786,65802,65819,65836,65854,65870,65886,65905,65919,65936,65953,65968,65985,66002,66019,66035,66052,66070,66086,66107,66122,66139,66151,66167,66183,66200,66216,66234,66251,66267,66284,66300,66317,66333,66353,66369,66386,66403,66420,66437,66450,66467,66484,66501,66518,66535,66552,66569,66585,66601,66619,66635,66652,66667,66687,66703,66716,66733,66751,66768,66784,66801,66818,66835,66852,66868,66885,66901,66918,66935,66952,66968,66984,67002,67018,67035,67051,67068,67084,67103,67118,67135,67152,67169,67186,67202,67217,67234,67251,67268,67285,67301,67318,67334,67351,67368,67386,67401,67418,67434,67451,67469,67484,67501,67517,67536,67554,67577,67588,67600,67616,67632,67651,67668,67684,67702,67718,67734,67751,67773,67788,67803,67818,67835,67851,67867,67884,67901,67917,67935,67951,67967,67984,68001,68018,68034,68051,68067,68084,68101,68118,68134,68151,68167,68184,68201,68217,68234,68251,68267,68284,68301,68318,68333,68350,68368,68387,68404,68419,68435,68450,68469,68488,68501,68518,68534,68550,68567,68584,68600,68617,68634,68651,68668,68684,68700,68717,68736,68752,68766,68782,68800,68816,68832,68849,68866,68883,68900,68917,68934,68950,68967,68986,69000,69016,69032,69049,69067,69084,69100,69118,69134,69150,69167,69184,69202,69218,69239,69252,69269,69285,69301,69317,69335,69351,69367,69385,69401,69418,69434,69451,69467,69485,69502,69517,69534,69550,69568,69584,69600,69617,69634,69651,69667,69683,69700,69718,69735,69751,69767,69783,69801,69817,69836,69852,69868,69884,69900,69917,69933,69950,69967,69983,70000,70017,70034,70050,70067,70083,70100,70117,70134,70151,70167,70184,70200,70217,70233,70252,70267,70283,70303,70320,70336,70354,70368,70390,70403,70418,70433,70449,70466,70483,70499,70515,70532,70550,70567,70584,70600,70617,70634,70650,70667,70685,70700,70719,70735,70752,70767,70786,70804,70820,70837,70853,70867,70884,70901,70917,70935,70950,70967,70985,71000,71017,71034,71050,71067,71083,71099,71117,71135,71150,71167,71183,71200,71217,71233,71251,71266,71283,71300,71318,71332,71349,71366,71382,71399,71415,71432,71450,71466,71484,71501,71518,71534,71551,71568,71584,71601,71618,71635,71650,71667,71683,71700,71717,71734,71750,71767,71786,71804,71816,71832,71848,71865,71881,71898,71915,71933,71950,71966,71983,72000,72016,72033,72050,72066,72083,72101,72116,72133,72150,72166,72183,72200,72216,72233,72249,72266,72283,72300,72316,72333,72349,72366,72383,72400,72416,72433,72450,72466,72483,72500,72516,72533,72550,72566,72583,72600,72616,72634,72650,72667,72687,72703,72715,72731,72748,72765,72783,72800,72817,72833,72850,72866,72883,72900,72916,72933,72950,72967,72983,73000,73018,73034,73050,73067,73083,73100,73116,73133,73150,73166,73183,73200,73220,73237,73249,73265,73283,73301,73316,73333,73350,73367,73383,73400,73416,73433,73449,73467,73483,73500,73516,73533,73549,73566,73583,73599,73616,73633,73650,73667,73683,73699,73718,73737,73749,73766,73784,73800,73816,73834,73850,73866,73883,73900,73917,73934,73950,73967,73983,73999,74016,74033,74050,74066,74083,74099,74116,74133,74149,74166,74183,74200,74216,74232,74249,74267,74283,74300,74316,74333,74349,74366,74383,74399,74416,74432,74450,74466,74482,74500,74516,74533,74549,74566,74582,74599,74619,74633,74647,74664,74681,74698,74715,74731,74748,74764,74781,74798,74814,74831,74848,74864,74881,74898,74914,74932,74949,74966,74982,74999,75018,75034,75050,75064,75081,75099,75115,75131,75148,75164,75181,75198,75214,75232,75249,75266,75282,75300,75316,75333,75349,75366,75382,75399,75416,75432,75450,75465,75482,75499,75515,75533,75550,75565,75583,75600,75617,75635,75650,75668,75686,75700,75719,75736,75752,75769,75783,75800,75818,75833,75851,75868,75883,75901,75917,75933,75950,75966,75983,75999,76016,76034,76050,76064,76081,76097,76114,76132,76150,76166,76182,76198,76217,76232,76250,76266,76283,76301,76318,76334,76349,76364,76381,76399,76414,76433,76451,76466,76484,76500,76518,76534,76550,76565,76583,76599,76616,76632,76649,76665,76682,76698,76715,76734,76750,76766,76782,76802,76817,76832,76849,76867,76883,76900,76917,76933,76951,76966,76984,77001,77015,77034,77051,77066,77084,77100,77116,77135,77150,77167,77184,77200,77218,77234,77251,77268,77283,77300,77317,77332,77350,77365,77382,77399,77415,77435,77453,77464,77480,77497,77513,77530,77548,77565,77583,77599,77617,77634,77649,77667,77684,77700,77717,77736,77750,77767,77784,77800,77816,77831,77849,77865,77882,77899,77916,77932,77948,77964,77980,77998,78013,78031,78047,78063,78080,78097,78113,78130,78147,78165,78181,78197,78214,78231,78247,78265,78281,78297,78314,78331,78347,78365,78381,78398,78414,78431,78448,78464,78481,78498,78514,78530,78547,78564,78580,78597,78613,78631,78648,78665,78683,78698,78717,78736,78751,78764,78780,78796,78813,78830,78849,78865,78881,78899,78915,78931,78949,78968,78981,79000,79014,79032,79049,79064,79082,79100,79116,79133,79148,79165,79182,79199,79216,79233,79249,79266,79282,79299,79318,79333,79348,79367,79383,79400,79417,79432,79451,79467,79482,79501,79516,79533,79550,79566,79584,79600,79616,79634,79649,79666,79683,79699,79716,79736,79749,79766,79783,79799,79817,79832,79849,79867,79882,79900,79916,79932,79950,79965,79982,79999,80015,80031,80048,80065,80081,80098,80114,80131,80151,80169,80180,80196,80213,80229,80246,80263,80279,80296,80313,80329,80346,80364,80381,80398,80414,80431,80447,80464,80481,80498,80517,80531,80547,80564,80581,80598,80615,80631,80648,80664,80681,80698,80714,80732,80749,80764,80781,80799,80814,80832,80847,80864,80881,80898,80914,80931,80947,80964,80981,80998,81014,81031,81048,81064,81081,81097,81114,81131,81147,81165,81181,81198,81214,81231,81248,81264,81282,81297,81314,81331,81349,81365,81381,81397,81414,81431,81447,81464,81481,81497,81514,81531,81547,81564,81584,81597,81612,81629,81646,81664,81680,81697,81714,81731,81748,81764,81782,81799,81815,81832,81849,81866,81882,81899,81915,81932,81948,81965,81982,81999,82016,82032,82048,82066,82082,82099,82115,82131,82148,82166,82181,82198,82216,82232,82249,82265,82282,82299,82315,82332,82349,82365,82382,82398,82415,82432,82449,82466,82482,82498,82515,82531,82548,82565,82582,82600,82616,82634,82652,82667,82686,82702,82717,82735,82752,82768,82786,82800,82819,82835,82851,82868,82884,82900,82919,82937,82951,82966,82984,83003,83029,83047,83064,83080,83097,83113,83130,83147,83163,83180,83197,83213,83232,83248,83263,83280,83297,83313,83330,83347,83363,83380,83397,83413,83430,83447,83465,83481,83498,83513,83530,83547,83564,83580,83597,83613,83630,83647,83665,83680,83697,83713,83731,83749,83764,83780,83799,83814,83831,83847,83863,83880,83897,83913,83930,83947,83963,83981,83998,84015,84030,84047,84063,84080,84097,84113,84131,84147,84163,84180,84197,84213,84231,84247,84263,84281,84297,84314,84330,84347,84363,84380,84397,84416,84434,84445,84462,84478,84495,84513,84530,84547,84565,84580,84597,84614,84630,84648,84663,84681,84697,84713,84730,84747,84763,84780,84798,84814,84831,84848,84864,84880,84896,84913,84930,84947,84964,84980,84997,85013,85030,85046,85063,85080,85097,85113,85130,85147,85163,85180,85197,85213,85230,85247,85263,85280,85296,85313,85331,85347,85363,85380,85396,85413,85430,85446,85463,85480,85496,85513,85530,85546,85563,85580,85596,85613,85630,85646,85663,85680,85696,85713,85731,85747,85763,85779,85800,85817,85830,85846,85860,85877,85894,85910,85929,85946,85963,85979,85996,86013,86030,86046,86064,86080,86096,86113,86130,86146,86163,86180,86196,86214,86231,86247,86263,86279,86296,86314,86330,86346,86364,86380,86398,86414,86430,86446,86463,86479,86496,86513,86529,86546,86563,86580,86596,86613,86630,86646,86663,86681,86696,86713,86730,86746,86763,86781,86796,86814,86831,86847,86862,86879,86896,86913,86929,86946,86963,86979,86996,87013,87029,87046,87064,87079,87096,87113,87129,87146,87163,87179,87196,87213,87229,87249,87264,87278,87294,87311,87328,87344,87361,87378,87394,87412,87429,87446,87462,87479,87496,87512,87529,87546,87562,87579,87596,87613,87629,87646,87662,87679,87697,87713,87730,87746,87763,87780,87799,87813,87829,87848,87864,87879,87896,87912,87929,87946,87962,87980,87996,88012,88029,88046,88063,88079,88097,88112,88129,88147,88164,88179,88197,88212,88229,88246,88262,88280,88296,88313,88329,88346,88362,88379,88397,88412,88429,88445,88463,88479,88496,88512,88529,88546,88562,88579,88597,88613,88629,88646,88665,88683,88695,88712,88729,88745,88762,88779,88796,88812,88829,88847,88862,88879,88895,88912,88929,88946,88962,88979,88996,89012,89029,89046,89062,89079,89095,89112,89129,89145,89162,89179,89195,89213,89229,89246,89262,89280,89296,89312,89329,89345,89363,89379,89396,89412,89429,89445,89462,89479,89496,89512,89529,89545,89562,89579,89595,89612,89629,89645,89662,89679,89695,89713,89729,89745,89762,89779,89796,89812,89829,89845,89863,89879,89896,89912,89929,89945,89963,89979,89995,90012,90030,90045,90062,90081,90099,90112,90128,90145,90162,90178,90195,90212,90230,90245,90262,90279,90295,90312,90328,90345,90362,90378,90395,90412,90428,90445,90462,90478,90495,90512,90528,90545,90562,90579,90595,90612,90629,90645,90662,90679,90695,90712,90729,90746,90762,90778,90798,90812,90829,90845,90863,90878,90895,90912,90928,90945,90962,90979,90995,91012,91028,91045,91062,91079,91095,91112,91128,91145,91162,91179,91196,91212,91228,91245,91262,91278,91295,91312,91328,91345,91362,91378,91395,91411,91429,91447,91462,91478,91498,91516,91528,91545,91561,91578,91595,91611,91628,91646,91662,91678,91696,91712,91728,91745,91762,91778,91797,91812,91829,91846,91863,91880,91893,91910,91927,91945,91961,91978,91997,92012,92028,92045,92061,92078,92095,92112,92128,92145,92161,92178,92195,92212,92228,92245,92262,92279,92296,92311,92329,92345,92361,92378,92395,92411,92428,92444,92461,92478,92495,92512,92529,92546,92561,92578,92595,92611,92628,92645,92661,92678,92695,92711,92728,92745,92763,92779,92797,92811,92828,92846,92862,92878,92895,92914,92933,92943,92960,92976,92993,93011,93028,93044,93062,93079,93096,93114,93129,93146,93164,93179,93197,93214,93230,93248,93263,93279,93297,93312,93329,93346,93362,93379,93395,93412,93429,93445,93462,93479,93495,93514,93531,93545,93564,93579,93596,93613,93628,93647,93663,93679,93696,93711,93729,93745,93762,93778,93798,93812,93828,93847,93861,93882,93895,93911,93926,93943,93959,93976,93993,94011,94029,94045,94062,94079,94094,94112,94128,94146,94164,94178,94196,94213,94229,94247,94262,94279,94297,94314,94333,94347,94360,94377,94393,94409,94426,94443,94461,94478,94494,94511,94527,94546,94563,94578,94594,94612,94629,94646,94664,94679,94697,94714,94728,94747,94762,94779,94797,94812,94830,94846,94861,94879,94894,94911,94929,94944,94961,94978,94995,95012,95028,95045,95064,95078,95095,95114,95129,95146,95164,95178,95195,95210,95228,95245,95261,95277,95295,95311,95328,95345,95363,95379,95396,95411,95428,95444,95461,95478,95494,95512,95528,95544,95563,95579,95594,95613,95628,95646,95663,95679,95696,95714,95731,95754,95765,95778,95794,95811,95828,95846,95861,95880,95895,95911,95929,95944,95961,95979,95994,96012,96029,96044,96062,96078,96095,96112,96128,96145,96162,96178,96195,96211,96227,96246,96261,96278,96295,96311,96328,96345,96361,96379,96395,96410,96428,96444,96461,96479,96494,96510,96527,96547,96562,96579,96596,96613,96629,96645,96662,96679,96709,96726,96742,96759,96776,96794,96809,96825,96841,96858,96878,96893,96910,96927,96944,96961,96977,96994,97010,97027,97044,97060,97077,97098,97110,97130,97147,97161,97176,97192,97209,97225,97242,97260,97275,97292,97311,97327,97344,97361,97377,97394,97411,97429,97444,97461,97479,97495,97512,97530,97544,97562,97579,97595,97613,97629,97646,97663,97678,97697,97713,97728,97748,97761,97778,97797,97811,97827,97844,97861,97879,97894,97910,97928,97944,97961,97978,97994,98012,98029,98045,98063,98080,98095,98113,98129,98145,98162,98177,98194,98210,98227,98244,98260,98277,98294,98310,98327,98344,98360,98379,98394,98410,98427,98443,98460,98477,98493,98511,98530,98544,98559,98575,98594,98608,98625,98642,98660,98677,98693,98711,98725,98741,98757,98774,98795,98810,98828,98843,98860,98875,98892,98908,98925,98941,98958,98975,98991,99008,99027,99043,99060,99077,99094,99111,99126,99144,99160,99177,99192,99210,99226,99244,99261,99278,99294,99311,99327,99345,99361,99379,99395,99410,99429,99446,99461,99478,99493,99511,99529,99545,99562,99580,99593,99612,99629,99644,99662,99680,99694,99714,99728,99745,99761,99777,99796,99810,99826,99844,99861,99880,99894,99910,99928,99942,99959,99976,99993,100010,100026,100043,100060,100076,100093,100110,100128,100143,100161,100176,100194,100213,100227,100245,100263,100277,100296,100313,100327,100346,100360,100379,100395,100411,100429,100446,100461,100479,100494,100510,100529,100546,100561,100578,100594,100611,100627,100644,100660,100676,100693,100710,100726,100743,100760,100777,100796,100809,100826,100843,100861,100879,100896,100909,100926,100943,100959,100976,100993,101009,101024,101041,101057,101076,101093,101110,101126,101143,101159,101176,101192,101210,101226,101246,101261,101274,101291,101308,101324,101341,101358,101376,101393,101411,101426,101446,101460,101476,101493,101511,101527,101543,101560,101576,101593,101610,101627,101643,101660,101676,101693,101711,101726,101743,101761,101778,101796,101815,101828,101845,101862,101878,101897,101913,101928,101946,101960,101978,101995,102009,102026,102043,102060,102077,102093,102110,102126,102143,102160,102179,102193,102211,102226,102243,102260,102276,102293,102310,102326,102343,102360,102377,102394,102410,102427,102444,102461,102477,102493,102510,102527,102544,102563,102578,102593,102608,102626,102643,102660,102677,102694,102710,102726,102743,102759,102777,102793,102809,102826,102843,102859,102877,102893,102910,102926,102943,102960,102976,102993,103013],"hit":[null],"x":[-0.9778911564625851,-0.9778911564625851,-0.9778911564625851,-0.9778911564625851,-0.9778911564625851,-0.9778911564625851,-0.9778911564625851,-0.9778911564625851,-0.9778911564625851,-0.9778911564625851,-0.9778911564625851,-0.9778911564625851,-0.9778911564625851,-0.9778911564625851,-0.9778911564625851,-0.9778911564625851,-0.9778911564625851,-0.9778911564625851,-0.9778911564625851,-0.9778911564625851,-0.9778911564625851,-0.9778911564625851,-0.9778911564625851,-0.9778911564625851,-0.9778911564625851,-0.9778911564625851,-0.9778911564625851,-0.9778911564625851,-0.9778911564625851,-0.9778911564625851,-0.9778911564625851,-0.9778911564625851,-0.9778911564625851,-0.9778911564625851,-0.9778911564625851,-0.9778911564625851,-0.9778911564625851,-0.9778911564625851,-0.9778911564625851,-0.9778911564625851,-0.9778911564625851,-0.9778911564625851,-0.9778911564625851,-0.9778911564625851,-0.9778911564625851,-0.9778911564625851,-0.9778911564625851,-0.9778911564625851,-0.9778911564625851,-0.9778911564625851,-0.9778911564625851,-0.9778911564625851,-0.9778911564625851,-0.9778911564625851,-0.9778911564625851,-0.9778911564625851,-0.9778911564625851,-0.9778911564625851,-0.9778911564625851,-0.9778911564625851,-0.9778911564625851,-0.9778911564625851,-0.9778911564625851,-0.9778911564625851,-0.9778911564625851,-0.9778911564625851,-0.9778911564625851,-0.9778911564625851,-0.9778911564625851,-0.9778911564625851,-0.9778911564625851,-0.9778911564625851,-0.9778911564625851,-0.9778911564625851,-0.9778911564625851,-0.9778911564625851,-0.9778911564625851,-0.9778911564625851,-0.9778911564625851,-0.9778911564625851,-0.9778911564625851,-0.9778911564625851,-0.9778911564625851,-0.9778911564625851,-0.9778911564625851,-0.9778911564625851,-0.9778911564625851,-0.9778911564625851,-0.9778911564625851,-0.9778911564625851,-0.9778911564625851,-0.9778911564625851,-0.9778911564625851,-0.9778911564625851,-0.9778911564625851,-0.9778911564625851,-0.9778911564625851,-0.9778911564625851,-0.9778911564625851,-0.9778911564625851,-0.9778911564625851,-0.9778911564625851,-0.9778911564625851,-0.9778911564625851,-0.9778911564625851,-0.9778911564625851,-0.9778911564625851,-0.9778911564625851,-0.9778911564625851,-0.9778911564625851,-0.9778911564625851,-0.9778911564625851,-0.9778911564625851,-0.9778911564625851,-0.9778911564625851,-0.9778911564625851,-0.9778911564625851,-0.9778911564625851,-0.9778911564625851,-0.9778911564625851,-0.9778911564625851,-0.9778911564625851,-0.9778911564625851,-0.9778911564625851,-0.9778911564625851,-0.9778911564625851,-0.9778911564625851,-0.9778911564625851,-0.9778911564625851,-0.9778911564625851,-0.9778911564625851,-0.9778911564625851,-0.9778911564625851,-0.9778911564625851,-0.9778911564625851,-0.9778911564625851,-0.9778911564625851,-0.9778911564625851,-0.9778911564625851,-0.9778911564625851,-0.9778911564625851,-0.9778911564625851,-0.9778911564625851,-0.9778911564625851,-0.9778911564625851,-0.9778911564625851,-0.9778911564625851,-0.9778911564625851,-0.9778911564625851,-0.9778911564625851,-0.9778911564625851,-0.9778911564625851,-0.9778911564625851,-0.9778911564625851,-0.9778911564625851,-0.9778911564625851,-0.9778911564625851,-0.9778911564625851,-0.9778911564625851,-0.9778911564625851,-0.9778911564625851,-0.9778911564625851,-0.9778911564625851,-0.9778911564625851,-0.9778911564625851,-0.9778911564625851,-0.9778911564625851,-0.9778911564625851,-0.9778911564625851,-0.9778911564625851,-0.9778911564625851,-0.9778911564625851,-0.9778911564625851,-0.9778911564625851,-0.9778911564625851,-0.9778911564625851,-0.9778911564625851,-0.9778911564625851,-0.9778911564625851,-0.9778911564625851,-0.9778911564625851,-0.9778911564625851,-0.9778911564625851,-0.9778911564625851,-0.9778911564625851,-0.9778911564625851,-0.9778911564625851,-0.9778911564625851,-0.9778911564625851,-0.9778911564625851,-0.9778911564625851,-0.9778911564625851,-0.9778911564625851,-0.9778911564625851,-0.9778911564625851,-0.9778911564625851,-0.9778911564625851,-0.9778911564625851,-0.9778911564625851,-0.9778911564625851,-0.9778911564625851,-0.9778911564625851,-0.9778911564625851,-0.9778911564625851,-0.9778911564625851,-0.9778911564625851,-0.9778911564625851,-0.9778911564625851,-0.9778911564625851,-0.9778911564625851,-0.9778911564625851,-0.9778911564625851,-0.9778911564625851,-0.9778911564625851,-0.9778911564625851,-0.9778911564625851,-0.9778911564625851,-0.9778911564625851,-0.9778911564625851,-0.9778911564625851,-0.9778911564625851,-0.9778911564625851,-0.9778911564625851,-0.9778911564625851,-0.9778911564625851,-0.9778911564625851,-0.9778911564625851,-0.9778911564625851,-0.9778911564625851,-0.9778911564625851,-0.9778911564625851,-0.9778911564625851,-0.9778911564625851,-0.9778911564625851,-0.9778911564625851,-0.9778911564625851,-0.9778911564625851,-0.9778911564625851,-0.9778911564625851,-0.9778911564625851,-0.9778911564625851,-0.9778911564625851,-0.9778911564625851,-0.9778911564625851,-0.9778911564625851,-0.9778911564625851,-0.9778911564625851,-0.9778911564625851,-0.9778911564625851,-0.9778911564625851,-0.9778911564625851,-0.9778911564625851,-0.9778911564625851,-0.9778911564625851,-0.9778911564625851,-0.9778911564625851,-0.9778911564625851,-0.9778911564625851,-0.9778911564625851,-0.9778911564625851,-0.9778911564625851,-0.9778911564625851,-0.9778911564625851,-0.9778911564625851,-0.9778911564625851,-0.9778911564625851,-0.9778911564625851,-0.9778911564625851,-0.9778911564625851,-0.9778911564625851,-0.9778911564625851,-0.9778911564625851,-0.9778911564625851,-0.9778911564625851,-0.9778911564625851,-0.9778911564625851,-0.9778911564625851,-0.9778911564625851,-0.9778911564625851,-0.9778911564625851,-0.9778911564625851,-0.9778911564625851,-0.9778911564625851,-0.9778911564625851,-0.9778911564625851,-0.9778911564625851,-0.9778911564625851,-0.9778911564625851,-0.9778911564625851,-0.9778911564625851,-0.9778911564625851,-0.9778911564625851,-0.9778911564625851,-0.9778911564625851,-0.9778911564625851,-0.9778911564625851,-0.9778911564625851,-0.9778911564625851,-0.9778911564625851,-0.9778911564625851,-0.9778911564625851,-0.9778911564625851,-0.9778911564625851,-0.9778911564625851,-0.9778911564625851,-0.9778911564625851,-0.9778911564625851,-0.9778911564625851,-0.9778911564625851,-0.9778911564625851,-0.9778911564625851,-0.9778911564625851,-0.9778911564625851,-0.9778911564625851,-0.9778911564625851,-0.9778911564625851,-0.9778911564625851,-0.9778911564625851,-0.9778911564625851,-0.9778911564625851,-0.9778911564625851,-0.9778911564625851,-0.9778911564625851,-0.9778911564625851,-0.9778911564625851,-0.9778911564625851,-0.9778911564625851,-0.9778911564625851,-0.9778911564625851,-0.9778911564625851,-0.9778911564625851,-0.9778911564625851,-0.9778911564625851,-0.9778911564625851,-0.9778911564625851,-0.9778911564625851,-0.9778911564625851,-0.9778911564625851,-0.9778911564625851,-0.9778911564625851,-0.9778911564625851,-0.9778911564625851,-0.9778911564625851,-0.9778911564625851,-0.9778911564625851,-0.9778911564625851,-0.9778911564625851,-0.9778911564625851,-0.9778911564625851,-0.9778911564625851,-0.9778911564625851,-0.9778911564625851,-0.9778911564625851,-0.9778911564625851,-0.9778911564625851,-0.9778911564625851,-0.9778911564625851,-0.9778911564625851,-0.9778911564625851,-0.9778911564625851,-0.9778911564625851,-0.9778911564625851,-0.9778911564625851,-0.9778911564625851,-0.9778911564625851,-0.9778911564625851,-0.9778911564625851,-0.9778911564625851,-0.9778911564625851,-0.9778911564625851,-0.9778911564625851,-0.9778911564625851,-0.9778911564625851,-0.9778911564625851,-0.9778911564625851,-0.9778911564625851,-0.9778911564625851,-0.9778911564625851,-0.9778911564625851,-0.9778911564625851,-0.9778911564625851,-0.9778911564625851,-0.9778911564625851,-0.9778911564625851,-0.9778911564625851,-0.9778911564625851,-0.9778911564625851,-0.9778911564625851,-0.9778911564625851,-0.9778911564625851,-0.9778911564625851,-0.9778911564625851,-0.9778911564625851,-0.9778911564625851,-0.9778911564625851,-0.9778911564625851,-0.9778911564625851,-0.9778911564625851,-0.9778911564625851,-0.9778911564625851,-0.9778911564625851,-0.9778911564625851,-0.9778911564625851,-0.9778911564625851,-0.9778911564625851,-0.9778911564625851,-0.9778911564625851,-0.9778911564625851,-0.9778911564625851,-0.9778911564625851,-0.9778911564625851,-0.9778911564625851,-0.9778911564625851,-0.9778911564625851,-0.9778911564625851,-0.9778911564625851,-0.9778911564625851,-0.9778911564625851,-0.9778911564625851,-0.9778911564625851,-0.9778911564625851,-0.9778911564625851,-0.9778911564625851,-0.9778911564625851,-0.9778911564625851,-0.9778911564625851,-0.9778911564625851,-0.9778911564625851,-0.9778911564625851,-0.9778911564625851,-0.9778911564625851,-0.9778911564625851,-0.9778911564625851,-0.9778911564625851,-0.9778911564625851,-0.9778911564625851,-0.9778911564625851,-0.9778911564625851,-0.9778911564625851,-0.9778911564625851,-0.9778911564625851,-0.9778911564625851,-0.9778911564625851,-0.9778911564625851,-0.9778911564625851,-0.9778911564625851,-0.9778911564625851,-0.9778911564625851,-0.9778911564625851,-0.9778911564625851,-0.9778911564625851,-0.9778911564625851,-0.9778911564625851,-0.9778911564625851,-0.9778911564625851,-0.9778911564625851,-0.9778911564625851,-0.9778911564625851,-0.9778911564625851,-0.9778911564625851,-0.9778911564625851,-0.9778911564625851,-0.9778911564625851,-0.9778911564625851,-0.9778911564625851,-0.9778911564625851,-0.9778911564625851,-0.9778911564625851,-0.9778911564625851,-0.9778911564625851,-0.9778911564625851,-0.9778911564625851,-0.9778911564625851,-0.9778911564625851,-0.9778911564625851,-0.9778911564625851,-0.9778911564625851,-0.9778911564625851,-0.9778911564625851,-0.9778911564625851,-0.9778911564625851,-0.9778911564625851,-0.9778911564625851,-0.9778911564625851,-0.9778911564625851,-0.9778911564625851,-0.9778911564625851,-0.9778911564625851,-0.9778911564625851,-0.9778911564625851,-0.9778911564625851,-0.9778911564625851,-0.9778911564625851,-0.9778911564625851,-0.9778911564625851,-0.9778911564625851,-0.9778911564625851,-0.9778911564625851,-0.9778911564625851,-0.9778911564625851,-0.9778911564625851,-0.9778911564625851,-0.9778911564625851,-0.9778911564625851,-0.9778911564625851,-0.9778911564625851,-0.9778911564625851,-0.9778911564625851,-0.9778911564625851,-0.9778911564625851,-0.9778911564625851,-0.9778911564625851,-0.9778911564625851,-0.9778911564625851,-0.9778911564625851,-0.9778911564625851,-0.9778911564625851,-0.9778911564625851,-0.9778911564625851,-0.9778911564625851,-0.9778911564625851,-0.9778911564625851,-0.9778911564625851,-0.9778911564625851,-0.9778911564625851,-0.9778911564625851,-0.9778911564625851,-0.9778911564625851,-0.9778911564625851,-0.9778911564625851,-0.9778911564625851,-0.9778911564625851,-0.9778911564625851,-0.9778911564625851,-0.9778911564625851,-0.9778911564625851,-0.9778911564625851,-0.9778911564625851,-0.9778911564625851,-0.9778911564625851,-0.9778911564625851,-0.9778911564625851,-0.9778911564625851,-0.9778911564625851,-0.9778911564625851,-0.9778911564625851,-0.9778911564625851,-0.9778911564625851,-0.9778911564625851,-0.9778911564625851,-0.9778911564625851,-0.9778911564625851,-0.9778911564625851,-0.9778911564625851,-0.9778911564625851,-0.9778911564625851,-0.9778911564625851,-0.9778911564625851,-0.9778911564625851,-0.9778911564625851,-0.9778911564625851,-0.9778911564625851,-0.9778911564625851,-0.9778911564625851,-0.9778911564625851,-0.9778911564625851,-0.9778911564625851,-0.9778911564625851,-0.9778911564625851,-0.9778911564625851,-0.9778911564625851,-0.9778911564625851,-0.9778911564625851,-0.9778911564625851,-0.9778911564625851,-0.9778911564625851,-0.9778911564625851,-0.9778911564625851,-0.9778911564625851,-0.9778911564625851,-0.9778911564625851,-0.9778911564625851,-0.9778911564625851,-0.9778911564625851,-0.9778911564625851,-0.9778911564625851,-0.9778911564625851,-0.9778911564625851,-0.9778911564625851,-0.9778911564625851,-0.9778911564625851,-0.9778911564625851,-0.9778911564625851,-0.9778911564625851,-0.9778911564625851,-0.9778911564625851,-0.9778911564625851,-0.9778911564625851,-0.9778911564625851,-0.9778911564625851,-0.9778911564625851,-0.9778911564625851,-0.9778911564625851,-0.9778911564625851,-0.9778911564625851,-0.9778911564625851,-0.9778911564625851,-0.9778911564625851,-0.9778911564625851,-0.9778911564625851,-0.9778911564625851,-0.9778911564625851,-0.9778911564625851,-0.9778911564625851,-0.9778911564625851,-0.9778911564625851,-0.9778911564625851,-0.9778911564625851,-0.9778911564625851,-0.9778911564625851,-0.9778911564625851,-0.9778911564625851,-0.9778911564625851,-0.9778911564625851,-0.9778911564625851,-0.9778911564625851,-0.9778911564625851,-0.9778911564625851,-0.9778911564625851,-0.9778911564625851,-0.9778911564625851,-0.9778911564625851,-0.9778911564625851,-0.9778911564625851,-0.9778911564625851,-0.9778911564625851,-0.9778911564625851,-0.9778911564625851,-0.9778911564625851,-0.9778911564625851,-0.9778911564625851,-0.9778911564625851,-0.9778911564625851,-0.9778911564625851,-0.9778911564625851,-0.9778911564625851,-0.9778911564625851,-0.9778911564625851,-0.9778911564625851,-0.9778911564625851,-0.9778911564625851,-0.9778911564625851,-0.9778911564625851,-0.9778911564625851,-0.9778911564625851,-0.9778911564625851,-0.9778911564625851,-0.9778911564625851,-0.9778911564625851,-0.9778911564625851,-0.9778911564625851,-0.9778911564625851,-0.9778911564625851,-0.9778911564625851,-0.9778911564625851,-0.9778911564625851,-0.9778911564625851,-0.9778911564625851,-0.9778911564625851,-0.9778911564625851,-0.9778911564625851,-0.9778911564625851,-0.9778911564625851,-0.9778911564625851,-0.9778911564625851,-0.9778911564625851,-0.9778911564625851,-0.9778911564625851,-0.9778911564625851,-0.9778911564625851,-0.9778911564625851,-0.9778911564625851,-0.9778911564625851,-0.9778911564625851,-0.9778911564625851,-0.9778911564625851,-0.9778911564625851,-0.9778911564625851,-0.9778911564625851,-0.9778911564625851,-0.9778911564625851,-0.9778911564625851,-0.9778911564625851,-0.9778911564625851,-0.9778911564625851,-0.9778911564625851,-0.9778911564625851,-0.9778911564625851,-0.9778911564625851,-0.9778911564625851,-0.9778911564625851,-0.9778911564625851,-0.9778911564625851,-0.9778911564625851,-0.9778911564625851,-0.9778911564625851,-0.9778911564625851,-0.9778911564625851,-0.9778911564625851,-0.9778911564625851,-0.9778911564625851,-0.9778911564625851,-0.9778911564625851,-0.9778911564625851,-0.9778911564625851,-0.9778911564625851,-0.9778911564625851,-0.9778911564625851,-0.9778911564625851,-0.9778911564625851,-0.9778911564625851,-0.9778911564625851,-0.9778911564625851,-0.9778911564625851,-0.9778911564625851,-0.9778911564625851,-0.9778911564625851,-0.9778911564625851,-0.9778911564625851,-0.9778911564625851,-0.9778911564625851,-0.9778911564625851,-0.9778911564625851,-0.9778911564625851,-0.9778911564625851,-0.9778911564625851,-0.9778911564625851,-0.9778911564625851,-0.9778911564625851,-0.9778911564625851,-0.9778911564625851,-0.9778911564625851,-0.9778911564625851,-0.9778911564625851,-0.9778911564625851,-0.9778911564625851,-0.9778911564625851,-0.9778911564625851,-0.9778911564625851,-0.9778911564625851,-0.9778911564625851,-0.9778911564625851,-0.9778911564625851,-0.9778911564625851,-0.9778911564625851,-0.9778911564625851,-0.9778911564625851,-0.9778911564625851,-0.9778911564625851,-0.9778911564625851,-0.9778911564625851,-0.9778911564625851,-0.9778911564625851,-0.9778911564625851,-0.9778911564625851,-0.9778911564625851,-0.9778911564625851,-0.9778911564625851,-0.9778911564625851,-0.9778911564625851,-0.9778911564625851,-0.9778911564625851,-0.9778911564625851,-0.9778911564625851,-0.9778911564625851,-0.9778911564625851,-0.9778911564625851,-0.9778911564625851,-0.9778911564625851,-0.9778911564625851,-0.9778911564625851,-0.9778911564625851,-0.9778911564625851,-0.9778911564625851,-0.9778911564625851,-0.9778911564625851,-0.9778911564625851,-0.9778911564625851,-0.9778911564625851,-0.9778911564625851,-0.9778911564625851,-0.9778911564625851,-0.9778911564625851,-0.9778911564625851,-0.9778911564625851,-0.9778911564625851,-0.9778911564625851,-0.9778911564625851,-0.9778911564625851,-0.9778911564625851,-0.9778911564625851,-0.9778911564625851,-0.9778911564625851,-0.9778911564625851,-0.9778911564625851,-0.9778911564625851,-0.9778911564625851,-0.9778911564625851,-0.9778911564625851,-0.9778911564625851,-0.9778911564625851,-0.9778911564625851,-0.9778911564625851,-0.9778911564625851,-0.9778911564625851,-0.9778911564625851,-0.9778911564625851,-0.9778911564625851,-0.9778911564625851,-0.9778911564625851,-0.9778911564625851,-0.9778911564625851,-0.9778911564625851,-0.9778911564625851,-0.9778911564625851,-0.9778911564625851,-0.9778911564625851,-0.9778911564625851,-0.9778911564625851,-0.9778911564625851,-0.9778911564625851,-0.9778911564625851,-0.9778911564625851,-0.9778911564625851,-0.9778911564625851,-0.9778911564625851,-0.9778911564625851,-0.9778911564625851,-0.9778911564625851,-0.9778911564625851,-0.9778911564625851,-0.9778911564625851,-0.9778911564625851,-0.9778911564625851,-0.9778911564625851,-0.9778911564625851,-0.9778911564625851,-0.9778911564625851,-0.9778911564625851,-0.9778911564625851,-0.9778911564625851,-0.9778911564625851,-0.9778911564625851,-0.9778911564625851,-0.9778911564625851,-0.9778911564625851,-0.9778911564625851,-0.9778911564625851,-0.9778911564625851,-0.9778911564625851,-0.9778911564625851,-0.9778911564625851,-0.9778911564625851,-0.9778911564625851,-0.9778911564625851,-0.9778911564625851,-0.9778911564625851,-0.9778911564625851,-0.9778911564625851,-0.9778911564625851,-0.9778911564625851,-0.9778911564625851,-0.9778911564625851,-0.9778911564625851,-0.9778911564625851,-0.9778911564625851,-0.9778911564625851,-0.9778911564625851,-0.9778911564625851,-0.9778911564625851,-0.9778911564625851,-0.9778911564625851,-0.9778911564625851,-0.9778911564625851,-0.9778911564625851,-0.9778911564625851,-0.9778911564625851,-0.9778911564625851,-0.9778911564625851,-0.9778911564625851,-0.9778911564625851,-0.9778911564625851,-0.9778911564625851,-0.9778911564625851,-0.9778911564625851,-0.9778911564625851,-0.9778911564625851,-0.9778911564625851,-0.9778911564625851,-0.9778911564625851,-0.9778911564625851,-0.9778911564625851,-0.9778911564625851,-0.9778911564625851,-0.9778911564625851,-0.9778911564625851,-0.9778911564625851,-0.9778911564625851,-0.9778911564625851,-0.9778911564625851,-0.9778911564625851,-0.9778911564625851,-0.9778911564625851,-0.9778911564625851,-0.9778911564625851,-0.9778911564625851,-0.9778911564625851,-0.9778911564625851,-0.9778911564625851,-0.9778911564625851,-0.9778911564625851,-0.9778911564625851,-0.9778911564625851,-0.9778911564625851,-0.9778911564625851,-0.9778911564625851,-0.9778911564625851,-0.9778911564625851,-0.9778911564625851,-0.9778911564625851,-0.9778911564625851,-0.9778911564625851,-0.9778911564625851,-0.9778911564625851,-0.9778911564625851,-0.9778911564625851,-0.9778911564625851,-0.9778911564625851,-0.9778911564625851,-0.9778911564625851,-0.9778911564625851,-0.9778911564625851,-0.9778911564625851,-0.9778911564625851,-0.9778911564625851,-0.9778911564625851,-0.9778911564625851,-0.9778911564625851,-0.9778911564625851,-0.9778911564625851,-0.9778911564625851,-0.9778911564625851,-0.9778911564625851,-0.9778911564625851,-0.9778911564625851,-0.9778911564625851,-0.9778911564625851,-0.9778911564625851,-0.9778911564625851,-0.9778911564625851,-0.9778911564625851,-0.9778911564625851,-0.9778911564625851,-0.9778911564625851,-0.9778911564625851,-0.9778911564625851,-0.9778911564625851,-0.9778911564625851,-0.9778911564625851,-0.9778911564625851,-0.9778911564625851,-0.9778911564625851,-0.9778911564625851,-0.9778911564625851,-0.9778911564625851,-0.9778911564625851,-0.9778911564625851,-0.9778911564625851,-0.9778911564625851,-0.9778911564625851,-0.9778911564625851,-0.9778911564625851,-0.9778911564625851,-0.9778911564625851,-0.9778911564625851,-0.9778911564625851,-0.9778911564625851,-0.9778911564625851,-0.9778911564625851,-0.9778911564625851,-0.9778911564625851,-0.9778911564625851,-0.9778911564625851,-0.9778911564625851,-0.9778911564625851,-0.9778911564625851,-0.9778911564625851,-0.9778911564625851,-0.9778911564625851,-0.9778911564625851,-0.9778911564625851,-0.9778911564625851,-0.9778911564625851,-0.9778911564625851,-0.9778911564625851,-0.9778911564625851,-0.9778911564625851,-0.9778911564625851,-0.9778911564625851,-0.9778911564625851,-0.9778911564625851,-0.9778911564625851,-0.9778911564625851,-0.9778911564625851,-0.9778911564625851,-0.9778911564625851,-0.9778911564625851,-0.9778911564625851,-0.9778911564625851,-0.9778911564625851,-0.9778911564625851,-0.9778911564625851,-0.9778911564625851,-0.9778911564625851,-0.9778911564625851,-0.9778911564625851,-0.9778911564625851,-0.9778911564625851,-0.9778911564625851,-0.9778911564625851,-0.9778911564625851,-0.9778911564625851,-0.9778911564625851,-0.9778911564625851,-0.9778911564625851,-0.9778911564625851,-0.9778911564625851,-0.9778911564625851,-0.9778911564625851,-0.9778911564625851,-0.9778911564625851,-0.9778911564625851,-0.9778911564625851,-0.9778911564625851,-0.9778911564625851,-0.9778911564625851,-0.9778911564625851,-0.9778911564625851,-0.9778911564625851,-0.9778911564625851,-0.9778911564625851,-0.9778911564625851,-0.9778911564625851,-0.9778911564625851,-0.9778911564625851,-0.9778911564625851,-0.9778911564625851,-0.9778911564625851,-0.9778911564625851,-0.9778911564625851,-0.9778911564625851,-0.9778911564625851,-0.9778911564625851,-0.9778911564625851,-0.9778911564625851,-0.9778911564625851,-0.9778911564625851,-0.9778911564625851,-0.9778911564625851,-0.9778911564625851,-0.9778911564625851,-0.9778911564625851,-0.9778911564625851,-0.9778911564625851,-0.9778911564625851,-0.9778911564625851,-0.9778911564625851,-0.9778911564625851,-0.9778911564625851,-0.9778911564625851,-0.9778911564625851,-0.9778911564625851,-0.9778911564625851,-0.9778911564625851,-0.9778911564625851,-0.9778911564625851,-0.9778911564625851,-0.9778911564625851,-0.9778911564625851,-0.9778911564625851,-0.9778911564625851,-0.9778911564625851,-0.9778911564625851,-0.9778911564625851,-0.9778911564625851,-0.9778911564625851,-0.9778911564625851,-0.9778911564625851,-0.9778911564625851,-0.9778911564625851,-0.9778911564625851,-0.9778911564625851,-0.9778911564625851,-0.9778911564625851,-0.9778911564625851,-0.9778911564625851,-0.9778911564625851,-0.9778911564625851,-0.9778911564625851,-0.9778911564625851,-0.9778911564625851,-0.9778911564625851,-0.9778911564625851,-0.9778911564625851,-0.9778911564625851,-0.9778911564625851,-0.9778911564625851,-0.9778911564625851,-0.9778911564625851,-0.9778911564625851,-0.9778911564625851,-0.9778911564625851,-0.9778911564625851,-0.9778911564625851,-0.9778911564625851,-0.9778911564625851,-0.9778911564625851,-0.9778911564625851,-0.9778911564625851,-0.9778911564625851,-0.9778911564625851,-0.9778911564625851,-0.9778911564625851,-0.9778911564625851,-0.9778911564625851,-0.9778911564625851,-0.9778911564625851,-0.9778911564625851,-0.9778911564625851,-0.9778911564625851,-0.9778911564625851,-0.9778911564625851,-0.9778911564625851,-0.9778911564625851,-0.9778911564625851,-0.9778911564625851,-0.9778911564625851,-0.9778911564625851,-0.9778911564625851,-0.9778911564625851,-0.9778911564625851,-0.9778911564625851,-0.9778911564625851,-0.9778911564625851,-0.9778911564625851,-0.9778911564625851,-0.9778911564625851,-0.9778911564625851,-0.9778911564625851,-0.9778911564625851,-0.9778911564625851,-0.9778911564625851,-0.9778911564625851,-0.9778911564625851,-0.9778911564625851,-0.9778911564625851,-0.9778911564625851,-0.9778911564625851,-0.9778911564625851,-0.9778911564625851,-0.9778911564625851,-0.9778911564625851,-0.9778911564625851,-0.9778911564625851,-0.9778911564625851,-0.9778911564625851,-0.9778911564625851,-0.9778911564625851,-0.9778911564625851,-0.9778911564625851,-0.9778911564625851,-0.9778911564625851,-0.9778911564625851,-0.9778911564625851,-0.9778911564625851,-0.9778911564625851,-0.9778911564625851,-0.9778911564625851,-0.9778911564625851,-0.9778911564625851,-0.9778911564625851,-0.9778911564625851,-0.9778911564625851,-0.9778911564625851,-0.9778911564625851,-0.9778911564625851,-0.9778911564625851,-0.9778911564625851,-0.9778911564625851,-0.9778911564625851,-0.9778911564625851,-0.9778911564625851,-0.9778911564625851,-0.9778911564625851,-0.9778911564625851,-0.9778911564625851,-0.9778911564625851,-0.9778911564625851,-0.9778911564625851,-0.9778911564625851,-0.9778911564625851,-0.9778911564625851,-0.9778911564625851,-0.9778911564625851,-0.9778911564625851,-0.9778911564625851,-0.9778911564625851,-0.9778911564625851,-0.9778911564625851,-0.9778911564625851,-0.9778911564625851,-0.9778911564625851,-0.9778911564625851,-0.9778911564625851,-0.9778911564625851,-0.9778911564625851,-0.9778911564625851,-0.9778911564625851,-0.9778911564625851,-0.9778911564625851,-0.9778911564625851,-0.9778911564625851,-0.9778911564625851,-0.9778911564625851,-0.9778911564625851,-0.9778911564625851,-0.9778911564625851,-0.9778911564625851,-0.9778911564625851,-0.9778911564625851,-0.9778911564625851,-0.9778911564625851,-0.9778911564625851,-0.9778911564625851,-0.9778911564625851,-0.9778911564625851,-0.9778911564625851,-0.9778911564625851,-0.9778911564625851,-0.9778911564625851,-0.9778911564625851,-0.9778911564625851,-0.9778911564625851,-0.9778911564625851,-0.9778911564625851,-0.9778911564625851,-0.9778911564625851,-0.9778911564625851,-0.9778911564625851,-0.9778911564625851,-0.9778911564625851,-0.9778911564625851,-0.9778911564625851,-0.9778911564625851,-0.9778911564625851,-0.9778911564625851,-0.9778911564625851,-0.9778911564625851,-0.9778911564625851,-0.9778911564625851,-0.9778911564625851,-0.9778911564625851,-0.9778911564625851,-0.9778911564625851,-0.9778911564625851,-0.9778911564625851,-0.9778911564625851,-0.9778911564625851,-0.9778911564625851,-0.9778911564625851,-0.9778911564625851,-0.9778911564625851,-0.9778911564625851,-0.9778911564625851,-0.9778911564625851,-0.9778911564625851,-0.9778911564625851,-0.9778911564625851,-0.9778911564625851,-0.9778911564625851,-0.9778911564625851,-0.9778911564625851,-0.9778911564625851,-0.9778911564625851,-0.9778911564625851,-0.9778911564625851,-0.9778911564625851,-0.9778911564625851,-0.9778911564625851,-0.9778911564625851,-0.9778911564625851,-0.9778911564625851,-0.9778911564625851,-0.9778911564625851,-0.9778911564625851,-0.9778911564625851,-0.9778911564625851,-0.9778911564625851,-0.9778911564625851,-0.9778911564625851,-0.9778911564625851,-0.9778911564625851,-0.9778911564625851,-0.9778911564625851,-0.9778911564625851,-0.9778911564625851,-0.9778911564625851,-0.9778911564625851,-0.9778911564625851,0.03628117915521674,0.026077097522563673,0.015873015889910615,0.00907029480147524,0.002267573713039865,-0.01473922900804857,-0.02494331064070163,-0.04195011336179007,-0.052154194994443126,-0.0589569160828785,-0.06235827662709619,-0.06235827662709619,-0.06235827662709619,-0.06235827662709619,-0.06235827662709619,-0.06235827662709619,-0.06235827662709619,-0.06235827662709619,-0.06235827662709619,-0.06235827662709619,-0.06235827662709619,-0.06235827662709619,-0.06235827662709619,-0.06235827662709619,-0.06235827662709619,-0.06235827662709619,-0.06235827662709619,-0.06235827662709619,-0.06235827662709619,-0.06235827662709619,-0.06235827662709619,-0.06235827662709619,-0.06235827662709619,-0.06235827662709619,-0.0589569160828785,-0.052154194994443126,-0.04875283445022544,-0.038548752817572376,-0.02494331064070163,-0.018140589552266256,-0.007936507919613195,-0.004535147375395509,-0.004535147375395509,-0.004535147375395509,-0.004535147375395509,-0.004535147375395509,-0.004535147375395509,-0.004535147375395509,-0.004535147375395509,-0.004535147375395509,-0.004535147375395509,-0.004535147375395509,-0.004535147375395509,-0.004535147375395509,-0.004535147375395509,-0.004535147375395509,-0.004535147375395509,-0.004535147375395509,-0.004535147375395509,-0.004535147375395509,-0.004535147375395509,-0.004535147375395509,-0.004535147375395509,-0.004535147375395509,-0.004535147375395509,-0.004535147375395509,-0.004535147375395509,-0.004535147375395509,-0.004535147375395509,-0.004535147375395509,-0.004535147375395509,-0.004535147375395509,-0.004535147375395509,-0.004535147375395509,-0.004535147375395509,-0.004535147375395509,-0.004535147375395509,-0.004535147375395509,-0.004535147375395509,-0.004535147375395509,-0.004535147375395509,-0.004535147375395509,-0.004535147375395509,-0.004535147375395509,-0.004535147375395509,-0.004535147375395509,-0.004535147375395509,-0.004535147375395509,-0.004535147375395509,-0.004535147375395509,-0.004535147375395509,-0.004535147375395509,-0.004535147375395509,-0.004535147375395509,-0.004535147375395509,-0.004535147375395509,-0.004535147375395509,-0.004535147375395509,-0.004535147375395509,-0.004535147375395509,-0.004535147375395509,-0.004535147375395509,-0.004535147375395509,-0.004535147375395509,-0.004535147375395509,-0.004535147375395509,-0.004535147375395509,-0.004535147375395509,-0.004535147375395509,-0.004535147375395509,-0.004535147375395509,-0.004535147375395509,-0.004535147375395509,-0.004535147375395509,-0.004535147375395509,-0.004535147375395509,-0.004535147375395509,-0.004535147375395509,-0.004535147375395509,-0.004535147375395509,-0.004535147375395509,-0.004535147375395509,-0.004535147375395509,-0.004535147375395509,-0.004535147375395509,-0.004535147375395509,-0.004535147375395509,-0.004535147375395509,-0.004535147375395509,-0.0011337868311778218,0.002267573713039865,0.002267573713039865,0.0056689342572575525,0.00907029480147524,0.00907029480147524,0.00907029480147524,-0.0011337868311778218,-0.004535147375395509,-0.011337868463830883,-0.021541950096483943,-0.02494331064070163,-0.04195011336179007,-0.0589569160828785,-0.07256235825974926,-0.09297052152505537,-0.10657596370192612,-0.11337868479036149,-0.12698412696723224,-0.13038548751144993,-0.13718820859988531,-0.140589569144103,-0.140589569144103,-0.14399092968832067,-0.14739229023253836,-0.14739229023253836,-0.14739229023253836,-0.14739229023253836,-0.14739229023253836,-0.14739229023253836,-0.14739229023253836,-0.14739229023253836,-0.14739229023253836,-0.14739229023253836,-0.14739229023253836,-0.14739229023253836,-0.14739229023253836,-0.14739229023253836,-0.14739229023253836,-0.14739229023253836,-0.14739229023253836,-0.14739229023253836,-0.14739229023253836,-0.14739229023253836,-0.14739229023253836,-0.14739229023253836,-0.14739229023253836,-0.14739229023253836,-0.14739229023253836,-0.14739229023253836,-0.14739229023253836,-0.14739229023253836,-0.14739229023253836,-0.14739229023253836,-0.14739229023253836,-0.14739229023253836,-0.14739229023253836,-0.14739229023253836,-0.14739229023253836,-0.14739229023253836,-0.14739229023253836,-0.14739229023253836,-0.14739229023253836,-0.14739229023253836,-0.14739229023253836,-0.14739229023253836,-0.14739229023253836,-0.14739229023253836,-0.14739229023253836,-0.14739229023253836,-0.14739229023253836,-0.14739229023253836,-0.14739229023253836,-0.14739229023253836,-0.14739229023253836,-0.14739229023253836,-0.14739229023253836,-0.14739229023253836,-0.14739229023253836,-0.14739229023253836,-0.14739229023253836,-0.14739229023253836,-0.14739229023253836,-0.14739229023253836,-0.14739229023253836,-0.14739229023253836,-0.14739229023253836,-0.14739229023253836,-0.14739229023253836,-0.14399092968832067,-0.14399092968832067,-0.14399092968832067,-0.140589569144103,-0.140589569144103,-0.13718820859988531,-0.13378684805566762,-0.13038548751144993,-0.12698412696723224,-0.12018140587879687,-0.11678004533457918,-0.10657596370192612,-0.09977324261349074,-0.09297052152505537,-0.07936507934818463,-0.07596371880396693,-0.06575963717131388,-0.052154194994443126,-0.04535147390600775,-0.02494331064070163,-0.011337868463830883,-0.004535147375395509,0.012471655345692927,0.026077097522563673,0.03628117915521674,0.0702947845973936,0.08390022677426436,0.11111111112800585,0.13151927439331199,0.14512471657018272,0.16213151929127115,0.17233560092392422,0.1791383220123596,0.18594104310079496,0.19274376418923034,0.19614512473344803,0.2029478458218834,0.2029478458218834,0.2029478458218834,0.2029478458218834,0.2029478458218834,0.2029478458218834,0.2029478458218834,0.2029478458218834,0.2029478458218834,0.2029478458218834,0.2029478458218834,0.2029478458218834,0.2029478458218834,0.2029478458218834,0.2029478458218834,0.2029478458218834,0.2029478458218834,0.2029478458218834,0.2063492063661011,0.22335600908718953,0.2301587301756249,0.250566893440931,0.27097505670623717,0.28798185942732557,0.3083900226926317,0.3219954648695024,0.34240362813480857,0.35600907031167933,0.3628117914001147,0.3798185941212031,0.3900226757538562,0.39682539684229157,0.41043083901916233,0.4172335601075977,0.42403628119603304,0.4342403628286861,0.4444444444613392,0.4478458050055569,0.45464852609399226,0.45804988663820995,0.46485260772664533,0.46485260772664533,0.468253968270863,0.47165532881508065,0.47165532881508065,0.47165532881508065,0.47845804990351604,0.47845804990351604,0.4818594104477337,0.4852607709919514,0.4852607709919514,0.4920634920803868,0.4920634920803868,0.4920634920803868,0.4954648526246045,0.4988662131688222,0.4988662131688222,0.5056689342572576,0.5056689342572576,0.5090702948014753,0.512471655345693,0.512471655345693,0.5192743764341283,0.5192743764341283,0.5192743764341283,0.5192743764341283,0.522675736978346,0.522675736978346,0.5260770975225637,0.5260770975225637,0.5260770975225637,0.5260770975225637,0.5260770975225637,0.5260770975225637,0.5260770975225637,0.5260770975225637,0.5260770975225637,0.522675736978346,0.5192743764341283,0.512471655345693,0.5056689342572576,0.5056689342572576,0.5022675737130399,0.4954648526246045,0.4886621315361691,0.4852607709919514,0.47845804990351604,0.47845804990351604,0.47505668935929835,0.47165532881508065,0.47165532881508065,0.47165532881508065,0.47165532881508065,0.47165532881508065,0.47165532881508065,0.47165532881508065,0.47165532881508065,0.47165532881508065,0.47165532881508065,0.47165532881508065,0.47165532881508065,0.47165532881508065,0.47165532881508065,0.47165532881508065,0.47165532881508065,0.47165532881508065,0.47165532881508065,0.47165532881508065,0.47165532881508065,0.47165532881508065,0.47165532881508065,0.47165532881508065,0.47165532881508065,0.47165532881508065,0.47165532881508065,0.47165532881508065,0.47165532881508065,0.47165532881508065,0.47165532881508065,0.47165532881508065,0.47165532881508065,0.47165532881508065,0.47165532881508065,0.47165532881508065,0.47165532881508065,0.47165532881508065,0.47165532881508065,0.47165532881508065,0.47165532881508065,0.47165532881508065,0.47165532881508065,0.47165532881508065,0.47165532881508065,0.47165532881508065,0.47165532881508065,0.47165532881508065,0.47165532881508065,0.47165532881508065,0.47165532881508065,0.47165532881508065,0.47165532881508065,0.47165532881508065,0.47165532881508065,0.47165532881508065,0.47165532881508065,0.47165532881508065,0.47165532881508065,0.47165532881508065,0.47165532881508065,0.47165532881508065,0.47165532881508065,0.47165532881508065,0.47165532881508065,0.47165532881508065,0.47165532881508065,0.47165532881508065,0.47165532881508065,0.47165532881508065,0.47165532881508065,0.47165532881508065,0.47165532881508065,0.47165532881508065,0.47165532881508065,0.47165532881508065,0.47165532881508065,0.47165532881508065,0.47165532881508065,0.47165532881508065,0.47165532881508065,0.47165532881508065,0.47165532881508065,0.47165532881508065,0.47165532881508065,0.47165532881508065,0.47165532881508065,0.47165532881508065,0.47165532881508065,0.47165532881508065,0.47165532881508065,0.