success,trial_type,trial_index,time_elapsed,internal_node_id,protocol_sum,subject_identifier,subject_sum,subject_pair,STUDY_ID,PROLIFIC_PID,SESSION_ID,practice_instructions,leaderboard_instructions,bonus,reveal_word,self_rating,confidence,view_history,rt,responses,question_order,correct,test_part,word,click_log,final_keyboard_state,num_clicks,points,cheat,response,position_RT,position,player,i_game,true_position,distance,last_word,stimulus,confidence_slider_self_response
1.0,fullscreen,0,13555,0.0-0.0,,423,"[9, 52, 52, 163, 238, 158, 10, 1, 11, 178, 194, 170, 224, 108, 38, 20, 221, 36, 137, 64, 98, 161, 202, 242, 103, 24, 160, 30, 23, 85, 105, 184]",211,66a22c0758a3d5c9d26873c6,65c523100ad7bf41ef536598,66a2b4b175e3a045f064d316,1,0,0,True,5,53,,,,,,,,,,,,,,,,,,,,,,
,instructions,1,18462,0.0-1.0,,423,"[9, 52, 52, 163, 238, 158, 10, 1, 11, 178, 194, 170, 224, 108, 38, 20, 221, 36, 137, 64, 98, 161, 202, 242, 103, 24, 160, 30, 23, 85, 105, 184]",211,66a22c0758a3d5c9d26873c6,65c523100ad7bf41ef536598,66a2b4b175e3a045f064d316,1,0,0,True,5,53,"[{""page_index"":0,""viewing_time"":4904.0999999940395}]",4904.399999991059,,,,,,,,,,,,,,,,,,,,
,instructions,2,180469,0.0-2.0-0.0,,423,"[9, 52, 52, 163, 238, 158, 10, 1, 11, 178, 194, 170, 224, 108, 38, 20, 221, 36, 137, 64, 98, 161, 202, 242, 103, 24, 160, 30, 23, 85, 105, 184]",211,66a22c0758a3d5c9d26873c6,65c523100ad7bf41ef536598,66a2b4b175e3a045f064d316,1,0,0,True,5,53,"[{""page_index"":0,""viewing_time"":162005}]",162005.20000000298,,,,,,,,,,,,,,,,,,,,
,survey-multi-choice,3,193742,0.0-2.0-1.0,,423,"[9, 52, 52, 163, 238, 158, 10, 1, 11, 178, 194, 170, 224, 108, 38, 20, 221, 36, 137, 64, 98, 161, 202, 242, 103, 24, 160, 30, 23, 85, 105, 184]",211,66a22c0758a3d5c9d26873c6,65c523100ad7bf41ef536598,66a2b4b175e3a045f064d316,1,0,0,True,5,53,,13271.0,"{""Q0"":""... reveal the word with as <b>few letter guesses</b> as possible""}",[0],1.0,multichoice_nonpretend,,,,,,,,,,,,,,,,
,instructions,4,196229,0.0-3.0,,423,"[9, 52, 52, 163, 238, 158, 10, 1, 11, 178, 194, 170, 224, 108, 38, 20, 221, 36, 137, 64, 98, 161, 202, 242, 103, 24, 160, 30, 23, 85, 105, 184]",211,66a22c0758a3d5c9d26873c6,65c523100ad7bf41ef536598,66a2b4b175e3a045f064d316,1,0,0,True,5,53,"[{""page_index"":0,""viewing_time"":2486}]",2486.2999999970198,,,,,,,,,,,,,,,,,,,,
,Hangman,5,261881,0.0-4.0,,423,"[9, 52, 52, 163, 238, 158, 10, 1, 11, 178, 194, 170, 224, 108, 38, 20, 221, 36, 137, 64, 98, 161, 202, 242, 103, 24, 160, 30, 23, 85, 105, 184]",211,66a22c0758a3d5c9d26873c6,65c523100ad7bf41ef536598,66a2b4b175e3a045f064d316,1,0,0,True,5,53,,,,,,,ZEBRA,"{'letter': ['', 'H', 'O', 'G', 'S', 'T', 'L', 'U', 'A', 'D', 'C', 'P', 'J', 'E', 'Z', 'B', 'R'], 't': [0, 5537.4000000059605, 7977.100000008941, 22417.29999999702, 25432.90000000596, 27200.90000000596, 31961.5, 34897.29999999702, 36097.10000000894, 38352.90000000596, 40200.90000000596, 42505, 44888.90000000596, 47104.79999999702, 59332.79999999702, 60424.79999999702, 63640.90000000596], 'hit': [None, 0, 0, 0, 0, 0, 0, 0, 1, 0, 0, 0, 0, 1, 1, 1, 1], 'asked': ['', 'H', 'HO', 'HOG', 'HOGS', 'HOGST', 'HOGSTL', 'HOGSTLU', 'HOGSTLUA', 'HOGSTLUAD', 'HOGSTLUADC', 'HOGSTLUADCP', 'HOGSTLUADCPJ', 'HOGSTLUADCPJE', 'HOGSTLUADCPJEZ', 'HOGSTLUADCPJEZB', 'HOGSTLUADCPJEZBR'], 'word_state': ['_____', '_____', '_____', '_____', '_____', '_____', '_____', '_____', '____A', '____A', '____A', '____A', '____A', '_E__A', 'ZE__A', 'ZEB_A', 'ZEBRA']}","['H', 'O', 'G', 'S', 'T', 'L', 'U', 'A', 'D', 'C', 'P', 'J', 'E', 'Z', 'B', 'R']",16.0,4.0,0.0,,,,,,,,,,
,instructions,6,278069,0.0-5.0,,423,"[9, 52, 52, 163, 238, 158, 10, 1, 11, 178, 194, 170, 224, 108, 38, 20, 221, 36, 137, 64, 98, 161, 202, 242, 103, 24, 160, 30, 23, 85, 105, 184]",211,66a22c0758a3d5c9d26873c6,65c523100ad7bf41ef536598,66a2b4b175e3a045f064d316,1,0,0,True,5,53,"[{""page_index"":0,""viewing_time"":5898.100000008941},{""page_index"":1,""viewing_time"":10288}]",16186.90000000596,,,,,,,,,,,,,,,,,,,,
,survey-multi-choice,7,291757,0.0-6.0,,423,"[9, 52, 52, 163, 238, 158, 10, 1, 11, 178, 194, 170, 224, 108, 38, 20, 221, 36, 137, 64, 98, 161, 202, 242, 103, 24, 160, 30, 23, 85, 105, 184]",211,66a22c0758a3d5c9d26873c6,65c523100ad7bf41ef536598,66a2b4b175e3a045f064d316,1,0,0,True,5,53,,13686.59999999404,"{""Q0"":""...from <b>a previous session</b> that is not part of the upcoming tournament.""}",[0],1.0,multichoice_leaderboard,,,,,,,,,,,,,,,,
,instructions,8,309901,0.0-8.0,,423,"[9, 52, 52, 163, 238, 158, 10, 1, 11, 178, 194, 170, 224, 108, 38, 20, 221, 36, 137, 64, 98, 161, 202, 242, 103, 24, 160, 30, 23, 85, 105, 184]",211,66a22c0758a3d5c9d26873c6,65c523100ad7bf41ef536598,66a2b4b175e3a045f064d316,1,0,0,True,5,53,"[{""page_index"":0,""viewing_time"":18142.79999999702}]",18143.0,,,,,,,,,,,,,,,,,,,,
,survey-multi-choice,9,320294,0.0-9.0,,423,"[9, 52, 52, 163, 238, 158, 10, 1, 11, 178, 194, 170, 224, 108, 38, 20, 221, 36, 137, 64, 98, 161, 202, 242, 103, 24, 160, 30, 23, 85, 105, 184]",211,66a22c0758a3d5c9d26873c6,65c523100ad7bf41ef536598,66a2b4b175e3a045f064d316,1,0,0,True,5,53,,10391.20000000298,"{""Q0"":""...players' leaderboard position (in terms of <b>points</b>) in an <b>upcoming tournament.</b>""}",[0],1.0,multichoice_tournament,,,,,,,,,,,,,,,,
,instructions,10,333934,0.0-11.0,,423,"[9, 52, 52, 163, 238, 158, 10, 1, 11, 178, 194, 170, 224, 108, 38, 20, 221, 36, 137, 64, 98, 161, 202, 242, 103, 24, 160, 30, 23, 85, 105, 184]",211,66a22c0758a3d5c9d26873c6,65c523100ad7bf41ef536598,66a2b4b175e3a045f064d316,1,0,0,True,5,53,"[{""page_index"":0,""viewing_time"":13639}]",13639.199999988079,,,,,,,,,,,,,,,,,,,,
,instructions,11,350765,0.0-12.0-0.0,,423,"[9, 52, 52, 163, 238, 158, 10, 1, 11, 178, 194, 170, 224, 108, 38, 20, 221, 36, 137, 64, 98, 161, 202, 242, 103, 24, 160, 30, 23, 85, 105, 184]",211,66a22c0758a3d5c9d26873c6,65c523100ad7bf41ef536598,66a2b4b175e3a045f064d316,1,0,0,True,5,53,"[{""page_index"":0,""viewing_time"":16830.79999999702}]",16831.0,,,,,,,,,,,,,,,,,,,,
,type-this,12,371412,0.0-12.0-1.0,,423,"[9, 52, 52, 163, 238, 158, 10, 1, 11, 178, 194, 170, 224, 108, 38, 20, 221, 36, 137, 64, 98, 161, 202, 242, 103, 24, 160, 30, 23, 85, 105, 184]",211,66a22c0758a3d5c9d26873c6,65c523100ad7bf41ef536598,66a2b4b175e3a045f064d316,1,0,0,True,5,53,,20140.39999999106,['HAWAII'],,,,,,,,,,HAWAII,,,,,,,,,
,Hangman_replay,13,415388,0.0-12.0-2.0,,423,"[9, 52, 52, 163, 238, 158, 10, 1, 11, 178, 194, 170, 224, 108, 38, 20, 221, 36, 137, 64, 98, 161, 202, 242, 103, 24, 160, 30, 23, 85, 105, 184]",211,66a22c0758a3d5c9d26873c6,65c523100ad7bf41ef536598,66a2b4b175e3a045f064d316,1,0,0,True,5,53,,,,,,,HAWAII,"{'letter': ['', 'A', 'K', 'H', 'W', 'I'], 't': [0, 4802.399999991059, 32951.59999999404, 39101, 40817.29999999702, 41950.79999999702], 'hit': [None, 2, 0, 1, 1, 2], 'asked': ['', 'A', 'AK', 'AKH', 'AKHW', 'AKHWI'], 'word_state': ['______', '_A_A__', '_A_A__', 'HA_A__', 'HAWA__', 'HAWAII']}","['A', 'K', 'H', 'W', 'I']",5.0,14.0,0.0,,,,,,,,,,
,instructions,14,420813,0.0-12.0-3.0,,423,"[9, 52, 52, 163, 238, 158, 10, 1, 11, 178, 194, 170, 224, 108, 38, 20, 221, 36, 137, 64, 98, 161, 202, 242, 103, 24, 160, 30, 23, 85, 105, 184]",211,66a22c0758a3d5c9d26873c6,65c523100ad7bf41ef536598,66a2b4b175e3a045f064d316,1,0,0,True,5,53,"[{""page_index"":0,""viewing_time"":5424.29999999702}]",5424.79999999702,,,,,,,,,,,,,,,,,,,,
,Guess_leaderboard,15,430266,0.0-12.0-4.0,,423,"[9, 52, 52, 163, 238, 158, 10, 1, 11, 178, 194, 170, 224, 108, 38, 20, 221, 36, 137, 64, 98, 161, 202, 242, 103, 24, 160, 30, 23, 85, 105, 184]",211,66a22c0758a3d5c9d26873c6,65c523100ad7bf41ef536598,66a2b4b175e3a045f064d316,1,0,0,True,5,53,,,,,,,HAWAII,,,,,,,8691.59999999404,18.0,79.0,0.0,51.0,33.0,,,
,instructions,16,436981,0.0-12.0-0.1,,423,"[9, 52, 52, 163, 238, 158, 10, 1, 11, 178, 194, 170, 224, 108, 38, 20, 221, 36, 137, 64, 98, 161, 202, 242, 103, 24, 160, 30, 23, 85, 105, 184]",211,66a22c0758a3d5c9d26873c6,65c523100ad7bf41ef536598,66a2b4b175e3a045f064d316,1,0,0,True,5,53,"[{""page_index"":0,""viewing_time"":6714.100000008941}]",6714.4000000059605,,,,,,,,,,,,,,,,,,,,
,type-this,17,446724,0.0-12.0-1.1,,423,"[9, 52, 52, 163, 238, 158, 10, 1, 11, 178, 194, 170, 224, 108, 38, 20, 221, 36, 137, 64, 98, 161, 202, 242, 103, 24, 160, 30, 23, 85, 105, 184]",211,66a22c0758a3d5c9d26873c6,65c523100ad7bf41ef536598,66a2b4b175e3a045f064d316,1,0,0,True,5,53,,9236.5,['FIG'],,,,,,,,,,FIG,,,,,,,,,
,Hangman_replay,18,478065,0.0-12.0-2.1,,423,"[9, 52, 52, 163, 238, 158, 10, 1, 11, 178, 194, 170, 224, 108, 38, 20, 221, 36, 137, 64, 98, 161, 202, 242, 103, 24, 160, 30, 23, 85, 105, 184]",211,66a22c0758a3d5c9d26873c6,65c523100ad7bf41ef536598,66a2b4b175e3a045f064d316,1,0,0,True,5,53,,,,,,,FIG,"{'letter': ['', 'A', 'E', 'I', 'F', 'G'], 't': [0, 15436.79999999702, 23303, 25502.5, 28435.39999999106, 29335.29999999702], 'hit': [None, 0, 0, 1, 1, 1], 'asked': ['', 'A', 'AE', 'AEI', 'AEIF', 'AEIFG'], 'word_state': ['___', '___', '___', '_I_', 'FI_', 'FIG']}","['A', 'E', 'I', 'F', 'G']",5.0,13.0,0.0,,,,,,,,,,
,instructions,19,479605,0.0-12.0-3.1,,423,"[9, 52, 52, 163, 238, 158, 10, 1, 11, 178, 194, 170, 224, 108, 38, 20, 221, 36, 137, 64, 98, 161, 202, 242, 103, 24, 160, 30, 23, 85, 105, 184]",211,66a22c0758a3d5c9d26873c6,65c523100ad7bf41ef536598,66a2b4b175e3a045f064d316,1,0,0,True,5,53,"[{""page_index"":0,""viewing_time"":1538.7999999970198}]",1539.0,,,,,,,,,,,,,,,,,,,,
,Guess_leaderboard,20,484098,0.0-12.0-4.1,,423,"[9, 52, 52, 163, 238, 158, 10, 1, 11, 178, 194, 170, 224, 108, 38, 20, 221, 36, 137, 64, 98, 161, 202, 242, 103, 24, 160, 30, 23, 85, 105, 184]",211,66a22c0758a3d5c9d26873c6,65c523100ad7bf41ef536598,66a2b4b175e3a045f064d316,1,0,0,True,5,53,,,,,,,FIG,,,,,,,2246.2000000029802,10.0,74.0,1.0,36.0,26.0,,,
,instructions,21,491819,0.0-12.0-0.2,,423,"[9, 52, 52, 163, 238, 158, 10, 1, 11, 178, 194, 170, 224, 108, 38, 20, 221, 36, 137, 64, 98, 161, 202, 242, 103, 24, 160, 30, 23, 85, 105, 184]",211,66a22c0758a3d5c9d26873c6,65c523100ad7bf41ef536598,66a2b4b175e3a045f064d316,1,0,0,True,5,53,"[{""page_index"":0,""viewing_time"":7719.79999999702}]",7720.0,,,,,,,,,,,,,,,,,,,,
,type-this,22,501778,0.0-12.0-1.2,,423,"[9, 52, 52, 163, 238, 158, 10, 1, 11, 178, 194, 170, 224, 108, 38, 20, 221, 36, 137, 64, 98, 161, 202, 242, 103, 24, 160, 30, 23, 85, 105, 184]",211,66a22c0758a3d5c9d26873c6,65c523100ad7bf41ef536598,66a2b4b175e3a045f064d316,1,0,0,True,5,53,,9453.5,['SHAKIRA'],,,,,,,,,,SHAKIRA,,,,,,,,,
,Hangman_replay,23,541214,0.0-12.0-2.2,,423,"[9, 52, 52, 163, 238, 158, 10, 1, 11, 178, 194, 170, 224, 108, 38, 20, 221, 36, 137, 64, 98, 161, 202, 242, 103, 24, 160, 30, 23, 85, 105, 184]",211,66a22c0758a3d5c9d26873c6,65c523100ad7bf41ef536598,66a2b4b175e3a045f064d316,1,0,0,True,5,53,,,,,,,SHAKIRA,"{'letter': ['', 'A', 'E', 'I', 'O', 'U', 'T', 'S', 'N', 'M', 'H', 'K', 'R'], 't': [0, 2781.9000000059605, 4165.100000008941, 5981.600000008941, 8231.20000000298, 9931.60000000894, 12214.40000000596, 13564.60000000894, 22614.80000001192, 23630.10000000894, 30180.5, 34696.30000001192, 37412.80000001192], 'hit': [None, 2, 0, 1, 0, 0, 0, 1, 0, 0, 1, 1, 1], 'asked': ['', 'A', 'AE', 'AEI', 'AEIO', 'AEIOU', 'AEIOUT', 'AEIOUTS', 'AEIOUTSN', 'AEIOUTSNM', 'AEIOUTSNMH', 'AEIOUTSNMHK', 'AEIOUTSNMHKR'], 'word_state': ['_______', '__A___A', '__A___A', '__A_I_A', '__A_I_A', '__A_I_A', '__A_I_A', 'S_A_I_A', 'S_A_I_A', 'S_A_I_A', 'SHA_I_A', 'SHAKI_A', 'SHAKIRA']}","['A', 'E', 'I', 'O', 'U', 'T', 'S', 'N', 'M', 'H', 'K', 'R']",12.0,9.0,0.0,,,,,,,,,,
,instructions,24,543996,0.0-12.0-3.2,,423,"[9, 52, 52, 163, 238, 158, 10, 1, 11, 178, 194, 170, 224, 108, 38, 20, 221, 36, 137, 64, 98, 161, 202, 242, 103, 24, 160, 30, 23, 85, 105, 184]",211,66a22c0758a3d5c9d26873c6,65c523100ad7bf41ef536598,66a2b4b175e3a045f064d316,1,0,0,True,5,53,"[{""page_index"":0,""viewing_time"":2780.9000000059605}]",2781.2000000029802,,,,,,,,,,,,,,,,,,,,
,Guess_leaderboard,25,546677,0.0-12.0-4.2,,423,"[9, 52, 52, 163, 238, 158, 10, 1, 11, 178, 194, 170, 224, 108, 38, 20, 221, 36, 137, 64, 98, 161, 202, 242, 103, 24, 160, 30, 23, 85, 105, 184]",211,66a22c0758a3d5c9d26873c6,65c523100ad7bf41ef536598,66a2b4b175e3a045f064d316,1,0,0,True,5,53,,,,,,,SHAKIRA,,,,,,,1918.0,58.0,99.0,2.0,81.0,23.0,,,
,instructions,26,557677,0.0-12.0-0.3,,423,"[9, 52, 52, 163, 238, 158, 10, 1, 11, 178, 194, 170, 224, 108, 38, 20, 221, 36, 137, 64, 98, 161, 202, 242, 103, 24, 160, 30, 23, 85, 105, 184]",211,66a22c0758a3d5c9d26873c6,65c523100ad7bf41ef536598,66a2b4b175e3a045f064d316,1,0,0,True,5,53,"[{""page_index"":0,""viewing_time"":10999.09999999404}]",10999.5,,,,,,,,,,,,,,,,,,,,
,type-this,27,570275,0.0-12.0-1.3,,423,"[9, 52, 52, 163, 238, 158, 10, 1, 11, 178, 194, 170, 224, 108, 38, 20, 221, 36, 137, 64, 98, 161, 202, 242, 103, 24, 160, 30, 23, 85, 105, 184]",211,66a22c0758a3d5c9d26873c6,65c523100ad7bf41ef536598,66a2b4b175e3a045f064d316,1,0,0,True,5,53,,12091.90000000596,['THIRTY FOUR'],,,,,,,,,,THIRTY FOUR,,,,,,,,,
,Hangman_replay,28,597476,0.0-12.0-2.3,,423,"[9, 52, 52, 163, 238, 158, 10, 1, 11, 178, 194, 170, 224, 108, 38, 20, 221, 36, 137, 64, 98, 161, 202, 242, 103, 24, 160, 30, 23, 85, 105, 184]",211,66a22c0758a3d5c9d26873c6,65c523100ad7bf41ef536598,66a2b4b175e3a045f064d316,1,0,0,True,5,53,,,,,,,THIRTY FOUR,"{'letter': ['', 'T', 'Y', 'W', 'H', 'I', 'R', 'F', 'O', 'U'], 't': [0, 7563.0999999940395, 9895.90000000596, 12495.79999999702, 16278.90000000596, 17545.40000000596, 18945.29999999702, 21345.09999999404, 23278.29999999702, 25194.79999999702], 'hit': [None, 2, 1, 0, 1, 1, 2, 1, 1, 1], 'asked': ['', 'T', 'TY', 'TYW', 'TYWH', 'TYWHI', 'TYWHIR', 'TYWHIRF', 'TYWHIRFO', 'TYWHIRFOU'], 'word_state': ['______ ____', 'T___T_ ____', 'T___TY ____', 'T___TY ____', 'TH__TY ____', 'THI_TY ____', 'THIRTY ___R', 'THIRTY F__R', 'THIRTY FO_R', 'THIRTY FOUR']}","['T', 'Y', 'W', 'H', 'I', 'R', 'F', 'O', 'U']",9.0,14.0,0.0,,,,,,,,,,
,instructions,29,599195,0.0-12.0-3.3,,423,"[9, 52, 52, 163, 238, 158, 10, 1, 11, 178, 194, 170, 224, 108, 38, 20, 221, 36, 137, 64, 98, 161, 202, 242, 103, 24, 160, 30, 23, 85, 105, 184]",211,66a22c0758a3d5c9d26873c6,65c523100ad7bf41ef536598,66a2b4b175e3a045f064d316,1,0,0,True,5,53,"[{""page_index"":0,""viewing_time"":1718.5}]",1718.7999999970198,,,,,,,,,,,,,,,,,,,,
,Guess_leaderboard,30,602739,0.0-12.0-4.3,,423,"[9, 52, 52, 163, 238, 158, 10, 1, 11, 178, 194, 170, 224, 108, 38, 20, 221, 36, 137, 64, 98, 161, 202, 242, 103, 24, 160, 30, 23, 85, 105, 184]",211,66a22c0758a3d5c9d26873c6,65c523100ad7bf41ef536598,66a2b4b175e3a045f064d316,1,0,0,True,5,53,,,,,,,THIRTY FOUR,,,,,,,2781.800000011921,9.0,100.0,3.0,67.0,58.0,,,
,instructions,31,606323,0.0-12.0-0.4,,423,"[9, 52, 52, 163, 238, 158, 10, 1, 11, 178, 194, 170, 224, 108, 38, 20, 221, 36, 137, 64, 98, 161, 202, 242, 103, 24, 160, 30, 23, 85, 105, 184]",211,66a22c0758a3d5c9d26873c6,65c523100ad7bf41ef536598,66a2b4b175e3a045f064d316,1,0,0,True,5,53,"[{""page_index"":0,""viewing_time"":3583.3999999910593}]",3583.5999999940395,,,,,,,,,,,,,,,,,,,,
,type-this,32,622754,0.0-12.0-1.4,,423,"[9, 52, 52, 163, 238, 158, 10, 1, 11, 178, 194, 170, 224, 108, 38, 20, 221, 36, 137, 64, 98, 161, 202, 242, 103, 24, 160, 30, 23, 85, 105, 184]",211,66a22c0758a3d5c9d26873c6,65c523100ad7bf41ef536598,66a2b4b175e3a045f064d316,1,0,0,True,5,53,,15925.59999999404,['WRIST'],,,,,,,,,,WRIST,,,,,,,,,
,Hangman_replay,33,692269,0.0-12.0-2.4,,423,"[9, 52, 52, 163, 238, 158, 10, 1, 11, 178, 194, 170, 224, 108, 38, 20, 221, 36, 137, 64, 98, 161, 202, 242, 103, 24, 160, 30, 23, 85, 105, 184]",211,66a22c0758a3d5c9d26873c6,65c523100ad7bf41ef536598,66a2b4b175e3a045f064d316,1,0,0,True,5,53,,,,,,,WRIST,"{'letter': ['', 'E', 'A', 'I', 'T', 'W', 'R', 'S'], 't': [0, 3196.7999999970198, 4629.5999999940395, 6412.5999999940395, 9912.39999999106, 43593.29999999702, 65541.59999999404, 67491.39999999106], 'hit': [None, 0, 0, 1, 1, 1, 1, 1], 'asked': ['', 'E', 'EA', 'EAI', 'EAIT', 'EAITW', 'EAITWR', 'EAITWRS'], 'word_state': ['_____', '_____', '_____', '__I__', '__I_T', 'W_I_T', 'WRI_T', 'WRIST']}","['E', 'A', 'I', 'T', 'W', 'R', 'S']",7.0,13.0,0.0,,,,,,,,,,
,instructions,34,698451,0.0-12.0-3.4,,423,"[9, 52, 52, 163, 238, 158, 10, 1, 11, 178, 194, 170, 224, 108, 38, 20, 221, 36, 137, 64, 98, 161, 202, 242, 103, 24, 160, 30, 23, 85, 105, 184]",211,66a22c0758a3d5c9d26873c6,65c523100ad7bf41ef536598,66a2b4b175e3a045f064d316,1,0,0,True,5,53,"[{""page_index"":0,""viewing_time"":6181.0999999940395}]",6181.70000000298,,,,,,,,,,,,,,,,,,,,
,Guess_leaderboard,35,704297,0.0-12.0-4.4,,423,"[9, 52, 52, 163, 238, 158, 10, 1, 11, 178, 194, 170, 224, 108, 38, 20, 221, 36, 137, 64, 98, 161, 202, 242, 103, 24, 160, 30, 23, 85, 105, 184]",211,66a22c0758a3d5c9d26873c6,65c523100ad7bf41ef536598,66a2b4b175e3a045f064d316,1,0,0,True,5,53,,,,,,,WRIST,,,,,,,5075.100000008941,96.0,95.0,4.0,72.0,24.0,,,
,survey-text,36,715452,0.0-13.0,,423,"[9, 52, 52, 163, 238, 158, 10, 1, 11, 178, 194, 170, 224, 108, 38, 20, 221, 36, 137, 64, 98, 161, 202, 242, 103, 24, 160, 30, 23, 85, 105, 184]",211,66a22c0758a3d5c9d26873c6,65c523100ad7bf41ef536598,66a2b4b175e3a045f064d316,1,0,0,True,5,53,,11152.0,"{""Q0"":""WRIST""}",,,,,,,,,,,,,,,,,wrist,,
,survey-multi-choice,37,729003,0.0-14.0,,423,"[9, 52, 52, 163, 238, 158, 10, 1, 11, 178, 194, 170, 224, 108, 38, 20, 221, 36, 137, 64, 98, 161, 202, 242, 103, 24, 160, 30, 23, 85, 105, 184]",211,66a22c0758a3d5c9d26873c6,65c523100ad7bf41ef536598,66a2b4b175e3a045f064d316,1,0,0,True,5,53,,13549.09999999404,"{""Q0"":""5. I would be <b>fifth</b> out of the six of us.""}",[0],,self-rating,,,,,,,,,5.0,,,,,,,
,html-slider-response,38,734547,0.0-15.0,,423,"[9, 52, 52, 163, 238, 158, 10, 1, 11, 178, 194, 170, 224, 108, 38, 20, 221, 36, 137, 64, 98, 161, 202, 242, 103, 24, 160, 30, 23, 85, 105, 184]",211,66a22c0758a3d5c9d26873c6,65c523100ad7bf41ef536598,66a2b4b175e3a045f064d316,1,0,0,True,5,53,,5542.20000000298,,,,,,,,,,,53,,,,,,,,"<p>Overall, how confident were you in your answer to this last question?</p>",53.0
,survey-text,39,805596,0.0-16.0,,423,"[9, 52, 52, 163, 238, 158, 10, 1, 11, 178, 194, 170, 224, 108, 38, 20, 221, 36, 137, 64, 98, 161, 202, 242, 103, 24, 160, 30, 23, 85, 105, 184]",211,66a22c0758a3d5c9d26873c6,65c523100ad7bf41ef536598,66a2b4b175e3a045f064d316,1,0,0,True,5,53,,71045.60000000894,"{""Q0"":""How accurate can we be when we are timed to complete a task.""}",,,,,,,,,,,,,,,,,,,
,survey-text,40,823459,0.0-17.0,,423,"[9, 52, 52, 163, 238, 158, 10, 1, 11, 178, 194, 170, 224, 108, 38, 20, 221, 36, 137, 64, 98, 161, 202, 242, 103, 24, 160, 30, 23, 85, 105, 184]",211,66a22c0758a3d5c9d26873c6,65c523100ad7bf41ef536598,66a2b4b175e3a045f064d316,1,0,0,True,5,53,,17854.29999999702,"{""Q0"":""No, Thank you.""}",,,,,,,,,,,,,,,,,,,
,instructions,41,833850,0.0-18.0,,423,"[9, 52, 52, 163, 238, 158, 10, 1, 11, 178, 194, 170, 224, 108, 38, 20, 221, 36, 137, 64, 98, 161, 202, 242, 103, 24, 160, 30, 23, 85, 105, 184]",211,66a22c0758a3d5c9d26873c6,65c523100ad7bf41ef536598,66a2b4b175e3a045f064d316,1,0,0,True,5,53,"[{""page_index"":0,""viewing_time"":10390.70000000298}]",10390.89999999106,,,,,,,,,,,,,,,,,,,,
