[{"success":true,"trial_type":"fullscreen","trial_index":0,"time_elapsed":2632,"internal_node_id":"0.0-0.0","protocol_sum":"","subject_identifier":321,"subject_sum":[165,18,219,39,65,205,32,105,62,75,22,241,152,145,231,43,159,241,44,234,215,39,97,252,94,146,210,170,243,71,64,193],"subject_pair":160,"STUDY_ID":"66a0b3911f23dfc7665bb169","PROLIFIC_PID":"5fa0d1a1e40401160ec4a011","SESSION_ID":"66a147e8e03257fe82aa5d8c","practice_instructions":1,"leaderboard_instructions":0,"bonus":0,"reveal_word":true,"self_rating":"4","confidence":"11"},{"view_history":"[{\"page_index\":0,\"viewing_time\":3854.4000000953674}]","rt":3856.5,"trial_type":"instructions","trial_index":1,"time_elapsed":6492,"internal_node_id":"0.0-1.0","protocol_sum":"","subject_identifier":321,"subject_sum":[165,18,219,39,65,205,32,105,62,75,22,241,152,145,231,43,159,241,44,234,215,39,97,252,94,146,210,170,243,71,64,193],"subject_pair":160,"STUDY_ID":"66a0b3911f23dfc7665bb169","PROLIFIC_PID":"5fa0d1a1e40401160ec4a011","SESSION_ID":"66a147e8e03257fe82aa5d8c","practice_instructions":1,"leaderboard_instructions":0,"bonus":0,"reveal_word":true,"self_rating":"4","confidence":"11"},{"view_history":"[{\"page_index\":0,\"viewing_time\":13323.200000047684}]","rt":13324.099999904633,"trial_type":"instructions","trial_index":2,"time_elapsed":19817,"internal_node_id":"0.0-2.0-0.0","protocol_sum":"","subject_identifier":321,"subject_sum":[165,18,219,39,65,205,32,105,62,75,22,241,152,145,231,43,159,241,44,234,215,39,97,252,94,146,210,170,243,71,64,193],"subject_pair":160,"STUDY_ID":"66a0b3911f23dfc7665bb169","PROLIFIC_PID":"5fa0d1a1e40401160ec4a011","SESSION_ID":"66a147e8e03257fe82aa5d8c","practice_instructions":1,"leaderboard_instructions":0,"bonus":0,"reveal_word":true,"self_rating":"4","confidence":"11"},{"rt":4700.200000047684,"responses":"{\"Q0\":\"... reveal the word with as <b>few letter guesses</b> as possible\"}","question_order":"[0]","trial_type":"survey-multi-choice","trial_index":3,"time_elapsed":24521,"internal_node_id":"0.0-2.0-1.0","protocol_sum":"","subject_identifier":321,"subject_sum":[165,18,219,39,65,205,32,105,62,75,22,241,152,145,231,43,159,241,44,234,215,39,97,252,94,146,210,170,243,71,64,193],"subject_pair":160,"correct":true,"test_part":"multichoice_nonpretend","STUDY_ID":"66a0b3911f23dfc7665bb169","PROLIFIC_PID":"5fa0d1a1e40401160ec4a011","SESSION_ID":"66a147e8e03257fe82aa5d8c","practice_instructions":1,"leaderboard_instructions":0,"bonus":0,"reveal_word":true,"self_rating":"4","confidence":"11"},{"view_history":"[{\"page_index\":0,\"viewing_time\":1153.2999999523163}]","rt":1154.2999999523163,"trial_type":"instructions","trial_index":4,"time_elapsed":25676,"internal_node_id":"0.0-3.0","protocol_sum":"","subject_identifier":321,"subject_sum":[165,18,219,39,65,205,32,105,62,75,22,241,152,145,231,43,159,241,44,234,215,39,97,252,94,146,210,170,243,71,64,193],"subject_pair":160,"STUDY_ID":"66a0b3911f23dfc7665bb169","PROLIFIC_PID":"5fa0d1a1e40401160ec4a011","SESSION_ID":"66a147e8e03257fe82aa5d8c","practice_instructions":1,"leaderboard_instructions":0,"bonus":0,"reveal_word":true,"self_rating":"4","confidence":"11"},{"word":"ZEBRA","click_log":{"letter":["","A","O","Z","E","B","R"],"t":[0,2015,38245.5,47140.200000047684,48931.800000190735,55909.5,57761.90000009537],"hit":[null,1,0,1,1,1,1],"asked":["","A","AO","AOZ","AOZE","AOZEB","AOZEBR"],"word_state":["_____","____A","____A","Z___A","ZE__A","ZEB_A","ZEBRA"]},"hover_log":{"letter":["?","?","?","?","?","K","K","K","K","K","?","?","?","?","?","?","?","?","?","A","A","A","A","A","A","A","A","A","A","A","A","A","A","A","A","A","A","A","A","A","A","A","A","A","A","A","A","A","A","A","A","A","A","A","A","A","A","A","A","A","A","A","A","A","A","A","A","A","A","A","A","A","A","A","A","A","A","A","A","A","A","A","A","A","A","A","A","A","A","A","A","A","A","A","A","A","A","A","A","A","A","A","A","A","A","A","A","A","A","A","A","A","A","A","A","A","A","A","A","A","A","A","A","A","A","A","A","A","A","A","A","A","A","B","?","?","?","?","?","?","?","?","?","?","?","?","?","?","?","?","?","?","?","?","?","?","?","?","?","?","?","?","?","?","?","?","?","?","?","?","?","?","?","?","?","?","?","?","?","?","?","?","?","?","?","?","?","?","?","?","?","?","?","?","?","?","?","?","?","?","?","?","?","?","?","?","?","?","?","?","?","?","?","?","H","H","H","H","H","H","H","H","H","H","H","H","H","H","H","H","H","H","H","H","H","H","H","H","H","H","H","H","H","H","H","H","H","H","H","H","H","H","?","?","?","Q","Q","Q","Q","Q","?","?","?","?","?","?","Z","Z","Z","Z","Z","Z","Z","Z","Z","Z","Z","Z","Z","Z","Z","Z","Z","Z","Z","Z","Z","Z","Z","Z","Z","Z","Z","Z","Z","Z","Z","Z","Z","Z","Z","Z","Z","Z","Z","Z","Z","Z","Z","Z","Z","Z","Z","Z","Z","Z","Z","Z","Z","Z","Z","Z","Z","Z","Z","Z","Z","Z","Z","Z","Z","Z","Z","Z","Z","Z","Z","Z","Z","Z","Z","Z","Z","Z","Z","Z","Z","Z","Z","Z","Z","Z","Z","Z","Z","Z","Z","Z","Z","Z","Z","Z","Z","Z","Z","Z","Z","Z","Z","Z","Z","Z","Z","Z","Z","Z","Z","Z","Z","Z","Z","Z","Z","Z","Z","Z","Z","Z","Z","Z","Z","Z","Z","Z","Z","Z","Z","Z","Z","Z","Z","Z","Z","Z","Z","Z","Z","Z","Z","Z","Z","Z","Z","Z","Z","Z","Z","Z","Z","Z","Z","Z","Z","Z","Z","Z","Z","Z","Z","Z","Z","Z","Z","Z","Z","Z","Z","Z","Z","Z","Z","Z","Z","Z","Z","Z","Z","Z","Z","Z","Z","Z","Z","Z","Z","Z","Z","Z","Z","Z","Z","Z","Z","Z","Z","Z","Z","Z","Z","Z","Z","Z","Z","Z","Z","Z","Z","Z","Z","Z","Z","Z","Z","Z","Z","Z","Z","Z","Z","Z","Z","Z","Z","Z","Z","Z","Z","Z","Z","Z","Z","Z","Z","Z","Z","Z","Z","Z","Z","Z","Z","Z","Z","Z","Z","Z","Z","Z","Z","Z","Z","Z","Z","Z","Z","Z","Z","Z","Z","Z","Z","Z","Z","Z","Z","Z","Z","Z","Z","Z","Z","Z","Z","Z","Z","Z","Z","Z","Z","Z","Z","Z","Z","Z","Z","Z","Z","Z","Z","Z","Z","Z","Z","Z","Z","Z","Z","Z","Z","Z","Z","Z","Z","Z","Z","Z","Z","Z","Z","Z","Z","Z","Z","Z","Z","Z","Z","Z","Z","Z","Z","Z","Z","Z","Z","Z","Z","Z","Z","Z","Z","Z","Z","Z","Z","Z","Z","Z","Z","Z","Z","Z","Z","Z","Z","Z","Z","Z","Z","Z","Z","Z","Z","Z","Z","Z","Z","Z","Z","Z","Z","Z","Z","Z","Z","Z","Z","Z","Z","Z","Z","Z","Z","Z","Z","Z","Z","Z","Z","Z","Z","Z","Z","Z","Z","Z","Z","Z","Z","Z","Z","Z","Z","Z","Z","Z","Z","Z","Z","Z","Z","Z","Z","Z","Z","Z","Z","Z","Z","Z","Z","Z","Z","Z","Z","Z","Z","Z","Z","Z","Z","Z","Z","Z","Z","Z","Z","Z","Z","Z","Z","Z","Z","Z","Z","Z","Z","Z","Z","Z","Z","Z","Z","Z","Z","Z","Z","Z","Z","Z","Z","Z","Z","Z","Z","Z","Z","Z","Z","Z","Z","Z","Z","Z","Z","Z","Z","Z","Z","Z","Z","Z","Z","Z","Z","Z","Z","Z","Z","Z","Z","Z","Z","Z","Z","Z","Z","Z","Z","Z","Z","Z","Z","Z","Z","Z","Z","Z","Z","Z","Z","Z","Z","Z","Z","Z","Z","Z","Z","Z","Z","Z","Z","Z","Z","Z","Z","Z","Z","Z","Z","Z","Z","Z","Z","Z","Z","Z","Z","Z","Z","Z","Z","Z","Z","Z","Z","Z","Z","Z","Z","Z","Z","Z","Z","Z","Z","Z","Z","Z","Z","Z","Z","Z","Z","Z","Z","Z","Z","Z","Z","Z","Z","Z","Z","Z","Z","Z","Z","Z","Z","Z","Z","Z","Z","Z","Z","Z","Z","Z","Z","Z","Z","Z","Z","Z","Z","Z","Z","Z","Z","Z","Z","Z","Z","Z","Z","Z","Z","Z","Z","Z","Z","Z","Z","Z","Z","Z","Z","Z","Z","Z","Z","Z","Z","Z","Z","Z","Z","Z","Z","Z","Z","Z","Z","Z","Z","Z","Z","Z","Z","Z","Z","Z","Z","Z","Z","Z","Z","Z","Z","Z","Z","Z","Z","Z","Z","Z","Z","Z","Z","Z","Z","Z","Z","Z","Z","Z","Z","Z","Z","Z","Z","Z","Z","Z","Z","Z","Z","Z","Z","Z","Z","Z","Z","Z","Z","Z","Z","Z","Z","Z","Z","Z","Z","Z","Z","Z","Z","Z","Z","Z","Z","Z","Z","Z","Z","Z","Z","Z","Z","Z","Z","Z","Z","Z","Z","Z","Z","Z","Z","Z","Z","Z","Z","Z","Z","Z","Z","Z","Z","Z","Z","Z","Z","Z","Z","Z","Z","Z","Z","Z","Z","Z","Z","Z","Z","Z","Z","Z","Z","Z","Z","Z","Z","Z","Z","Z","Z","Z","Z","Z","Z","Z","Z","Z","Z","Z","Z","Z","Z","Z","Z","Z","Z","Z","Z","Z","Z","Z","Z","Z","Z","Z","Z","Z","Z","Z","Z","Z","Z","Z","Z","Z","Z","Z","Z","Z","Z","Z","Z","Z","Z","Z","Z","Z","Z","Z","Z","Z","Z","Z","Z","Z","Z","Z","Z","Z","Z","Z","Z","Z","Z","Z","Z","Z","Z","Z","Z","Z","Z","Z","Z","Z","Z","Z","Z","Z","Z","Z","Z","Z","Z","Z","Z","Z","Z","Z","Z","Z","Z","Z","Z","Z","Z","Z","Z","Z","Z","Z","Z","Z","Z","Z","Z","Z","Z","Z","Z","Z","Z","Z","Z","Z","Z","Z","Z","Z","Z","Z","Z","Z","Z","Z","Z","Z","Z","Z","Z","Z","Z","Z","Z","Z","Z","Z","Z","Z","Z","Z","Z","Z","Z","Z","Z","Z","Z","Z","Z","Z","Z","Z","Z","Z","Z","Z","Z","Z","Z","Z","Z","Z","Z","Z","Z","Z","Z","Z","Z","Z","Z","Z","Z","Z","Z","Z","Z","Z","Z","Z","Z","Z","Z","Z","Z","Z","Z","Z","Z","Z","Z","Z","Z","Z","Z","Z","Z","Z","Z","Z","Z","Z","Z","Z","Z","Z","Z","Z","Z","Z","Z","Z","Z","Z","Z","Z","Z","Z","Z","Z","Z","Z","Z","Z","Z","Z","Z","Z","Z","Z","Z","Z","Z","Z","Z","Z","Z","Z","Z","Z","Z","Z","Z","Z","Z","Z","Z","Z","Z","Z","Z","Z","Z","Z","Z","Z","Z","Z","Z","Z","Z","Z","Z","Z","Z","Z","Z","Z","Z","Z","Z","Z","Z","Z","Z","Z","Z","Z","Z","Z","Z","Z","Z","Z","Z","Z","Z","Z","Z","Z","Z","Z","Z","Z","Z","Z","Z","Z","Z","Z","Z","Z","Z","Z","Z","Z","Z","Z","Z","Z","Z","Z","Z","Z","Z","Z","Z","Z","Z","Z","Z","Z","Z","Z","Z","Z","Z","Z","Z","Z","Z","Z","Z","Z","Z","Z","Z","Z","Z","Z","Z","Z","Z","Z","Z","Z","Z","Z","Z","Z","Z","Z","Z","Z","Z","Z","Z","Z","Z","Z","Z","Z","Z","Z","Z","Z","Z","Z","Z","Z","Z","Z","Z","Z","Z","Z","Z","Z","Z","Z","Z","Z","Z","Z","Z","Z","Z","Z","Z","Z","Z","Z","Z","Z","Z","Z","Z","Z","Z","Z","Z","Z","Z","Z","Z","Z","Z","Z","Z","Z","Z","Z","Z","Z","Z","Z","Z","Z","Z","Z","Z","Z","Z","Z","Z","Z","Z","Z","Z","Z","Z","Z","Z","Z","Z","Z","Z","Z","Z","Z","Z","Z","Z","Z","Z","Z","Z","Z","Z","Z","Z","Z","Z","Z","Z","Z","Z","Z","Z","Z","Z","Z","Z","Z","Z","Z","Z","Z","Z","Z","Z","Z","Z","Z","Z","Z","Z","Z","Z","Z","Z","Z","Z","Z","Z","Z","Z","Z","Z","Z","Z","Z","Z","Z","Z","Z","Z","Z","Z","Z","Z","Z","Z","Z","Z","Z","Z","Z","Z","Z","Z","Z","Z","Z","Z","Z","Z","Z","Z","Z","Z","Z","Z","Z","Z","Z","Z","Z","Z","Z","Z","Z","Z","Z","Z","Z","Z","Z","Z","Z","Z","Z","Z","Z","Z","Z","Z","Z","Z","Z","Z","Z","Z","Z","Z","Z","Z","Z","Z","Z","Z","Z","Z","Z","Z","Z","Z","Z","Z","Z","Z","Z","Z","Z","Z","Z","Z","Z","Z","Z","Z","Z","Z","Z","Z","Z","Z","Z","Z","Z","Z","Z","Z","Z","Z","Z","Z","Z","Z","Z","Z","Z","Z","Z","Z","Z","Z","Z","Z","Z","Z","Z","Z","Z","Z","Z","Z","Z","Z","Z","Z","Z","Z","Z","Z","Z","Z","Z","Z","Z","Z","Z","Z","Z","Z","Z","Z","Z","Z","Z","Z","Z","Z","Z","Z","Z","Z","Z","Z","Z","Z","Z","Z","Z","Z","Z","Z","Z","Z","Z","Z","Z","Z","Z","Z","Z","Z","Z","Z","Z","?","?","R","R","?","?","?","?","?","?","?","?","?","?","?","?","?","?","?","?","?","?","?","?","?","?","?","?","?","?","?","?","?","?","?","?","?","?","?","?","?","?","?","?","?","?","?","?","?","?","?","?","?","?","?","?","?","?","?","?","?","?","?","?","?","?","?","?","?","?","?","?","?","?","?","?","?","?","?","?","?","?","?","?","?","?","?","?","?","?","?","?","?","?","?","?","?","?","?","?","?","?","?","?","?","?","?","?","?","?","?","?","?","?","?","?","?","?","?","?","?","?","?","?","?","?","?","?","?","?","?","?","?","?","?","?","?","?","?","?","?","?","?","?","?","?","?","?","?","?","?","?","?","?","?","?","?","?","?","?","?","?","?","?","?","?","?","?","?","?","?","?","?","?","?","?","?","?","?","?","?","?","?","?","?","?","?","?","?","?","?","?","?","?","?","?","?","?","?","?","?","?","?","?","?","?","?","?","?","?","?","?","?","?","?","?","?","?","?","?","?","?","?","?","?","?","?","?","?","?","?","?","?","?","?","?","?","?","?","?","?","?","?","?","?","?","?","?","?","?","?","?","?","?","?","?","?","?","?","?","?","?","?","?","?","?","?","?","?","?","?","?","?","?","?","?","?","?","?","?","?","?","?","?","?","?","?","?","?","?","?","?","?","?","?","?","?","?","?","?","?","?","?","?","?","?","?","?","?","?","?","?","?","?","?","?","?","?","?","?","?","?","?","?","?","?","?","?","?","?","?","?","?","?","?","?","?","?","?","?","?","?","?","?","?","?","?","?","?","?","?","?","?","?","?","?","?","?","?","?","?","?","?","?","?","?","?","?","?","?","?","?","?","?","?","?","?","?","?","?","?","?","?","?","?","?","?","?","?","?","?","?","?","?","?","?","?","?","?","?","?","?","?","?","?","?","?","?","?","?","?","?","?","G","G","G","G","G","G","G","?","?","?","?","?","?","?","?","P","?","?","X","?","W","?","V","V","V","V","V","V","?","?","?","?","M","M","M","?","?","?","?","E","E","E","E","E","E","E","?","?","F","F","F","F","F","F","F","F","?","?","?","G","G","G","G","G","?","?","?","?","?","?","?","?","?","?","Q","Q","Q","Q","Q","Q","?","P","?","?","?","?","?","?","X","X","X","X","X","?","?","?","W","W","W","W","W","W","W","W","?","V","V","V","V","V","V","V","V","V","?","?","?","M","M","?","?","?","?","?","?","?","?","?","?","?","?","?","?","?","?","?","?","?","O","O","O","O","O","O","O","O","O","O","O","O","O","O","O","O","O","O","O","O","O","O","O","O","O","O","O","O","O","O","O","O","O","O","O","O","O","O","O","O","O","O","O","O","O","O","O","O","O","O","O","O","O","O","O","O","O","O","O","O","?","?","?","?","?","?","?","?","?","?","?","?","?","?","?","?","?","?","?","?","?","?","?","?","?","?","?","?","?","?","?","?","?","?","?","?","?","?","?","?","?","?","?","?","?","?","?","?","?","?","?","?","?","?","?","?","?","?","?","?","?","?","?","?","?","?","?","?","?","?","?","?","?","?","?","?","?","?","?","?","?","?","?","?","?","?","?","?","?","?","?","?","?","?","?","?","?","?","?","?","?","?","?","?","?","?","?","?","?","?","?","?","?","?","?","?","?","?","?","?","?","?","?","?","?","?","?","?","?","?","?","?","?","?","?","?","?","?","?","?","?","?","?","?","?","?","?","?","?","?","?","?","?","?","?","?","?","?","?","?","?","?","?","?","?","?","?","?","?","?","?","?","?","?","?","?","?","?","?","?","?","?","?","?","?","?","?","?","?","?","?","?","?","?","?","?","?","?","?","?","?","?","?","?","?","?","?","?","?","?","?","?","?","?","?","?","?","?","?","?","?","?","?","?","?","?","?","?","?","?","?","?","?","?","?","?","?","?","?","?","?","?","?","?","?","?","?","?","?","?","?","?","?","?","?","?","?","?","?","?","?","?","?","?","?","?","?","?","?","?","?","?","?","?","?","?","?","?","?","?","?","?","?","?","?","?","?","?","?","?","?","?","?","?","?","?","?","?","?","?","?","?","?","?","?","?","?","?","?","?","?","?","?","?","?","?","?","?","?","?","?","?","?","?","?","?","?","?","?","?","?","?","?","?","?","?","?","?","?","?","?","?","?","?","?","?","?","?","?","?","?","?","?","?","?","?","?","?","?","?","?","?","?","?","?","?","?","?","?","?","?","?","?","?","?","?","?","?","?","?","?","?","?","?","?","?","?","?","?","?","?","?","?","?","?","?","?","?","?","?","?","?","?","?","?","?","?","?","?","?","?","?","?","?","?","P","O","?","N","M","M","L","L","K","K","?","J","J","J","J","J","J","J","J","J","J","?","?","?","?","?","?","K","K","K","K","K","K","?","?","?","?","T","T","?","?","U","V","?","Y","Y","Z","Z","Z","Z","?","?","?","?","?","?","?","?","?","?","?","?","Z","Z","Z","Z","Z","Z","Z","Z","Z","Z","Z","Z","Z","Z","Z","Z","Z","Z","Z","Z","Z","Z","Z","Z","Z","Z","Z","Z","Z","Z","Z","Z","Z","Z","Z","Z","Z","Z","Z","Z","Z","Z","Z","?","?","?","?","P","?","?","?","?","?","?","?","?","E","?","D","D","C","C","C","C","C","C","C","C","C","C","C","C","C","C","C","C","C","C","C","C","C","C","C","?","?","D","D","D","D","D","D","D","D","?","?","?","?","E","E","E","E","E","E","E","E","E","E","E","E","E","E","E","E","E","E","E","E","E","E","E","E","E","E","E","E","E","E","E","E","E","E","E","E","E","E","E","E","E","E","E","E","E","E","E","E","E","E","E","E","E","E","E","E","E","E","E","E","E","E","E","E","E","E","E","E","?","?","?","?","?","?","?","?","?","?","?","?","?","?","?","?","?","?","?","?","?","?","?","?","?","?","?","?","?","?","?","?","?","?","?","?","?","?","?","?","?","?","?","?","?","?","?","?","?","?","?","?","?","?","?","?","?","?","?","?","?","?","?","?","?","?","?","?","?","?","?","?","?","?","?","?","?","?","?","?","?","?","?","?","?","?","?","?","?","?","?","?","?","?","?","?","?","?","?","?","?","?","?","?","?","?","?","?","?","?","?","?","?","?","?","?","?","?","?","?","?","?","?","?","?","?","?","?","?","?","?","?","?","?","?","?","?","?","?","?","?","?","?","?","?","?","?","?","?","?","?","?","?","?","?","?","?","?","?","?","?","?","?","?","?","?","?","?","?","?","?","?","?","?","?","?","?","?","?","?","?","?","?","?","?","?","?","?","?","?","?","?","?","?","?","?","?","?","?","?","?","?","?","?","?","?","?","?","?","?","?","?","?","?","?","?","?","?","?","?","?","?","?","?","?","?","?","?","?","?","?","?","?","?","?","?","?","?","?","?","?","?","?","?","?","?","?","?","?","?","?","?","?","?","?","?","?","?","?","?","?","?","?","?","?","?","?","?","?","?","?","?","?","?","?","?","?","?","?","?","?","?","?","?","?","?","?","N","N","N","N","N","N","N","N","N","N","N","N","N","?","?","?","?","?","?","?","?","?","?","?","?","?","?","?","?","?","?","?","?","?","?","?","?","?","M","M","M","M","M","?","?","?","?","?","?","?","?","?","?","?","?","?","?","?","?","C","C","C","C","?","?","?","?","B","B","B","B","B","B","B","B","B","B","B","B","B","B","B","B","B","B","B","B","B","B","B","B","B","B","B","B","B","B","B","B","B","B","B","B","B","B","B","B","B","?","?","?","?","K","K","K","K","?","?","?","?","?","?","?","?","?","?","?","?","?","?","?","?","?","N","N","?","O","O","O","O","O","O","?","?","?","?","?","?","?","?","?","?","?","P","P","P","P","P","P","P","P","P","?","Q","Q","?","R","R","R","R","R","R","R","R","R","R","R","R","R","R","R","R","R","R","R","R","R","R","R","R","R","R","R","R","R","R","R","R","R","R","R","R","R","R","R","R","R","R","R","R","R","R","R","R","R","R","R","R","R","R","R","R","R","R","R","R","R","R","R","R","R","R","R","R","R","R","R","R","R","R","R","R","R","?","?","Z","Z","Z","?","?","?","?","?","?","?","?","?","?","?","?","?","?","?","?","?","?","?","?","?","?","?","?","?","?","?","?","?","?","?","?","?","?","?","?","?","?","?","?","?","?","?","?","?","?","?","?","?","?","?","?","Y","Y","?","Q","?","I","?","?","?","?","?","?","?","?","?","?","?","?","?","?"],"t":[70,183,667,683,700,719,735,751,768,784,802,818,838,850,867,884,903,919,936,952,967,986,1001,1016,1034,1053,1068,1084,1100,1118,1137,1152,1167,1188,1205,1217,1235,1252,1268,1285,1300,1318,1336,1352,1370,1387,1402,1418,1435,1452,1467,1485,1503,1519,1535,1552,1568,1585,1602,1617,1635,1652,1667,1684,1703,1720,1739,1756,1772,1789,1804,1819,1837,1851,1867,1887,1906,1918,1939,1954,1972,1995,2008,2020,2034,2051,2068,2085,2100,2118,2134,2152,2168,2185,2202,2219,2235,2250,2269,2284,2301,2317,2335,2351,2369,2384,2402,2418,2435,2452,2467,2485,2501,2518,2535,2552,2568,2583,2602,2617,2635,2651,2667,2683,2701,2717,2735,2751,2767,2783,2801,2818,2840,2853,2868,2885,2902,2918,2935,2952,2967,2984,3000,3018,3035,3053,3069,3086,3103,3119,3135,3151,3167,3184,3201,3217,3234,3251,3267,3285,3301,3317,3333,3350,3369,3385,3408,3425,3442,3460,3476,3493,3509,3525,3542,3559,3577,3592,3610,3625,3643,3659,3678,3693,3710,3727,3743,3760,3776,3792,3810,3825,3842,3860,3876,3892,3909,3925,3943,3959,3975,3992,4009,4027,4043,4061,4074,4089,4108,4121,4135,4146,4163,4177,4195,4211,4227,4244,4260,4276,4293,4310,4325,4343,4360,4375,4391,4409,4425,4443,4459,4476,4492,4509,4526,4542,4559,4575,4592,4609,4627,4643,4659,4675,4693,4709,4726,4743,4759,4794,4807,4818,4836,4851,4869,4886,4901,4919,4934,4951,4968,4983,5000,5018,5033,5051,5068,5084,5101,5117,5133,5150,5167,5184,5201,5217,5233,5250,5268,5285,5300,5318,5334,5351,5367,5385,5400,5418,5434,5451,5467,5485,5501,5517,5534,5551,5567,5585,5601,5617,5635,5650,5668,5685,5701,5717,5734,5751,5768,5784,5801,5817,5834,5850,5867,5884,5900,5917,5934,5950,5967,5984,6000,6017,6033,6051,6067,6085,6101,6117,6136,6151,6168,6184,6205,6219,6235,6250,6267,6283,6300,6318,6335,6351,6367,6385,6400,6417,6434,6450,6468,6484,6500,6517,6534,6551,6567,6585,6600,6617,6633,6650,6667,6683,6701,6717,6734,6751,6767,6784,6801,6817,6835,6850,6868,6884,6901,6917,6934,6954,6967,6987,7000,7017,7033,7050,7067,7084,7101,7117,7133,7150,7167,7184,7200,7218,7235,7252,7267,7284,7301,7317,7334,7350,7367,7384,7401,7418,7434,7450,7467,7484,7500,7518,7534,7550,7567,7583,7601,7617,7634,7650,7663,7676,7692,7709,7725,7743,7759,7776,7793,7809,7826,7841,7859,7875,7893,7910,7926,7943,7958,7975,7992,8009,8026,8042,8059,8075,8092,8108,8125,8142,8160,8176,8191,8210,8226,8242,8258,8276,8292,8309,8325,8343,8359,8375,8392,8409,8426,8442,8459,8476,8492,8509,8526,8542,8559,8575,8592,8609,8626,8643,8660,8676,8693,8709,8727,8743,8759,8776,8791,8809,8826,8843,8858,8876,8892,8909,8926,8943,8959,8975,8993,9009,9026,9043,9060,9076,9105,9127,9142,9158,9175,9192,9209,9226,9242,9259,9275,9293,9309,9326,9343,9360,9375,9393,9409,9425,9443,9458,9475,9492,9509,9527,9542,9559,9575,9592,9609,9625,9643,9659,9675,9693,9709,9727,9742,9758,9778,9793,9809,9825,9842,9859,9876,9892,9908,9926,9941,9959,9975,9992,10009,10026,10043,10059,10077,10093,10108,10125,10141,10158,10175,10192,10209,10226,10243,10259,10275,10293,10310,10327,10343,10360,10375,10392,10408,10425,10442,10459,10476,10491,10510,10526,10542,10559,10578,10587,10608,10626,10643,10659,10676,10693,10709,10726,10742,10759,10775,10792,10809,10825,10842,10859,10875,10892,10909,10925,10942,10959,10976,10993,11009,11026,11043,11059,11076,11092,11109,11125,11142,11159,11175,11191,11209,11225,11243,11259,11275,11292,11308,11325,11342,11359,11375,11393,11410,11426,11442,11458,11476,11491,11508,11524,11541,11559,11575,11591,11608,11625,11642,11658,11676,11692,11708,11726,11742,11760,11776,11792,11810,11825,11843,11858,11875,11891,11908,11925,11942,11959,11975,11991,12008,12025,12042,12071,12085,12104,12117,12133,12151,12167,12184,12200,12218,12233,12251,12267,12284,12301,12317,12334,12350,12367,12385,12401,12417,12434,12450,12467,12484,12501,12517,12534,12550,12567,12583,12601,12617,12634,12651,12667,12685,12701,12717,12735,12751,12767,12784,12800,12817,12836,12851,12868,12884,12901,12917,12934,12951,12967,12984,13001,13018,13035,13050,13067,13083,13100,13118,13135,13151,13167,13184,13202,13216,13234,13251,13268,13285,13301,13318,13333,13351,13367,13384,13400,13417,13434,13451,13467,13483,13500,13518,13533,13551,13569,13581,13595,13610,13626,13641,13659,13675,13691,13708,13726,13741,13758,13776,13792,13810,13825,13842,13859,13875,13893,13909,13926,13942,13959,13976,13992,14008,14026,14042,14059,14075,14092,14108,14125,14143,14158,14175,14193,14208,14226,14241,14259,14275,14292,14310,14326,14343,14361,14376,14392,14408,14425,14442,14459,14476,14492,14508,14527,14542,14558,14576,14592,14608,14626,14643,14659,14676,14692,14709,14725,14742,14759,14775,14792,14809,14826,14842,14859,14875,14891,14909,14926,14942,14959,14976,14993,15011,15025,15042,15059,15076,15092,15109,15125,15141,15158,15175,15192,15209,15226,15241,15259,15275,15292,15308,15326,15342,15359,15376,15392,15409,15426,15442,15458,15476,15492,15508,15525,15543,15559,15575,15592,15608,15625,15643,15659,15676,15693,15709,15725,15742,15759,15776,15792,15809,15826,15843,15859,15875,15892,15909,15925,15942,15959,15976,15992,16009,16026,16042,16058,16075,16092,16108,16125,16142,16166,16176,16195,16209,16225,16242,16258,16275,16292,16309,16325,16342,16358,16375,16391,16408,16425,16462,16476,16491,16509,16525,16542,16560,16582,16600,16616,16634,16650,16667,16684,16702,16717,16734,16750,16768,16783,16801,16817,16835,16850,16867,16884,16901,16917,16934,16950,16966,16984,17000,17016,17034,17051,17067,17083,17100,17117,17134,17151,17168,17184,17201,17217,17235,17251,17268,17283,17300,17317,17334,17350,17367,17384,17400,17417,17434,17453,17467,17483,17500,17517,17534,17550,17567,17584,17600,17617,17634,17650,17667,17684,17700,17717,17734,17751,17768,17783,17800,17817,17833,17850,17867,17884,17901,17917,17932,17946,17958,17974,17993,18008,18025,18043,18059,18076,18092,18109,18126,18142,18159,18176,18192,18211,18226,18243,18259,18277,18292,18309,18325,18342,18359,18376,18392,18407,18424,18441,18457,18475,18491,18508,18525,18542,18558,18574,18591,18608,18625,18640,18658,18675,18692,18708,18724,18741,18760,18775,18792,18809,18825,18841,18858,18875,18891,18907,18923,18940,18957,18973,18990,19007,19025,19040,19058,19074,19092,19108,19125,19141,19158,19175,19192,19209,19225,19241,19257,19274,19291,19309,19325,19342,19359,19375,19391,19407,19423,19440,19457,19474,19490,19507,19524,19541,19560,19575,19592,19609,19626,19642,19659,19676,19692,19709,19726,19741,19758,19775,19791,19808,19825,19842,19859,19874,19891,19908,19925,19942,19958,19976,19992,20009,20025,20042,20059,20075,20092,20109,20126,20142,20159,20175,20192,20208,20225,20244,20259,20275,20288,20303,20318,20336,20350,20368,20384,20400,20416,20433,20450,20466,20483,20500,20516,20533,20550,20566,20584,20600,20617,20633,20649,20665,20681,20699,20716,20733,20749,20766,20782,20799,20815,20832,20850,20866,20883,20900,20916,20933,20950,20967,20984,21001,21016,21033,21050,21067,21083,21099,21116,21133,21149,21166,21182,21198,21215,21232,21249,21267,21283,21300,21317,21333,21349,21368,21383,21400,21416,21433,21449,21465,21483,21500,21516,21533,21549,21566,21584,21600,21617,21634,21652,21667,21683,21701,21718,21733,21750,21766,21783,21801,21817,21833,21850,21866,21883,21899,21917,21933,21950,21967,21985,22000,22017,22034,22050,22067,22083,22100,22118,22134,22150,22167,22183,22199,22218,22234,22250,22267,22282,22291,22308,22324,22341,22359,22375,22393,22408,22426,22442,22458,22476,22492,22508,22525,22541,22559,22576,22591,22609,22625,22641,22658,22675,22692,22708,22725,22742,22759,22776,22792,22808,22825,22842,22859,22875,22892,22908,22925,22942,22959,22975,22992,23010,23026,23041,23059,23075,23093,23108,23125,23142,23160,23175,23192,23208,23225,23242,23258,23275,23292,23309,23325,23342,23358,23375,23392,23408,23425,23443,23459,23475,23492,23509,23543,23559,23575,23591,23607,23624,23641,23657,23675,23691,23708,23725,23742,23758,23775,23792,23809,23827,23842,23858,23876,23893,23909,23926,23941,23958,23974,23992,24008,24025,24041,24059,24076,24092,24109,24125,24142,24159,24176,24192,24209,24225,24241,24259,24275,24292,24309,24325,24341,24358,24375,24391,24409,24425,24443,24458,24476,24492,24509,24526,24543,24559,24575,24592,24608,24625,24641,24659,24675,24691,24708,24726,24742,24759,24776,24792,24809,24825,24841,24858,24875,24891,24909,24925,24942,24959,24975,24995,25009,25025,25042,25059,25075,25091,25110,25127,25142,25159,25175,25191,25208,25226,25242,25258,25276,25292,25309,25325,25341,25358,25375,25392,25408,25426,25442,25458,25476,25493,25508,25525,25542,25559,25575,25591,25608,25625,25642,25659,25675,25692,25708,25725,25742,25758,25776,25793,25809,25826,25842,25859,25875,25892,25909,25925,25943,25959,25976,25992,26008,26025,26042,26059,26075,26091,26108,26126,26142,26158,26175,26192,26209,26225,26242,26258,26276,26292,26309,26326,26341,26359,26375,26392,26410,26429,26441,26459,26475,26491,26508,26525,26542,26559,26575,26592,26608,26625,26642,26659,26675,26692,26711,26725,26742,26759,26774,26793,26810,26826,26842,26858,26875,26896,26917,26934,26950,26966,26984,27001,27017,27034,27050,27066,27083,27100,27117,27133,27151,27167,27184,27200,27216,27233,27250,27267,27283,27300,27317,27333,27350,27367,27384,27400,27417,27434,27451,27467,27484,27501,27517,27535,27550,27567,27583,27601,27616,27633,27650,27667,27683,27701,27718,27734,27750,27767,27784,27800,27817,27835,27849,27866,27879,27891,27908,27925,27942,27958,27974,27991,28009,28024,28043,28059,28075,28091,28109,28125,28142,28158,28175,28193,28208,28225,28242,28259,28276,28292,28309,28325,28342,28360,28375,28391,28409,28424,28441,28458,28475,28492,28509,28525,28542,28558,28575,28591,28609,28626,28642,28659,28676,28694,28715,28728,28750,28759,28776,28795,28809,28824,28844,28859,28874,28891,28908,28925,28942,28959,28976,28992,29009,29025,29042,29058,29075,29092,29108,29125,29141,29157,29174,29191,29209,29225,29241,29259,29274,29292,29309,29328,29341,29358,29374,29391,29408,29425,29442,29458,29475,29492,29510,29526,29543,29559,29575,29592,29608,29626,29641,29658,29675,29692,29709,29725,29742,29759,29775,29791,29809,29825,29841,29858,29875,29892,29909,29925,29941,29958,29975,29991,30008,30025,30041,30058,30075,30092,30109,30125,30142,30158,30175,30192,30208,30225,30241,30258,30275,30292,30309,30325,30341,30359,30375,30392,30410,30426,30442,30459,30476,30492,30508,30525,30542,30558,30575,30593,30609,30626,30641,30658,30675,30692,30709,30726,30742,30758,30776,30796,30811,30824,30842,30859,30875,30891,30908,30924,30942,30958,30976,30991,31009,31025,31042,31059,31075,31091,31108,31125,31142,31159,31176,31192,31208,31225,31243,31258,31276,31291,31309,31325,31341,31358,31375,31392,31409,31426,31441,31458,31475,31491,31509,31525,31542,31559,31576,31591,31608,31625,31642,31658,31675,31692,31710,31725,31742,31758,31775,31791,31809,31826,31842,31858,31875,31892,31909,31926,31942,31959,31976,31992,32009,32025,32042,32058,32074,32092,32109,32125,32141,32158,32175,32192,32208,32229,32242,32259,32275,32292,32309,32325,32342,32358,32375,32391,32409,32425,32441,32459,32475,32491,32508,32525,32541,32559,32575,32591,32608,32625,32642,32659,32675,32693,32708,32725,32742,32758,32775,32791,32809,32825,32843,32858,32875,32891,32908,32925,32942,32959,32975,32992,33008,33026,33042,33059,33075,33092,33108,33125,33142,33159,33175,33192,33208,33225,33241,33258,33276,33291,33309,33326,33342,33358,33376,33392,33408,33425,33442,33458,33475,33492,33509,33525,33542,33559,33575,33591,33608,33625,33641,33658,33676,33692,33708,33726,33742,33758,33776,33791,33808,33825,33842,33858,33875,33892,33909,33925,33941,33958,33975,33993,34008,34025,34042,34058,34075,34093,34109,34125,34143,34159,34175,34192,34208,34225,34241,34258,34275,34291,34308,34325,34343,34358,34375,34392,34409,34425,34442,34459,34476,34491,34508,34525,34542,34559,34576,34592,34609,34625,34641,34659,34675,34691,34709,34725,34741,34758,34775,34791,34809,34826,34842,34859,34875,34892,34908,34926,34942,34959,34976,34992,35009,35025,35042,35058,35075,35092,35108,35136,35150,35167,35184,35200,35216,35234,35251,35268,35284,35300,35318,35334,35353,35369,35385,35399,35408,35426,35443,35459,35475,35492,35509,35525,35542,35559,35575,35592,35608,35626,35643,35659,35674,35691,35709,35726,35743,35758,35775,35792,35808,35825,35843,35859,35874,35891,35910,35925,35942,35960,35975,35992,36009,36025,36044,36059,36076,36093,36110,36124,36142,36159,36175,36191,36208,36225,36242,36257,36276,36291,36308,36325,36342,36359,36375,36391,36408,36425,36441,36458,36474,36492,36507,36524,36542,36558,36575,36592,36609,36625,36642,36659,36676,36692,36708,36725,36742,36759,36774,36791,36808,36825,36843,36859,36876,36892,36908,36926,36943,36958,36974,36992,37009,37025,37042,37058,37076,37092,37108,37125,37143,37160,37176,37193,37209,37225,37241,37261,37272,37288,37301,37319,37333,37350,37366,37384,37400,37417,37434,37451,37467,37483,37500,37518,37533,37551,37566,37584,37600,37616,37633,37650,37667,37684,37700,37716,37733,37750,37767,37783,37799,37817,37833,37846,37858,37875,37892,37908,37925,37942,37959,37975,37993,38009,38026,38041,38058,38076,38092,38108,38124,38141,38160,38175,38191,38208,38226,38242,38260,38275,38291,38308,38325,38341,38358,38375,38392,38409,38426,38442,38459,38475,38492,38508,38525,38542,38559,38575,38593,38610,38625,38642,38659,38675,38693,38709,38726,38742,38758,38775,38791,38810,38826,38844,38858,38876,38892,38910,38925,38943,38960,38977,38996,39011,39021,39036,39051,39068,39085,39101,39117,39135,39151,39174,39194,39211,39224,39240,39262,39269,39283,39299,39317,39333,39350,39367,39382,39399,39416,39433,39450,39466,39484,39500,39517,39534,39551,39567,39583,39599,39617,39642,39659,39676,39692,39709,39726,39742,39758,39775,39791,39808,39825,39841,39858,39875,39891,39908,39925,39943,39958,39976,39992,40009,40026,40042,40059,40076,40092,40108,40125,40141,40158,40175,40192,40208,40226,40241,40259,40276,40292,40309,40325,40343,40358,40376,40393,40409,40425,40442,40458,40475,40493,40508,40525,40541,40558,40575,40592,40609,40625,40642,40659,40675,40692,40709,40732,40744,40761,40776,40792,40809,40824,40841,40858,40874,40892,40909,40925,40942,40958,40975,40993,41009,41026,41042,41058,41075,41092,41109,41125,41142,41159,41176,41192,41208,41226,41242,41258,41275,41292,41308,41326,41342,41359,41374,41391,41408,41425,41441,41459,41475,41492,41508,41525,41541,41558,41576,41592,41609,41625,41642,41658,41675,41692,41709,41733,41750,41767,41784,41800,41816,41833,41851,41867,41883,41900,41916,41934,41950,41966,41983,42001,42016,42033,42049,42067,42084,42101,42117,42133,42150,42166,42187,42201,42215,42224,42241,42260,42275,42293,42309,42326,42343,42359,42375,42392,42408,42425,42441,42458,42474,42492,42508,42525,42542,42565,42583,42601,42617,42634,42651,42666,42684,42700,42716,42734,42750,42767,42783,42800,42816,42835,42849,42866,42883,42901,42917,42933,42951,42966,42983,43000,43017,43033,43050,43067,43083,43101,43117,43133,43150,43167,43184,43200,43217,43234,43250,43267,43283,43300,43317,43334,43350,43366,43384,43401,43417,43433,43450,43467,43483,43501,43517,43533,43551,43567,43584,43600,43616,43637,43655,43667,43682,43700,43716,43734,43751,43767,43783,43800,43816,43834,43850,43866,43883,43900,43916,43934,43950,43966,43985,44000,44016,44035,44049,44067,44084,44100,44118,44134,44150,44167,44183,44200,44218,44240,44258,44276,44292,44308,44325,44342,44358,44375,44391,44408,44425,44442,44458,44475,44491,44508,44524,44542,44558,44575,44592,44608,44625,44642,44659,44675,44692,44708,44726,44742,44758,44776,44792,44809,44826,44842,44859,44875,44892,44908,44925,44942,44959,44975,44991,45008,45024,45041,45059,45089,45111,45125,45141,45159,45175,45191,45208,45225,45241,45258,45275,45292,45308,45325,45342,45359,45375,45391,45408,45425,45442,45458,45474,45491,45509,45524,45542,45558,45575,45592,45608,45625,45643,45658,45677,45693,45710,45724,45736,45751,45762,45778,45794,45805,45816,45832,45850,45867,45884,45901,45917,45933,45950,45967,45983,46000,46018,46033,46051,46067,46083,46100,46117,46134,46150,46166,46183,46200,46216,46234,46251,46267,46283,46300,46317,46334,46351,46367,46385,46401,46417,46434,46450,46466,46490,46501,46516,46533,46550,46566,46584,46601,46617,46634,46651,46667,46684,46700,46716,46734,46750,46767,46783,46800,46817,46835,46850,46867,46884,46900,46916,46934,46951,46968,46983,47000,47017,47033,47050,47067,47090,47107,47125,47144,47158,47174,47192,47209,47225,47242,47259,47276,47292,47308,47326,47341,47358,47374,47391,47409,47425,47441,47458,47474,47491,47509,47525,47542,47558,47576,47593,47611,47626,47642,47660,47675,47686,47703,47717,47735,47751,47767,47784,47801,47817,47836,47850,47867,47883,47903,47916,47933,47951,47967,47985,48000,48016,48034,48050,48068,48083,48100,48117,48133,48149,48167,48183,48200,48217,48236,48250,48263,48275,48292,48310,48326,48342,48359,48376,48392,48409,48425,48443,48459,48476,48492,48508,48526,48542,48562,48576,48592,48610,48625,48642,48658,48675,48692,48709,48726,48745,48759,48776,48792,48808,48825,48841,48859,48874,48892,48908,48926,48941,48959,48976,48991,49008,49025,49041,49058,49076,49094,49108,49126,49142,49158,49175,49192,49209,49225,49242,49259,49285,49299,49317,49333,49350,49366,49384,49400,49417,49434,49451,49468,49484,49500,49516,49533,49550,49566,49583,49599,49617,49634,49652,49670,49685,49702,49718,49734,49749,49761,49774,49785,49801,49817,49833,49850,49867,49883,49899,49916,49933,49950,49966,49983,50000,50017,50033,50050,50067,50084,50100,50116,50133,50150,50166,50183,50200,50216,50233,50251,50269,50283,50300,50317,50334,50350,50367,50384,50400,50417,50433,50450,50467,50483,50501,50517,50534,50550,50568,50583,50601,50620,50634,50650,50667,50683,50700,50717,50733,50750,50767,50783,50799,50817,50834,50850,50867,50884,50900,50917,50933,50950,50966,50984,51000,51017,51033,51050,51067,51083,51101,51118,51140,51159,51175,51191,51209,51225,51241,51258,51276,51292,51308,51325,51342,51359,51375,51392,51409,51433,51449,51467,51483,51500,51518,51534,51550,51567,51584,51600,51618,51633,51650,51667,51684,51700,51717,51733,51750,51766,51783,51799,51816,51833,51850,51867,51883,51899,51916,51933,51950,51966,51983,52000,52017,52034,52053,52066,52083,52100,52117,52133,52149,52167,52182,52199,52217,52233,52249,52267,52284,52300,52317,52333,52350,52366,52384,52400,52417,52433,52450,52468,52484,52501,52516,52533,52551,52567,52584,52601,52617,52633,52651,52667,52684,52700,52716,52733,52750,52766,52782,52800,52816,52834,52850,52871,52883,52899,52916,52934,52950,52966,52984,53000,53016,53034,53050,53066,53084,53101,53118,53134,53150,53166,53183,53200,53217,53234,53250,53267,53283,53300,53316,53334,53351,53368,53384,53400,53417,53434,53463,53477,53491,53508,53524,53541,53558,53574,53591,53608,53626,53642,53659,53675,53691,53708,53724,53742,53759,53776,53792,53809,53826,53842,53858,53874,53891,53908,53924,53941,53958,53974,53992,54009,54025,54042,54059,54075,54092,54108,54125,54141,54158,54176,54192,54208,54225,54242,54257,54275,54291,54308,54326,54342,54359,54375,54392,54409,54425,54441,54459,54475,54493,54510,54528,54543,54564,54577,54587,54596,54611,54626,54643,54659,54676,54693,54709,54727,54742,54759,54775,54795,54807,54824,54841,54858,54874,54892,54908,54924,54942,54959,54976,54994,55015,55028,55041,55052,55068,55079,55092,55108,55127,55143,55159,55176,55193,55209,55226,55242,55259,55275,55292,55309,55325,55342,55358,55375,55392,55409,55425,55441,55458,55475,55492,55508,55525,55542,55559,55575,55594,55608,55624,55642,55658,55675,55692,55708,55725,55742,55758,55774,55793,55814,55833,55849,55868,55883,55900,55916,55933,55950,55967,55983,55999,56017,56033,56050,56066,56084,56095,56110,56125,56141,56159,56176,56191,56211,56225,56243,56259,56275,56292,56309,56325,56345,56358,56374,56391,56408,56426,56442,56458,56475,56492,56508,56525,56542,56559,56575,56592,56609,56625,56641,56658,56675,56692,56709,56725,56742,56758,56773,56792,56808,56825,56842,56858,56875,56892,56909,56926,56941,56958,56975,56992,57008,57024,57042,57059,57075,57092,57109,57125,57142,57159,57176,57192,57209,57227,57242,57258,57274,57291,57307,57325,57342,57359,57375,57391,57409,57425,57445,57458,57476,57491,57509,57525,57542,57559,57574,57592,57608,57626,57642,57658,57676,57695,57707,57725,57741,57760,57776,57793,57810,57825,57843,57859,57876,57892,57908,57925,57941,57959,57975,57991,58008,58025,58041,58058,58075,58091,58109,58125,58142,58159,58176,58192,58209,58225,58244,58259,58283,58294,58315,58328,58345,58360,58372,58384,58400,58417,58433,58450,58468,58484,58501,58518,58533,58550,58566,58585,58600,58617,58634,58650,58668,58684,58701,58717,58733,58751,58768,58782,58801,58817,58834,58851,58867,58884,58900,58916,58934,58950,58966,58983,59000,59016,59034,59050,59066,59085,59101,59117,59134,59150,59167,59184,59201,59217,59233,59250,59267,59284,59301,59318,59334,59351,59367,59384,59401,59417,59434,59450,59467,59483,59500,59517,59534,59550,59566,59584,59602,59617,59634,59651,59667,59685,59700,59717,59733,59749,59771],"hit":[null],"x":[-1.8775510204081634,-1.8775510204081634,0.05782312925170068,0.07142857142857142,0.08163265306122448,0.09183673469387756,0.10204081632653061,0.11224489795918367,0.11224489795918367,0.11904761904761904,0.11904761904761904,0.11904761904761904,0.11224489795918367,0.1054421768707483,0.09523809523809523,0.08503401360544217,0.0782312925170068,0.06462585034013606,0.061224489795918366,0.05102040816326531,0.047619047619047616,0.04421768707482993,0.04081632653061224,0.03741496598639456,0.030612244897959183,0.027210884353741496,0.023809523809523808,0.017006802721088437,0.013605442176870748,0.006802721088435374,0.003401360544217687,0,-0.003401360544217687,-0.006802721088435374,-0.006802721088435374,-0.01020408163265306,-0.013605442176870748,-0.013605442176870748,-0.017006802721088437,-0.017006802721088437,-0.017006802721088437,-0.017006802721088437,-0.017006802721088437,-0.017006802721088437,-0.017006802721088437,-0.017006802721088437,-0.017006802721088437,-0.017006802721088437,-0.017006802721088437,-0.017006802721088437,-0.017006802721088437,-0.017006802721088437,-0.017006802721088437,-0.017006802721088437,-0.017006802721088437,-0.017006802721088437,-0.017006802721088437,-0.017006802721088437,-0.017006802721088437,-0.017006802721088437,-0.017006802721088437,-0.017006802721088437,-0.017006802721088437,-0.017006802721088437,-0.017006802721088437,-0.017006802721088437,-0.017006802721088437,-0.017006802721088437,-0.017006802721088437,-0.02040816326530612,-0.02040816326530612,-0.02040816326530612,-0.02040816326530612,-0.02040816326530612,-0.02040816326530612,-0.02040816326530612,-0.02040816326530612,-0.02040816326530612,-0.02040816326530612,-0.02040816326530612,-0.02040816326530612,-0.02040816326530612,-0.02040816326530612,-0.02040816326530612,-0.02040816326530612,-0.02040816326530612,-0.02040816326530612,-0.02040816326530612,-0.02040816326530612,-0.02040816326530612,-0.02040816326530612,-0.02040816326530612,-0.02040816326530612,-0.02040816326530612,-0.02040816326530612,-0.02040816326530612,-0.02040816326530612,-0.02040816326530612,-0.02040816326530612,-0.02040816326530612,-0.02040816326530612,-0.02040816326530612,-0.02040816326530612,-0.02040816326530612,-0.02040816326530612,-0.02040816326530612,-0.02040816326530612,-0.02040816326530612,-0.02040816326530612,-0.02040816326530612,-0.02040816326530612,-0.02040816326530612,-0.02040816326530612,-0.02040816326530612,-0.02040816326530612,-0.02040816326530612,-0.02040816326530612,-0.02040816326530612,-0.02040816326530612,-0.02040816326530612,-0.02040816326530612,-0.02040816326530612,-0.02040816326530612,-0.02040816326530612,-0.02040816326530612,-0.02040816326530612,-0.02040816326530612,-0.02040816326530612,-0.02040816326530612,-0.02040816326530612,-0.02040816326530612,-0.013605442176870748,0.05782312925170068,0.11904761904761904,0.19047619047619047,0.22789115646258504,0.2585034013605442,0.30612244897959184,0.3469387755102041,0.4013605442176871,0.42517006802721086,0.4557823129251701,0.48299319727891155,0.5204081632653061,0.5408163265306123,0.5544217687074829,0.5714285714285714,0.5782312925170068,0.5850340136054422,0.5918367346938775,0.5986394557823129,0.6020408163265306,0.6020408163265306,0.6020408163265306,0.6020408163265306,0.6020408163265306,0.6020408163265306,0.6020408163265306,0.6020408163265306,0.6020408163265306,0.6020408163265306,0.6020408163265306,0.6020408163265306,0.6020408163265306,0.6020408163265306,0.6020408163265306,0.6020408163265306,0.6020408163265306,0.6020408163265306,0.6020408163265306,0.6020408163265306,0.6020408163265306,0.6020408163265306,0.6020408163265306,0.6020408163265306,0.6020408163265306,0.6020408163265306,0.6020408163265306,0.6020408163265306,0.6020408163265306,0.6020408163265306,0.6020408163265306,0.6020408163265306,0.6020408163265306,0.6020408163265306,0.6020408163265306,0.6020408163265306,0.6020408163265306,0.6020408163265306,0.6020408163265306,0.6020408163265306,0.6020408163265306,0.6020408163265306,0.6020408163265306,0.6020408163265306,0.6020408163265306,0.6020408163265306,0.6020408163265306,0.6020408163265306,0.6020408163265306,0.6020408163265306,0.6020408163265306,0.6020408163265306,0.6020408163265306,0.6020408163265306,0.6122448979591837,0.6632653061224489,0.7278911564625851,0.782312925170068,0.8401360544217688,0.8707482993197279,0.8877551020408163,0.9319727891156463,0.9625850340136054,0.9897959183673469,1.0204081632653061,1.030612244897959,1.0374149659863945,1.0374149659863945,1.0408163265306123,1.0408163265306123,1.0408163265306123,1.0408163265306123,1.0408163265306123,1.0408163265306123,1.0408163265306123,1.0408163265306123,1.0408163265306123,1.0408163265306123,1.0408163265306123,1.0408163265306123,1.0408163265306123,1.0408163265306123,1.0408163265306123,1.0408163265306123,1.0408163265306123,1.0408163265306123,1.0408163265306123,1.0408163265306123,1.0408163265306123,1.0408163265306123,1.0408163265306123,1.0408163265306123,1.0408163265306123,1.0408163265306123,1.0408163265306123,1.0408163265306123,1.0408163265306123,1.0408163265306123,1.0408163265306123,1.0408163265306123,1.030612244897959,1.0204081632653061,1.0136054421768708,1.0034013605442176,0.9931972789115646,0.9829931972789115,0.9795918367346939,0.9727891156462585,0.9727891156462585,0.9727891156462585,0.9727891156462585,0.9727891156462585,0.9727891156462585,0.9693877551020408,0.9693877551020408,0.9693877551020408,0.9693877551020408,0.9693877551020408,0.9659863945578231,0.9659863945578231,0.9659863945578231,0.9659863945578231,0.9659863945578231,0.9659863945578231,0.9659863945578231,0.9659863945578231,0.9659863945578231,0.9659863945578231,0.9659863945578231,0.9659863945578231,0.9659863945578231,0.9659863945578231,0.9659863945578231,0.9659863945578231,0.9659863945578231,0.9659863945578231,0.9659863945578231,0.9659863945578231,0.9659863945578231,0.9659863945578231,0.9659863945578231,0.9659863945578231,0.9659863945578231,0.9659863945578231,0.9659863945578231,0.9659863945578231,0.9659863945578231,0.9659863945578231,0.9659863945578231,0.9659863945578231,0.9659863945578231,0.9659863945578231,0.9659863945578231,0.9659863945578231,0.9659863945578231,0.9659863945578231,0.9659863945578231,0.9659863945578231,0.9659863945578231,0.9659863945578231,0.9659863945578231,0.9659863945578231,0.9659863945578231,0.9659863945578231,0.9659863945578231,0.9659863945578231,0.9659863945578231,0.9659863945578231,0.9659863945578231,0.9659863945578231,0.9659863945578231,0.9659863945578231,0.9659863945578231,0.9659863945578231,0.9659863945578231,0.9659863945578231,0.9659863945578231,0.9659863945578231,0.9659863945578231,0.9659863945578231,0.9659863945578231,0.9659863945578231,0.9659863945578231,0.9659863945578231,0.9659863945578231,0.9659863945578231,0.9659863945578231,0.9659863945578231,0.9659863945578231,0.9659863945578231,0.9659863945578231,0.9659863945578231,0.9659863945578231,0.9659863945578231,0.9659863945578231,0.9659863945578231,0.9659863945578231,0.9659863945578231,0.9659863945578231,0.9659863945578231,0.9659863945578231,0.9659863945578231,0.9659863945578231,0.9659863945578231,0.9659863945578231,0.9659863945578231,0.9659863945578231,0.9659863945578231,0.9659863945578231,0.9659863945578231,0.9659863945578231,0.9659863945578231,0.9659863945578231,0.9659863945578231,0.9659863945578231,0.9659863945578231,0.9659863945578231,0.9659863945578231,0.9659863945578231,0.9659863945578231,0.9659863945578231,0.9659863945578231,0.9659863945578231,0.9659863945578231,0.9659863945578231,0.9659863945578231,0.9659863945578231,0.9659863945578231,0.9659863945578231,0.9659863945578231,0.9659863945578231,0.9659863945578231,0.9659863945578231,0.9659863945578231,0.9659863945578231,0.9659863945578231,0.9659863945578231,0.9659863945578231,0.9659863945578231,0.9659863945578231,0.9659863945578231,0.9659863945578231,0.9659863945578231,0.9659863945578231,0.9659863945578231,0.9659863945578231,0.9659863945578231,0.9659863945578231,0.9659863945578231,0.9659863945578231,0.9659863945578231,0.9659863945578231,0.9659863945578231,0.9659863945578231,0.9659863945578231,0.9659863945578231,0.9659863945578231,0.9659863945578231,0.9659863945578231,0.9659863945578231,0.9659863945578231,0.9659863945578231,0.9659863945578231,0.9659863945578231,0.9659863945578231,0.9659863945578231,0.9659863945578231,0.9659863945578231,0.9659863945578231,0.9659863945578231,0.9659863945578231,0.9659863945578231,0.9659863945578231,0.9659863945578231,0.9659863945578231,0.9659863945578231,0.9659863945578231,0.9659863945578231,0.9659863945578231,0.9659863945578231,0.9659863945578231,0.9659863945578231,0.9659863945578231,0.9659863945578231,0.9659863945578231,0.9659863945578231,0.9659863945578231,0.9659863945578231,0.9659863945578231,0.9659863945578231,0.9659863945578231,0.9659863945578231,0.9659863945578231,0.9659863945578231,0.9659863945578231,0.9659863945578231,0.9659863945578231,0.9659863945578231,0.9659863945578231,0.9659863945578231,0.9659863945578231,0.9659863945578231,0.9659863945578231,0.9659863945578231,0.9659863945578231,0.9659863945578231,0.9659863945578231,0.9659863945578231,0.9659863945578231,0.9659863945578231,0.9659863945578231,0.9659863945578231,0.9659863945578231,0.9659863945578231,0.9659863945578231,0.9659863945578231,0.9659863945578231,0.9659863945578231,0.9659863945578231,0.9659863945578231,0.9659863945578231,0.9659863945578231,0.9659863945578231,0.9659863945578231,0.9659863945578231,0.9659863945578231,0.9659863945578231,0.9659863945578231,0.9659863945578231,0.9659863945578231,0.9659863945578231,0.9659863945578231,0.9659863945578231,0.9659863945578231,0.9659863945578231,0.9659863945578231,0.9659863945578231,0.9659863945578231,0.9659863945578231,0.9659863945578231,0.9659863945578231,0.9659863945578231,0.9659863945578231,0.9659863945578231,0.9659863945578231,0.9659863945578231,0.9659863945578231,0.9659863945578231,0.9659863945578231,0.9659863945578231,0.9659863945578231,0.9659863945578231,0.9659863945578231,0.9659863945578231,0.9659863945578231,0.9659863945578231,0.9659863945578231,0.9659863945578231,0.9659863945578231,0.9659863945578231,0.9659863945578231,0.9659863945578231,0.9659863945578231,0.9659863945578231,0.9659863945578231,0.9659863945578231,0.9659863945578231,0.9659863945578231,0.9659863945578231,0.9659863945578231,0.9659863945578231,0.9659863945578231,0.9659863945578231,0.9659863945578231,0.9659863945578231,0.9659863945578231,0.9659863945578231,0.9659863945578231,0.9659863945578231,0.9659863945578231,0.9659863945578231,0.9659863945578231,0.9659863945578231,0.9659863945578231,0.9659863945578231,0.9659863945578231,0.9659863945578231,0.9659863945578231,0.9659863945578231,0.9659863945578231,0.9659863945578231,0.9659863945578231,0.9659863945578231,0.9659863945578231,0.9659863945578231,0.9659863945578231,0.9659863945578231,0.9659863945578231,0.9659863945578231,0.9659863945578231,0.9659863945578231,0.9659863945578231,0.9659863945578231,0.9659863945578231,0.9659863945578231,0.9659863945578231,0.9659863945578231,0.9659863945578231,0.9659863945578231,0.9659863945578231,0.9659863945578231,0.9659863945578231,0.9659863945578231,0.9659863945578231,0.9659863945578231,0.9659863945578231,0.9659863945578231,0.9659863945578231,0.9659863945578231,0.9659863945578231,0.9659863945578231,0.9659863945578231,0.9659863945578231,0.9659863945578231,0.9659863945578231,0.9659863945578231,0.9659863945578231,0.9659863945578231,0.9659863945578231,0.9659863945578231,0.9659863945578231,0.9659863945578231,0.9659863945578231,0.9659863945578231,0.9659863945578231,0.9659863945578231,0.9659863945578231,0.9659863945578231,0.9659863945578231,0.9659863945578231,0.9659863945578231,0.9659863945578231,0.9659863945578231,0.9659863945578231,0.9659863945578231,0.9659863945578231,0.9659863945578231,0.9659863945578231,0.9659863945578231,0.9659863945578231,0.9659863945578231,0.9659863945578231,0.9659863945578231,0.9659863945578231,0.9659863945578231,0.9659863945578231,0.9659863945578231,0.9659863945578231,0.9659863945578231,0.9659863945578231,0.9659863945578231,0.9659863945578231,0.9659863945578231,0.9659863945578231,0.9659863945578231,0.9659863945578231,0.9659863945578231,0.9659863945578231,0.9659863945578231,0.9659863945578231,0.9659863945578231,0.9659863945578231,0.9659863945578231,0.9659863945578231,0.9659863945578231,0.9659863945578231,0.9659863945578231,0.9659863945578231,0.9659863945578231,0.9659863945578231,0.9659863945578231,0.9659863945578231,0.9659863945578231,0.9659863945578231,0.9659863945578231,0.9659863945578231,0.9659863945578231,0.9659863945578231,0.9659863945578231,0.9659863945578231,0.9659863945578231,0.9659863945578231,0.9659863945578231,0.9659863945578231,0.9659863945578231,0.9659863945578231,0.9659863945578231,0.9659863945578231,0.9659863945578231,0.9659863945578231,0.9659863945578231,0.9659863945578231,0.9659863945578231,0.9659863945578231,0.9659863945578231,0.9659863945578231,0.9659863945578231,0.9659863945578231,0.9659863945578231,0.9659863945578231,0.9659863945578231,0.9659863945578231,0.9659863945578231,0.9659863945578231,0.9659863945578231,0.9659863945578231,0.9659863945578231,0.9659863945578231,0.9659863945578231,0.9659863945578231,0.9659863945578231,0.9659863945578231,0.9659863945578231,0.9659863945578231,0.9659863945578231,0.9659863945578231,0.9659863945578231,0.9659863945578231,0.9659863945578231,0.9659863945578231,0.9659863945578231,0.9659863945578231,0.9659863945578231,0.9659863945578231,0.9659863945578231,0.9659863945578231,0.9659863945578231,0.9659863945578231,0.9659863945578231,0.9659863945578231,0.9659863945578231,0.9659863945578231,0.9659863945578231,0.9659863945578231,0.9659863945578231,0.9659863945578231,0.9659863945578231,0.9659863945578231,0.9659863945578231,0.9659863945578231,0.9659863945578231,0.9659863945578231,0.9659863945578231,0.9659863945578231,0.9659863945578231,0.9659863945578231,0.9659863945578231,0.9659863945578231,0.9659863945578231,0.9659863945578231,0.9659863945578231,0.9659863945578231,0.9659863945578231,0.9659863945578231,0.9659863945578231,0.9659863945578231,0.9659863945578231,0.9659863945578231,0.9659863945578231,0.9659863945578231,0.9659863945578231,0.9659863945578231,0.9659863945578231,0.9659863945578231,0.9659863945578231,0.9659863945578231,0.9659863945578231,0.9659863945578231,0.9659863945578231,0.9659863945578231,0.9659863945578231,0.9659863945578231,0.9659863945578231,0.9659863945578231,0.9659863945578231,0.9659863945578231,0.9659863945578231,0.9659863945578231,0.9659863945578231,0.9659863945578231,0.9659863945578231,0.9659863945578231,0.9659863945578231,0.9659863945578231,0.9659863945578231,0.9659863945578231,0.9659863945578231,0.9659863945578231,0.9659863945578231,0.9659863945578231,0.9659863945578231,0.9659863945578231,0.9659863945578231,0.9659863945578231,0.9659863945578231,0.9659863945578231,0.9659863945578231,0.9659863945578231,0.9659863945578231,0.9659863945578231,0.9659863945578231,0.9659863945578231,0.9659863945578231,0.9659863945578231,0.9659863945578231,0.9659863945578231,0.9659863945578231,0.9659863945578231,0.9659863945578231,0.9659863945578231,0.9659863945578231,0.9659863945578231,0.9659863945578231,0.9659863945578231,0.9659863945578231,0.9659863945578231,0.9659863945578231,0.9659863945578231,0.9659863945578231,0.9659863945578231,0.9659863945578231,0.9659863945578231,0.9659863945578231,0.9659863945578231,0.9659863945578231,0.9659863945578231,0.9659863945578231,0.9659863945578231,0.9659863945578231,0.9659863945578231,0.9659863945578231,0.9659863945578231,0.9659863945578231,0.9659863945578231,0.9659863945578231,0.9659863945578231,0.9659863945578231,0.9659863945578231,0.9659863945578231,0.9659863945578231,0.9659863945578231,0.9659863945578231,0.9659863945578231,0.9659863945578231,0.9659863945578231,0.9659863945578231,0.9659863945578231,0.9659863945578231,0.9659863945578231,0.9659863945578231,0.9659863945578231,0.9659863945578231,0.9659863945578231,0.9659863945578231,0.9659863945578231,0.9659863945578231,0.9659863945578231,0.9659863945578231,0.9659863945578231,0.9659863945578231,0.9659863945578231,0.9659863945578231,0.9659863945578231,0.9659863945578231,0.9659863945578231,0.9659863945578231,0.9659863945578231,0.9659863945578231,0.9659863945578231,0.9659863945578231,0.9659863945578231,0.9659863945578231,0.9659863945578231,0.9659863945578231,0.9659863945578231,0.9659863945578231,0.9659863945578231,0.9659863945578231,0.9659863945578231,0.9659863945578231,0.9659863945578231,0.9659863945578231,0.9659863945578231,0.9659863945578231,0.9659863945578231,0.9659863945578231,0.9659863945578231,0.9659863945578231,0.9659863945578231,0.9659863945578231,0.9659863945578231,0.9659863945578231,0.9659863945578231,0.9659863945578231,0.9659863945578231,0.9659863945578231,0.9659863945578231,0.9659863945578231,0.9659863945578231,0.9659863945578231,0.9659863945578231,0.9659863945578231,0.9659863945578231,0.9659863945578231,0.9659863945578231,0.9659863945578231,0.9659863945578231,0.9659863945578231,0.9659863945578231,0.9659863945578231,0.9659863945578231,0.9659863945578231,0.9659863945578231,0.9659863945578231,0.9659863945578231,0.9659863945578231,0.9659863945578231,0.9659863945578231,0.9659863945578231,0.9659863945578231,0.9659863945578231,0.9659863945578231,0.9659863945578231,0.9659863945578231,0.9659863945578231,0.9659863945578231,0.9659863945578231,0.9659863945578231,0.9659863945578231,0.9659863945578231,0.9659863945578231,0.9659863945578231,0.9659863945578231,0.9659863945578231,0.9659863945578231,0.9659863945578231,0.9659863945578231,0.9659863945578231,0.9659863945578231,0.9659863945578231,0.9659863945578231,0.9659863945578231,0.9659863945578231,0.9659863945578231,0.9659863945578231,0.9659863945578231,0.9659863945578231,0.9659863945578231,0.9659863945578231,0.9659863945578231,0.9659863945578231,0.9659863945578231,0.9659863945578231,0.9659863945578231,0.9659863945578231,0.9659863945578231,0.9659863945578231,0.9659863945578231,0.9659863945578231,0.9659863945578231,0.9659863945578231,0.9659863945578231,0.9659863945578231,0.9659863945578231,0.9659863945578231,0.9659863945578231,0.9659863945578231,0.9659863945578231,0.9659863945578231,0.9659863945578231,0.9659863945578231,0.9659863945578231,0.9659863945578231,0.9659863945578231,0.9659863945578231,0.9659863945578231,0.9659863945578231,0.9659863945578231,0.9659863945578231,0.9659863945578231,0.9659863945578231,0.9659863945578231,0.9659863945578231,0.9659863945578231,0.9659863945578231,0.9659863945578231,0.9659863945578231,0.9659863945578231,0.9659863945578231,0.9659863945578231,0.9659863945578231,0.9659863945578231,0.9659863945578231,0.9659863945578231,0.9659863945578231,0.9659863945578231,0.9659863945578231,0.9659863945578231,0.9659863945578231,0.9659863945578231,0.9659863945578231,0.9659863945578231,0.9659863945578231,0.9659863945578231,0.9659863945578231,0.9659863945578231,0.9659863945578231,0.9659863945578231,0.9659863945578231,0.9659863945578231,0.9659863945578231,0.9659863945578231,0.9659863945578231,0.9659863945578231,0.9659863945578231,0.9659863945578231,0.9659863945578231,0.9659863945578231,0.9659863945578231,0.9659863945578231,0.9659863945578231,0.9659863945578231,0.9659863945578231,0.9659863945578231,0.9659863945578231,0.9659863945578231,0.9659863945578231,0.9659863945578231,0.9659863945578231,0.9659863945578231,0.9659863945578231,0.9659863945578231,0.9659863945578231,0.9659863945578231,0.9659863945578231,0.9659863945578231,0.9659863945578231,0.9659863945578231,0.9659863945578231,0.9659863945578231,0.9659863945578231,0.9659863945578231,0.9659863945578231,0.9659863945578231,0.9659863945578231,0.9659863945578231,0.9659863945578231,0.9659863945578231,0.9659863945578231,0.9659863945578231,0.9659863945578231,0.9659863945578231,0.9659863945578231,0.9659863945578231,0.9659863945578231,0.9659863945578231,0.9659863945578231,0.9659863945578231,0.9659863945578231,0.9659863945578231,0.9659863945578231,0.9659863945578231,0.9659863945578231,0.9659863945578231,0.9659863945578231,0.9659863945578231,0.9659863945578231,0.9659863945578231,0.9659863945578231,0.9659863945578231,0.9659863945578231,0.9659863945578231,0.9659863945578231,0.9659863945578231,0.9659863945578231,0.9659863945578231,0.9659863945578231,0.9659863945578231,0.9659863945578231,0.9659863945578231,0.9659863945578231,0.9659863945578231,0.9659863945578231,0.9659863945578231,0.9659863945578231,0.9659863945578231,0.9659863945578231,0.9659863945578231,0.9659863945578231,0.9659863945578231,0.9659863945578231,0.9659863945578231,0.9659863945578231,0.9659863945578231,0.9659863945578231,0.9659863945578231,0.9659863945578231,0.9659863945578231,0.9659863945578231,0.9659863945578231,0.9659863945578231,0.9659863945578231,0.9659863945578231,0.9659863945578231,0.9659863945578231,0.9659863945578231,0.9659863945578231,0.9659863945578231,0.9659863945578231,0.9659863945578231,0.9659863945578231,0.9659863945578231,0.9659863945578231,0.9659863945578231,0.9659863945578231,0.9659863945578231,0.9659863945578231,0.9659863945578231,0.9659863945578231,0.9659863945578231,0.9659863945578231,0.9659863945578231,0.9659863945578231,0.9659863945578231,0.9659863945578231,0.9659863945578231,0.9659863945578231,0.9659863945578231,0.9659863945578231,0.9659863945578231,0.9659863945578231,0.9659863945578231,0.9659863945578231,0.9659863945578231,0.9659863945578231,0.9659863945578231,0.9659863945578231,0.9659863945578231,0.9659863945578231,0.9659863945578231,0.9659863945578231,0.9659863945578231,0.9659863945578231,0.9659863945578231,0.9659863945578231,0.9659863945578231,0.9659863945578231,0.9659863945578231,0.9659863945578231,0.9659863945578231,0.9659863945578231,0.9659863945578231,0.9659863945578231,0.9659863945578231,0.9659863945578231,0.9659863945578231,0.9659863945578231,0.9659863945578231,0.9659863945578231,0.9659863945578231,0.9659863945578231,0.9659863945578231,0.9659863945578231,0.9659863945578231,0.9659863945578231,0.9659863945578231,0.9659863945578231,0.9659863945578231,0.9659863945578231,0.9659863945578231,0.9659863945578231,0.9659863945578231,0.9659863945578231,0.9659863945578231,0.9659863945578231,0.9659863945578231,0.9659863945578231,0.9659863945578231,0.9659863945578231,0.9659863945578231,0.9659863945578231,0.9659863945578231,0.9659863945578231,0.9659863945578231,0.9659863945578231,0.9659863945578231,0.9659863945578231,0.9659863945578231,0.9659863945578231,0.9659863945578231,0.9659863945578231,0.9659863945578231,0.9659863945578231,0.9659863945578231,0.9659863945578231,0.9659863945578231,0.9659863945578231,0.9659863945578231,0.9659863945578231,0.9659863945578231,0.9659863945578231,0.9659863945578231,0.9659863945578231,0.9659863945578231,0.9659863945578231,0.9659863945578231,0.9659863945578231,0.9659863945578231,0.9659863945578231,0.9659863945578231,0.9659863945578231,0.9659863945578231,0.9659863945578231,0.9659863945578231,0.9659863945578231,0.9659863945578231,0.9659863945578231,0.9659863945578231,0.9659863945578231,0.9659863945578231,0.9659863945578231,0.9659863945578231,0.9659863945578231,0.9659863945578231,0.9659863945578231,0.9659863945578231,0.9659863945578231,0.9659863945578231,0.9659863945578231,0.9659863945578231,0.9659863945578231,0.9659863945578231,0.9659863945578231,0.9659863945578231,0.9659863945578231,0.9659863945578231,0.9659863945578231,0.9659863945578231,0.9659863945578231,0.9659863945578231,0.9659863945578231,0.9659863945578231,0.9659863945578231,0.9659863945578231,0.9659863945578231,0.9659863945578231,0.9659863945578231,0.9659863945578231,0.9659863945578231,0.9659863945578231,0.9659863945578231,0.9659863945578231,0.9659863945578231,0.9659863945578231,0.9659863945578231,0.9659863945578231,0.9659863945578231,0.9659863945578231,0.9659863945578231,0.9659863945578231,0.9659863945578231,0.9659863945578231,0.9659863945578231,0.9659863945578231,0.9659863945578231,0.9659863945578231,0.9659863945578231,0.9659863945578231,0.9659863945578231,0.9659863945578231,0.9659863945578231,0.9659863945578231,0.9659863945578231,0.9659863945578231,0.9659863945578231,0.9659863945578231,0.9659863945578231,0.9659863945578231,0.9659863945578231,0.9659863945578231,0.9659863945578231,0.9659863945578231,0.9659863945578231,0.9659863945578231,0.9659863945578231,0.9659863945578231,0.9659863945578231,0.9659863945578231,0.9659863945578231,0.9659863945578231,0.9659863945578231,0.9659863945578231,0.9659863945578231,0.9659863945578231,0.9659863945578231,0.9659863945578231,0.9659863945578231,0.9659863945578231,0.9659863945578231,0.9659863945578231,0.9659863945578231,0.9659863945578231,0.9659863945578231,0.9659863945578231,0.9659863945578231,0.9659863945578231,0.9659863945578231,0.9659863945578231,0.9659863945578231,0.9659863945578231,0.9659863945578231,0.9659863945578231,0.9659863945578231,0.9659863945578231,0.9659863945578231,0.9659863945578231,0.9659863945578231,0.9659863945578231,0.9659863945578231,0.9659863945578231,0.9659863945578231,0.9659863945578231,0.9659863945578231,0.9659863945578231,0.9659863945578231,0.9659863945578231,0.9659863945578231,0.9659863945578231,0.9659863945578231,0.9659863945578231,0.9659863945578231,0.9659863945578231,0.9659863945578231,0.9659863945578231,0.9659863945578231,0.9659863945578231,0.9659863945578231,0.9659863945578231,0.9659863945578231,0.9659863945578231,0.9659863945578231,0.9659863945578231,0.9659863945578231,0.9659863945578231,0.9659863945578231,0.9659863945578231,0.9659863945578231,0.9659863945578231,0.9659863945578231,0.9659863945578231,0.9659863945578231,0.9659863945578231,0.9659863945578231,0.9659863945578231,0.9659863945578231,0.9659863945578231,0.9659863945578231,0.9659863945578231,0.9659863945578231,0.9659863945578231,0.9659863945578231,0.9659863945578231,0.9659863945578231,0.9659863945578231,0.9659863945578231,0.9659863945578231,0.9659863945578231,0.9659863945578231,0.9659863945578231,0.9659863945578231,0.9659863945578231,0.9659863945578231,0.9659863945578231,0.9659863945578231,0.9659863945578231,0.9659863945578231,0.9659863945578231,0.9659863945578231,0.9659863945578231,0.9659863945578231,0.9659863945578231,0.9659863945578231,0.9659863945578231,0.9659863945578231,0.9659863945578231,0.9659863945578231,0.9659863945578231,0.9659863945578231,0.9659863945578231,0.9659863945578231,0.9659863945578231,0.9659863945578231,0.9659863945578231,0.9659863945578231,0.9659863945578231,0.9659863945578231,0.9659863945578231,0.9659863945578231,0.9659863945578231,0.9659863945578231,0.9659863945578231,0.9659863945578231,0.9659863945578231,0.9659863945578231,0.9659863945578231,0.9659863945578231,0.9659863945578231,0.9659863945578231,0.9659863945578231,0.9659863945578231,0.9659863945578231,0.9659863945578231,0.9659863945578231,0.9659863945578231,0.9659863945578231,0.9659863945578231,0.9659863945578231,0.9659863945578231,0.9659863945578231,0.9659863945578231,0.9659863945578231,0.9659863945578231,0.9659863945578231,0.9659863945578231,0.9659863945578231,0.9659863945578231,0.9659863945578231,0.9659863945578231,0.9659863945578231,0.9659863945578231,0.9659863945578231,0.9659863945578231,0.9659863945578231,0.9659863945578231,0.9659863945578231,0.9659863945578231,0.9659863945578231,0.9659863945578231,0.9659863945578231,0.9659863945578231,0.9659863945578231,0.9659863945578231,0.9659863945578231,0.9659863945578231,0.9659863945578231,0.9659863945578231,0.9659863945578231,0.9659863945578231,0.9659863945578231,0.9659863945578231,0.9659863945578231,0.9659863945578231,0.9659863945578231,0.9659863945578231,0.9659863945578231,0.9659863945578231,0.9659863945578231,0.9659863945578231,0.9659863945578231,0.9659863945578231,0.9659863945578231,0.9659863945578231,0.9659863945578231,0.9659863945578231,0.9659863945578231,0.9659863945578231,0.9659863945578231,0.9659863945578231,0.9659863945578231,0.9659863945578231,0.9659863945578231,0.9659863945578231,0.9659863945578231,0.9659863945578231,0.9659863945578231,0.9659863945578231,0.9659863945578231,0.9659863945578231,0.9659863945578231,0.9659863945578231,0.9659863945578231,0.9659863945578231,0.9659863945578231,0.9659863945578231,0.9659863945578231,0.9659863945578231,0.9659863945578231,0.9659863945578231,0.9659863945578231,0.9659863945578231,0.9659863945578231,0.9659863945578231,0.9659863945578231,0.9659863945578231,0.9659863945578231,0.9659863945578231,0.9659863945578231,0.9659863945578231,0.9659863945578231,0.9659863945578231,0.9659863945578231,0.9659863945578231,0.9659863945578231,0.9659863945578231,0.9659863945578231,0.9659863945578231,0.9659863945578231,0.9659863945578231,0.9659863945578231,0.9659863945578231,0.9659863945578231,0.9659863945578231,0.9659863945578231,0.9659863945578231,0.9659863945578231,0.9659863945578231,0.9659863945578231,0.9659863945578231,0.9659863945578231,0.9659863945578231,0.9659863945578231,0.9659863945578231,0.9659863945578231,0.9659863945578231,0.9659863945578231,0.9659863945578231,0.9659863945578231,0.9659863945578231,0.9659863945578231,0.9659863945578231,0.9659863945578231,0.9659863945578231,0.9659863945578231,0.9659863945578231,0.9659863945578231,0.9659863945578231,0.9659863945578231,0.9659863945578231,0.9659863945578231,0.9659863945578231,0.9659863945578231,0.9659863945578231,0.9659863945578231,0.9659863945578231,0.9659863945578231,0.9659863945578231,0.9659863945578231,0.9659863945578231,0.9659863945578231,0.9659863945578231,0.9659863945578231,0.9659863945578231,0.9659863945578231,0.9659863945578231,0.9659863945578231,0.9659863945578231,0.9659863945578231,0.9659863945578231,0.9659863945578231,0.9659863945578231,0.9659863945578231,0.9659863945578231,0.9659863945578231,0.9659863945578231,0.9659863945578231,0.9659863945578231,0.9659863945578231,0.9659863945578231,0.9659863945578231,0.9659863945578231,0.9659863945578231,0.9659863945578231,0.9659863945578231,0.9659863945578231,0.9659863945578231,0.9659863945578231,0.9659863945578231,0.9659863945578231,0.9659863945578231,0.9659863945578231,0.9659863945578231,0.9659863945578231,0.9659863945578231,0.9659863945578231,0.9659863945578231,0.9659863945578231,0.9659863945578231,0.9659863945578231,0.9659863945578231,0.9659863945578231,0.9659863945578231,0.9659863945578231,0.9659863945578231,0.9659863945578231,0.9659863945578231,0.9659863945578231,0.9659863945578231,0.9659863945578231,0.9659863945578231,0.9659863945578231,0.9659863945578231,0.9659863945578231,0.9659863945578231,0.9659863945578231,0.9659863945578231,0.9659863945578231,0.9659863945578231,0.9659863945578231,0.9659863945578231,0.9659863945578231,0.9659863945578231,0.9659863945578231,0.9659863945578231,0.9659863945578231,0.9659863945578231,0.9659863945578231,0.9659863945578231,0.9659863945578231,0.9659863945578231,0.9659863945578231,0.9659863945578231,0.9659863945578231,0.9659863945578231,0.9659863945578231,0.9659863945578231,0.9659863945578231,0.9659863945578231,0.9659863945578231,0.9659863945578231,0.9659863945578231,0.9659863945578231,0.9659863945578231,0.9659863945578231,0.9659863945578231,0.9659863945578231,0.9659863945578231,0.9659863945578231,0.9659863945578231,0.9659863945578231,0.9659863945578231,0.9659863945578231,0.9659863945578231,0.9659863945578231,0.9659863945578231,0.9659863945578231,0.9659863945578231,0.9659863945578231,0.9659863945578231,0.9659863945578231,0.9659863945578231,0.9659863945578231,0.9659863945578231,0.9659863945578231,0.9659863945578231,0.9659863945578231,0.9659863945578231,0.9659863945578231,0.9659863945578231,0.9659863945578231,0.9659863945578231,0.9659863945578231,0.9659863945578231,0.9659863945578231,0.9659863945578231,0.9659863945578231,0.9659863945578231,0.9659863945578231,0.9659863945578231,0.9659863945578231,0.9659863945578231,0.9659863945578231,0.9659863945578231,0.9659863945578231,0.9659863945578231,0.9659863945578231,0.9659863945578231,0.9659863945578231,0.9659863945578231,0.9659863945578231,0.9659863945578231,0.9659863945578231,0.9659863945578231,0.9659863945578231,0.9659863945578231,0.9659863945578231,0.9659863945578231,0.9659863945578231,0.9659863945578231,0.9659863945578231,0.9659863945578231,0.9659863945578231,0.9659863945578231,0.9659863945578231,0.9659863945578231,0.9659863945578231,0.9659863945578231,0.9659863945578231,0.9659863945578231,0.9659863945578231,0.9659863945578231,0.9659863945578231,0.9659863945578231,0.9659863945578231,0.9659863945578231,0.9659863945578231,0.9659863945578231,0.9659863945578231,0.9659863945578231,0.9659863945578231,0.9659863945578231,0.9659863945578231,0.9659863945578231,0.9659863945578231,0.9659863945578231,0.9659863945578231,0.9659863945578231,0.9659863945578231,0.9659863945578231,0.9659863945578231,0.9659863945578231,0.9659863945578231,0.9693877551020408,0.9727891156462585,0.9727891156462585,0.9727891156462585,0.9761904761904762,0.9761904761904762,0.9761904761904762,0.9897959183673469,1.034013605442177,1.0816326530612246,1.1360544217687074,1.1734693877551021,1.2244897959183674,1.2619047619047619,1.3095238095238095,1.370748299319728,1.3775510204081634,1.3911564625850341,1.3945578231292517,1.401360544217687,1.401360544217687,1.4047619047619047,1.401360544217687,1.3775510204081634,1.3333333333333333,1.272108843537415,1.272108843537415,1.272108843537415,1.272108843537415,1.098639455782313,1.08843537414966,1.08843537414966,1.08843537414966,1.08843537414966,1.08843537414966,1.08843537414966,1.08843537414966,1.08843537414966,1.08843537414966,1.08843537414966,1.08843537414966,1.08843537414966,1.08843537414966,1.08843537414966,1.08843537414966,1.08843537414966,1.08843537414966,1.08843537414966,1.08843537414966,1.0918367346938775,1.1020408163265305,1.1258503401360545,1.1496598639455782,1.2074829931972788,1.248299319727891,1.2653061224489797,1.282312925170068,1.2925170068027212,1.2993197278911566,1.3027210884353742,1.3027210884353742,1.3027210884353742,1.3027210884353742,1.3027210884353742,1.3027210884353742,1.3027210884353742,1.3027210884353742,1.3027210884353742,1.3027210884353742,1.3027210884353742,1.3027210884353742,1.3027210884353742,1.3027210884353742,1.3027210884353742,1.3027210884353742,1.3027210884353742,1.3027210884353742,1.3027210884353742,1.3027210884353742,1.3027210884353742,1.3027210884353742,1.3027210884353742,1.3027210884353742,1.3027210884353742,1.3027210884353742,1.3027210884353742,1.3027210884353742,1.3027210884353742,1.3027210884353742,1.3027210884353742,1.3027210884353742,1.3027210884353742,1.3027210884353742,1.3027210884353742,1.3027210884353742,1.3027210884353742,1.3027210884353742,1.3027210884353742,1.3027210884353742,1.3027210884353742,1.3027210884353742,1.3027210884353742,1.3027210884353742,1.3027210884353742,1.3027210884353742,1.3027210884353742,1.3027210884353742,1.3027210884353742,1.3027210884353742,1.3027210884353742,1.3027210884353742,1.3027210884353742,1.3027210884353742,1.3027210884353742,1.3027210884353742,1.3027210884353742,1.3027210884353742,1.3027210884353742,1.3027210884353742,1.3027210884353742,1.3027210884353742,1.3027210884353742,1.3027210884353742,1.3027210884353742,1.3027210884353742,1.3027210884353742,1.3027210884353742,1.3027210884353742,1.3027210884353742,1.3027210884353742,1.3027210884353742,1.3027210884353742,1.3027210884353742,1.3027210884353742,1.3027210884353742,1.3027210884353742,1.3027210884353742,1.3027210884353742,1.3027210884353742,1.3027210884353742,1.3027210884353742,1.3027210884353742,1.3027210884353742,1.3027210884353742,1.3027210884353742,1.3027210884353742,1.3027210884353742,1.3027210884353742,1.3027210884353742,1.3027210884353742,1.3027210884353742,1.3027210884353742,1.3027210884353742,1.3027210884353742,1.3027210884353742,1.3027210884353742,1.3027210884353742,1.3027210884353742,1.3027210884353742,1.3027210884353742,1.3027210884353742,1.3027210884353742,1.3027210884353742,1.3027210884353742,1.3027210884353742,1.3027210884353742,1.3027210884353742,1.3027210884353742,1.3027210884353742,1.3027210884353742,1.3027210884353742,1.3027210884353742,1.3027210884353742,1.3027210884353742,1.3027210884353742,1.3027210884353742,1.3027210884353742,1.3027210884353742,1.3027210884353742,1.3027210884353742,1.3027210884353742,1.3027210884353742,1.3027210884353742,1.3027210884353742,1.3027210884353742,1.3027210884353742,1.3027210884353742,1.3027210884353742,1.3027210884353742,1.3027210884353742,1.3027210884353742,1.3027210884353742,1.3027210884353742,1.3027210884353742,1.3027210884353742,1.3027210884353742,1.3027210884353742,1.3027210884353742,1.3027210884353742,1.3027210884353742,1.3027210884353742,1.3027210884353742,1.3027210884353742,1.3027210884353742,1.3027210884353742,1.3027210884353742,1.3027210884353742,1.3027210884353742,1.3027210884353742,1.3027210884353742,1.3027210884353742,1.3027210884353742,1.3027210884353742,1.3027210884353742,1.3027210884353742,1.3027210884353742,1.3027210884353742,1.3027210884353742,1.3027210884353742,1.3027210884353742,1.3027210884353742,1.3027210884353742,1.3027210884353742,1.3027210884353742,1.3027210884353742,1.3027210884353742,1.3027210884353742,1.3027210884353742,1.3027210884353742,1.3027210884353742,1.3027210884353742,1.3027210884353742,1.3027210884353742,1.3027210884353742,1.3027210884353742,1.3027210884353742,1.3027210884353742,1.3027210884353742,1.3027210884353742,1.3027210884353742,1.3027210884353742,1.3027210884353742,1.3027210884353742,1.3027210884353742,1.3027210884353742,1.3027210884353742,1.3027210884353742,1.3027210884353742,1.3027210884353742,1.3027210884353742,1.3027210884353742,1.3027210884353742,1.3027210884353742,1.3027210884353742,1.3027210884353742,1.3027210884353742,1.3027210884353742,1.3027210884353742,1.3027210884353742,1.3027210884353742,1.3027210884353742,1.3027210884353742,1.3027210884353742,1.3027210884353742,1.3027210884353742,1.3027210884353742,1.3027210884353742,1.3027210884353742,1.3027210884353742,1.3027210884353742,1.3027210884353742,1.3027210884353742,1.3027210884353742,1.3027210884353742,1.3027210884353742,1.3027210884353742,1.3027210884353742,1.3027210884353742,1.3027210884353742,1.3027210884353742,1.3027210884353742,1.3027210884353742,1.3027210884353742,1.3027210884353742,1.3027210884353742,1.3027210884353742,1.3027210884353742,1.3027210884353742,1.3027210884353742,1.3027210884353742,1.3027210884353742,1.3027210884353742,1.3027210884353742,1.3027210884353742,1.3027210884353742,1.3027210884353742,1.3027210884353742,1.3027210884353742,1.3027210884353742,1.3027210884353742,1.3027210884353742,1.3027210884353742,1.3027210884353742,1.3027210884353742,1.3027210884353742,1.3027210884353742,1.3027210884353742,1.3027210884353742,1.3027210884353742,1.3027210884353742,1.3027210884353742,1.3027210884353742,1.3027210884353742,1.3027210884353742,1.3027210884353742,1.3027210884353742,1.3027210884353742,1.3027210884353742,1.3027210884353742,1.3027210884353742,1.3027210884353742,1.3027210884353742,1.3027210884353742,1.3027210884353742,1.3027210884353742,1.3027210884353742,1.3027210884353742,1.3027210884353742,1.3027210884353742,1.3027210884353742,1.3027210884353742,1.3027210884353742,1.3027210884353742,1.3027210884353742,1.3027210884353742,1.3027210884353742,1.3027210884353742,1.3027210884353742,1.3027210884353742,1.3027210884353742,1.3027210884353742,1.3027210884353742,1.3027210884353742,1.3027210884353742,1.3027210884353742,1.3027210884353742,1.3027210884353742,1.3027210884353742,1.3027210884353742,1.3027210884353742,1.3027210884353742,1.3027210884353742,1.3027210884353742,1.3027210884353742,1.3027210884353742,1.3027210884353742,1.3027210884353742,1.3027210884353742,1.3027210884353742,1.3027210884353742,1.3027210884353742,1.3027210884353742,1.3027210884353742,1.3027210884353742,1.3027210884353742,1.3027210884353742,1.3027210884353742,1.3027210884353742,1.3027210884353742,1.3027210884353742,1.3027210884353742,1.3027210884353742,1.3027210884353742,1.3027210884353742,1.3027210884353742,1.3027210884353742,1.3027210884353742,1.3027210884353742,1.3027210884353742,1.3027210884353742,1.3027210884353742,1.3027210884353742,1.3027210884353742,1.3027210884353742,1.3027210884353742,1.3027210884353742,1.3027210884353742,1.3027210884353742,1.3027210884353742,1.3027210884353742,1.3027210884353742,1.3027210884353742,1.3027210884353742,1.3027210884353742,1.3027210884353742,1.3027210884353742,1.3027210884353742,1.3027210884353742,1.2789115646258504,1.227891156462585,1.1938775510204083,1.1666666666666667,1.1258503401360545,1.1156462585034013,1.08843537414966,1.0680272108843538,1.0408163265306123,1.0204081632653061,0.9931972789115646,0.9591836734693877,0.9319727891156463,0.891156462585034,0.8605442176870748,0.8299319727891157,0.8027210884353742,0.7925170068027211,0.7891156462585034,0.782312925170068,0.782312925170068,0.7857142857142857,0.7891156462585034,0.8027210884353742,0.8129251700680272,0.8231292517006803,0.8435374149659864,0.8537414965986394,0.8741496598639455,0.8843537414965986,0.891156462585034,0.9081632653061225,0.9149659863945578,0.9217687074829932,0.9285714285714286,0.9285714285714286,0.9251700680272109,0.9115646258503401,0.8809523809523809,0.7925170068027211,0.7380952380952381,0.6904761904761905,0.6190476190476191,0.5714285714285714,0.5068027210884354,0.47278911564625853,0.4557823129251701,0.4387755102040816,0.43537414965986393,0.42517006802721086,0.41836734693877553,0.41496598639455784,0.40476190476190477,0.4013605442176871,0.4013605442176871,0.40476190476190477,0.41156462585034015,0.4421768707482993,0.46258503401360546,0.48639455782312924,0.5238095238095238,0.5374149659863946,0.5510204081632653,0.5748299319727891,0.5884353741496599,0.6020408163265306,0.6122448979591837,0.6190476190476191,0.6292517006802721,0.6394557823129252,0.6530612244897959,0.6632653061224489,0.6768707482993197,0.6870748299319728,0.7006802721088435,0.7108843537414966,0.7278911564625851,0.7380952380952381,0.7517006802721088,0.7721088435374149,0.7857142857142857,0.7993197278911565,0.8163265306122449,0.8333333333333334,0.8571428571428571,0.8707482993197279,0.8877551020408163,0.9115646258503401,0.9251700680272109,0.935374149659864,0.9455782312925171,0.9523809523809523,0.9591836734693877,0.9625850340136054,0.9625850340136054,0.9625850340136054,0.9625850340136054,0.9625850340136054,0.9625850340136054,0.9625850340136054,0.9591836734693877,0.9523809523809523,0.9421768707482994,0.9183673469387755,0.8945578231292517,0.8571428571428571,0.8367346938775511,0.8197278911564626,0.7925170068027211,0.7687074829931972,0.7517006802721088,0.7244897959183674,0.7142857142857143,0.6904761904761905,0.6802721088435374,0.6632653061224489,0.6462585034013606,0.6428571428571429,0.6428571428571429,0.6258503401360545,0.608843537414966,0.5850340136054422,0.5714285714285714,0.5578231292517006,0.5476190476190477,0.5340136054421769,0.5204081632653061,0.5034013605442177,0.48639455782312924,0.47619047619047616,0.4557823129251701,0.43537414965986393,0.41496598639455784,0.3979591836734694,0.391156462585034,0.3843537414965986,0.3741496598639456,0.3673469387755102,0.36054421768707484,0.36054421768707484,0.41156462585034015,0.42857142857142855,0.4897959183673469,0.5578231292517006,0.6054421768707483,0.6530612244897959,0.6666666666666666,0.6768707482993197,0.6836734693877551,0.6870748299319728,0.6904761904761905,0.6938775510204082,0.6938775510204082,0.6972789115646258,0.6972789115646258,0.7040816326530612,0.7040816326530612,0.7074829931972789,0.7108843537414966,0.7142857142857143,0.7142857142857143,0.7142857142857143,0.7142857142857143,0.7108843537414966,0.7074829931972789,0.7006802721088435,0.6938775510204082,0.6904761904761905,0.6870748299319728,0.6870748299319728,0.6836734693877551,0.6836734693877551,0.6836734693877551,0.6836734693877551,0.6836734693877551,0.6836734693877551,0.6836734693877551,0.6836734693877551,0.6836734693877551,0.6836734693877551,0.6836734693877551,0.6836734693877551,0.6836734693877551,0.6836734693877551,0.6836734693877551,0.6836734693877551,0.6836734693877551,0.6836734693877551,0.6836734693877551,0.6836734693877551,0.6836734693877551,0.6836734693877551,0.6836734693877551,0.6836734693877551,0.6836734693877551,0.6836734693877551,0.6836734693877551,0.6836734693877551,0.6836734693877551,0.6836734693877551,0.6836734693877551,0.6836734693877551,0.6836734693877551,0.6836734693877551,0.6836734693877551,0.6836734693877551,0.6836734693877551,0.6836734693877551,0.6836734693877551,0.6836734693877551,0.6836734693877551,0.6836734693877551,0.6836734693877551,0.6836734693877551,0.6836734693877551,0.6836734693877551,0.6836734693877551,0.6836734693877551,0.6836734693877551,0.6836734693877551,0.7517006802721088,0.7925170068027211,0.8231292517006803,0.8435374149659864,0.8537414965986394,0.8673469387755102,0.8843537414965986,0.8979591836734694,0.9115646258503401,0.9183673469387755,0.9591836734693877,1.0272108843537415,1.1054421768707483,1.2380952380952381,1.346938775510204,1.4285714285714286,1.4591836734693877,1.530612244897959,1.564625850340136,1.5918367346938775,1.6054421768707483,1.6156462585034013,1.619047619047619,1.6224489795918366,1.6258503401360545,1.6258503401360545,1.6258503401360545,1.6258503401360545,1.6258503401360545,1.6258503401360545,1.6258503401360545,1.6258503401360545,1.6258503401360545,1.6258503401360545,1.6258503401360545,1.6258503401360545,1.6258503401360545,1.6258503401360545,1.6258503401360545,1.6258503401360545,1.6258503401360545,1.6258503401360545,1.6258503401360545,1.6258503401360545,1.6258503401360545,1.6258503401360545,1.6258503401360545,1.6258503401360545,1.6258503401360545,1.6258503401360545,1.6258503401360545,1.6258503401360545,1.6258503401360545,1.6258503401360545,1.6258503401360545,1.6258503401360545,1.6258503401360545,1.6258503401360545,1.6258503401360545,1.6258503401360545,1.6258503401360545,1.6258503401360545,1.6258503401360545,1.6258503401360545,1.6258503401360545,1.6258503401360545,1.6258503401360545,1.6258503401360545,1.6258503401360545,1.6258503401360545,1.6258503401360545,1.6258503401360545,1.6258503401360545,1.6258503401360545,1.6258503401360545,1.6258503401360545,1.6258503401360545,1.6258503401360545,1.6258503401360545,1.6258503401360545,1.6258503401360545,1.6258503401360545,1.6258503401360545,1.6258503401360545,1.6258503401360545,1.6258503401360545,1.6258503401360545,1.6258503401360545,1.6258503401360545,1.6258503401360545,1.6258503401360545,1.6258503401360545,1.6258503401360545,1.6258503401360545,1.6258503401360545,1.6258503401360545,1.6258503401360545,1.6258503401360545,1.6258503401360545,1.6258503401360545,1.6258503401360545,1.6258503401360545,1.6258503401360545,1.6258503401360545,1.6258503401360545,1.6258503401360545,1.6258503401360545,1.6258503401360545,1.6258503401360545,1.6258503401360545,1.6258503401360545,1.6258503401360545,1.6258503401360545,1.6258503401360545,1.6258503401360545,1.6258503401360545,1.6258503401360545,1.6258503401360545,1.6258503401360545,1.6258503401360545,1.6258503401360545,1.6258503401360545,1.6258503401360545,1.6258503401360545,1.6258503401360545,1.6258503401360545,1.6258503401360545,1.6258503401360545,1.6258503401360545,1.6258503401360545,1.6258503401360545,1.6258503401360545,1.6258503401360545,1.6258503401360545,1.6258503401360545,1.6258503401360545,1.6258503401360545,1.6258503401360545,1.6258503401360545,1.6258503401360545,1.6258503401360545,1.6258503401360545,1.6258503401360545,1.6258503401360545,1.6258503401360545,1.6258503401360545,1.6258503401360545,1.6258503401360545,1.6258503401360545,1.6258503401360545,1.6258503401360545,1.6258503401360545,1.6258503401360545,1.6258503401360545,1.6258503401360545,1.6258503401360545,1.6258503401360545,1.6258503401360545,1.6258503401360545,1.6258503401360545,1.6258503401360545,1.6258503401360545,1.6258503401360545,1.6258503401360545,1.6258503401360545,1.6258503401360545,1.6258503401360545,1.6258503401360545,1.6258503401360545,1.6258503401360545,1.6258503401360545,1.6258503401360545,1.6258503401360545,1.6258503401360545,1.6258503401360545,1.6258503401360545,1.6258503401360545,1.6258503401360545,1.6258503401360545,1.6258503401360545,1.6258503401360545,1.6258503401360545,1.6258503401360545,1.6258503401360545,1.6258503401360545,1.6258503401360545,1.6258503401360545,1.6258503401360545,1.6258503401360545,1.6258503401360545,1.6258503401360545,1.6258503401360545,1.6258503401360545,1.6258503401360545,1.6258503401360545,1.6258503401360545,1.6258503401360545,1.6258503401360545,1.6258503401360545,1.6258503401360545,1.6258503401360545,1.6258503401360545,1.6258503401360545,1.6258503401360545,1.6258503401360545,1.6258503401360545,1.6258503401360545,1.6258503401360545,1.6258503401360545,1.6258503401360545,1.6258503401360545,1.6258503401360545,1.6258503401360545,1.6258503401360545,1.6258503401360545,1.6258503401360545,1.6258503401360545,1.6258503401360545,1.6258503401360545,1.6258503401360545,1.6258503401360545,1.6258503401360545,1.6258503401360545,1.6258503401360545,1.6258503401360545,1.6258503401360545,1.6258503401360545,1.6258503401360545,1.6258503401360545,1.6258503401360545,1.6258503401360545,1.6258503401360545,1.6258503401360545,1.6258503401360545,1.6258503401360545,1.6258503401360545,1.6258503401360545,1.6258503401360545,1.6258503401360545,1.6258503401360545,1.6258503401360545,1.6258503401360545,1.6258503401360545,1.6258503401360545,1.6258503401360545,1.6258503401360545,1.6258503401360545,1.6258503401360545,1.6258503401360545,1.6258503401360545,1.6258503401360545,1.6258503401360545,1.6258503401360545,1.6258503401360545,1.6258503401360545,1.6258503401360545,1.6258503401360545,1.6258503401360545,1.6258503401360545,1.6258503401360545,1.6258503401360545,1.6258503401360545,1.6258503401360545,1.6258503401360545,1.6258503401360545,1.6258503401360545,1.6258503401360545,1.6258503401360545,1.6258503401360545,1.6258503401360545,1.6258503401360545,1.6258503401360545,1.6258503401360545,1.6258503401360545,1.6258503401360545,1.6258503401360545,1.6258503401360545,1.6258503401360545,1.6258503401360545,1.6258503401360545,1.6258503401360545,1.6258503401360545,1.6258503401360545,1.6258503401360545,1.6258503401360545,1.6258503401360545,1.6258503401360545,1.6258503401360545,1.6258503401360545,1.6258503401360545,1.6258503401360545,1.6258503401360545,1.6258503401360545,1.6258503401360545,1.6258503401360545,1.6258503401360545,1.6258503401360545,1.6258503401360545,1.6258503401360545,1.6258503401360545,1.6258503401360545,1.6258503401360545,1.6258503401360545,1.6258503401360545,1.6258503401360545,1.6258503401360545,1.6258503401360545,1.6258503401360545,1.6258503401360545,1.6258503401360545,1.6258503401360545,1.6258503401360545,1.6258503401360545,1.6258503401360545,1.6258503401360545,1.6258503401360545,1.6258503401360545,1.6258503401360545,1.6258503401360545,1.6258503401360545,1.6258503401360545,1.6258503401360545,1.6258503401360545,1.6258503401360545,1.6258503401360545,1.6258503401360545,1.6258503401360545,1.6258503401360545,1.6258503401360545,1.6258503401360545,1.6258503401360545,1.6258503401360545,1.6258503401360545,1.6258503401360545,1.6258503401360545,1.6258503401360545,1.6258503401360545,1.6258503401360545,1.6258503401360545,1.6258503401360545,1.6258503401360545,1.6258503401360545,1.6258503401360545,1.6258503401360545,1.6258503401360545,1.6258503401360545,1.6258503401360545,1.6258503401360545,1.6258503401360545,1.6258503401360545,1.6258503401360545,1.6258503401360545,1.6258503401360545,1.6258503401360545,1.6258503401360545,1.6258503401360545,1.6258503401360545,1.6258503401360545,1.6258503401360545,1.6258503401360545,1.6258503401360545,1.6258503401360545,1.6258503401360545,1.6258503401360545,1.6258503401360545,1.6258503401360545,1.6258503401360545,1.6258503401360545,1.6258503401360545,1.6258503401360545,1.6258503401360545,1.6258503401360545,1.6258503401360545,1.6258503401360545,1.6258503401360545,1.6258503401360545,1.6258503401360545,1.6258503401360545,1.6258503401360545,1.6258503401360545,1.6258503401360545,1.6258503401360545,1.6258503401360545,1.6258503401360545,1.6258503401360545,1.6258503401360545,1.6258503401360545,1.6258503401360545,1.6258503401360545,1.6258503401360545,1.6258503401360545,1.6258503401360545,1.6258503401360545,1.6258503401360545,1.6258503401360545,1.6258503401360545,1.6258503401360545,1.6258503401360545,1.6258503401360545,1.6258503401360545,1.6258503401360545,1.5816326530612246,1.534013605442177,1.5238095238095237,1.5068027210884354,1.5,1.4931972789115646,1.4863945578231292,1.465986394557823,1.445578231292517,1.41156462585034,1.316326530612245,1.2551020408163265,1.1768707482993197,1.0816326530612246,0.9251700680272109,0.8367346938775511,0.7142857142857143,0.6428571428571429,0.5680272108843537,0.46938775510204084,0.40476190476190477,0.3163265306122449,0.25170068027210885,0.19727891156462585,0.11564625850340136,0.0782312925170068,0.05782312925170068,0.04081632653061224,0.034013605442176874,0.030612244897959183,0.030612244897959183,0.030612244897959183,0.034013605442176874,0.03741496598639456,0.04421768707482993,0.05442176870748299,0.061224489795918366,0.06462585034013606,0.06802721088435375,0.07482993197278912,0.0782312925170068,0.08163265306122448,0.09183673469387756,0.09863945578231292,0.10884353741496598,0.11904761904761904,0.12585034013605442,0.1360544217687075,0.14285714285714285,0.15306122448979592,0.1598639455782313,0.16326530612244897,0.17346938775510204,0.1836734693877551,0.20748299319727892,0.20748299319727892,0.336734693877551,0.445578231292517,0.6394557823129252,0.8231292517006803,0.9081632653061225,0.9965986394557823,1.0272108843537415,1.0476190476190477,1.0578231292517006,1.0612244897959184,1.064625850340136,1.064625850340136,1.064625850340136,1.064625850340136,1.0612244897959184,1.0612244897959184,1.0612244897959184,1.0612244897959184,1.0612244897959184,1.0612244897959184,1.0578231292517006,1.0476190476190477,1.034013605442177,1.0136054421768708,0.9965986394557823,0.9863945578231292,0.9829931972789115,0.9829931972789115,0.9829931972789115,0.9829931972789115,0.9829931972789115,0.9829931972789115,0.9829931972789115,0.9829931972789115,0.9829931972789115,0.9829931972789115,0.9829931972789115,0.9829931972789115,0.9829931972789115,0.9829931972789115,0.9829931972789115,0.9829931972789115,0.9829931972789115,0.9829931972789115,0.9829931972789115,0.9829931972789115,0.9829931972789115,0.9829931972789115,0.9829931972789115,0.9829931972789115,0.9829931972789115,0.9829931972789115,0.9829931972789115,0.9829931972789115,0.9829931972789115,0.9829931972789115,0.9829931972789115,0.9829931972789115,0.9829931972789115,0.9829931972789115,0.9829931972789115,0.9829931972789115,0.9795918367346939,0.9659863945578231,0.9523809523809523,0.9387755102040817,0.9183673469387755,0.8843537414965986,0.8163265306122449,0.7857142857142857,0.7585034013605442,0.7210884353741497,0.7006802721088435,0.6870748299319728,0.6700680272108843,0.6598639455782312,0.6360544217687075,0.608843537414966,0.4965986394557823,0.4387755102040816,0.3877551020408163,0.336734693877551,0.30272108843537415,0.2857142857142857,0.272108843537415,0.2687074829931973,0.2653061224489796,0.2653061224489796,0.2653061224489796,0.2653061224489796,0.2653061224489796,0.2653061224489796,0.2653061224489796,0.2653061224489796,0.2653061224489796,0.2653061224489796,0.2653061224489796,0.2653061224489796,0.272108843537415,0.2925170068027211,0.30612244897959184,0.3129251700680272,0.3197278911564626,0.3333333333333333,0.3469387755102041,0.35714285714285715,0.3707482993197279,0.3843537414965986,0.4013605442176871,0.41836734693877553,0.43537414965986393,0.4557823129251701,0.46598639455782315,0.48299319727891155,0.4897959183673469,0.4965986394557823,0.5034013605442177,0.5068027210884354,0.5136054421768708,0.5170068027210885,0.5204081632653061,0.5238095238095238,0.5272108843537415,0.5306122448979592,0.5340136054421769,0.5374149659863946,0.5408163265306123,0.5476190476190477,0.5544217687074829,0.5578231292517006,0.5612244897959183,0.564625850340136,0.5714285714285714,0.5714285714285714,0.5782312925170068,0.5816326530612245,0.5816326530612245,0.5816326530612245,0.5816326530612245,0.5816326530612245,0.5816326530612245,0.5816326530612245,0.5816326530612245,0.5816326530612245,0.5816326530612245,0.5816326530612245,0.5816326530612245,0.5816326530612245,0.5816326530612245,0.5816326530612245,0.5816326530612245,0.5816326530612245,0.5816326530612245,0.5816326530612245,0.5816326530612245,0.5816326530612245,0.5816326530612245,0.5816326530612245,0.5816326530612245,0.5816326530612245,0.5816326530612245,0.5816326530612245,0.5816326530612245,0.5816326530612245,0.5816326530612245,0.5816326530612245,0.5816326530612245,0.5816326530612245,0.5816326530612245,0.5816326530612245,0.5816326530612245,0.5816326530612245,0.5816326530612245,0.5816326530612245,0.5816326530612245,0.5816326530612245,0.5816326530612245,0.5816326530612245,0.5816326530612245,0.5816326530612245,0.5816326530612245,0.5816326530612245,0.5816326530612245,0.5850340136054422,0.5884353741496599,0.5952380952380952,0.5986394557823129,0.6020408163265306,0.6020408163265306,0.6054421768707483,0.6054421768707483,0.6054421768707483,0.6054421768707483,0.6054421768707483,0.6054421768707483,0.6054421768707483,0.6054421768707483,0.6020408163265306,0.6020408163265306,0.6020408163265306,0.6020408163265306,0.6020408163265306,0.6020408163265306,0.6020408163265306,0.6020408163265306,0.6020408163265306,0.6020408163265306,0.6020408163265306,0.6020408163265306,0.6020408163265306,0.6020408163265306,0.6020408163265306,0.6020408163265306,0.6020408163265306,0.6020408163265306,0.6020408163265306,0.6020408163265306,0.6020408163265306,0.6020408163265306,0.6020408163265306,0.6020408163265306,0.6020408163265306,0.6020408163265306,0.6020408163265306,0.6020408163265306,0.6020408163265306,0.6020408163265306,0.6020408163265306,0.6020408163265306,0.6020408163265306,0.6020408163265306,0.6020408163265306,0.6020408163265306,0.6020408163265306,0.6020408163265306,0.6020408163265306,0.6020408163265306,0.6020408163265306,0.6020408163265306,0.6020408163265306,0.6020408163265306,0.6020408163265306,0.6020408163265306,0.6020408163265306,0.6020408163265306,0.6020408163265306,0.6020408163265306,0.6020408163265306,0.6020408163265306,0.6020408163265306,0.6020408163265306,0.6020408163265306,0.6020408163265306,0.6020408163265306,0.6020408163265306,0.6020408163265306,0.6020408163265306,0.6020408163265306,0.6020408163265306,0.6020408163265306,0.6020408163265306,0.6020408163265306,0.6020408163265306,0.6020408163265306,0.6020408163265306,0.6020408163265306,0.6020408163265306,0.6020408163265306,0.6020408163265306,0.6020408163265306,0.6020408163265306,0.6020408163265306,0.6020408163265306,0.6020408163265306,0.6020408163265306,0.6020408163265306,0.6020408163265306,0.6020408163265306,0.6020408163265306,0.6020408163265306,0.6020408163265306,0.6020408163265306,0.6020408163265306,0.6020408163265306,0.6020408163265306,0.6020408163265306,0.6020408163265306,0.6020408163265306,0.6020408163265306,0.6020408163265306,0.6020408163265306,0.6020408163265306,0.6020408163265306,0.6020408163265306,0.6020408163265306,0.6020408163265306,0.6020408163265306,0.6020408163265306,0.6020408163265306,0.6020408163265306,0.6020408163265306,0.6020408163265306,0.6020408163265306,0.6020408163265306,0.6020408163265306,0.6020408163265306,0.6020408163265306,0.6020408163265306,0.6020408163265306,0.6020408163265306,0.6020408163265306,0.6020408163265306,0.6020408163265306,0.6020408163265306,0.6020408163265306,0.6020408163265306,0.6020408163265306,0.6020408163265306,0.6020408163265306,0.6020408163265306,0.6020408163265306,0.6020408163265306,0.6020408163265306,0.6020408163265306,0.6020408163265306,0.6020408163265306,0.6020408163265306,0.6020408163265306,0.6020408163265306,0.6020408163265306,0.6020408163265306,0.6020408163265306,0.6020408163265306,0.6020408163265306,0.6020408163265306,0.6020408163265306,0.6020408163265306,0.6020408163265306,0.6020408163265306,0.6020408163265306,0.6020408163265306,0.6020408163265306,0.6020408163265306,0.6020408163265306,0.6020408163265306,0.6020408163265306,0.6020408163265306,0.6020408163265306,0.6020408163265306,0.6020408163265306,0.6020408163265306,0.6020408163265306,0.6020408163265306,0.6020408163265306,0.6020408163265306,0.6020408163265306,0.6020408163265306,0.6020408163265306,0.6020408163265306,0.6020408163265306,0.6020408163265306,0.6020408163265306,0.6020408163265306,0.6020408163265306,0.6020408163265306,0.6020408163265306,0.6020408163265306,0.6020408163265306,0.6020408163265306,0.6020408163265306,0.6020408163265306,0.6020408163265306,0.6020408163265306,0.6020408163265306,0.6020408163265306,0.6020408163265306,0.6020408163265306,0.6020408163265306,0.6020408163265306,0.6020408163265306,0.6020408163265306,0.6020408163265306,0.6020408163265306,0.6020408163265306,0.6020408163265306,0.6020408163265306,0.6020408163265306,0.6020408163265306,0.6020408163265306,0.6020408163265306,0.6020408163265306,0.6020408163265306,0.6020408163265306,0.6020408163265306,0.6020408163265306,0.6020408163265306,0.6020408163265306,0.6020408163265306,0.6020408163265306,0.6020408163265306,0.6020408163265306,0.6020408163265306,0.6020408163265306,0.6020408163265306,0.6020408163265306,0.6020408163265306,0.6020408163265306,0.6020408163265306,0.6020408163265306,0.6020408163265306,0.6020408163265306,0.6020408163265306,0.6020408163265306,0.6020408163265306,0.6020408163265306,0.6020408163265306,0.6020408163265306,0.6020408163265306,0.6020408163265306,0.6020408163265306,0.6020408163265306,0.6020408163265306,0.6020408163265306,0.6020408163265306,0.6020408163265306,0.6020408163265306,0.6020408163265306,0.6020408163265306,0.6020408163265306,0.6020408163265306,0.6020408163265306,0.6020408163265306,0.6020408163265306,0.6020408163265306,0.6020408163265306,0.6020408163265306,0.6020408163265306,0.6020408163265306,0.6020408163265306,0.6020408163265306,0.6020408163265306,0.6020408163265306,0.6020408163265306,0.6020408163265306,0.6020408163265306,0.6020408163265306,0.6020408163265306,0.6020408163265306,0.6020408163265306,0.6020408163265306,0.6020408163265306,0.6020408163265306,0.6020408163265306,0.6020408163265306,0.6020408163265306,0.6020408163265306,0.6020408163265306,0.6020408163265306,0.6020408163265306,0.6020408163265306,0.6020408163265306,0.6020408163265306,0.6020408163265306,0.6020408163265306,0.6020408163265306,0.6020408163265306,0.6020408163265306,0.6020408163265306,0.6020408163265306,0.6020408163265306,0.6020408163265306,0.6020408163265306,0.6020408163265306