[{"success":true,"trial_type":"fullscreen","trial_index":0,"time_elapsed":4043,"internal_node_id":"0.0-0.0","protocol_sum":"","subject_identifier":211,"subject_sum":[18,83,233,55,62,120,27,117,0,38,108,170,85,21,14,8,226,16,188,140,216,204,112,216,153,133,227,96,1,85,232,96],"subject_pair":105,"STUDY_ID":"669eec2e4270c76bc184a38e","PROLIFIC_PID":"66892a7a5d486bf277cf9bc8","SESSION_ID":"669f986448c4105ccd5da8f3","practice_instructions":1,"leaderboard_instructions":0,"bonus":2,"reveal_word":true,"self_rating":"4","confidence":"70"},{"view_history":"[{\"page_index\":0,\"viewing_time\":1255.199999988079}]","rt":1255.9000000059605,"trial_type":"instructions","trial_index":1,"time_elapsed":5301,"internal_node_id":"0.0-1.0","protocol_sum":"","subject_identifier":211,"subject_sum":[18,83,233,55,62,120,27,117,0,38,108,170,85,21,14,8,226,16,188,140,216,204,112,216,153,133,227,96,1,85,232,96],"subject_pair":105,"STUDY_ID":"669eec2e4270c76bc184a38e","PROLIFIC_PID":"66892a7a5d486bf277cf9bc8","SESSION_ID":"669f986448c4105ccd5da8f3","practice_instructions":1,"leaderboard_instructions":0,"bonus":2,"reveal_word":true,"self_rating":"4","confidence":"70"},{"view_history":"[{\"page_index\":0,\"viewing_time\":2321.699999988079}]","rt":2322,"trial_type":"instructions","trial_index":2,"time_elapsed":7624,"internal_node_id":"0.0-2.0-0.0","protocol_sum":"","subject_identifier":211,"subject_sum":[18,83,233,55,62,120,27,117,0,38,108,170,85,21,14,8,226,16,188,140,216,204,112,216,153,133,227,96,1,85,232,96],"subject_pair":105,"STUDY_ID":"669eec2e4270c76bc184a38e","PROLIFIC_PID":"66892a7a5d486bf277cf9bc8","SESSION_ID":"669f986448c4105ccd5da8f3","practice_instructions":1,"leaderboard_instructions":0,"bonus":2,"reveal_word":true,"self_rating":"4","confidence":"70"},{"rt":38709.29999998212,"responses":"{\"Q0\":\"... reveal the word with as <b>few letter guesses</b> as possible\"}","question_order":"[0]","trial_type":"survey-multi-choice","trial_index":3,"time_elapsed":46334,"internal_node_id":"0.0-2.0-1.0","protocol_sum":"","subject_identifier":211,"subject_sum":[18,83,233,55,62,120,27,117,0,38,108,170,85,21,14,8,226,16,188,140,216,204,112,216,153,133,227,96,1,85,232,96],"subject_pair":105,"correct":true,"test_part":"multichoice_nonpretend","STUDY_ID":"669eec2e4270c76bc184a38e","PROLIFIC_PID":"66892a7a5d486bf277cf9bc8","SESSION_ID":"669f986448c4105ccd5da8f3","practice_instructions":1,"leaderboard_instructions":0,"bonus":2,"reveal_word":true,"self_rating":"4","confidence":"70"},{"view_history":"[{\"page_index\":0,\"viewing_time\":2201.2000000178814}]","rt":2201.7000000178814,"trial_type":"instructions","trial_index":4,"time_elapsed":48538,"internal_node_id":"0.0-3.0","protocol_sum":"","subject_identifier":211,"subject_sum":[18,83,233,55,62,120,27,117,0,38,108,170,85,21,14,8,226,16,188,140,216,204,112,216,153,133,227,96,1,85,232,96],"subject_pair":105,"STUDY_ID":"669eec2e4270c76bc184a38e","PROLIFIC_PID":"66892a7a5d486bf277cf9bc8","SESSION_ID":"669f986448c4105ccd5da8f3","practice_instructions":1,"leaderboard_instructions":0,"bonus":2,"reveal_word":true,"self_rating":"4","confidence":"70"},{"word":"ZEBRA","click_log":{"letter":["","B","E","D","A","R","Z"],"t":[0,4892.199999988079,8165.5,10683.300000011921,15848.5,18208.69999998808,21558.69999998808],"hit":[null,1,1,0,1,1,1],"asked":["","B","BE","BED","BEDA","BEDAR","BEDARZ"],"word_state":["_____","__B__","_EB__","_EB__","_EB_A","_EBRA","ZEBRA"]},"hover_log":{"letter":["?","?","?","?","?","?","?","?","?","?","?","?","?","?","?","?","?","?","?","?","?","?","?","?","?","?","?","?","?","?","?","?","?","?","?","?","?","?","?","?","?","?","?","?","?","?","?","?","?","?","?","?","?","?","?","?","?","?","?","?","?","?","?","?","?","?","?","?","?","?","?","?","?","?","?","?","?","?","?","?","?","?","?","?","?","?","?","?","?","?","?","?","?","?","?","?","?","?","?","?","?","?","?","?","?","?","?","?","?","?","?","?","?","?","?","?","?","?","?","?","?","?","?","?","?","?","?","?","?","?","?","?","?","?","?","?","?","?","?","?","?","?","?","?","?","?","?","?","?","?","?","?","?","?","?","?","?","?","?","?","?","?","?","?","?","?","?","?","?","?","?","?","?","?","?","?","?","?","?","?","?","?","?","?","?","?","?","?","?","?","?","?","?","?","?","?","?","?","?","?","?","?","?","?","?","?","?","?","?","?","?","?","?","?","?","?","?","?","?","?","?","?","?","?","?","?","?","?","?","?","?","?","?","?","?","?","?","?","?","?","?","?","?","?","?","?","?","?","?","?","?","?","?","?","?","?","?","?","?","?","?","?","?","?","?","?","?","?","?","?","?","?","?","?","?","?","?","?","?","?","?","?","?","?","?","?","?","?","B","B","B","B","B","B","B","B","B","B","B","B","B","B","B","B","B","B","B","B","B","B","B","B","B","B","B","B","B","B","B","B","B","B","B","B","B","B","B","B","B","B","B","B","B","B","B","B","B","B","B","B","B","B","B","B","B","B","B","B","B","B","B","B","B","B","B","B","B","B","B","B","B","B","B","B","B","B","B","B","B","B","B","B","B","B","B","B","B","B","B","B","B","B","B","B","B","B","B","B","B","B","B","B","B","B","B","B","B","B","B","B","B","B","B","B","B","B","B","B","B","B","B","B","B","B","B","B","B","B","B","B","B","B","B","B","B","B","B","B","B","B","B","B","B","B","B","B","B","B","B","B","B","B","B","B","B","B","B","B","B","B","B","B","B","B","B","B","B","B","B","B","B","B","B","B","B","B","B","B","B","B","B","B","B","B","B","B","B","B","B","B","B","B","E","E","E","E","E","E","E","E","E","E","E","E","E","E","E","E","E","E","E","E","E","E","E","E","E","E","E","E","E","E","E","E","E","E","E","E","E","E","E","E","E","E","E","E","E","E","E","E","E","E","E","E","E","E","E","E","E","E","E","E","E","E","E","E","E","E","E","E","E","E","E","E","E","E","E","E","E","E","E","E","E","E","E","E","E","E","E","E","E","E","E","E","E","E","E","E","E","E","E","E","E","E","E","E","E","E","E","E","E","E","E","E","E","E","E","E","E","E","E","E","E","E","E","E","E","E","E","E","E","E","E","E","E","E","E","E","E","E","E","E","E","E","E","E","E","E","E","E","E","E","E","E","D","D","D","D","D","D","D","D","D","D","D","D","D","D","D","D","D","D","D","D","D","D","D","D","D","D","D","D","D","D","D","D","D","D","D","D","D","D","D","D","D","D","D","D","D","D","D","D","D","D","D","D","D","D","D","D","D","D","D","D","D","D","D","D","D","D","D","D","D","D","D","D","D","D","D","D","D","D","D","D","D","D","D","D","D","D","D","D","D","D","D","D","D","D","D","D","D","D","D","D","D","D","D","D","D","D","D","D","D","D","D","D","D","D","D","D","D","D","D","D","D","D","D","D","D","D","D","D","D","D","D","D","D","D","D","D","D","D","D","D","D","D","D","D","D","D","D","D","D","D","D","D","D","D","D","D","D","D","D","D","D","D","D","D","D","D","D","D","D","D","D","D","D","D","D","D","D","D","D","D","D","D","D","D","D","D","D","D","D","D","D","D","D","D","D","D","D","D","D","D","D","D","D","D","D","D","D","D","D","D","D","D","D","D","D","D","D","D","D","D","D","D","D","D","D","D","D","D","D","D","D","D","D","D","D","D","D","D","D","D","D","D","D","D","D","D","D","D","D","D","D","D","D","D","D","D","D","D","D","D","D","D","D","D","D","D","D","D","D","D","D","D","D","D","D","D","D","D","D","D","D","D","D","D","D","D","D","D","D","D","D","D","D","D","D","D","D","D","D","D","D","D","D","D","D","D","D","D","D","D","D","D","A","A","A","A","A","A","A","A","A","A","A","A","A","A","A","A","A","A","A","A","A","A","A","A","A","A","A","A","A","A","A","A","A","A","A","A","A","A","A","A","A","A","A","A","A","A","A","A","A","A","A","A","A","A","A","A","A","A","A","A","A","A","A","A","A","A","A","A","A","A","A","A","A","A","A","A","A","A","A","A","A","A","A","A","A","A","A","A","A","A","A","A","A","A","A","A","A","A","A","A","A","A","A","A","A","A","A","A","A","A","A","A","A","A","A","A","A","A","A","A","A","A","A","A","A","A","A","A","A","A","A","A","A","A","A","A","A","A","A","A","A","R","R","R","R","R","R","R","R","R","R","R","R","R","R","R","R","R","R","R","R","R","R","R","R","R","R","R","R","R","R","R","R","R","R","R","R","R","R","R","R","R","R","R","R","R","R","R","R","R","R","R","R","R","R","R","R","R","R","R","R","R","R","R","R","R","R","R","R","R","R","R","R","R","R","R","R","R","R","R","R","R","R","R","R","R","R","R","R","R","R","R","R","R","R","R","R","R","R","R","R","R","R","R","R","R","R","R","R","R","R","R","R","R","R","R","R","R","R","R","R","R","R","R","R","R","R","R","R","R","R","R","R","R","R","R","R","R","R","R","R","R","R","R","R","R","R","R","R","R","R","R","R","R","R","R","R","R","R","R","R","R","R","R","R","Z","Z","Z","Z","Z","?","?","?","?","?","?","?","?","?","?","?","?","?","?","?","?","?","?","?","?","?","?","?","?","?","?","?","?","?","Z","Z","Z","Z","Z","Z","Z","Z","Z","Z","Z","Z","Z","Z","Z","Z","Z","Z","Z","Z","Z","Z","Z","Z","Z","Z","Z","Z","Z","Z","Z","Z","Z","Z","Z","Z","Z","Z","Z","Z","Z","Z","Z","Z","Z","Z","Z","Z","Z","Z","Z","Z","Z","Z","Z","Z","Z","Z","Z","Z","Z","Z","Z","Z","Z","Z","Z","Z","Z","Z","Z","Z","Z","Z","Z","Z","Z","Z","Z","Z","Z","Z","Z","Z","Z","Z","Z","Z","Z","Z","Z","Z","Z","Z","Z","Z","Z","Z","Z","Z","Z","Z","Z","Z","Z","Z","Z","Z","Z","Z","Z","Z","Z","Z","Z","Z","Z","Z","Z","Z","Z","Z","Z","Z","Z","Z","Z"],"t":[48,60,78,95,112,129,151,162,179,195,212,229,246,264,283,299,314,331,346,362,379,397,413,431,448,464,480,497,515,530,546,562,579,596,614,631,646,663,679,695,713,731,748,763,778,795,812,829,845,862,879,897,913,932,948,964,980,997,1014,1031,1047,1063,1081,1098,1115,1131,1145,1162,1178,1195,1212,1230,1247,1265,1281,1297,1314,1329,1346,1363,1379,1396,1413,1429,1445,1464,1482,1496,1512,1528,1545,1562,1578,1595,1612,1629,1647,1665,1681,1696,1712,1728,1745,1763,1780,1798,1815,1831,1845,1861,1879,1896,1914,1930,1946,1962,1980,1996,2013,2030,2047,2064,2079,2096,2113,2130,2147,2162,2178,2195,2212,2228,2246,2263,2281,2298,2312,2328,2346,2363,2381,2396,2413,2429,2447,2463,2480,2495,2512,2529,2546,2563,2580,2597,2614,2630,2647,2663,2679,2696,2714,2728,2746,2764,2781,2797,2813,2828,2846,2863,2881,2897,2914,2929,2945,2961,2978,2995,3013,3031,3047,3064,3079,3095,3112,3129,3147,3162,3178,3195,3211,3228,3246,3263,3280,3296,3314,3331,3347,3362,3378,3395,3412,3429,3446,3463,3481,3497,3514,3531,3545,3562,3579,3596,3612,3629,3647,3663,3678,3695,3712,3729,3747,3764,3780,3796,3814,3829,3846,3863,3881,3897,3912,3928,3945,3964,3979,3997,4013,4031,4047,4064,4081,4097,4114,4129,4145,4162,4178,4195,4212,4229,4246,4263,4280,4295,4311,4328,4345,4366,4378,4395,4412,4429,4446,4464,4480,4497,4514,4531,4547,4562,4578,4595,4611,4629,4646,4663,4680,4697,4712,4729,4746,4764,4780,4797,4813,4830,4846,4861,4878,4895,4911,4928,4945,4962,4979,4997,5015,5032,5047,5062,5079,5096,5113,5131,5148,5166,5180,5195,5212,5228,5246,5264,5280,5296,5313,5330,5347,5364,5379,5395,5412,5429,5447,5463,5479,5496,5514,5530,5546,5562,5578,5595,5613,5630,5647,5664,5681,5697,5713,5729,5746,5762,5778,5796,5813,5830,5848,5863,5879,5896,5913,5931,5946,5965,5980,5998,6013,6029,6045,6062,6078,6096,6114,6131,6148,6165,6179,6195,6212,6228,6245,6262,6279,6297,6314,6330,6345,6362,6379,6397,6413,6431,6448,6462,6479,6496,6513,6531,6547,6564,6580,6596,6612,6629,6646,6665,6681,6698,6714,6731,6746,6762,6779,6797,6812,6830,6846,6864,6881,6898,6914,6931,6947,6964,6979,6997,7014,7030,7046,7062,7078,7095,7113,7129,7145,7163,7179,7197,7211,7229,7245,7264,7281,7298,7314,7331,7345,7362,7378,7395,7412,7430,7448,7464,7479,7496,7513,7529,7546,7564,7580,7596,7613,7629,7647,7663,7680,7696,7712,7728,7745,7763,7779,7796,7814,7831,7848,7864,7881,7896,7912,7929,7947,7965,7981,7996,8013,8030,8048,8064,8077,8095,8112,8128,8145,8161,8178,8195,8211,8228,8245,8262,8279,8297,8314,8330,8348,8364,8381,8396,8412,8429,8447,8465,8481,8497,8512,8528,8546,8563,8580,8596,8612,8628,8645,8662,8679,8697,8715,8731,8746,8763,8780,8797,8812,8830,8847,8863,8880,8898,8914,8931,8946,8962,8979,8996,9012,9030,9047,9065,9081,9098,9113,9129,9147,9164,9179,9196,9212,9229,9246,9263,9280,9298,9312,9329,9346,9363,9379,9396,9412,9429,9445,9462,9480,9497,9513,9529,9547,9564,9579,9597,9614,9631,9648,9665,9679,9696,9712,9729,9745,9762,9780,9797,9814,9830,9848,9864,9881,9898,9915,9931,9946,9964,9980,9995,10012,10029,10045,10063,10080,10098,10114,10131,10146,10164,10179,10197,10212,10228,10246,10262,10279,10297,10314,10331,10348,10364,10380,10395,10413,10429,10445,10462,10479,10496,10514,10531,10546,10562,10578,10595,10612,10628,10645,10662,10679,10703,10712,10729,10746,10762,10780,10797,10815,10831,10846,10862,10879,10895,10914,10930,10949,10965,10980,10995,11012,11029,11046,11063,11080,11098,11115,11132,11148,11163,11179,11197,11212,11229,11246,11262,11279,11298,11315,11332,11345,11361,11379,11395,11413,11429,11447,11465,11481,11498,11512,11529,11547,11563,11579,11596,11613,11629,11646,11663,11680,11697,11714,11730,11745,11763,11780,11797,11814,11831,11847,11862,11879,11896,11914,11930,11948,11965,11982,11996,12014,12029,12047,12065,12081,12096,12112,12128,12146,12162,12180,12197,12213,12229,12245,12262,12279,12296,12313,12331,12347,12362,12379,12396,12412,12430,12447,12465,12481,12496,12512,12529,12546,12564,12581,12596,12612,12628,12645,12662,12679,12697,12714,12730,12745,12762,12780,12798,12815,12831,12846,12862,12879,12896,12914,12931,12947,12963,12978,12995,13012,13029,13046,13062,13079,13096,13112,13129,13145,13163,13180,13198,13213,13228,13245,13262,13279,13296,13313,13330,13347,13363,13379,13396,13412,13429,13446,13464,13482,13498,13512,13528,13545,13562,13579,13597,13614,13631,13648,13667,13679,13695,13712,13728,13746,13764,13780,13798,13814,13829,13845,13862,13879,13896,13913,13931,13948,13964,13979,13996,14013,14029,14047,14064,14079,14095,14112,14128,14146,14162,14179,14196,14214,14230,14245,14261,14278,14295,14312,14329,14346,14364,14380,14395,14412,14429,14447,14462,14479,14496,14513,14530,14546,14562,14579,14597,14615,14631,14645,14662,14678,14696,14714,14731,14746,14762,14779,14795,14813,14830,14848,14864,14881,14896,14912,14928,14945,14963,14979,14997,15015,15030,15047,15063,15079,15095,15112,15129,15148,15163,15180,15197,15214,15230,15245,15261,15279,15296,15312,15329,15346,15362,15379,15397,15415,15431,15448,15462,15478,15495,15512,15529,15546,15563,15581,15597,15613,15629,15645,15662,15679,15697,15715,15731,15746,15763,15779,15796,15811,15828,15845,15865,15881,15898,15915,15930,15947,15963,15978,15995,16012,16029,16048,16063,16081,16096,16113,16129,16146,16163,16181,16196,16212,16229,16245,16262,16278,16296,16312,16330,16347,16364,16381,16396,16412,16428,16446,16463,16479,16496,16513,16530,16547,16564,16579,16595,16612,16629,16647,16666,16680,16696,16713,16729,16747,16766,16780,16796,16812,16829,16845,16862,16880,16898,16913,16931,16949,16965,16982,16997,17012,17029,17047,17063,17081,17097,17112,17128,17145,17163,17180,17198,17215,17230,17246,17261,17279,17295,17312,17329,17347,17364,17381,17398,17415,17430,17446,17462,17479,17496,17513,17530,17547,17563,17582,17598,17613,17629,17645,17663,17680,17697,17713,17729,17746,17761,17779,17795,17812,17830,17847,17865,17880,17897,17913,17930,17946,17964,17981,17998,18015,18031,18047,18062,18079,18095,18112,18129,18149,18162,18178,18196,18212,18229,18246,18262,18280,18297,18312,18329,18346,18364,18380,18396,18413,18431,18448,18463,18480,18497,18513,18529,18546,18563,18581,18596,18612,18629,18646,18662,18679,18697,18712,18729,18746,18764,18780,18797,18815,18831,18846,18862,18879,18897,18914,18931,18947,18962,18979,18996,19013,19030,19046,19063,19081,19096,19113,19129,19146,19163,19180,19198,19214,19231,19246,19262,19278,19295,19313,19330,19348,19363,19379,19396,19414,19432,19448,19464,19479,19495,19512,19529,19547,19564,19579,19596,19612,19630,19647,19663,19679,19697,19714,19729,19745,19762,19780,19796,19814,19831,19848,19863,19879,19897,19914,19931,19947,19962,19979,19996,20013,20031,20048,20064,20080,20096,20112,20129,20146,20163,20180,20197,20214,20229,20245,20261,20279,20297,20313,20329,20346,20364,20380,20397,20413,20431,20448,20465,20480,20496,20512,20529,20547,20564,20580,20597,20612,20629,20646,20664,20681,20698,20715,20731,20747,20764,20781,20796,20812,20828,20846,20862,20879,20895,20911,20928,20945,20962,20978,20995,21012,21029,21047,21064,21082,21098,21113,21129,21146,21164,21179,21195,21212,21229,21246,21263,21279,21295,21312,21329,21346,21364,21380,21397,21414,21432,21447,21462,21478,21495,21511,21528,21545,21564,21578,21596,21612,21629,21647,21665,21680,21698,21713,21729,21745,21762,21779,21797,21814,21829,21847,21863,21880,21897,21913,21929,21946,21963,21980,21999,22015,22030,22046,22063,22079,22096,22113,22129,22146,22163,22180,22197,22213,22229,22246,22263,22281,22297,22312,22329,22347,22364,22380,22396,22412,22429,22446,22463,22480,22498,22514,22530,22545,22563,22579,22597,22614,22630,22646,22664,22679,22697,22714,22729,22747,22764,22782,22797,22812,22829,22846,22863,22880,22898,22912,22930,22948,22963,22979,22997,23014,23029,23046,23062,23079,23097,23113,23129,23146,23164,23182,23199,23215,23230,23246,23263,23279,23295,23312,23328,23346,23363,23380,23398,23415,23430,23446,23462,23479,23496,23513,23530,23548,23568],"hit":[null],"x":[-1.6054421768707483,-1.6054421768707483,-1.6054421768707483,-1.6054421768707483,-1.6054421768707483,-1.6054421768707483,-1.6054421768707483,-1.6054421768707483,-1.6054421768707483,-1.6054421768707483,-1.6054421768707483,-1.6054421768707483,-1.6054421768707483,-1.6054421768707483,-1.6054421768707483,-1.6054421768707483,-1.6054421768707483,-1.6054421768707483,-1.6054421768707483,-1.6054421768707483,-1.6054421768707483,-1.6054421768707483,-1.6054421768707483,-1.6054421768707483,-1.6054421768707483,-1.6054421768707483,-1.6054421768707483,-1.6054421768707483,-1.6054421768707483,-1.6054421768707483,-1.6054421768707483,-1.6054421768707483,-1.6054421768707483,-1.6054421768707483,-1.6054421768707483,-1.6054421768707483,-1.6054421768707483,-1.6054421768707483,-1.6054421768707483,-1.6054421768707483,-1.6054421768707483,-1.6054421768707483,-1.6054421768707483,-1.6054421768707483,-1.6054421768707483,-1.6054421768707483,-1.6054421768707483,-1.6054421768707483,-1.6054421768707483,-1.6054421768707483,-1.6054421768707483,-1.6054421768707483,-1.6054421768707483,-1.6054421768707483,-1.6054421768707483,-1.6054421768707483,-1.6054421768707483,-1.6054421768707483,-1.6054421768707483,-1.6054421768707483,-1.6054421768707483,-1.6054421768707483,-1.6054421768707483,-1.6054421768707483,-1.6054421768707483,-1.6054421768707483,-1.6054421768707483,-1.6054421768707483,-1.6054421768707483,-1.6054421768707483,-1.6054421768707483,-1.6054421768707483,-1.6054421768707483,-1.6054421768707483,-1.6054421768707483,-1.6054421768707483,-1.6054421768707483,-1.6054421768707483,-1.6054421768707483,-1.6054421768707483,-1.6054421768707483,-1.6054421768707483,-1.6054421768707483,-1.6054421768707483,-1.6054421768707483,-1.6054421768707483,-1.6054421768707483,-1.6054421768707483,-1.6054421768707483,-1.6054421768707483,-1.6054421768707483,-1.6054421768707483,-1.6054421768707483,-1.6054421768707483,-1.6054421768707483,-1.6054421768707483,-1.6054421768707483,-1.6054421768707483,-1.6054421768707483,-1.6054421768707483,-1.6054421768707483,-1.6054421768707483,-1.6054421768707483,-1.6054421768707483,-1.6054421768707483,-1.6054421768707483,-1.6054421768707483,-1.6054421768707483,-1.6054421768707483,-1.6054421768707483,-1.6054421768707483,-1.6054421768707483,-1.6054421768707483,-1.6054421768707483,-1.6054421768707483,-1.6054421768707483,-1.6054421768707483,-1.6054421768707483,-1.6054421768707483,-1.6054421768707483,-1.6054421768707483,-1.6054421768707483,-1.6054421768707483,-1.6054421768707483,-1.6054421768707483,-1.6054421768707483,-1.6054421768707483,-1.6054421768707483,-1.6054421768707483,-1.6054421768707483,-1.6054421768707483,-1.6054421768707483,-1.6054421768707483,-1.6054421768707483,-1.6054421768707483,-1.6054421768707483,-1.6054421768707483,-1.6054421768707483,-1.6054421768707483,-1.6054421768707483,-1.6054421768707483,-1.6054421768707483,-1.6054421768707483,-1.6054421768707483,-1.6054421768707483,-1.6054421768707483,-1.6054421768707483,-1.6054421768707483,-1.6054421768707483,-1.6054421768707483,-1.6054421768707483,-1.6054421768707483,-1.6054421768707483,-1.6054421768707483,-1.6054421768707483,-1.6054421768707483,-1.6054421768707483,-1.6054421768707483,-1.6054421768707483,-1.6054421768707483,-1.6054421768707483,-1.6054421768707483,-1.6054421768707483,-1.6054421768707483,-1.6054421768707483,-1.6054421768707483,-1.6054421768707483,-1.6054421768707483,-1.6054421768707483,-1.6054421768707483,-1.6054421768707483,-1.6054421768707483,-1.6054421768707483,-1.6054421768707483,-1.6054421768707483,-1.6054421768707483,-1.6054421768707483,-1.6054421768707483,-1.6054421768707483,-1.6054421768707483,-1.6054421768707483,-1.6054421768707483,-1.6054421768707483,-1.6054421768707483,-1.6054421768707483,-1.6054421768707483,-1.6054421768707483,-1.6054421768707483,-1.6054421768707483,-1.6054421768707483,-1.6054421768707483,-1.6054421768707483,-1.6054421768707483,-1.6054421768707483,-1.6054421768707483,-1.6054421768707483,-1.6054421768707483,-1.6054421768707483,-1.6054421768707483,-1.6054421768707483,-1.6054421768707483,-1.6054421768707483,-1.6054421768707483,-1.6054421768707483,-1.6054421768707483,-1.6054421768707483,-1.6054421768707483,-1.6054421768707483,-1.6054421768707483,-1.6054421768707483,-1.6054421768707483,-1.6054421768707483,-1.6054421768707483,-1.6054421768707483,-1.6054421768707483,-1.6054421768707483,-1.6054421768707483,-1.6054421768707483,-1.6054421768707483,-1.6054421768707483,-1.6054421768707483,-1.6054421768707483,-1.6054421768707483,-1.6054421768707483,-1.6054421768707483,-1.6054421768707483,-1.6054421768707483,-1.6054421768707483,-1.6054421768707483,-1.6054421768707483,-1.6054421768707483,-1.6054421768707483,-1.6054421768707483,-1.6054421768707483,-1.6054421768707483,-1.6054421768707483,-1.6054421768707483,-1.6054421768707483,-1.6054421768707483,-1.6054421768707483,-1.6054421768707483,-1.6054421768707483,-1.6054421768707483,-1.6054421768707483,-1.6054421768707483,-1.6054421768707483,-1.6054421768707483,-1.6054421768707483,-1.6054421768707483,-1.6054421768707483,-1.6054421768707483,-1.6054421768707483,-1.6054421768707483,-1.6054421768707483,-1.6054421768707483,-1.6054421768707483,-1.6054421768707483,-1.6054421768707483,-1.6054421768707483,-1.6054421768707483,-1.6054421768707483,-1.6054421768707483,-1.6054421768707483,-1.6054421768707483,-1.6054421768707483,-1.6054421768707483,-1.6054421768707483,-1.6054421768707483,-1.6054421768707483,-1.6054421768707483,-1.6054421768707483,-1.6054421768707483,-1.6054421768707483,-1.6054421768707483,-1.6054421768707483,-1.6054421768707483,-1.6054421768707483,-1.6054421768707483,-1.6054421768707483,-1.6054421768707483,-1.6054421768707483,-1.6054421768707483,-1.6054421768707483,-1.6054421768707483,-1.6054421768707483,-1.6054421768707483,-1.6054421768707483,-1.6054421768707483,0.11111118031196854,0.11111118031196854,0.11111118031196854,0.10884353741496598,0.10884353741496598,0.10884353741496598,0.10884353741496598,0.10884353741496598,0.10884353741496598,0.10884353741496598,0.10884353741496598,0.10884353741496598,0.10884353741496598,0.10884353741496598,0.10884353741496598,0.10884353741496598,0.10884353741496598,0.10884353741496598,0.10884353741496598,0.10884353741496598,0.10884353741496598,0.10884353741496598,0.10884353741496598,0.10884353741496598,0.10884353741496598,0.10884353741496598,0.10884353741496598,0.10884353741496598,0.10884353741496598,0.10884353741496598,0.10884353741496598,0.10884353741496598,0.10884353741496598,0.10884353741496598,0.10884353741496598,0.10884353741496598,0.10884353741496598,0.10884353741496598,0.10884353741496598,0.10884353741496598,0.10884353741496598,0.10884353741496598,0.10884353741496598,0.10884353741496598,0.10884353741496598,0.10884353741496598,0.10884353741496598,0.10884353741496598,0.10884353741496598,0.10884353741496598,0.10884353741496598,0.10884353741496598,0.10884353741496598,0.10884353741496598,0.10884353741496598,0.10884353741496598,0.10884353741496598,0.10884353741496598,0.10884353741496598,0.10884353741496598,0.10884353741496598,0.10884353741496598,0.10884353741496598,0.10884353741496598,0.10884353741496598,0.10884353741496598,0.10884353741496598,0.10884353741496598,0.10884353741496598,0.10884353741496598,0.10884353741496598,0.10884353741496598,0.10884353741496598,0.10884353741496598,0.10884353741496598,0.10884353741496598,0.10884353741496598,0.10884353741496598,0.10884353741496598,0.10884353741496598,0.10884353741496598,0.10884353741496598,0.10884353741496598,0.10884353741496598,0.10884353741496598,0.10884353741496598,0.10884353741496598,0.10884353741496598,0.10884353741496598,0.10884353741496598,0.10884353741496598,0.10884353741496598,0.10884353741496598,0.10884353741496598,0.10884353741496598,0.10884353741496598,0.10884353741496598,0.10884353741496598,0.10884353741496598,0.10884353741496598,0.10884353741496598,0.10884353741496598,0.10884353741496598,0.10884353741496598,0.10884353741496598,0.10884353741496598,0.10884353741496598,0.10884353741496598,0.10884353741496598,0.10884353741496598,0.10884353741496598,0.10884353741496598,0.10884353741496598,0.10884353741496598,0.10884353741496598,0.10884353741496598,0.10884353741496598,0.10884353741496598,0.10884353741496598,0.10884353741496598,0.10884353741496598,0.10884353741496598,0.10884353741496598,0.10884353741496598,0.10884353741496598,0.10884353741496598,0.10884353741496598,0.10884353741496598,0.10884353741496598,0.10884353741496598,0.10884353741496598,0.10884353741496598,0.10884353741496598,0.10884353741496598,0.10884353741496598,0.10884353741496598,0.10884353741496598,0.10884353741496598,0.10884353741496598,0.10884353741496598,0.10884353741496598,0.10884353741496598,0.10884353741496598,0.10884353741496598,0.10884353741496598,0.10884353741496598,0.10884353741496598,0.10884353741496598,0.10884353741496598,0.10884353741496598,0.10884353741496598,0.10884353741496598,0.10884353741496598,0.10884353741496598,0.10884353741496598,0.10884353741496598,0.10884353741496598,0.10884353741496598,0.10884353741496598,0.10884353741496598,0.10884353741496598,0.10884353741496598,0.10884353741496598,0.10884353741496598,0.10884353741496598,0.10884353741496598,0.10884353741496598,0.10884353741496598,0.10884353741496598,0.10884353741496598,0.10884353741496598,0.10884353741496598,0.10884353741496598,0.10884353741496598,0.10884353741496598,0.10884353741496598,0.10884353741496598,0.10884353741496598,0.10884353741496598,0.10884353741496598,0.10884353741496598,0.10884353741496598,0.10884353741496598,0.10884353741496598,0.10884353741496598,0.10884353741496598,0.10884353741496598,0.10884353741496598,0.10884353741496598,0.10884353741496598,0.10884353741496598,0.10884353741496598,0.10884353741496598,0.10884353741496598,0.5804989354140093,0.5804989354140093,0.5804989354140093,0.5804989354140093,0.5804989354140093,0.5804989354140093,0.5782312925170068,0.5782312925170068,0.5782312925170068,0.5782312925170068,0.5782312925170068,0.5782312925170068,0.5782312925170068,0.5782312925170068,0.5782312925170068,0.5782312925170068,0.5782312925170068,0.5782312925170068,0.5782312925170068,0.5782312925170068,0.5782312925170068,0.5782312925170068,0.5782312925170068,0.5782312925170068,0.5782312925170068,0.5782312925170068,0.5782312925170068,0.5782312925170068,0.5782312925170068,0.5782312925170068,0.5782312925170068,0.5782312925170068,0.5782312925170068,0.5782312925170068,0.5782312925170068,0.5782312925170068,0.5782312925170068,0.5782312925170068,0.5782312925170068,0.5782312925170068,0.5782312925170068,0.5782312925170068,0.5782312925170068,0.5782312925170068,0.5782312925170068,0.5782312925170068,0.5782312925170068,0.5782312925170068,0.5782312925170068,0.5782312925170068,0.5782312925170068,0.5782312925170068,0.5782312925170068,0.5782312925170068,0.5782312925170068,0.5782312925170068,0.5782312925170068,0.5782312925170068,0.5782312925170068,0.5782312925170068,0.5782312925170068,0.5782312925170068,0.5782312925170068,0.5782312925170068,0.5782312925170068,0.5782312925170068,0.5782312925170068,0.5782312925170068,0.5782312925170068,0.5782312925170068,0.5782312925170068,0.5782312925170068,0.5782312925170068,0.5782312925170068,0.5782312925170068,0.5782312925170068,0.5782312925170068,0.5782312925170068,0.5782312925170068,0.5782312925170068,0.5782312925170068,0.5782312925170068,0.5782312925170068,0.5782312925170068,0.5782312925170068,0.5782312925170068,0.5782312925170068,0.5782312925170068,0.5782312925170068,0.5782312925170068,0.5782312925170068,0.5782312925170068,0.5782312925170068,0.5782312925170068,0.5782312925170068,0.5782312925170068,0.5782312925170068,0.5782312925170068,0.5782312925170068,0.5782312925170068,0.5782312925170068,0.5782312925170068,0.5782312925170068,0.5782312925170068,0.5782312925170068,0.5782312925170068,0.5782312925170068,0.5782312925170068,0.5782312925170068,0.5782312925170068,0.5782312925170068,0.5782312925170068,0.5782312925170068,0.5782312925170068,0.5782312925170068,0.5782312925170068,0.5782312925170068,0.5782312925170068,0.5782312925170068,0.5782312925170068,0.5782312925170068,0.5782312925170068,0.5782312925170068,0.5782312925170068,0.5782312925170068,0.5782312925170068,0.5782312925170068,0.5782312925170068,0.5782312925170068,0.5782312925170068,0.5782312925170068,0.5782312925170068,0.5782312925170068,0.5782312925170068,0.5782312925170068,0.5782312925170068,0.5782312925170068,0.5782312925170068,0.5782312925170068,0.5782312925170068,0.5782312925170068,0.5782312925170068,0.5782312925170068,0.5782312925170068,0.5782312925170068,0.5782312925170068,0.5782312925170068,0.5782312925170068,0.5782312925170068,0.5782312925170068,0.5782312925170068,0.5782312925170068,0.410430908203125,0.410430908203125,0.410430908203125,0.410430908203125,0.410430908203125,0.40816326530612246,0.40816326530612246,0.40816326530612246,0.40816326530612246,0.40816326530612246,0.40816326530612246,0.40816326530612246,0.40816326530612246,0.40816326530612246,0.40816326530612246,0.40816326530612246,0.40816326530612246,0.40816326530612246,0.40816326530612246,0.40816326530612246,0.40816326530612246,0.40816326530612246,0.40816326530612246,0.40816326530612246,0.40816326530612246,0.40816326530612246,0.40816326530612246,0.40816326530612246,0.40816326530612246,0.40816326530612246,0.40816326530612246,0.40816326530612246,0.40816326530612246,0.40816326530612246,0.40816326530612246,0.40816326530612246,0.40816326530612246,0.40816326530612246,0.40816326530612246,0.40816326530612246,0.40816326530612246,0.40816326530612246,0.40816326530612246,0.40816326530612246,0.40816326530612246,0.40816326530612246,0.40816326530612246,0.40816326530612246,0.40816326530612246,0.40816326530612246,0.40816326530612246,0.40816326530612246,0.40816326530612246,0.40816326530612246,0.40816326530612246,0.40816326530612246,0.40816326530612246,0.40816326530612246,0.40816326530612246,0.40816326530612246,0.40816326530612246,0.40816326530612246,0.40816326530612246,0.40816326530612246,0.40816326530612246,0.40816326530612246,0.40816326530612246,0.40816326530612246,0.40816326530612246,0.40816326530612246,0.40816326530612246,0.40816326530612246,0.40816326530612246,0.40816326530612246,0.40816326530612246,0.40816326530612246,0.40816326530612246,0.40816326530612246,0.40816326530612246,0.40816326530612246,0.40816326530612246,0.40816326530612246,0.40816326530612246,0.40816326530612246,0.40816326530612246,0.40816326530612246,0.40816326530612246,0.40816326530612246,0.40816326530612246,0.40816326530612246,0.40816326530612246,0.40816326530612246,0.40816326530612246,0.40816326530612246,0.40816326530612246,0.40816326530612246,0.40816326530612246,0.40816326530612246,0.40816326530612246,0.40816326530612246,0.40816326530612246,0.40816326530612246,0.40816326530612246,0.40816326530612246,0.40816326530612246,0.40816326530612246,0.40816326530612246,0.40816326530612246,0.40816326530612246,0.40816326530612246,0.40816326530612246,0.40816326530612246,0.40816326530612246,0.40816326530612246,0.40816326530612246,0.40816326530612246,0.40816326530612246,0.40816326530612246,0.40816326530612246,0.40816326530612246,0.40816326530612246,0.40816326530612246,0.40816326530612246,0.40816326530612246,0.40816326530612246,0.40816326530612246,0.40816326530612246,0.40816326530612246,0.40816326530612246,0.40816326530612246,0.40816326530612246,0.40816326530612246,0.40816326530612246,0.40816326530612246,0.40816326530612246,0.40816326530612246,0.40816326530612246,0.40816326530612246,0.40816326530612246,0.40816326530612246,0.40816326530612246,0.40816326530612246,0.40816326530612246,0.40816326530612246,0.40816326530612246,0.40816326530612246,0.40816326530612246,0.40816326530612246,0.40816326530612246,0.40816326530612246,0.40816326530612246,0.40816326530612246,0.40816326530612246,0.40816326530612246,0.40816326530612246,0.40816326530612246,0.40816326530612246,0.40816326530612246,0.40816326530612246,0.40816326530612246,0.40816326530612246,0.40816326530612246,0.40816326530612246,0.40816326530612246,0.40816326530612246,0.40816326530612246,0.40816326530612246,0.40816326530612246,0.40816326530612246,0.40816326530612246,0.40816326530612246,0.40816326530612246,0.40816326530612246,0.40816326530612246,0.40816326530612246,0.40816326530612246,0.40816326530612246,0.40816326530612246,0.40816326530612246,0.40816326530612246,0.40816326530612246,0.40816326530612246,0.40816326530612246,0.40816326530612246,0.40816326530612246,0.40816326530612246,0.40816326530612246,0.40816326530612246,0.40816326530612246,0.40816326530612246,0.40816326530612246,0.40816326530612246,0.40816326530612246,0.40816326530612246,0.40816326530612246,0.40816326530612246,0.40816326530612246,0.40816326530612246,0.40816326530612246,0.40816326530612246,0.40816326530612246,0.40816326530612246,0.40816326530612246,0.40816326530612246,0.40816326530612246,0.40816326530612246,0.40816326530612246,0.40816326530612246,0.40816326530612246,0.40816326530612246,0.40816326530612246,0.40816326530612246,0.40816326530612246,0.40816326530612246,0.40816326530612246,0.40816326530612246,0.40816326530612246,0.40816326530612246,0.40816326530612246,0.40816326530612246,0.40816326530612246,0.40816326530612246,0.40816326530612246,0.40816326530612246,0.40816326530612246,0.40816326530612246,0.40816326530612246,0.40816326530612246,0.40816326530612246,0.40816326530612246,0.40816326530612246,0.40816326530612246,0.40816326530612246,0.40816326530612246,0.40816326530612246,0.40816326530612246,0.40816326530612246,0.40816326530612246,0.40816326530612246,0.40816326530612246,0.40816326530612246,0.40816326530612246,0.40816326530612246,0.40816326530612246,0.40816326530612246,0.40816326530612246,0.40816326530612246,0.40816326530612246,0.40816326530612246,0.40816326530612246,0.40816326530612246,0.40816326530612246,0.40816326530612246,0.40816326530612246,0.40816326530612246,0.40816326530612246,0.40816326530612246,0.40816326530612246,0.40816326530612246,0.40816326530612246,0.40816326530612246,0.40816326530612246,0.40816326530612246,0.40816326530612246,0.40816326530612246,0.40816326530612246,0.40816326530612246,0.40816326530612246,0.40816326530612246,0.40816326530612246,0.40816326530612246,0.40816326530612246,0.40816326530612246,0.40816326530612246,0.40816326530612246,0.40816326530612246,0.40816326530612246,0.40816326530612246,0.40816326530612246,0.40816326530612246,0.40816326530612246,0.40816326530612246,0.40816326530612246,0.40816326530612246,0.40816326530612246,0.40816326530612246,0.40816326530612246,0.40816326530612246,0.40816326530612246,0.40816326530612246,0.40816326530612246,0.40816326530612246,0.40816326530612246,0.40816326530612246,0.40816326530612246,0.40816326530612246,0.40816326530612246,0.40816326530612246,0.40816326530612246,0.40816326530612246,0.40816326530612246,0.40816326530612246,0.40816326530612246,0.40816326530612246,0.40816326530612246,0.40816326530612246,0.40816326530612246,0.40816326530612246,0.40816326530612246,0.40816326530612246,0.40816326530612246,0.40816326530612246,-0.027210884353741496,-0.027210884353741496,-0.027210884353741496,-0.027210884353741496,-0.027210884353741496,-0.027210884353741496,-0.027210884353741496,-0.027210884353741496,-0.027210884353741496,-0.027210884353741496,-0.027210884353741496,-0.027210884353741496,-0.027210884353741496,-0.027210884353741496,-0.027210884353741496,-0.027210884353741496,-0.027210884353741496,-0.027210884353741496,-0.027210884353741496,-0.027210884353741496,-0.027210884353741496,-0.027210884353741496,-0.027210884353741496,-0.027210884353741496,-0.027210884353741496,-0.027210884353741496,-0.027210884353741496,-0.027210884353741496,-0.027210884353741496,-0.027210884353741496,-0.027210884353741496,-0.027210884353741496,-0.027210884353741496,-0.027210884353741496,-0.027210884353741496,-0.027210884353741496,-0.027210884353741496,-0.027210884353741496,-0.027210884353741496,-0.027210884353741496,-0.027210884353741496,-0.027210884353741496,-0.027210884353741496,-0.027210884353741496,-0.027210884353741496,-0.027210884353741496,-0.027210884353741496,-0.027210884353741496,-0.027210884353741496,-0.027210884353741496,-0.027210884353741496,-0.027210884353741496,-0.027210884353741496,-0.027210884353741496,-0.027210884353741496,-0.027210884353741496,-0.027210884353741496,-0.027210884353741496,-0.027210884353741496,-0.027210884353741496,-0.027210884353741496,-0.027210884353741496,-0.027210884353741496,-0.027210884353741496,-0.027210884353741496,-0.027210884353741496,-0.027210884353741496,-0.027210884353741496,-0.027210884353741496,-0.027210884353741496,-0.027210884353741496,-0.027210884353741496,-0.027210884353741496,-0.027210884353741496,-0.027210884353741496,-0.027210884353741496,-0.027210884353741496,-0.027210884353741496,-0.027210884353741496,-0.027210884353741496,-0.027210884353741496,-0.027210884353741496,-0.027210884353741496,-0.027210884353741496,-0.027210884353741496,-0.027210884353741496,-0.027210884353741496,-0.027210884353741496,-0.027210884353741496,-0.027210884353741496,-0.027210884353741496,-0.027210884353741496,-0.027210884353741496,-0.027210884353741496,-0.027210884353741496,-0.027210884353741496,-0.027210884353741496,-0.027210884353741496,-0.027210884353741496,-0.027210884353741496,-0.027210884353741496,-0.027210884353741496,-0.027210884353741496,-0.027210884353741496,-0.027210884353741496,-0.027210884353741496,-0.027210884353741496,-0.027210884353741496,-0.027210884353741496,-0.027210884353741496,-0.027210884353741496,-0.027210884353741496,-0.027210884353741496,-0.027210884353741496,-0.027210884353741496,-0.027210884353741496,-0.027210884353741496,-0.027210884353741496,-0.027210884353741496,-0.027210884353741496,-0.027210884353741496,-0.027210884353741496,-0.027210884353741496,-0.027210884353741496,-0.027210884353741496,-0.027210884353741496,-0.027210884353741496,-0.027210884353741496,-0.027210884353741496,-0.027210884353741496,-0.027210884353741496,-0.027210884353741496,-0.027210884353741496,-0.027210884353741496,-0.027210884353741496,-0.027210884353741496,-0.027210884353741496,-0.027210884353741496,-0.027210884353741496,-0.027210884353741496,-0.027210884353741496,1.1156462585034013,1.1156462585034013,1.1156462585034013,1.1156462585034013,1.1156462585034013,1.1156462585034013,1.1156462585034013,1.1156462585034013,1.1156462585034013,1.1156462585034013,1.1156462585034013,1.1156462585034013,1.1156462585034013,1.1156462585034013,1.1156462585034013,1.1156462585034013,1.1156462585034013,1.1156462585034013,1.1156462585034013,1.1156462585034013,1.1156462585034013,1.1156462585034013,1.1156462585034013,1.1156462585034013,1.1156462585034013,1.1156462585034013,1.1156462585034013,1.1156462585034013,1.1156462585034013,1.1156462585034013,1.1156462585034013,1.1156462585034013,1.1156462585034013,1.1156462585034013,1.1156462585034013,1.1156462585034013,1.1156462585034013,1.1156462585034013,1.1156462585034013,1.1156462585034013,1.1156462585034013,1.1156462585034013,1.1156462585034013,1.1156462585034013,1.1156462585034013,1.1156462585034013,1.1156462585034013,1.1156462585034013,1.1156462585034013,1.1156462585034013,1.1156462585034013,1.1156462585034013,1.1156462585034013,1.1156462585034013,1.1156462585034013,1.1156462585034013,1.1156462585034013,1.1156462585034013,1.1156462585034013,1.1156462585034013,1.1156462585034013,1.1156462585034013,1.1156462585034013,1.1156462585034013,1.1156462585034013,1.1156462585034013,1.1156462585034013,1.1156462585034013,1.1156462585034013,1.1156462585034013,1.1156462585034013,1.1156462585034013,1.1156462585034013,1.1156462585034013,1.1156462585034013,1.1156462585034013,1.1156462585034013,1.1156462585034013,1.1156462585034013,1.1156462585034013,1.1156462585034013,1.1156462585034013,1.1156462585034013,1.1156462585034013,1.1156462585034013,1.1156462585034013,1.1156462585034013,1.1156462585034013,1.1156462585034013,1.1156462585034013,1.1156462585034013,1.1156462585034013,1.1156462585034013,1.1156462585034013,1.1156462585034013,1.1156462585034013,1.1156462585034013,1.1156462585034013,1.1156462585034013,1.1156462585034013,1.1156462585034013,1.1156462585034013,1.1156462585034013,1.1156462585034013,1.1156462585034013,1.1156462585034013,1.1156462585034013,1.1156462585034013,1.1156462585034013,1.1156462585034013,1.1156462585034013,1.1156462585034013,1.1156462585034013,1.1156462585034013,1.1156462585034013,1.1156462585034013,1.1156462585034013,1.1156462585034013,1.1156462585034013,1.1156462585034013,1.1156462585034013,1.1156462585034013,1.1156462585034013,1.1156462585034013,1.1156462585034013,1.1156462585034013,1.1156462585034013,1.1156462585034013,1.1156462585034013,1.1156462585034013,1.1156462585034013,1.1156462585034013,1.1156462585034013,1.1156462585034013,1.1156462585034013,1.1156462585034013,1.1156462585034013,1.1156462585034013,1.1156462585034013,1.1156462585034013,1.1156462585034013,1.1156462585034013,1.1156462585034013,1.1156462585034013,1.1156462585034013,1.1156462585034013,1.1156462585034013,1.1156462585034013,1.1156462585034013,1.1156462585034013,1.1156462585034013,1.1156462585034013,1.1156462585034013,1.1156462585034013,1.1156462585034013,1.1156462585034013,1.1156462585034013,1.1156462585034013,1.1156462585034013,1.1156462585034013,1.1156462585034013,1.1156462585034013,1.1156462585034013,1.1156462585034013,0.9501135170865221,0.9501135170865221,0.9501135170865221,0.9501135170865221,0.9501135170865221,0.9489795918367347,0.9489795918367347,0.9489795918367347,0.9489795918367347,0.9489795918367347,0.9489795918367347,0.9489795918367347,0.9489795918367347,0.9489795918367347,0.9489795918367347,0.9489795918367347,0.9489795918367347,0.9489795918367347,0.9489795918367347,0.9489795918367347,0.9489795918367347,0.9489795918367347,0.9489795918367347,0.9489795918367347,0.9489795918367347,0.9489795918367347,0.9489795918367347,0.9489795918367347,0.9489795918367347,0.9489795918367347,0.9489795918367347,0.9489795918367347,0.9489795918367347,0.9489795918367347,0.9773244014402636,0.9773244014402636,0.9773244014402636,0.9773244014402636,0.9773244014402636,0.9773244014402636,0.9761904761904762,0.9761904761904762,0.9761904761904762,0.9761904761904762,0.9761904761904762,0.9761904761904762,0.9761904761904762,0.9761904761904762,0.9761904761904762,0.9761904761904762,0.9761904761904762,0.9761904761904762,0.9761904761904762,0.9761904761904762,0.9761904761904762,0.9761904761904762,0.9761904761904762,0.9761904761904762,0.9761904761904762,0.9761904761904762,0.9761904761904762,0.9761904761904762,0.9761904761904762,0.9761904761904762,0.9761904761904762,0.9761904761904762,0.9761904761904762,0.9761904761904762,0.9761904761904762,0.9761904761904762,0.9761904761904762,0.9761904761904762,0.9761904761904762,0.9761904761904762,0.9761904761904762,0.9761904761904762,0.9761904761904762,0.9761904761904762,0.9761904761904762,0.9761904761904762,0.9761904761904762,0.9761904761904762,0.9761904761904762,0.9761904761904762,0.9761904761904762,0.9761904761904762,0.9761904761904762,0.9761904761904762,0.9761904761904762,0.9761904761904762,0.9761904761904762,0.9761904761904762,0.9761904761904762,0.9761904761904762,0.9761904761904762,0.9761904761904762,0.9761904761904762,0.9761904761904762,0.9761904761904762,0.9761904761904762,0.9761904761904762,0.9761904761904762,0.9761904761904762,0.9761904761904762,0.9761904761904762,0.9761904761904762,0.9761904761904762,0.9761904761904762,0.9761904761904762,0.9761904761904762,0.9761904761904762,0.9761904761904762,0.9761904761904762,0.9761904761904762,0.9761904761904762,0.9761904761904762,0.9761904761904762,0.9761904761904762,0.9761904761904762,0.9761904761904762,0.9761904761904762,0.9761904761904762,0.9761904761904762,0.9761904761904762,0.9761904761904762,0.9761904761904762,0.9761904761904762,0.9761904761904762,0.9761904761904762,0.9761904761904762,0.9761904761904762,0.9761904761904762,0.9761904761904762,0.9761904761904762,0.9761904761904762,0.9761904761904762,0.9761904761904762,0.9761904761904762,0.9761904761904762,0.9761904761904762,0.9761904761904762,0.9761904761904762,0.9761904761904762,0.9761904761904762,0.9761904761904762,0.9761904761904762,0.9761904761904762,0.9761904761904762,0.9761904761904762,0.9761904761904762,0.9761904761904762,0.9761904761904762,0.9761904761904762,0.9761904761904762,0.9761904761904762,0.9761904761904762,0.9761904761904762,0.9761904761904762,0.9761904761904762,0.9761904761904762,0.9761904761904762],"y":[-2.857142857142857,-2.857142857142857,-2.857142857142857,-2.857142857142857,-2.857142857142857,-2.857142857142857,-2.857142857142857,-2.857142857142857,-2.857142857142857,-2.857142857142857,-2.857142857142857,-2.857142857142857,-2.857142857142857,-2.857142857142857,-2.857142857142857,-2.857142857142857,-2.857142857142857,-2.857142857142857,-2.857142857142857,-2.857142857142857,-2.857142857142857,-2.857142857142857,-2.857142857142857,-2.857142857142857,-2.857142857142857,-2.857142857142857,-2.857142857142857,-2.857142857142857,-2.857142857142857,-2.857142857142857,-2.857142857142857,-2.857142857142857,-2.857142857142857,-2.857142857142857,-2.857142857142857,-2.857142857142857,-2.857142857142857,-2.857142857142857,-2.857142857142857,-2.857142857142857,-2.857142857142857,-2.857142857142857,-2.857142857142857,-2.857142857142857,-2.857142857142857,-2.857142857142857,-2.857142857142857,-2.857142857142857,-2.857142857142857,-2.857142857142857,-2.857142857142857,-2.857142857142857,-2.857142857142857,-2.857142857142857,-2.857142857142857,-2.857142857142857,-2.857142857142857,-2.857142857142857,-2.857142857142857,-2.857142857142857,-2.857142857142857,-2.857142857142857,-2.857142857142857,-2.857142857142857,-2.857142857142857,-2.857142857142857,-2.857142857142857,-2.857142857142857,-2.857142857142857,-2.857142857142857,-2.857142857142857,-2.857142857142857,-2.857142857142857,-2.857142857142857,-2.857142857142857,-2.857142857142857,-2.857142857142857,-2.857142857142857,-2.857142857142857,-2.857142857142857,-2.857142857142857,-2.857142857142857,-2.857142857142857,-2.857142857142857,-2.857142857142857,-2.857142857142857,-2.857142857142857,-2.857142857142857,-2.857142857142857,-2.857142857142857,-2.857142857142857,-2.857142857142857,-2.857142857142857,-2.857142857142857,-2.857142857142857,-2.857142857142857,-2.857142857142857,-2.857142857142857,-2.857142857142857,-2.857142857142857,-2.857142857142857,-2.857142857142857,-2.857142857142857,-2.857142857142857,-2.857142857142857,-2.857142857142857,-2.857142857142857,-2.857142857142857,-2.857142857142857,-2.857142857142857,-2.857142857142857,-2.857142857142857,-2.857142857142857,-2.857142857142857,-2.857142857142857,-2.857142857142857,-2.857142857142857,-2.857142857142857,-2.857142857142857,-2.857142857142857,-2.857142857142857,-2.857142857142857,-2.857142857142857,-2.857142857142857,-2.857142857142857,-2.857142857142857,-2.857142857142857,-2.857142857142857,-2.857142857142857,-2.857142857142857,-2.857142857142857,-2.857142857142857,-2.857142857142857,-2.857142857142857,-2.857142857142857,-2.857142857142857,-2.857142857142857,-2.857142857142857,-2.857142857142857,-2.857142857142857,-2.857142857142857,-2.857142857142857,-2.857142857142857,-2.857142857142857,-2.857142857142857,-2.857142857142857,-2.857142857142857,-2.857142857142857,-2.857142857142857,-2.857142857142857,-2.857142857142857,-2.857142857142857,-2.857142857142857,-2.857142857142857,-2.857142857142857,-2.857142857142857,-2.857142857142857,-2.857142857142857,-2.857142857142857,-2.857142857142857,-2.857142857142857,-2.857142857142857,-2.857142857142857,-2.857142857142857,-2.857142857142857,-2.857142857142857,-2.857142857142857,-2.857142857142857,-2.857142857142857,-2.857142857142857,-2.857142857142857,-2.857142857142857,-2.857142857142857,-2.857142857142857,-2.857142857142857,-2.857142857142857,-2.857142857142857,-2.857142857142857,-2.857142857142857,-2.857142857142857,-2.857142857142857,-2.857142857142857,-2.857142857142857,-2.857142857142857,-2.857142857142857,-2.857142857142857,-2.857142857142857,-2.857142857142857,-2.857142857142857,-2.857142857142857,-2.857142857142857,-2.857142857142857,-2.857142857142857,-2.857142857142857,-2.857142857142857,-2.857142857142857,-2.857142857142857,-2.857142857142857,-2.857142857142857,-2.857142857142857,-2.857142857142857,-2.857142857142857,-2.857142857142857,-2.857142857142857,-2.857142857142857,-2.857142857142857,-2.857142857142857,-2.857142857142857,-2.857142857142857,-2.857142857142857,-2.857142857142857,-2.857142857142857,-2.857142857142857,-2.857142857142857,-2.857142857142857,-2.857142857142857,-2.857142857142857,-2.857142857142857,-2.857142857142857,-2.857142857142857,-2.857142857142857,-2.857142857142857,-2.857142857142857,-2.857142857142857,-2.857142857142857,-2.857142857142857,-2.857142857142857,-2.857142857142857,-2.857142857142857,-2.857142857142857,-2.857142857142857,-2.857142857142857,-2.857142857142857,-2.857142857142857,-2.857142857142857,-2.857142857142857,-2.857142857142857,-2.857142857142857,-2.857142857142857,-2.857142857142857,-2.857142857142857,-2.857142857142857,-2.857142857142857,-2.857142857142857,-2.857142857142857,-2.857142857142857,-2.857142857142857,-2.857142857142857,-2.857142857142857,-2.857142857142857,-2.857142857142857,-2.857142857142857,-2.857142857142857,-2.857142857142857,-2.857142857142857,-2.857142857142857,-2.857142857142857,-2.857142857142857,-2.857142857142857,-2.857142857142857,-2.857142857142857,-2.857142857142857,-2.857142857142857,-2.857142857142857,-2.857142857142857,-2.857142857142857,-2.857142857142857,-2.857142857142857,-2.857142857142857,-2.857142857142857,-2.857142857142857,-2.857142857142857,-2.857142857142857,-2.857142857142857,-2.857142857142857,-2.857142857142857,-2.857142857142857,-2.857142857142857,-2.857142857142857,-2.857142857142857,-2.857142857142857,-2.857142857142857,-2.857142857142857,-2.857142857142857,-2.857142857142857,-2.857142857142857,-2.857142857142857,-2.857142857142857,0.001587495349702381,0.001587495349702381,0.001587495349702381,-0.004761904761904762,-0.004761904761904762,-0.004761904761904762,-0.004761904761904762,-0.004761904761904762,-0.004761904761904762,-0.004761904761904762,-0.004761904761904762,-0.004761904761904762,-0.004761904761904762,-0.004761904761904762,-0.004761904761904762,-0.004761904761904762,-0.004761904761904762,-0.004761904761904762,-0.004761904761904762,-0.004761904761904762,-0.004761904761904762,-0.004761904761904762,-0.004761904761904762,-0.004761904761904762,-0.004761904761904762,-0.004761904761904762,-0.004761904761904762,-0.004761904761904762,-0.004761904761904762,-0.004761904761904762,-0.004761904761904762,-0.004761904761904762,-0.004761904761904762,-0.004761904761904762,-0.004761904761904762,-0.004761904761904762,-0.004761904761904762,-0.004761904761904762,-0.004761904761904762,-0.004761904761904762,-0.004761904761904762,-0.004761904761904762,-0.004761904761904762,-0.004761904761904762,-0.004761904761904762,-0.004761904761904762,-0.004761904761904762,-0.004761904761904762,-0.004761904761904762,-0.004761904761904762,-0.004761904761904762,-0.004761904761904762,-0.004761904761904762,-0.004761904761904762,-0.004761904761904762,-0.004761904761904762,-0.004761904761904762,-0.004761904761904762,-0.004761904761904762,-0.004761904761904762,-0.004761904761904762,-0.004761904761904762,-0.004761904761904762,-0.004761904761904762,-0.004761904761904762,-0.004761904761904762,-0.004761904761904762,-0.004761904761904762,-0.004761904761904762,-0.004761904761904762,-0.004761904761904762,-0.004761904761904762,-0.004761904761904762,-0.004761904761904762,-0.004761904761904762,-0.004761904761904762,-0.004761904761904762,-0.004761904761904762,-0.004761904761904762,-0.004761904761904762,-0.004761904761904762,-0.004761904761904762,-0.004761904761904762,-0.004761904761904762,-0.004761904761904762,-0.004761904761904762,-0.004761904761904762,-0.004761904761904762,-0.004761904761904762,-0.004761904761904762,-0.004761904761904762,-0.004761904761904762,-0.004761904761904762,-0.004761904761904762,-0.004761904761904762,-0.004761904761904762,-0.004761904761904762,-0.004761904761904762,-0.004761904761904762,-0.004761904761904762,-0.004761904761904762,-0.004761904761904762,-0.004761904761904762,-0.004761904761904762,-0.004761904761904762,-0.004761904761904762,-0.004761904761904762,-0.004761904761904762,-0.004761904761904762,-0.004761904761904762,-0.004761904761904762,-0.004761904761904762,-0.004761904761904762,-0.004761904761904762,-0.004761904761904762,-0.004761904761904762,-0.004761904761904762,-0.004761904761904762,-0.004761904761904762,-0.004761904761904762,-0.004761904761904762,-0.004761904761904762,-0.004761904761904762,-0.004761904761904762,-0.004761904761904762,-0.004761904761904762,-0.004761904761904762,-0.004761904761904762,-0.004761904761904762,-0.004761904761904762,-0.004761904761904762,-0.004761904761904762,-0.004761904761904762,-0.004761904761904762,-0.004761904761904762,-0.004761904761904762,-0.004761904761904762,-0.004761904761904762,-0.004761904761904762,-0.004761904761904762,-0.004761904761904762,-0.004761904761904762,-0.004761904761904762,-0.004761904761904762,-0.004761904761904762,-0.004761904761904762,-0.004761904761904762,-0.004761904761904762,-0.004761904761904762,-0.004761904761904762,-0.004761904761904762,-0.004761904761904762,-0.004761904761904762,-0.004761904761904762,-0.004761904761904762,-0.004761904761904762,-0.004761904761904762,-0.004761904761904762,-0.004761904761904762,-0.004761904761904762,-0.004761904761904762,-0.004761904761904762,-0.004761904761904762,-0.004761904761904762,-0.004761904761904762,-0.004761904761904762,-0.004761904761904762,-0.004761904761904762,-0.004761904761904762,-0.004761904761904762,-0.004761904761904762,-0.004761904761904762,-0.004761904761904762,-0.004761904761904762,-0.004761904761904762,-0.004761904761904762,-0.004761904761904762,-0.004761904761904762,-0.004761904761904762,-0.004761904761904762,-0.004761904761904762,-0.004761904761904762,-0.004761904761904762,-0.004761904761904762,-0.004761904761904762,-0.004761904761904762,-0.004761904761904762,-0.004761904761904762,-0.004761904761904762,-0.004761904761904762,-0.004761904761904762,-0.004761904761904762,-0.004761904761904762,-0.004761904761904762,-0.11269821893601191,-0.11269821893601191,-0.11269821893601191,-0.11269821893601191,-0.11269821893601191,-0.11269821893601191,-0.11904761904761904,-0.11904761904761904,-0.11904761904761904,-0.11904761904761904,-0.11904761904761904,-0.11904761904761904,-0.11904761904761904,-0.11904761904761904,-0.11904761904761904,-0.11904761904761904,-0.11904761904761904,-0.11904761904761904,-0.11904761904761904,-0.11904761904761904,-0.11904761904761904,-0.11904761904761904,-0.11904761904761904,-0.11904761904761904,-0.11904761904761904,-0.11904761904761904,-0.11904761904761904,-0.11904761904761904,-0.11904761904761904,-0.11904761904761904,-0.11904761904761904,-0.11904761904761904,-0.11904761904761904,-0.11904761904761904,-0.11904761904761904,-0.11904761904761904,-0.11904761904761904,-0.11904761904761904,-0.11904761904761904,-0.11904761904761904,-0.11904761904761904,-0.11904761904761904,-0.11904761904761904,-0.11904761904761904,-0.11904761904761904,-0.11904761904761904,-0.11904761904761904,-0.11904761904761904,-0.11904761904761904,-0.11904761904761904,-0.11904761904761904,-0.11904761904761904,-0.11904761904761904,-0.11904761904761904,-0.11904761904761904,-0.11904761904761904,-0.11904761904761904,-0.11904761904761904,-0.11904761904761904,-0.11904761904761904,-0.11904761904761904,-0.11904761904761904,-0.11904761904761904,-0.11904761904761904,-0.11904761904761904,-0.11904761904761904,-0.11904761904761904,-0.11904761904761904,-0.11904761904761904,-0.11904761904761904,-0.11904761904761904,-0.11904761904761904,-0.11904761904761904,-0.11904761904761904,-0.11904761904761904,-0.11904761904761904,-0.11904761904761904,-0.11904761904761904,-0.11904761904761904,-0.11904761904761904,-0.11904761904761904,-0.11904761904761904,-0.11904761904761904,-0.11904761904761904,-0.11904761904761904,-0.11904761904761904,-0.11904761904761904,-0.11904761904761904,-0.11904761904761904,-0.11904761904761904,-0.11904761904761904,-0.11904761904761904,-0.11904761904761904,-0.11904761904761904,-0.11904761904761904,-0.11904761904761904,-0.11904761904761904,-0.11904761904761904,-0.11904761904761904,-0.11904761904761904,-0.11904761904761904,-0.11904761904761904,-0.11904761904761904,-0.11904761904761904,-0.11904761904761904,-0.11904761904761904,-0.11904761904761904,-0.11904761904761904,-0.11904761904761904,-0.11904761904761904,-0.11904761904761904,-0.11904761904761904,-0.11904761904761904,-0.11904761904761904,-0.11904761904761904,-0.11904761904761904,-0.11904761904761904,-0.11904761904761904,-0.11904761904761904,-0.11904761904761904,-0.11904761904761904,-0.11904761904761904,-0.11904761904761904,-0.11904761904761904,-0.11904761904761904,-0.11904761904761904,-0.11904761904761904,-0.11904761904761904,-0.11904761904761904,-0.11904761904761904,-0.11904761904761904,-0.11904761904761904,-0.11904761904761904,-0.11904761904761904,-0.11904761904761904,-0.11904761904761904,-0.11904761904761904,-0.11904761904761904,-0.11904761904761904,-0.11904761904761904,-0.11904761904761904,-0.11904761904761904,-0.11904761904761904,-0.11904761904761904,-0.11904761904761904,-0.11904761904761904,-0.11904761904761904,-0.11904761904761904,-0.11904761904761904,-0.11904761904761904,-0.11904761904761904,-0.11904761904761904,-0.04920625232514881,-0.04920625232514881,-0.04920625232514881,-0.04920625232514881,-0.04920625232514881,-0.05238095238095238,-0.05238095238095238,-0.05238095238095238,-0.05238095238095238,-0.05238095238095238,-0.05238095238095238,-0.05238095238095238,-0.05238095238095238,-0.05238095238095238,-0.05238095238095238,-0.05238095238095238,-0.05238095238095238,-0.05238095238095238,-0.05238095238095238,-0.05238095238095238,-0.05238095238095238,-0.05238095238095238,-0.05238095238095238,-0.05238095238095238,-0.05238095238095238,-0.05238095238095238,-0.05238095238095238,-0.05238095238095238,-0.05238095238095238,-0.05238095238095238,-0.05238095238095238,-0.05238095238095238,-0.05238095238095238,-0.05238095238095238,-0.05238095238095238,-0.05238095238095238,-0.05238095238095238,-0.05238095238095238,-0.05238095238095238,-0.05238095238095238,-0.05238095238095238,-0.05238095238095238,-0.05238095238095238,-0.05238095238095238,-0.05238095238095238,-0.05238095238095238,-0.05238095238095238,-0.05238095238095238,-0.05238095238095238,-0.05238095238095238,-0.05238095238095238,-0.05238095238095238,-0.05238095238095238,-0.05238095238095238,-0.05238095238095238,-0.05238095238095238,-0.05238095238095238,-0.05238095238095238,-0.05238095238095238,-0.05238095238095238,-0.05238095238095238,-0.05238095238095238,-0.05238095238095238,-0.05238095238095238,-0.05238095238095238,-0.05238095238095238,-0.05238095238095238,-0.05238095238095238,-0.05238095238095238,-0.05238095238095238,-0.05238095238095238,-0.05238095238095238,-0.05238095238095238,-0.05238095238095238,-0.05238095238095238,-0.05238095238095238,-0.05238095238095238,-0.05238095238095238,-0.05238095238095238,-0.05238095238095238,-0.05238095238095238,-0.05238095238095238,-0.05238095238095238,-0.05238095238095238,-0.05238095238095238,-0.05238095238095238,-0.05238095238095238,-0.05238095238095238,-0.05238095238095238,-0.05238095238095238,-0.05238095238095238,-0.05238095238095238,-0.05238095238095238,-0.05238095238095238,-0.05238095238095238,-0.05238095238095238,-0.05238095238095238,-0.05238095238095238,-0.05238095238095238,-0.05238095238095238,-0.05238095238095238,-0.05238095238095238,-0.05238095238095238,-0.05238095238095238,-0.05238095238095238,-0.05238095238095238,-0.05238095238095238,-0.05238095238095238,-0.05238095238095238,-0.05238095238095238,-0.05238095238095238,-0.05238095238095238,-0.05238095238095238,-0.05238095238095238,-0.05238095238095238,-0.05238095238095238,-0.05238095238095238,-0.05238095238095238,-0.05238095238095238,-0.05238095238095238,-0.05238095238095238,-0.05238095238095238,-0.05238095238095238,-0.05238095238095238,-0.05238095238095238,-0.05238095238095238,-0.05238095238095238,-0.05238095238095238,-0.05238095238095238,-0.05238095238095238,-0.05238095238095238,-0.05238095238095238,-0.05238095238095238,-0.05238095238095238,-0.05238095238095238,-0.05238095238095238,-0.05238095238095238,-0.05238095238095238,-0.05238095238095238,-0.05238095238095238,-0.05238095238095238,-0.05238095238095238,-0.05238095238095238,-0.05238095238095238,-0.05238095238095238,-0.05238095238095238,-0.05238095238095238,-0.05238095238095238,-0.05238095238095238,-0.05238095238095238,-0.05238095238095238,-0.05238095238095238,-0.05238095238095238,-0.05238095238095238,-0.05238095238095238,-0.05238095238095238,-0.05238095238095238,-0.05238095238095238,-0.05238095238095238,-0.05238095238095238,-0.05238095238095238,-0.05238095238095238,-0.05238095238095238,-0.05238095238095238,-0.05238095238095238,-0.05238095238095238,-0.05238095238095238,-0.05238095238095238,-0.05238095238095238,-0.05238095238095238,-0.05238095238095238,-0.05238095238095238,-0.05238095238095238,-0.05238095238095238,-0.05238095238095238,-0.05238095238095238,-0.05238095238095238,-0.05238095238095238,-0.05238095238095238,-0.05238095238095238,-0.05238095238095238,-0.05238095238095238,-0.05238095238095238,-0.05238095238095238,-0.05238095238095238,-0.05238095238095238,-0.05238095238095238,-0.05238095238095238,-0.05238095238095238,-0.05238095238095238,-0.05238095238095238,-0.05238095238095238,-0.05238095238095238,-0.05238095238095238,-0.05238095238095238,-0.05238095238095238,-0.05238095238095238,-0.05238095238095238,-0.05238095238095238,-0.05238095238095238,-0.05238095238095238,-0.05238095238095238,-0.05238095238095238,-0.05238095238095238,-0.05238095238095238,-0.05238095238095238,-0.05238095238095238,-0.05238095238095238,-0.05238095238095238,-0.05238095238095238,-0.05238095238095238,-0.05238095238095238,-0.05238095238095238,-0.05238095238095238,-0.05238095238095238,-0.05238095238095238,-0.05238095238095238,-0.05238095238095238,-0.05238095238095238,-0.05238095238095238,-0.05238095238095238,-0.05238095238095238,-0.05238095238095238,-0.05238095238095238,-0.05238095238095238,-0.05238095238095238,-0.05238095238095238,-0.05238095238095238,-0.05238095238095238,-0.05238095238095238,-0.05238095238095238,-0.05238095238095238,-0.05238095238095238,-0.05238095238095238,-0.05238095238095238,-0.05238095238095238,-0.05238095238095238,-0.05238095238095238,-0.05238095238095238,-0.05238095238095238,-0.05238095238095238,-0.05238095238095238,-0.05238095238095238,-0.05238095238095238,-0.05238095238095238,-0.05238095238095238,-0.05238095238095238,-0.05238095238095238,-0.05238095238095238,-0.05238095238095238,-0.05238095238095238,-0.05238095238095238,-0.05238095238095238,-0.05238095238095238,-0.05238095238095238,-0.05238095238095238,-0.05238095238095238,-0.05238095238095238,-0.05238095238095238,-0.05238095238095238,-0.05238095238095238,-0.05238095238095238,-0.05238095238095238,-0.05238095238095238,-0.05238095238095238,-0.05238095238095238,-0.05238095238095238,-0.05238095238095238,-0.05238095238095238,-0.05238095238095238,-0.05238095238095238,-0.05238095238095238,-0.05238095238095238,-0.05238095238095238,-0.05238095238095238,-0.05238095238095238,-0.05238095238095238,-0.05238095238095238,-0.05238095238095238,-0.05238095238095238,-0.05238095238095238,-0.05238095238095238,-0.05238095238095238,-0.05238095238095238,-0.05238095238095238,-0.05238095238095238,-0.05238095238095238,-0.05238095238095238,-0.05238095238095238,-0.05238095238095238,-0.05238095238095238,-0.05238095238095238,-0.05238095238095238,-0.05238095238095238,-0.05238095238095238,-0.05238095238095238,-0.05238095238095238,-0.05238095238095238,-0.05238095238095238,-0.05238095238095238,-0.05238095238095238,-0.05238095238095238,-0.05238095238095238,-0.05238095238095238,-0.05238095238095238,-0.05238095238095238,-0.05238095238095238,-0.05238095238095238,-0.05238095238095238,-0.05238095238095238,-0.05238095238095238,-0.05238095238095238,0.03333333333333333,0.03333333333333333,0.03333333333333333,0.03333333333333333,0.03333333333333333,0.03333333333333333,0.03333333333333333,0.03333333333333333,0.03333333333333333,0.03333333333333333,0.03333333333333333,0.03333333333333333,0.03333333333333333,0.03333333333333333,0.03333333333333333,0.03333333333333333,0.03333333333333333,0.03333333333333333,0.03333333333333333,0.03333333333333333,0.03333333333333333,0.03333333333333333,0.03333333333333333,0.03333333333333333,0.03333333333333333,0.03333333333333333,0.03333333333333333,0.03333333333333333,0.03333333333333333,0.03333333333333333,0.03333333333333333,0.03333333333333333,0.03333333333333333,0.03333333333333333,0.03333333333333333,0.03333333333333333,0.03333333333333333,0.03333333333333333,0.03333333333333333,0.03333333333333333,0.03333333333333333,0.03333333333333333,0.03333333333333333,0.03333333333333333,0.03333333333333333,0.03333333333333333,0.03333333333333333,0.03333333333333333,0.03333333333333333,0.03333333333333333,0.03333333333333333,0.03333333333333333,0.03333333333333333,0.03333333333333333,0.03333333333333333,0.03333333333333333,0.03333333333333333,0.03333333333333333,0.03333333333333333,0.03333333333333333,0.03333333333333333,0.03333333333333333,0.03333333333333333,0.03333333333333333,0.03333333333333333,0.03333333333333333,0.03333333333333333,0.03333333333333333,0.03333333333333333,0.03333333333333333,0.03333333333333333,0.03333333333333333,0.03333333333333333,0.03333333333333333,0.03333333333333333,0.03333333333333333,0.03333333333333333,0.03333333333333333,0.03333333333333333,0.03333333333333333,0.03333333333333333,0.03333333333333333,0.03333333333333333,0.03333333333333333,0.03333333333333333,0.03333333333333333,0.03333333333333333,0.03333333333333333,0.03333333333333333,0.03333333333333333,0.03333333333333333,0.03333333333333333,0.03333333333333333,0.03333333333333333,0.03333333333333333,0.03333333333333333,0.03333333333333333,0.03333333333333333,0.03333333333333333,0.03333333333333333,0.03333333333333333,0.03333333333333333,0.03333333333333333,0.03333333333333333,0.03333333333333333,0.03333333333333333,0.03333333333333333,0.03333333333333333,0.03333333333333333,0.03333333333333333,0.03333333333333333,0.03333333333333333,0.03333333333333333,0.03333333333333333,0.03333333333333333,0.03333333333333333,0.03333333333333333,0.03333333333333333,0.03333333333333333,0.03333333333333333,0.03333333333333333,0.03333333333333333,0.03333333333333333,0.03333333333333333,0.03333333333333333,0.03333333333333333,0.03333333333333333,0.03333333333333333,0.03333333333333333,0.03333333333333333,0.03333333333333333,0.03333333333333333,0.03333333333333333,0.03333333333333333,0.03333333333333333,0.03333333333333333,0.03333333333333333,0.03333333333333333,0.03333333333333333,0.03333333333333333,0.03333333333333333,0.3761904761904762,0.3761904761904762,0.3761904761904762,0.3761904761904762,0.3761904761904762,0.3761904761904762,0.3761904761904762,0.3761904761904762,0.3761904761904762,0.3761904761904762,0.3761904761904762,0.3761904761904762,0.3761904761904762,0.3761904761904762,0.3761904761904762,0.3761904761904762,0.3761904761904762,0.3761904761904762,0.3761904761904762,0.3761904761904762,0.3761904761904762,0.3761904761904762,0.3761904761904762,0.3761904761904762,0.3761904761904762,0.3761904761904762,0.3761904761904762,0.3761904761904762,0.3761904761904762,0.3761904761904762,0.3761904761904762,0.3761904761904762,0.3761904761904762,0.3761904761904762,0.3761904761904762,0.3761904761904762,0.3761904761904762,0.3761904761904762,0.3761904761904762,0.3761904761904762,0.3761904761904762,0.3761904761904762,0.3761904761904762,0.3761904761904762,0.3761904761904762,0.3761904761904762,0.3761904761904762,0.3761904761904762,0.3761904761904762,0.3761904761904762,0.3761904761904762,0.3761904761904762,0.3761904761904762,0.3761904761904762,0.3761904761904762,0.3761904761904762,0.3761904761904762,0.3761904761904762,0.3761904761904762,0.3761904761904762,0.3761904761904762,0.3761904761904762,0.3761904761904762,0.3761904761904762,0.3761904761904762,0.3761904761904762,0.3761904761904762,0.3761904761904762,0.3761904761904762,0.3761904761904762,0.3761904761904762,0.3761904761904762,0.3761904761904762,0.3761904761904762,0.3761904761904762,0.3761904761904762,0.3761904761904762,0.3761904761904762,0.3761904761904762,0.3761904761904762,0.3761904761904762,0.3761904761904762,0.3761904761904762,0.3761904761904762,0.3761904761904762,0.3761904761904762,0.3761904761904762,0.3761904761904762,0.3761904761904762,0.3761904761904762,0.3761904761904762,0.3761904761904762,0.3761904761904762,0.3761904761904762,0.3761904761904762,0.3761904761904762,0.3761904761904762,0.3761904761904762,0.3761904761904762,0.3761904761904762,0.3761904761904762,0.3761904761904762,0.3761904761904762,0.3761904761904762,0.3761904761904762,0.3761904761904762,0.3761904761904762,0.3761904761904762,0.3761904761904762,0.3761904761904762,0.3761904761904762,0.3761904761904762,0.3761904761904762,0.3761904761904762,0.3761904761904762,0.3761904761904762,0.3761904761904762,0.3761904761904762,0.3761904761904762,0.3761904761904762,0.3761904761904762,0.3761904761904762,0.3761904761904762,0.3761904761904762,0.3761904761904762,0.3761904761904762,0.3761904761904762,0.3761904761904762,0.3761904761904762,0.3761904761904762,0.3761904761904762,0.3761904761904762,0.3761904761904762,0.3761904761904762,0.3761904761904762,0.3761904761904762,0.3761904761904762,0.3761904761904762,0.3761904761904762,0.3761904761904762,0.3761904761904762,0.3761904761904762,0.3761904761904762,0.3761904761904762,0.3761904761904762,0.3761904761904762,0.3761904761904762,0.3761904761904762,0.3761904761904762,0.3761904761904762,0.3761904761904762,0.3761904761904762,0.3761904761904762,0.3761904761904762,0.3761904761904762,0.3761904761904762,0.3761904761904762,0.3761904761904762,0.3761904761904762,0.3761904761904762,0.3761904761904762,0.3761904761904762,0.3761904761904762,0.3761904761904762,0.9158732096354166,0.9158732096354166,0.9158732096354166,0.9158732096354166,0.9158732096354166,0.9095238095238095,0.9095238095238095,0.9095238095238095,0.9095238095238095,0.9095238095238095,0.9095238095238095,0.9095238095238095,0.9095238095238095,0.9095238095238095,0.9095238095238095,0.9095238095238095,0.9095238095238095,0.9095238095238095,0.9095238095238095,0.9095238095238095,0.9095238095238095,0.9095238095238095,0.9095238095238095,0.9095238095238095,0.9095238095238095,0.9095238095238095,0.9095238095238095,0.9095238095238095,0.9095238095238095,0.9095238095238095,0.9095238095238095,0.9095238095238095,0.9095238095238095,0.9095238095238095,0.9095238095238095,0.9095238095238095,0.9095238095238095,0.9095238095238095,0.9095238095238095,0.9095238095238095,0.9095238095238095,0.9095238095238095,0.9095238095238095,0.9095238095238095,0.9095238095238095,0.9095238095238095,0.9095238095238095,0.9095238095238095,0.9095238095238095,0.9095238095238095,0.9095238095238095,0.9095238095238095,0.9095238095238095,0.9095238095238095,0.9095238095238095,0.9095238095238095,0.9095238095238095,0.9095238095238095,0.9095238095238095,0.9095238095238095,0.9095238095238095,0.9095238095238095,0.9095238095238095,0.9095238095238095,0.9095238095238095,0.9095238095238095,0.9095238095238095,0.9095238095238095,0.9095238095238095,0.9095238095238095,0.9095238095238095,0.9095238095238095,0.9095238095238095,0.9095238095238095,0.9095238095238095,0.9095238095238095,0.9095238095238095,0.9095238095238095,0.9095238095238095,0.9095238095238095,0.9095238095238095,0.9095238095238095,0.9095238095238095,0.9095238095238095,0.9095238095238095,0.9095238095238095,0.9095238095238095,0.9095238095238095,0.9095238095238095,0.9095238095238095,0.9095238095238095,0.9095238095238095,0.9095238095238095,0.9095238095238095,0.9095238095238095,0.9095238095238095,0.9095238095238095,0.9095238095238095,0.9095238095238095,0.9095238095238095,0.9095238095238095,0.9095238095238095,0.9095238095238095,0.9095238095238095,0.9095238095238095,0.9095238095238095,0.9095238095238095,0.9095238095238095,0.9095238095238095,0.9095238095238095,0.9095238095238095,0.9095238095238095,0.9095238095238095,0.9095238095238095,0.9095238095238095,0.9095238095238095,0.9095238095238095,0.9095238095238095,0.9095238095238095,0.9095238095238095,0.9095238095238095,0.9095238095238095,0.9095238095238095,0.9095238095238095,0.9095238095238095,0.9095238095238095,0.9095238095238095,0.9095238095238095,0.9095238095238095,0.9095238095238095,0.9095238095238095,0.9095238095238095,0.9095238095238095,0.9095238095238095,0.9095238095238095,0.9095238095238095,0.9095238095238095,0.9095238095238095,0.9095238095238095,0.9095238095238095,0.9095238095238095,0.9095238095238095,0.9095238095238095,0.9095238095238095,0.9095238095238095,0.9095238095238095,0.9095238095238095,0.9095238095238095,0.9095238095238095,0.9095238095238095,0.9095238095238095,0.9095238095238095,0.9095238095238095,0.9095238095238095,0.9095238095238095,0.9095238095238095,0.9095238095238095,0.9095238095238095,0.9095238095238095,0.9095238095238095,0.9095238095238095]},"final_keyboard_state":["B","E","D","A","R","Z"],"num_clicks":6,"points":14,"cheat":false,"trial_type":"Hangman","trial_index":5,"time_elapsed":72121,"internal_node_id":"0.0-4.0","protocol_sum":"","subject_identifier":211,"subject_sum":[18,83,233,55,62,120,27,117,0,38,108,170,85,21,14,8,226,16,188,140,216,204,112,216,153,133,227,96,1,85,232,96],"subject_pair":105,"STUDY_ID":"669eec2e4270c76bc184a38e","PROLIFIC_PID":"66892a7a5d486bf277cf9bc8","SESSION_ID":"669f986448c4105ccd5da8f3","practice_instructions":1,"leaderboard_instructions":0,"bonus":2,"reveal_word":true,"self_rating":"4","confidence":"70"},{"view_history":"[{\"page_index\":0,\"viewing_time\":1484.5},{\"page_index\":1,\"viewing_time\":1763.199999988079}]","rt":3249.699999988079,"trial_type":"instructions","trial_index":6,"time_elapsed":75373,"internal_node_id":"0.0-5.0","protocol_sum":"","subject_identifier":211,"subject_sum":[18,83,233,55,62,120,27,117,0,38,108,170,85,21,14,8,226,16,188,140,216,204,112,216,153,133,227,96,1,85,232,96],"subject_pair":105,"STUDY_ID":"669eec2e4270c76bc184a38e","PROLIFIC_PID":"66892a7a5d486bf277cf9bc8","SESSION_ID":"669f986448c4105ccd5da8f3","practice_instructions":1,"leaderboard_instructions":0,"bonus":2,"reveal_word":true,"self_rating":"4","confidence":"70"},{"rt":64416.90000000596,"responses":"{\"Q0\":\"...from <b>a previous session</b> that is not part of the upcoming tournament.\"}","question_order":"[0]","trial_type":"survey-multi-choice","trial_index":7,"time_elapsed":139793,"internal_node_id":"0.0-6.0","protocol_sum":"","subject_identifier":211,"subject_sum":[18,83,233,55,62,120,27,117,0,38,108,170,85,21,14,8,226,16,188,140,216,204,112,216,153,133,227,96,1,85,232,96],"subject_pair":105,"correct":true,"test_part":"multichoice_leaderboard","STUDY_ID":"669eec2e4270c76bc184a38e","PROLIFIC_PID":"66892a7a5d486bf277cf9bc8","SESSION_ID":"669f986448c4105ccd5da8f3","practice_instructions":1,"leaderboard_instructions":0,"bonus":2,"reveal_word":true,"self_rating":"4","confidence":"70"},{"view_history":"[{\"page_index\":0,\"viewing_time\":2830.5}]","rt":2830.7000000178814,"trial_type":"instructions","trial_index":8,"time_elapsed":142625,"internal_node_id":"0.0-8.0","protocol_sum":"","subject_identifier":211,"subject_sum":[18,83,233,55,62,120,27,117,0,38,108,170,85,21,14,8,226,16,188,140,216,204,112,216,153,133,227,96,1,85,232,96],"subject_pair":105,"STUDY_ID":"669eec2e4270c76bc184a38e","PROLIFIC_PID":"66892a7a5d486bf277cf9bc8","SESSION_ID":"669f986448c4105ccd5da8f3","practice_instructions":1,"leaderboard_instructions":0,"bonus":2,"reveal_word":true,"self_rating":"4","confidence":"70"},{"rt":50555,"responses":"{\"Q0\":\"...players' leaderboard position (in terms of <b>points</b>) in an <b>upcoming tournament.</b>\"}","question_order":"[0]","trial_type":"survey-multi-choice","trial_index":9,"time_elapsed":193182,"internal_node_id":"0.0-9.0","protocol_sum":"","subject_identifier":211,"subject_sum":[18,83,233,55,62,120,27,117,0,38,108,170,85,21,14,8,226,16,188,140,216,204,112,216,153,133,227,96,1,85,232,96],"subject_pair":105,"correct":true,"test_part":"multichoice_tournament","STUDY_ID":"669eec2e4270c76bc184a38e","PROLIFIC_PID":"66892a7a5d486bf277cf9bc8","SESSION_ID":"669f986448c4105ccd5da8f3","practice_instructions":1,"leaderboard_instructions":0,"bonus":2,"reveal_word":true,"self_rating":"4","confidence":"70"},{"view_history":"[{\"page_index\":0,\"viewing_time\":5086.5999999940395}]","rt":5086.799999982119,"trial_type":"instructions","trial_index":10,"time_elapsed":198270,"internal_node_id":"0.0-11.0","protocol_sum":"","subject_identifier":211,"subject_sum":[18,83,233,55,62,120,27,117,0,38,108,170,85,21,14,8,226,16,188,140,216,204,112,216,153,133,227,96,1,85,232,96],"subject_pair":105,"STUDY_ID":"669eec2e4270c76bc184a38e","PROLIFIC_PID":"66892a7a5d486bf277cf9bc8","SESSION_ID":"669f986448c4105ccd5da8f3","practice_instructions":1,"leaderboard_instructions":0,"bonus":2,"reveal_word":true,"self_rating":"4","confidence":"70"},{"view_history":"[{\"page_index\":0,\"viewing_time\":95173.39999997616}]","rt":95174,"trial_type":"instructions","trial_index":11,"time_elapsed":293445,"internal_node_id":"0.0-12.0-0.0","protocol_sum":"","subject_identifier":211,"subject_sum":[18,83,233,55,62,120,27,117,0,38,108,170,85,21,14,8,226,16,188,140,216,204,112,216,153,133,227,96,1,85,232,96],"subject_pair":105,"STUDY_ID":"669eec2e4270c76bc184a38e","PROLIFIC_PID":"66892a7a5d486bf277cf9bc8","SESSION_ID":"669f986448c4105ccd5da8f3","practice_instructions":1,"leaderboard_instructions":0,"bonus":2,"reveal_word":true,"self_rating":"4","confidence":"70"},{"rt":12553.700000017881,"response":"WRIST","responses":["WRIST"],"trial_type":"type-this","trial_index":12,"time_elapsed":306505,"internal_node_id":"0.0-12.0-1.0","protocol_sum":"","subject_identifier":211,"subject_sum":[18,83,233,55,62,120,27,117,0,38,108,170,85,21,14,8,226,16,188,140,216,204,112,216,153,133,227,96,1,85,232,96],"subject_pair":105,"STUDY_ID":"669eec2e4270c76bc184a38e","PROLIFIC_PID":"66892a7a5d486bf277cf9bc8","SESSION_ID":"669f986448c4105ccd5da8f3","practice_instructions":1,"leaderboard_instructions":0,"bonus":2,"reveal_word":true,"self_rating":"4","confidence":"70"},{"word":"WRIST","click_log":{"letter":["","A","H","L","S","P","E","W","R","I","T"],"t":[0,27226.30000001192,34427.20000001788,39742.30000001192,44858.80000001192,48626.20000001788,60343.30000001192,61626.10000002384,71527,75793.10000002384,79926.80000001192],"hit":[null,0,0,0,1,0,0,1,1,1,1],"asked":["","A","AH","AHL","AHLS","AHLSP","AHLSPE","AHLSPEW","AHLSPEWR","AHLSPEWRI","AHLSPEWRIT"],"word_state":["_____","_____","_____","_____","___S_","___S_","___S_","W__S_","WR_S_","WRIS_","WRIST"]},"hover_log":{"letter":["?","?","?","?","?","?","?","?","?","?","?","?","?","?","?","?","?","?","?","?","?","?","?","?","?","?","?","?","?","?","?","?","?","?","?","?","?","?","?","?","?","?","?","?","?","?","?","?","?","?","?","?","?","?","?","?","?","?","?","?","?","?","?","?","?","?","?","?","?","?","?","?","?","?","?","?","?","?","?","?","?","?","?","?","?","?","?","?","?","?","?","?","?","?","?","?","?","?","?","?","?","?","?","?","?","?","?","?","?","?","?","?","?","?","?","?","?","?","?","?","?","?","?","?","?","?","?","?","?","?","?","?","?","?","?","?","?","?","?","?","?","?","?","?","?","?","?","?","?","?","?","?","?","?","?","?","?","?","?","?","?","?","?","?","?","?","?","?","?","?","?","?","?","?","?","?","?","?","?","?","?","?","?","?","?","?","?","?","?","?","?","?","?","?","?","?","?","?","?","?","?","?","?","?","?","?","?","?","?","?","?","?","?","?","?","?","?","?","?","?","?","?","?","?","?","?","?","?","?","?","?","?","?","?","?","?","?","?","?","?","?","?","?","?","?","?","?","?","?","?","?","?","?","?","?","?","?","?","?","?","?","?","?","?","?","?","?","?","?","?","?","?","?","?","?","?","?","?","?","?","?","?","?","?","?","?","?","?","?","?","?","?","?","?","?","?","?","?","?","?","?","?","?","?","?","?","?","?","?","?","?","?","?","?","?","?","?","?","?","?","?","?","?","?","?","?","?","?","?","?","?","?","?","?","?","?","?","?","?","?","?","?","?","?","?","?","?","?","?","?","?","?","?","?","?","?","?","?","?","?","?","?","?","?","?","?","?","?","?","?","?","?","?","?","?","?","?","?","?","?","?","?","?","?","?","?","?","?","?","?","?","?","?","?","?","?","?","?","?","?","?","?","?","?","?","?","?","?","?","?","?","?","?","?","?","?","?","?","?","?","?","?","?","?","?","?","?","?","?","?","?","?","?","?","?","?","?","?","?","?","?","?","?","?","?","?","?","?","?","?","?","?","?","?","?","?","?","?","?","?","?","?","?","?","?","?","?","?","?","?","?","?","?","?","?","?","?","?","?","?","?","?","?","?","?","?","?","?","?","?","?","?","?","?","?","?","?","?","?","?","?","?","?","?","?","?","?","?","?","?","?","?","?","?","?","?","?","?","?","?","?","?","?","?","?","?","?","?","?","?","?","?","?","?","?","?","?","?","?","?","?","?","?","?","?","?","?","?","?","?","?","?","?","?","?","?","?","?","?","?","?","?","?","?","?","?","?","?","?","?","?","?","?","?","?","?","?","?","?","?","?","?","?","?","?","?","?","?","?","?","?","?","?","?","?","?","?","?","?","?","?","?","?","?","?","?","?","?","?","?","?","?","?","?","?","?","?","?","?","?","?","?","?","?","?","?","?","?","?","?","?","?","?","?","?","?","?","?","?","?","?","?","?","?","?","?","?","?","?","?","?","?","?","?","?","?","?","?","?","?","?","?","?","?","?","?","?","?","?","?","?","?","?","?","?","?","?","?","?","?","?","?","?","?","?","?","?","?","?","?","?","?","?","?","?","?","?","?","?","?","?","?","?","?","?","?","?","?","?","?","?","?","?","?","?","?","?","?","?","?","?","?","?","?","?","?","?","?","?","?","?","?","?","?","?","?","?","?","?","?","?","?","?","?","?","?","?","?","?","?","?","?","?","?","?","?","?","?","?","?","?","?","?","?","?","?","?","?","?","?","?","?","?","?","?","?","?","?","?","?","?","?","?","?","?","?","?","?","?","?","?","?","?","?","?","?","?","?","?","?","?","?","?","?","?","?","?","?","?","?","?","?","?","?","?","?","?","?","?","?","?","?","?","?","?","?","?","?","?","?","?","?","?","?","?","?","?","?","?","?","?","?","?","?","?","?","?","?","?","?","?","?","?","?","?","?","?","?","?","?","?","?","?","?","?","?","?","?","?","?","?","?","?","?","?","?","?","?","?","?","?","?","?","?","?","?","?","?","?","?","?","?","?","?","?","?","?","?","?","?","?","?","?","?","?","?","?","?","?","?","?","?","?","?","?","?","?","?","?","?","?","?","?","?","?","?","?","?","?","?","?","?","?","?","?","?","?","?","?","?","?","?","?","?","?","?","?","?","?","?","?","?","?","?","?","?","?","?","?","?","?","?","?","?","?","?","?","?","?","?","?","?","?","?","?","?","?","?","?","?","?","?","?","?","?","?","?","?","?","?","?","?","?","?","?","?","?","?","?","?","?","?","?","?","?","?","?","?","?","?","?","?","?","?","?","?","?","?","?","?","?","?","?","?","?","?","?","?","?","?","?","?","?","?","?","?","?","?","?","?","?","?","?","?","?","?","?","?","?","?","?","?","?","?","?","?","?","?","?","?","?","?","?","?","?","?","?","?","?","?","?","?","?","?","?","?","?","?","?","?","?","?","?","?","?","?","?","?","?","?","?","?","?","?","?","?","?","?","?","?","?","?","?","?","?","?","?","?","?","?","?","?","?","?","?","?","?","?","?","?","?","?","?","?","?","?","?","?","?","?","?","?","?","?","?","?","?","?","?","?","?","?","?","?","?","?","?","?","?","?","?","?","?","?","?","?","?","?","?","?","?","?","?","?","?","?","?","?","?","?","?","?","?","?","?","?","?","?","?","?","?","?","?","?","?","?","?","?","?","?","?","?","?","?","?","?","?","?","?","?","?","?","?","?","?","?","?","?","?","?","?","?","?","?","?","?","?","?","?","?","?","?","?","?","?","?","?","?","?","?","?","?","?","?","?","?","?","?","?","?","?","?","?","?","?","?","?","?","?","?","?","?","?","?","?","?","?","?","?","?","?","?","?","?","?","?","?","?","?","?","?","?","?","?","?","?","?","?","?","?","?","?","?","?","?","?","?","?","?","?","?","?","?","?","?","?","?","?","?","?","?","?","?","?","?","?","?","?","?","?","?","?","?","?","?","?","?","?","?","?","?","?","?","?","?","?","?","?","?","?","?","?","?","?","?","?","?","?","?","?","?","?","?","?","?","?","?","?","?","?","?","?","?","?","?","?","?","?","?","?","?","?","?","?","?","?","?","?","?","?","?","?","?","?","?","?","?","?","?","?","?","?","?","?","?","?","?","?","?","?","?","?","?","?","?","?","?","?","?","?","?","?","?","?","?","?","?","?","?","?","?","?","?","?","?","?","?","?","?","?","?","?","?","?","?","?","?","?","?","?","?","?","?","?","?","?","?","?","?","?","?","?","?","?","?","?","?","?","?","?","?","?","?","?","?","?","?","?","?","?","?","?","?","?","?","?","?","?","?","?","?","?","?","?","?","?","?","?","?","?","?","?","?","?","?","?","?","?","?","?","?","?","?","?","?","?","?","?","?","?","?","?","?","?","?","?","?","?","?","?","?","?","?","?","?","?","?","?","?","?","?","?","?","?","?","?","?","?","?","?","?","?","?","?","?","?","?","?","?","?","?","?","?","?","?","?","?","?","?","?","?","?","?","?","?","?","?","?","?","?","?","?","?","?","?","?","?","?","?","?","?","?","?","?","?","?","?","?","?","?","?","?","?","?","?","?","?","?","?","?","?","?","?","?","?","?","?","?","?","?","?","?","?","?","?","?","?","?","?","?","?","?","?","?","?","?","?","?","?","?","?","?","?","?","?","?","?","?","?","?","?","?","?","?","?","?","?","?","?","?","?","?","?","?","?","?","?","?","?","?","?","?","?","?","?","?","?","?","?","?","?","?","?","?","?","?","?","?","?","?","?","?","?","?","?","?","?","?","?","?","?","?","?","?","?","?","?","?","?","?","?","?","?","?","?","?","?","?","?","?","?","?","?","?","?","?","?","?","?","?","?","?","?","?","?","?","?","?","?","?","?","?","?","?","?","?","?","?","?","?","?","?","?","?","?","?","?","?","?","?","?","?","?","?","?","?","?","?","?","?","?","?","?","?","?","?","?","?","?","?","?","?","?","?","?","?","?","?","?","?","?","?","?","?","?","?","?","?","?","?","?","?","?","?","?","?","?","?","?","?","?","?","?","?","?","?","?","?","?","?","?","?","?","?","?","?","?","?","?","?","?","?","?","?","?","?","?","?","?","?","?","?","?","?","?","?","?","?","?","?","?","?","?","?","?","?","?","?","?","?","?","?","?","?","?","?","?","?","?","?","?","?","?","?","?","?","?","?","?","?","?","?","?","?","?","?","?","?","?","?","?","?","?","?","?","?","?","?","?","?","?","?","?","?","?","?","?","?","?","?","?","?","?","?","?","?","?","?","?","?","?","?","?","?","?","?","?","?","?","?","?","?","?","?","?","?","?","?","?","?","?","?","?","?","?","?","?","?","?","?","?","?","?","?","?","?","?","?","?","?","?","?","?","?","?","?","?","?","?","?","?","?","?","?","?","?","?","?","?","?","?","?","?","?","?","?","?","?","?","?","?","?","?","?","?","?","?","?","?","?","?","?","?","?","?","?","?","?","?","?","?","?","?","?","?","?","?","?","?","?","?","?","?","?","?","?","?","?","?","?","?","?","?","?","?","?","?","?","?","?","?","?","?","?","?","?","?","?","?","?","?","?","?","?","?","?","?","?","?","?","?","?","?","?","?","?","?","?","?","?","?","?","?","?","?","?","?","?","?","?","?","?","?","?","?","?","?","?","?","?","?","?","?","?","?","?","?","?","?","?","?","?","?","?","?","?","?","?","?","?","?","?","?","?","?","?","?","?","?","?","?","?","?","?","?","?","?","?","?","?","?","?","?","?","?","?","?","?","?","?","?","?","?","?","?","?","?","?","?","?","?","?","?","?","?","?","?","?","?","?","?","?","?","?","?","?","?","?","?","?","?","?","?","?","?","?","?","?","?","?","?","?","?","?","?","?","?","?","?","?","?","?","?","?","?","?","?","?","?","?","?","?","?","?","?","?","?","?","?","?","?","?","?","?","?","?","?","?","?","?","?","?","?","?","?","?","?","?","?","?","?","?","?","?","?","?","?","?","?","?","?","?","?","?","?","?","?","?","?","?","?","?","?","?","?","?","?","?","?","?","?","?","?","?","?","?","?","?","?","?","?","?","?","?","?","?","?","?","?","?","?","?","?","?","?","?","?","?","?","?","?","?","?","?","?","?","?","?","?","?","?","?","?","?","?","?","?","?","?","?","?","?","?","?","?","?","?","?","?","?","?","?","?","?","?","?","?","?","?","?","?","?","?","?","?","?","?","?","?","?","?","?","?","?","?","?","?","?","?","?","?","?","?","?","?","?","?","?","?","?","?","?","?","?","?","?","?","?","?","?","?","?","?","?","?","?","?","?","?","?","?","?","?","?","?","?","?","?","?","?","?","?","?","?","?","?","?","?","?","?","?","?","?","?","?","?","?","?","?","?","?","?","?","?","?","?","?","?","?","?","?","?","?","?","?","?","?","?","?","?","?","?","?","?","?","?","?","?","?","?","?","?","?","?","?","?","?","?","?","?","?","?","?","?","?","?","?","?","?","?","?","?","?","?","?","?","?","?","?","?","?","?","?","?","?","?","?","?","?","?","?","?","?","?","?","?","?","?","?","?","?","?","?","?","?","?","?","?","?","?","?","?","?","?","?","?","?","?","?","?","?","?","?","?","?","?","?","?","?","?","?","?","?","?","?","?","?","?","?","?","?","?","?","?","?","?","?","?","?","?","?","?","?","?","?","?","?","?","?","?","?","?","?","?","?","?","?","?","?","?","?","?","?","?","?","?","?","?","?","?","?","?","?","?","?","?","?","?","?","?","?","?","?","?","?","?","?","?","?","?","?","?","?","?","?","?","?","?","?","?","?","?","?","?","?","?","?","?","?","?","?","?","?","?","?","?","?","?","?","?","?","?","?","?","?","?","?","?","?","?","?","?","?","?","?","?","?","?","?","?","?","?","?","?","?","?","?","?","?","?","?","?","?","?","?","?","?","?","?","?","?","?","?","?","?","?","?","?","?","?","?","?","?","?","?","?","?","?","?","?","?","?","?","?","?","?","?","?","?","?","?","?","?","?","?","?","?","?","?","?","?","?","?","?","?","?","?","?","?","?","?","?","?","?","?","?","?","?","?","?","?","?","?","?","?","?","?","?","?","?","?","?","?","?","?","?","?","?","?","?","?","?","?","?","?","?","?","?","?","?","?","?","?","?","?","?","?","?","?","?","?","?","?","?","?","?","?","?","?","?","?","?","?","?","?","?","?","?","?","?","?","?","?","?","?","?","?","?","?","?","?","?","?","?","?","?","?","?","?","?","?","?","?","?","?","?","?","?","?","?","?","?","?","?","?","?","?","?","?","?","?","?","?","?","?","?","?","?","?","?","?","?","?","?","?","?","?","?","?","?","?","?","?","?","?","?","?","?","?","?","?","?","?","?","?","?","?","?","?","?","?","?","?","?","?","?","?","?","?","?","?","?","?","?","?","?","?","?","?","?","?","?","?","?","?","?","?","?","?","?","?","?","?","?","?","?","?","?","?","?","?","?","?","?","?","?","?","?","?","?","?","?","?","?","?","?","?","?","?","?","?","?","?","?","?","?","?","?","?","?","?","?","?","?","?","?","?","?","?","?","?","?","?","?","?","?","?","?","?","?","?","?","?","?","?","?","?","?","?","?","?","?","?","?","?","?","?","?","?","?","?","?","?","?","?","?","?","?","?","?","?","?","?","?","?","?","?","?","?","?","?","?","?","?","?","?","?","?","?","?","?","?","?","?","?","?","?","?","?","?","?","?","?","?","?","?","?","?","?","?","?","?","?","?","?","?","?","?","?","?","?","?","?","?","?","?","?","?","?","?","?","?","?","?","?","?","?","?","?","?","?","?","?","?","?","?","?","?","?","?","?","?","?","?","?","?","?","?","?","?","?","?","?","?","?","?","?","?","?","?","?","?","?","?","?","?","?","?","?","?","?","?","?","?","?","?","?","?","?","?","?","?","?","?","?","?","?","?","?","?","?","?","?","?","?","?","?","?","?","?","?","?","?","?","?","?","?","?","?","?","?","?","?","?","?","?","?","?","?","?","?","?","?","?","?","?","?","?","?","?","?","?","?","?","?","?","?","?","?","?","?","?","?","?","?","?","?","?","?","?","?","?","?","?","?","?","?","?","?","?","?","?","?","?","?","?","?","?","?","?","?","?","?","?","?","?","?","?","?","?","?","?","?","?","?","?","?","?","?","?","?","?","?","?","?","?","?","?","?","?","?","?","?","?","?","?","?","?","?","?","?","?","?","?","?","?","?","?","?","?","?","?","?","?","?","?","?","?","?","?","?","?","?","?","?","?","?","?","?","?","?","?","?","?","?","?","?","?","?","?","?","?","?","?","?","?","?","?","?","?","?","?","?","?","?","?","?","?","?","?","?","?","?","?","?","?","?","?","?","?","?","?","?","?","?","?","?","?","?","?","?","?","?","?","?","?","?","?","?","?","?","?","?","?","?","?","?","?","?","?","?","?","?","?","?","?","?","?","?","?","?","?","?","?","?","?","?","?","?","?","?","?","?","?","?","?","?","?","?","?","?","?","?","?","?","?","?","?","?","?","?","?","?","?","?","?","?","?","?","?","?","?","?","?","?","?","?","?","?","?","?","?","?","?","?","?","?","?","?","?","?","?","?","?","?","?","?","?","?","?","?","?","?","?","?","?","?","?","?","?","?","?","?","?","?","?","?","?","?","?","?","?","?","?","?","?","?","?","?","?","?","?","?","?","?","?","?","?","?","?","?","?","?","?","?","?","?","?","?","?","?","?","?","?","?","?","?","?","?","?","?","?","?","?","?","?","?","?","?","?","?","?","?","?","?","?","?","?","?","?","?","?","?","?","?","?","?","?","?","?","?","?","?","?","?","?","?","?","?","?","?","?","?","?","?","?","?","?","?","?","?","?","?","?","?","?","?","?","?","?","?","?","?","?","?","?","?","?","?","?","?","?","?","?","?","?","?","?","?","?","?","?","?","?","?","?","?","?","?","?","?","?","?","?","?","?","?","?","?","?","?","?","?","?","?","?","?","?","?","?","?","?","?","?","?","?","?","?","?","?","?","?","?","?","?","?","?","?","?","?","?","?","?","?","?","?","?","?","?","?","?","?","?","?","?","?","?","?","?","?","?","?","?","?","?","?","?","?","?","?","?","?","?","?","?","?","?","?","?","?","?","?","?","?","?","?","?","?","?","?","?","?","?","?","?","?","?","?","?","?","?","?","?","?","?","?","?","?","?","?","?","?","?","?","?","?","?","?","?","?","?","?","?","?","?","?","?","?","?","?","?","?","?","?","?","?","?","?","?","?","?","?","?","?","?","?","?","?","?","?","?","?","?","?","?","?","?","?","?","?","?","?","?","?","?","?","?","?","?","?","?","?","?","?","?","?","?","?","?","?","?","?","?","?","?","?","?","?","?","?","?","?","?","?","?","?","?","?","?","?","?","?","?","?","?","?","?","?","?","?","?","?","?","?","?","?","?","?","?","?","?","?","?","?","?","?","?","?","?","?","?","?","?","?","?","?","?","?","?","?","?","?","?","?","?","?","?","?","?","?","?","?","?","?","?","?","?","?","?","?","?","?","?","?","?","?","?","?","?","?","?","?","?","?","?","?","?","?","?","?","?","?","?","?","?","?","?","?","?","?","?","?","?","?","?","?","?","?","?","?","?","?","?","?","?","?","?","?","?","?","?","?","?","?","?","?","?","?","?","?","?","?","?","?","?","?","?","?","?","?","?","?","?","?","?","?","?","?","?","?","?","?","?","?","?","?","?","?","?","?","?","?","?","?","?","?","?","?","?","?","?","?","?","?","?","?","?","?","?","?","?","?","?","?","?","?","?","?","?","?","?","?","?","?","?","?","?","?","?","?","?","?","?","?","?","?","?","?","?","?","?","?","?","?","?","?","?","?","?","?","?","?","?","?","?","?","?","?","?","?","?","?","?","?","?","?","?","?","?","?","?","?","?","?","?","?","?","?","?","?","?","?","?","?","?","?","?","?","?","?","?","?","?","?","?","?","?","?","?","?","?","?","?","?","?","?","?","?","?","?","?","?","?","?","?","?","?","?","?","?","?","?","?","?","?","?","?","?","?","?","?","?","?","?","?","?","?","?","?","?","?","?","?","?","?","?","?","?","?","?","?","?","?","?","?","?","?","?","?","?","?","?","?","?","?","?","?","?","?","?","?","?","?","?","?","?","?","?","?","?","?","?","?","?","?","?","?","?","?","?","?","?","?","?","?","?","?","?","?","?","?","?","?","?","?","?","?","?","?","?","?","?","?","?","?","?","?","?","?","?","?","?","?","?","?","?","?","?","?","?","?","?","?","?","?","?","?","?","?","?","?","?","?","?","?","?","?","?","?","?","?","?","?","?","?","?","?","?","?","?","?","?","?","?","?","?","?","?","?","?","?","?","?","?","?","?","?","?","?","?","?","?","?","?","?","?","?","?","?","?","?","?","?","?","?","?","?","?","?","?","?","?","?","?","?","?","?","?","?","?","?","?","?","?","?","?","?","?","?","?","?","?","?","?","?","?","?","?","?","?","?","?","?","?","?","?","?","?","?","?","?","?","?","?","?","?","?","?","?","?","?","?","?","?","?","?","?","?","?","?","?","?","?","?","?","?","?","?","?","?","?","?","?","?","?","?","?","?","?","?","?","?","?","?","?","?","?","?","?","?","?","?","?","?","?","?","?","?","?","?","?","?","?","?","?","?","?","?","?","?","?","?","?","?","?","?","?","?","?","?","?","?","?","?","?","?","?","?","?","?","?","?","?","?","?","?","?","?","?","?","?","?","?","?","?","?","?","?","?","?","?","?","?","?","?","?","?","?","?","?","?","?","?","?","?","?","?","?","?","?","?","?","?","?","?","?","?","?","?","?","?","?","?","?","?","?","?","?","?","?","?","?","?","?","?","?","?","?","?","?","?","?","?","?","?","?","?","?","?","?","?","?","?","?","?","?","?","?","?","?","?","?","?","?","?","?","?","?","?","?","?","?","?","?","?","?","?","?","?","?","?","?","?","?","?","?","?","?","?","?","?","?","?","?","?","?","?","?","?","?","?","?","?","?","?","?","?","?","?","?","?","?","?","?","?","?","?","?","?","?","?","?","?","?","?","?","?","?","?","?","?","?","?","?","?","?","?","?","?","?","?","?","?","?","?","?","?","?","?","?","?","?","?","?","?","?","?","?","?","?","?","?","?","?","?","?","?","?","?","?","?","?","?","?","?","?","?","?","?","?","?","?","?","?","?","?","?","?","?","?","?","?","?","?","?","?","?","?","?","?","?","?","?","?","?","?","?","?","?","?","?","?","?","?","?","?","?","?","?","?","?","?","?","?","?","?","?","?","?","?","?","?","?","?","?","?","?","?","?","?","?","?","?","?","?","?","?","?","?","?","?","?","?","?","?","?","?","?","?","?","?","?","?","?","?","?","?","?","?","?","?","?","?","?","?","?","?","?","?","?","?","?","?","?","?","?","?","?","?","?","?","?","?","?","?","?","?","?","?","?","?","?","?","?","?","?","?","?","?","?","?","?","?","?","?","?","?","?","?","?","?","?","?","?","?","?","?","?","?","?","?","?","?","?","?","?","?","?","?","?","?","?","?","?","?","?","?","?","?","?","?","?","?","?","?","?","?","?","?","?","?","?","?","?","?","?","?","?","?","?","?","?","?","?","?","?","?","?","?","?","?","?","?","?","?","?","?","?","?","?","?","?","?","?","?","?","?","?","?","?","?","?","?","?","?","?","?","?","?","?","?","?","?","?","?","?","?","?","?","?","?","?","?","?","?","?","?","?","?","?","?","?","?","?","?","?","?","?","?","?","?","?","?","?","?","?","?","?","?","?","?","?","?","?","?","?","?","?","?","?","?","?","?","?","?","?","?","?","?","?","?","?","?","?","?","?","?","?","?","?","?","?","?","?","?","?","?","?","?","?","?","?","?","?","?","?","?","?","?","?","?","?","?","?","?","?","?","?","?","?","?","?","?","?","?","?","?","?","?","?","?","?","?","?","?","?","?","?","?","?","?","?","?","?","?","?","?","?","?","?","?","?","?","?","?","?","?","?","?","?","?","?","?","?","?","?","?","?","?","?","?","?","?","?","?","?","?","?","?","?","?","?","?","?","?","?","?","?","?","?","?","?","?","?","?","?","?","?","?","?","?","?","?","?","?","?","?","?","?","?","?","?","?","?","?","?","?","?","?","?","?","?","?","?","?","?","?","?","?","?","?","?","?","?","?","?","?","?","?","?","?","?","?","?","?","?","?","?","?","?","?","?","?","?","?","?","?","?","?","?","?","?","?","?","?","?","?","?","?","?","?","?","?","?","?","?","?","?","?","?","?","?","?","?","?","?","?","?","?","?","?","?","?","?","?","?","?","?","?","?","?","?","?","?","?","?","?","?","?","?","?","?","?","?","?","?","?","?","?","?","?","?","?","?","?","?","?","?","?","?","?","?","?","?","?","?","?","?","?","?","?","?","?","?","?","?","?","?","?","?","?","?","?","?","?","?","?","?","?","?","?","?","?","?","?","?","?","?","?","?","?","?","?","?","?","?","?","?","?","?","?","?","?","?","?","?","?","?","?","?","?","?","?","?","?","?","?","?","?","?","?","?","?","?","?","?","?","?","?","?","?","?","?","?","?","?","?","?","?","?","?","?","?","?","?","?","?","?","?","?","?","?","?","?","?","?","?","?","?","?","?","?","?","?","?","?","?","?","?","?","?","?","?","?","?","?","?","?","?","?","?","?","?"