[{"success":true,"trial_type":"fullscreen","trial_index":0,"time_elapsed":5873,"internal_node_id":"0.0-0.0","protocol_sum":"","subject_identifier":218,"subject_sum":[15,212,43,63,115,196,72,179,73,64,179,57,248,125,7,173,241,22,176,92,2,39,170,215,46,143,14,233,5,51,230,153],"subject_pair":109,"STUDY_ID":"669eec2e4270c76bc184a38e","PROLIFIC_PID":"666de03524464d320a1da7c5","SESSION_ID":"669fb85ef6251830c11749be","practice_instructions":1,"leaderboard_instructions":1,"bonus":0,"reveal_word":false,"self_rating":"3","confidence":"80"},{"view_history":"[{\"page_index\":0,\"viewing_time\":9085.700000047684}]","rt":9085.899999976158,"trial_type":"instructions","trial_index":1,"time_elapsed":14961,"internal_node_id":"0.0-1.0","protocol_sum":"","subject_identifier":218,"subject_sum":[15,212,43,63,115,196,72,179,73,64,179,57,248,125,7,173,241,22,176,92,2,39,170,215,46,143,14,233,5,51,230,153],"subject_pair":109,"STUDY_ID":"669eec2e4270c76bc184a38e","PROLIFIC_PID":"666de03524464d320a1da7c5","SESSION_ID":"669fb85ef6251830c11749be","practice_instructions":1,"leaderboard_instructions":1,"bonus":0,"reveal_word":false,"self_rating":"3","confidence":"80"},{"view_history":"[{\"page_index\":0,\"viewing_time\":80127.09999990463}]","rt":80127.19999992847,"trial_type":"instructions","trial_index":2,"time_elapsed":95088,"internal_node_id":"0.0-2.0-0.0","protocol_sum":"","subject_identifier":218,"subject_sum":[15,212,43,63,115,196,72,179,73,64,179,57,248,125,7,173,241,22,176,92,2,39,170,215,46,143,14,233,5,51,230,153],"subject_pair":109,"STUDY_ID":"669eec2e4270c76bc184a38e","PROLIFIC_PID":"666de03524464d320a1da7c5","SESSION_ID":"669fb85ef6251830c11749be","practice_instructions":1,"leaderboard_instructions":1,"bonus":0,"reveal_word":false,"self_rating":"3","confidence":"80"},{"rt":14420.399999976158,"responses":"{\"Q0\":\"... reveal the word with as <b>few letter guesses</b> as possible\"}","question_order":"[0]","trial_type":"survey-multi-choice","trial_index":3,"time_elapsed":109510,"internal_node_id":"0.0-2.0-1.0","protocol_sum":"","subject_identifier":218,"subject_sum":[15,212,43,63,115,196,72,179,73,64,179,57,248,125,7,173,241,22,176,92,2,39,170,215,46,143,14,233,5,51,230,153],"subject_pair":109,"correct":true,"test_part":"multichoice_nonpretend","STUDY_ID":"669eec2e4270c76bc184a38e","PROLIFIC_PID":"666de03524464d320a1da7c5","SESSION_ID":"669fb85ef6251830c11749be","practice_instructions":1,"leaderboard_instructions":1,"bonus":0,"reveal_word":false,"self_rating":"3","confidence":"80"},{"view_history":"[{\"page_index\":0,\"viewing_time\":1696.6000000238419}]","rt":1696.7000000476837,"trial_type":"instructions","trial_index":4,"time_elapsed":111208,"internal_node_id":"0.0-3.0","protocol_sum":"","subject_identifier":218,"subject_sum":[15,212,43,63,115,196,72,179,73,64,179,57,248,125,7,173,241,22,176,92,2,39,170,215,46,143,14,233,5,51,230,153],"subject_pair":109,"STUDY_ID":"669eec2e4270c76bc184a38e","PROLIFIC_PID":"666de03524464d320a1da7c5","SESSION_ID":"669fb85ef6251830c11749be","practice_instructions":1,"leaderboard_instructions":1,"bonus":0,"reveal_word":false,"self_rating":"3","confidence":"80"},{"word":"ZEBRA","click_log":{"letter":["","B","L","A","O","C","Z","E","R"],"t":[0,8655.899999976158,33931,40427,48120,56848,65444.10000002384,67015.69999992847,72605.69999992847],"hit":[null,1,0,1,0,0,1,1,1],"asked":["","B","BL","BLA","BLAO","BLAOC","BLAOCZ","BLAOCZE","BLAOCZER"],"word_state":["_____","__B__","__B__","__B_A","__B_A","__B_A","Z_B_A","ZEB_A","ZEBRA"]},"hover_log":{"letter":["S","S","S","S","S","S","S","S","S","S","S","S","S","S","S","S","S","S","S","S","S","S","S","S","S","S","S","S","S","S","S","S","S","S","S","S","S","S","S","S","S","S","S","S","?","?","?","?","?","?","?","?","?","?","?","?","?","?","?","?","?","?","?","?","?","?","?","?","?","?","?","?","?","?","?","?","?","?","?","?","?","?","?","?","?","?","?","?","?","?","?","?","?","?","?","?","?","?","?","?","?","?","?","?","?","?","?","?","?","?","?","?","?","?","?","?","?","?","?","?","?","?","?","?","?","?","?","?","?","?","?","U","?","?","?","?","?","?","?","?","?","?","?","?","?","?","?","?","?","?","?","?","?","?","?","?","?","?","?","?","?","?","?","?","?","?","?","?","?","?","?","?","?","?","?","?","?","?","?","?","?","?","D","D","D","D","D","D","D","D","D","D","D","D","D","D","D","D","D","D","D","D","D","D","D","D","D","D","D","D","D","D","D","D","D","D","D","D","D","D","D","D","D","D","D","D","D","D","D","D","D","D","D","D","D","D","D","D","D","D","D","D","D","D","D","D","D","D","D","D","D","D","D","D","D","D","D","D","D","D","D","D","D","D","D","D","D","D","D","D","D","D","D","D","D","D","D","D","D","D","D","D","D","D","D","D","D","D","D","D","D","D","D","D","D","D","D","D","D","D","D","D","D","D","D","D","D","D","D","D","D","D","D","D","D","D","D","D","D","D","D","D","D","D","D","D","D","D","D","D","C","C","B","B","B","B","B","B","B","B","B","B","B","B","B","B","B","B","B","B","B","B","B","B","B","B","B","B","B","B","B","B","B","B","B","B","B","B","B","B","B","B","B","B","B","B","B","B","B","B","B","B","B","B","B","B","B","B","B","B","B","B","B","B","B","B","B","B","B","B","B","B","B","B","B","B","B","B","B","B","B","B","B","B","B","B","B","B","B","B","B","B","B","B","B","B","B","B","B","B","B","B","B","B","B","B","B","B","B","B","B","B","B","B","B","B","B","B","B","B","B","B","B","B","B","B","B","B","B","B","B","B","B","B","B","B","B","B","B","B","B","B","B","B","B","B","B","B","B","B","B","B","B","B","B","B","B","B","B","B","B","B","B","B","B","B","B","B","B","B","B","B","B","B","B","B","B","B","B","B","B","B","B","B","B","B","B","B","B","B","B","B","B","B","B","B","B","B","B","B","B","B","B","B","B","B","B","B","B","B","B","B","B","B","B","B","B","B","B","B","B","B","B","B","B","B","B","B","B","B","B","B","B","B","B","B","B","B","B","B","B","B","B","B","B","B","B","B","B","B","B","B","B","B","B","B","B","B","B","?","L","V","?","?","?","?","?","?","?","?","?","?","?","?","?","?","?","?","?","?","?","?","?","?","?","?","?","?","?","?","?","?","?","?","?","?","?","?","?","?","?","?","?","?","?","?","?","?","?","?","?","?","?","?","?","?","?","?","?","?","?","?","?","?","?","?","?","?","?","?","?","?","?","?","?","?","?","?","?","?","?","?","?","?","?","?","?","?","?","?","?","?","?","?","?","?","?","?","?","?","?","?","?","?","?","?","?","?","?","?","?","?","?","?","?","?","?","?","?","?","?","?","?","?","?","?","?","?","?","?","?","?","?","?","?","?","?","?","?","?","?","?","?","?","?","?","?","?","?","?","?","?","?","?","?","?","?","?","?","?","?","?","?","?","?","?","?","?","?","?","?","?","?","?","?","?","?","?","?","?","?","?","?","?","?","?","?","?","?","?","?","?","?","?","?","?","?","?","?","?","?","?","?","?","?","?","?","?","?","?","?","?","?","?","?","?","?","?","?","?","?","?","?","?","?","?","?","?","?","?","?","?","?","?","?","?","?","?","?","?","?","?","?","?","?","?","?","?","?","?","?","?","?","?","?","?","?","?","?","?","?","?","?","?","?","?","?","?","?","?","?","?","?","?","?","?","?","?","?","?","?","?","?","?","?","?","?","?","?","?","?","?","?","?","?","?","?","?","?","?","?","?","?","?","?","?","?","?","?","?","?","?","?","?","?","?","?","?","?","?","?","?","?","?","?","?","?","?","?","?","?","?","?","?","?","?","?","?","?","?","?","?","?","?","?","?","?","?","?","?","?","?","?","?","?","?","?","?","?","?","?","?","?","?","?","?","?","?","?","?","?","?","?","?","?","?","?","?","?","?","?","?","?","?","?","?","?","?","V","?","?","N","N","N","N","N","N","N","N","N","N","N","N","?","?","X","X","?","?","?","?","?","?","?","?","Y","?","?","?","?","Y","Y","Y","Y","Y","Y","Y","Y","Y","Y","Y","Y","Y","Y","Y","Y","Y","Y","Y","Y","Y","Y","Y","Y","Y","Y","Y","?","?","?","?","?","?","?","?","?","?","?","?","?","?","?","?","?","?","?","?","?","?","?","?","H","H","H","H","H","H","H","H","H","H","H","H","H","H","H","H","H","H","H","H","H","H","H","H","H","H","H","?","N","?","T","?","?","?","?","?","?","?","?","?","?","?","?","?","?","?","?","?","S","T","?","U","?","V","V","V","V","V","V","V","V","V","V","V","V","V","V","V","V","V","V","V","V","V","V","V","V","V","V","V","V","V","V","V","V","V","V","?","?","?","?","?","?","?","?","?","?","?","?","U","U","U","U","U","U","U","U","?","?","?","?","?","J","J","J","J","J","J","J","J","J","J","J","J","J","J","J","J","J","J","J","J","?","?","K","K","K","K","K","K","?","?","?","?","?","?","?","?","?","?","?","?","?","?","?","?","?","L","L","L","?","M","M","?","N","N","N","N","?","?","?","?","?","?","?","?","?","?","?","?","?","?","?","?","?","?","?","?","?","?","?","?","?","?","?","?","?","?","?","?","?","?","?","?","?","?","?","?","?","?","?","O","O","O","O","?","P","P","P","P","?","?","Q","Q","Q","Q","Q","Q","Q","Q","Q","Q","Q","Q","Q","Q","Q","?","?","?","R","R","R","R","R","R","R","R","R","R","R","R","R","R","R","R","R","?","?","?","?","Q","Q","Q","Q","?","?","?","?","?","?","?","?","?","?","?","?","?","?","?","?","?","?","Y","Y","Y","Y","Y","Y","Y","Y","Y","?","X","X","W","V","U","U","?","?","?","?","?","?","?","?","?","?","?","?","?","?","?","?","?","?","?","?","?","?","?","?","?","?","?","T","T","T","T","T","T","T","?","?","?","?","?","?","?","?","L","M","N","O","P","Q","Q","Q","Q","Q","Q","Q","Q","Q","?","?","R","R","R","R","R","R","R","R","R","R","R","R","R","R","R","R","R","R","R","R","R","R","R","R","R","R","R","R","R","R","R","R","?","?","?","?","G","G","G","G","G","G","G","G","G","G","G","G","G","G","G","?","?","?","H","H","H","H","H","H","H","H","H","H","H","H","H","H","H","H","H","H","H","H","H","H","H","H","H","H","H","H","H","H","H","H","H","H","H","H","H","H","H","H","H","H","H","H","H","H","H","H","H","H","H","H","H","H","H","H","H","H","H","H","H","H","H","H","H","H","H","H","H","H","H","H","H","H","H","H","H","H","H","H","H","H","H","H","H","H","H","H","H","H","H","H","H","H","H","H","H","H","H","H","H","H","H","H","H","H","H","H","H","H","H","H","H","H","H","H","H","H","H","H","H","H","H","H","H","H","H","H","H","H","H","H","H","H","H","H","H","H","?","G","G","G","F","F","F","F","?","?","?","?","?","?","?","?","?","?","?","?","?","?","?","?","?","?","?","?","?","?","?","?","?","?","?","?","?","?","?","?","?","?","?","?","?","?","?","?","?","?","?","?","?","?","?","?","?","?","?","?","E","E","E","E","?","D","D","D","D","D","D","D","D","D","D","D","D","D","D","D","D","D","D","D","D","D","D","D","D","D","D","D","D","D","D","D","D","D","D","D","D","D","D","D","D","D","D","D","D","D","D","D","D","D","D","D","D","D","D","D","D","D","D","?","?","?","?","?","J","J","J","J","J","J","J","J","J","J","J","J","J","J","J","J","J","J","J","J","J","J","J","J","J","J","J","J","J","J","J","J","J","J","J","J","J","J","J","J","J","J","J","J","J","J","J","J","J","J","J","J","J","J","J","J","J","J","J","J","J","J","J","J","J","J","J","J","J","J","J","J","J","K","L","M","?","?","?","?","?","?","?","?","?","?","?","?","?","?","?","?","?","?","?","?","?","?","?","?","?","?","?","?","?","?","?","?","?","P","?","?","Q","Q","Q","Q","Q","Q","Q","Q","Q","Q","Q","Q","Q","Q","Q","Q","Q","Q","Q","Q","Q","Q","Q","Q","Q","Q","Q","Q","Q","Q","Q","Q","Q","Q","Q","Q","Q","Q","Q","Q","Q","Q","Q","Q","Q","Q","Q","Q","Q","Q","Q","Q","Q","Q","Q","Q","Q","Q","Q","Q","Q","Q","Q","Q","Q","Q","Q","Q","Q","Q","Q","?","?","?","?","?","?","?","I","I","I","I","I","I","I","I","I","I","I","I","I","I","I","I","I","I","I","I","?","?","P","?","V","U","?","?","?","?","?","?","?","?","?","?","?","?","?","?","?","?","T","T","T","T","T","T","T","T","T","T","T","T","T","T","T","T","T","T","T","T","T","T","T","T","T","T","T","T","T","T","T","T","T","?","?","?","?","?","?","?","L","L","L","L","L","L","L","L","L","L","L","L","L","L","L","L","L","L","L","L","L","L","L","L","L","L","L","L","L","L","L","L","L","L","L","L","L","L","L","L","L","L","L","L","L","L","L","L","L","L","L","L","L","L","L","L","L","L","L","L","L","L","L","L","L","L","L","L","L","L","L","L","L","L","L","L","?","?","?","?","?","?","?","?","?","?","?","?","?","?","?","?","?","?","?","?","?","?","?","?","?","?","?","?","?","?","?","?","?","?","?","?","?","?","?","?","?","?","?","?","?","?","?","?","?","?","?","?","?","?","?","?","?","?","?","?","?","?","?","?","?","?","?","?","?","?","?","?","?","?","?","?","?","?","?","?","?","?","?","?","?","?","?","?","?","?","?","?","?","?","?","?","?","?","?","?","?","?","?","?","?","?","?","?","?","?","?","?","?","?","?","?","?","?","?","?","?","?","?","?","?","?","?","?","?","?","?","?","?","?","?","?","?","?","?","?","?","?","?","?","?","?","?","?","?","?","?","?","?","?","?","?","?","?","?","?","?","?","?","?","?","?","?","?","?","?","?","?","?","?","?","?","?","?","?","?","T","T","T","T","T","T","T","T","T","T","T","T","T","T","T","T","T","T","T","T","T","T","T","T","T","T","T","T","T","T","T","?","U","U","?","?","?","?","?","?","?","?","?","?","?","?","?","?","?","?","?","?","U","U","U","U","U","?","?","?","?","?","?","?","?","?","K","K","K","?","?","?","?","?","?","?","?","?","?","?","?","?","?","?","?","?","?","?","?","?","?","?","?","?","?","?","?","?","?","?","?","?","?","B","B","B","B","B","B","B","?","?","?","?","?","?","B","B","B","B","B","B","B","B","B","B","B","?","A","A","A","A","A","A","A","A","A","A","A","A","A","A","A","A","A","A","A","A","A","A","A","A","A","A","A","A","A","A","A","A","A","A","A","A","A","A","A","A","A","A","A","A","A","A","A","A","A","A","A","A","A","A","A","A","A","A","A","A","A","A","A","A","A","A","A","A","A","A","A","A","A","A","A","?","?","?","?","?","?","?","?","?","?","?","?","?","?","?","?","?","?","?","?","?","?","?","?","?","?","?","?","?","?","?","?","?","?","?","?","?","?","?","?","?","?","?","?","?","?","?","?","?","?","?","?","?","?","?","?","?","?","?","?","?","?","?","?","?","?","?","?","?","?","?","?","?","?","?","?","?","?","?","?","?","?","?","?","?","?","?","?","?","?","?","?","?","?","?","?","?","?","?","?","?","?","?","?","?","?","?","?","?","?","?","?","?","?","?","?","?","?","?","?","?","?","?","?","?","?","?","?","?","?","?","?","?","?","?","?","?","?","?","?","?","?","?","?","?","?","?","?","?","?","?","?","?","?","?","?","?","?","?","?","?","?","?","?","?","?","?","?","?","?","?","?","?","?","?","?","?","?","?","?","?","?","?","?","?","?","?","?","?","?","?","?","?","?","?","?","?","?","?","?","?","?","?","?","?","?","?","?","?","?","?","?","?","?","?","?","?","?","?","?","R","?","?","?","?","?","?","?","?","?","?","?","?","?","?","?","?","?","?","?","?","?","?","?","?","?","?","?","G","?","?","?","?","?","L","L","L","L","?","?","?","K","K","K","K","K","K","K","K","K","K","K","K","K","K","K","K","?","?","?","L","L","L","?","M","M","M","?","?","?","?","?","?","?","?","U","U","?","T","T","T","T","T","T","T","T","T","T","T","T","T","T","T","T","T","T","T","T","T","T","T","T","?","U","?","?","?","M","M","M","?","?","?","?","?","?","?","?","?","?","?","?","?","?","?","?","?","?","?","?","?","?","?","?","?","?","?","?","?","?","?","?","?","?","?","?","?","?","?","?","?","?","?","?","?","?","?","?","?","M","M","?","N","N","N","?","O","O","O","O","O","O","O","O","O","O","O","O","O","O","O","O","O","O","O","O","O","O","O","O","O","O","O","O","O","O","O","O","O","O","O","O","O","O","O","O","O","O","O","O","O","O","O","O","O","O","O","O","O","O","O","O","O","O","O","O","O","O","O","O","O","O","?","Y","?","?","?","?","?","?","?","?","?","?","?","?","?","?","?","?","?","?","?","?","?","?","?","?","?","?","?","?","?","?","?","?","?","?","?","?","?","?","?","?","?","?","?","?","?","?","?","?","?","?","?","?","?","?","?","?","?","?","?","?","?","?","?","?","?","?","?","?","?","?","?","?","?","?","?","?","?","?","?","?","?","?","?","?","?","?","?","?","?","?","?","?","?","?","?","?","?","?","?","?","?","?","?","?","?","?","?","?","?","?","?","?","?","?","?","?","?","?","?","?","?","?","?","?","?","?","?","?","?","?","?","?","?","?","?","?","?","?","?","?","?","?","?","?","?","?","?","?","?","?","?","?","?","?","?","?","?","?","?","?","?","?","?","?","?","?","?","?","?","?","?","?","?","?","?","?","?","?","?","?","?","?","?","?","?","?","?","?","?","?","?","?","?","?","?","?","?","?","?","?","?","?","?","?","?","?","?","?","?","?","?","?","?","?","?","?","?","?","?","?","?","?","?","?","?","?","?","?","?","?","?","?","?","?","?","?","?","?","?","?","?","?","?","?","?","?","?","?","?","?","?","?","?","?","?","?","?","?","?","?","?","?","?","?","?","?","?","?","?","?","?","?","?","?","?","?","?","?","?","?","?","?","?","?","?","?","?","?","?","?","?","?","?","?","?","?","?","?","?","?","?","?","?","?","?","?","?","?","?","?","?","?","?","?","?","?","?","?","?","?","?","?","?","?","?","?","?","?","?","?","?","?","?","?","?","?","?","?","?","?","?","?","?","?","?","?","?","?","?","?","?","?","?","?","?","?","?","?","?","?","?","?","?","?","?","?","?","?","?","?","?","?","?","?","?","?","?","?","?","?","?","?","?","?","?","?","?","?","?","?","?","?","?","?","?","T","T","T","?","?","?","?","?","?","?","?","?","?","?","?","?","?","?","?","?","K","K","L","?","?","?","E","?","F","F","F","F","F","F","F","F","F","F","F","F","F","F","F","F","F","F","F","?","?","E","E","E","E","E","?","D","D","D","D","?","C","C","C","C","C","C","C","C","C","C","C","C","C","C","C","C","C","C","C","C","C","C","C","C","C","C","C","C","C","C","C","C","C","C","C","C","C","C","C","C","C","C","C","C","C","C","C","C","C","C","C","C","C","C","C","C","C","C","C","C","C","C","C","C","C","C","C","C","C","C","C","C","C","C","C","C","C","C","C","C","C","C","C","C","C","C","C","C","C","C","C","C","C","C","C","?","?","?","?","?","?","?","?","?","?","?","?","?","?","?","?","?","?","?","?","?","?","?","?","?","?","?","?","?","?","?","?","?","?","?","?","?","?","?","?","?","?","?","?","?","?","?","?","?","?","?","?","?","?","?","?","?","?","?","?","?","?","?","?","?","?","?","?","?","?","?","?","?","?","?","?","?","?","?","?","?","?","?","?","?","?","?","?","?","?","?","?","?","?","?","?","?","?","?","?","?","?","?","?","?","?","?","?","?","?","?","?","?","?","?","?","?","?","?","?","?","?","?","?","?","?","?","?","?","?","?","?","?","?","?","?","?","?","?","?","?","?","?","?","?","?","?","?","?","?","?","?","?","?","?","?","?","?","?","?","?","?","?","?","?","?","?","?","?","?","?","?","?","?","?","?","?","?","?","?","?","?","?","?","?","?","?","?","?","?","?","?","?","?","?","?","?","?","?","?","?","?","?","?","?","?","?","?","?","?","?","?","?","?","?","?","?","?","?","?","?","?","?","?","?","?","?","?","?","?","?","?","?","?","?","?","?","?","?","?","?","?","?","?","?","?","?","?","?","?","?","?","?","?","?","?","?","?","?","?","?","?","?","?","?","?","?","?","?","?","?","?","?","?","?","?","?","?","?","?","?","?","?","?","?","?","?","?","?","?","?","?","?","?","?","?","?","?","?","?","?","?","?","?","?","?","?","?","?","?","?","?","?","?","?","?","?","?","?","?","?","?","?","?","?","?","?","?","?","?","?","?","?","?","?","?","?","?","?","?","?","?","?","?","?","?","?","?","?","?","?","?","?","?","?","?","?","?","?","?","?","?","?","?","?","?","?","?","?","?","?","?","?","?","?","?","?","?","?","?","?","?","?","?","?","?","?","?","?","?","?","?","?","?","?","?","?","?","?","?","?","?","?","?","?","?","?","?","?","?","?","?","?","?","?","?","?","?","?","?","?","?","Z","Z","Z","Z","Z","Z","Z","Z","Z","Z","Z","Z","Z","Z","Z","Z","Z","Z","Z","Z","Z","Z","Z","Z","Z","Z","Z","Z","Z","Z","Z","Z","Z","Z","Z","Z","Z","Z","Z","Z","Z","Z","Z","Z","Z","Z","Z","Z","Z","Z","Z","Z","Z","Z","Z","Z","Z","Z","Z","Z","Z","Z","Z","Z","Z","Z","Z","Z","Z","Z","?","Y","?","?","O","O","O","?","?","?","?","?","?","?","?","?","?","?","?","?","?","?","?","?","?","?","E","E","E","E","E","E","E","E","E","E","E","E","E","E","E","E","E","E","E","E","E","E","E","E","E","E","E","E","E","E","E","E","E","E","E","E","E","E","E","E","E","E","E","E","E","E","E","E","E","E","E","E","E","E","E","E","E","E","E","E","E","E","E","E","E","E","E","E","E","E","E","E","E","E","E","E","E","E","E","E","E","E","E","E","E","E","E","E","E","E","E","E","E","E","E","E","E","?","?","?","F","F","F","F","F","F","F","F","F","F","F","F","F","F","F","F","F","F","F","F","F","F","F","F","F","F","?","?","?","?","?","?","?","?","?","?","?","?","?","?","?","?","?","?","?","?","?","?","F","F","F","?","G","G","G","G","?","?","?","?","?","?","?","?","?","?","?","?","?","G","?","?","M","?","?","S","?","?","?","?","?","?","?","?","?","?","?","?","S","S","?","T","T","T","T","T","T","T","T","T","T","T","T","T","T","T","T","T","T","T","T","T","T","T","T","T","T","T","T","T","T","T","T","T","T","T","T","T","T","T","T","T","T","T","T","T","T","T","T","T","T","T","T","T","T","T","T","T","T","T","T","T","T","T","T","T","T","T","T","T","T","T","T","T","T","T","?","?","?","U","U","U","U","U","U","U","U","U","U","?","V","V","?","?","?","?","?","?","?","N","N","N","N","N","N","N","N","N","N","N","N","?","O","O","O","O","O","O","?","?","P","P","P","P","P","P","P","P","P","P","?","Q","Q","Q","Q","Q","Q","Q","Q","Q","Q","?","?","R","R","R","R","R","R","R","R","R","R","R","R","R","R","R","R","R","R","R","R","R","R","R","R","R","R","R","R","R","R","R","R","R","R","R","R","R","R","R","R","R","R","R","R","R","R","?","?","?","?","?","?","?","?","?","?","?","?","?","?","?","?","?","?","?","?","?","?","?","?","?","?","?","?","?","?","?","?","?","?","?","?","?","?","?","?","?","?","?","?","?","?","?","?","?","?","?","?","?","?","?","?","?","?","?","?","?","?","?","?","?","?","?","?","?","?","?","?","?","?","?","?","?","?","?","?","?","?","?","?","?","?","?","?","?","?","?","?","?","?","?","?"],"t":[40,43,60,77,94,111,131,146,163,180,196,212,229,246,262,280,294,311,328,345,363,380,395,411,428,445,463,480,496,513,530,546,563,580,596,613,630,647,663,680,697,713,730,747,765,781,795,812,828,845,863,880,898,914,931,947,965,979,995,1012,1029,1046,1064,1081,1098,1115,1131,1148,1165,1181,1198,1215,1231,1248,1267,1282,1298,1313,1329,1346,1363,1379,1396,1413,1430,1447,1464,1482,1498,1515,1532,1549,1565,1582,1599,1615,1632,1649,1665,1682,1698,1715,1732,1748,1765,1782,1799,1816,1833,1849,1866,1883,1900,1916,1933,1947,1964,1981,1998,2016,2033,2050,2067,2084,2100,2116,2133,2150,2167,2183,2199,2217,2233,2249,2266,2282,2299,2316,2332,2350,2366,2381,2398,2415,2432,2450,2465,2482,2498,2515,2533,2550,2567,2584,2601,2617,2634,2651,2668,2684,2701,2716,2732,2751,2767,2783,2800,2817,2834,2852,2867,2884,2900,2917,2934,2950,2968,2985,3002,3018,3035,3052,3070,3086,3102,3119,3136,3152,3169,3185,3202,3219,3236,3252,3269,3286,3302,3319,3336,3350,3367,3384,3401,3419,3435,3452,3469,3486,3502,3519,3536,3553,3570,3586,3603,3619,3636,3653,3670,3686,3703,3720,3736,3753,3770,3787,3803,3820,3837,3853,3870,3887,3904,3920,3937,3954,3968,3985,4002,4019,4037,4054,4070,4087,4104,4120,4137,4154,4171,4187,4204,4221,4235,4252,4269,4286,4303,4320,4338,4354,4370,4387,4403,4419,4436,4453,4471,4488,4505,4521,4538,4555,4572,4588,4605,4622,4638,4655,4672,4689,4705,4722,4739,4755,4772,4789,4803,4820,4837,4854,4871,4889,4905,4922,4939,4956,4973,4989,5006,5023,5040,5056,5073,5089,5106,5123,5139,5156,5173,5189,5206,5222,5238,5254,5271,5288,5306,5323,5340,5357,5373,5390,5406,5423,5440,5457,5474,5490,5507,5524,5540,5556,5572,5589,5606,5623,5640,5657,5674,5691,5707,5724,5741,5756,5772,5789,5806,5823,5841,5858,5874,5892,5908,5925,5941,5958,5975,5992,6008,6025,6042,6058,6075,6092,6108,6125,6142,6158,6175,6192,6209,6225,6242,6258,6275,6292,6309,6325,6341,6358,6375,6391,6408,6425,6441,6458,6475,6492,6509,6526,6543,6559,6574,6590,6607,6624,6642,6659,6676,6693,6710,6726,6743,6760,6776,6793,6810,6827,6841,6858,6874,6891,6908,6926,6943,6960,6975,6991,7008,7025,7044,7060,7077,7094,7110,7127,7144,7161,7177,7194,7211,7227,7243,7259,7275,7292,7309,7328,7345,7361,7378,7395,7411,7428,7445,7461,7478,7494,7510,7526,7543,7561,7578,7595,7612,7628,7645,7662,7679,7695,7712,7728,7745,7762,7778,7795,7812,7829,7845,7862,7879,7895,7912,7928,7945,7961,7978,7995,8012,8029,8045,8062,8079,8096,8112,8129,8146,8161,8178,8194,8211,8229,8245,8263,8279,8296,8313,8329,8346,8363,8380,8397,8413,8430,8445,8462,8479,8495,8513,8530,8547,8561,8582,8598,8615,8632,8648,8662,8679,8695,8712,8729,8746,8763,8781,8798,8815,8831,8848,8862,8879,8896,8913,8930,8948,8965,8981,8998,9015,9032,9048,9065,9082,9096,9113,9129,9146,9164,9182,9199,9215,9230,9246,9263,9280,9297,9314,9331,9349,9366,9382,9399,9416,9432,9449,9466,9482,9499,9516,9533,9549,9566,9583,9599,9616,9633,9649,9666,9683,9699,9717,9733,9750,9766,9783,9800,9816,9834,9850,9865,9883,9899,9915,9932,9949,9965,9981,9998,10015,10032,10049,10067,10084,10099,10115,10132,10148,10166,10184,10201,10217,10234,10251,10267,10284,10301,10318,10334,10351,10368,10384,10401,10418,10435,10451,10468,10485,10501,10518,10535,10551,10568,10585,10601,10618,10635,10652,10668,10685,10702,10719,10735,10752,10766,10783,10800,10818,10835,10851,10869,10884,10901,10918,10934,10951,10968,10984,11001,11017,11034,11051,11067,11084,11102,11119,11136,11152,11169,11186,11203,11219,11236,11253,11267,11284,11301,11318,11334,11351,11368,11385,11402,11420,11436,11453,11470,11487,11503,11519,11534,11551,11568,11585,11604,11620,11637,11654,11670,11688,11704,11721,11737,11754,11771,11785,11802,11819,11836,11854,11871,11887,11904,11921,11938,11954,11971,11988,12004,12021,12038,12054,12071,12088,12105,12121,12138,12155,12172,12188,12205,12222,12238,12255,12272,12288,12305,12322,12338,12355,12372,12389,12405,12422,12439,12453,12470,12487,12504,12522,12539,12556,12572,12589,12606,12622,12639,12656,12672,12689,12706,12723,12739,12756,12773,12789,12806,12823,12840,12856,12873,12890,12906,12923,12940,12955,12974,12990,13007,13023,13040,13057,13071,13088,13105,13122,13139,13157,13174,13190,13207,13224,13240,13257,13274,13291,13307,13324,13341,13358,13374,13391,13407,13424,13441,13458,13474,13491,13508,13524,13541,13558,13574,13591,13608,13622,13639,13656,13673,13691,13708,13726,13741,13758,13775,13792,13808,13825,13842,13858,13875,13892,13908,13925,13942,13959,13974,13991,14008,14024,14041,14058,14075,14092,14109,14126,14142,14159,14176,14192,14209,14226,14243,14259,14276,14293,14309,14326,14343,14359,14376,14391,14407,14424,14443,14460,14476,14493,14510,14526,14544,14560,14577,14592,14608,14625,14641,14658,14675,14691,14708,14725,14742,14759,14777,14794,14810,14827,14844,14860,14877,14894,14911,14927,14944,14961,14975,14992,15009,15026,15044,15061,15077,15094,15111,15128,15144,15161,15178,15194,15212,15228,15245,15261,15278,15295,15311,15328,15345,15362,15378,15395,15412,15428,15445,15462,15479,15495,15512,15529,15545,15562,15579,15595,15610,15627,15644,15661,15678,15695,15712,15730,15746,15762,15779,15796,15813,15828,15844,15861,15877,15895,15913,15929,15946,15963,15977,15994,16011,16028,16045,16063,16080,16097,16113,16130,16147,16164,16181,16197,16213,16230,16246,16264,16280,16297,16313,16329,16346,16362,16379,16396,16413,16429,16446,16464,16480,16496,16513,16530,16547,16564,16581,16598,16615,16632,16647,16663,16680,16696,16713,16730,16747,16763,16781,16799,16813,16829,16846,16863,16880,16897,16914,16930,16948,16965,16981,16998,17015,17031,17048,17065,17082,17098,17115,17132,17148,17165,17182,17197,17213,17230,17247,17264,17282,17299,17316,17333,17349,17365,17382,17398,17415,17433,17450,17466,17483,17499,17517,17533,17550,17566,17583,17600,17616,17633,17650,17667,17683,17699,17716,17732,17749,17766,17782,17799,17816,17832,17849,17866,17883,17900,17917,17934,17950,17967,17984,18001,18017,18034,18051,18067,18084,18101,18117,18134,18151,18168,18184,18201,18217,18233,18250,18267,18284,18300,18317,18333,18350,18367,18385,18401,18418,18435,18452,18469,18485,18501,18518,18534,18551,18567,18583,18600,18617,18633,18650,18668,18685,18702,18717,18734,18750,18768,18784,18801,18818,18834,18851,18869,18886,18902,18919,18936,18953,18969,18984,19001,19017,19034,19052,19069,19086,19103,19120,19137,19151,19168,19185,19202,19220,19237,19253,19270,19287,19303,19320,19335,19352,19368,19387,19404,19420,19437,19454,19471,19488,19504,19521,19536,19552,19569,19585,19602,19619,19636,19654,19671,19688,19704,19721,19738,19754,19771,19788,19805,19821,19838,19855,19871,19888,19905,19922,19938,19953,19972,19986,20003,20020,20036,20053,20071,20087,20104,20121,20139,20155,20172,20189,20205,20222,20239,20256,20272,20289,20306,20322,20339,20356,20372,20388,20405,20421,20438,20455,20471,20488,20504,20521,20538,20555,20572,20589,20606,20623,20640,20656,20673,20690,20706,20723,20740,20757,20773,20790,20807,20823,20840,20857,20873,20890,20907,20923,20940,20957,20972,20988,21005,21022,21039,21057,21074,21091,21107,21124,21141,21157,21174,21191,21208,21224,21241,21258,21276,21291,21307,21323,21340,21357,21373,21390,21407,21423,21440,21457,21473,21490,21507,21523,21540,21558,21575,21592,21608,21625,21642,21658,21676,21692,21709,21726,21743,21760,21775,21791,21808,21825,21841,21859,21876,21892,21908,21924,21940,21957,21975,21992,22008,22025,22042,22060,22076,22093,22110,22127,22142,22158,22175,22192,22209,22225,22242,22259,22275,22292,22310,22327,22343,22360,22377,22394,22410,22427,22444,22460,22477,22494,22511,22527,22544,22561,22577,22594,22611,22628,22643,22660,22677,22693,22710,22727,22743,22760,22776,22793,22810,22828,22844,22861,22878,22894,22911,22928,22944,22961,22978,22994,23011,23028,23044,23061,23078,23094,23111,23128,23145,23161,23178,23195,23212,23228,23245,23262,23278,23295,23312,23329,23345,23362,23379,23395,23412,23429,23445,23461,23478,23495,23511,23528,23545,23561,23578,23596,23613,23630,23646,23663,23677,23694,23711,23729,23747,23763,23780,23797,23813,23831,23847,23863,23879,23896,23913,23929,23946,23963,23978,23995,24012,24029,24047,24064,24080,24097,24114,24131,24145,24162,24179,24195,24213,24231,24248,24265,24280,24296,24312,24331,24348,24365,24381,24398,24415,24431,24448,24465,24481,24496,24512,24530,24546,24563,24580,24598,24615,24632,24649,24665,24682,24698,24715,24732,24749,24765,24782,24799,24815,24832,24849,24865,24882,24899,24916,24932,24949,24966,24980,24997,25014,25031,25049,25066,25083,25099,25116,25133,25149,25166,25183,25200,25216,25233,25250,25266,25283,25302,25316,25333,25350,25367,25383,25400,25417,25433,25450,25467,25483,25500,25517,25534,25550,25567,25582,25598,25615,25632,25648,25665,25682,25699,25715,25732,25749,25765,25782,25799,25815,25832,25849,25865,25882,25899,25916,25932,25949,25966,25985,26002,26018,26035,26051,26068,26085,26102,26119,26135,26152,26169,26185,26202,26219,26235,26252,26269,26285,26302,26319,26336,26352,26369,26385,26402,26419,26436,26452,26469,26486,26502,26519,26536,26553,26569,26586,26603,26619,26636,26653,26670,26686,26702,26720,26736,26753,26770,26786,26803,26820,26836,26853,26870,26885,26901,26918,26935,26951,26968,26985,27001,27018,27035,27051,27068,27085,27101,27118,27135,27152,27168,27185,27202,27218,27235,27252,27269,27285,27302,27319,27335,27352,27369,27386,27402,27419,27436,27453,27471,27488,27505,27521,27537,27553,27570,27587,27603,27620,27638,27655,27672,27686,27703,27720,27737,27754,27770,27787,27804,27821,27838,27855,27872,27889,27906,27920,27939,27956,27972,27988,28004,28020,28037,28054,28070,28087,28104,28122,28138,28154,28171,28188,28205,28222,28239,28256,28273,28289,28306,28323,28339,28356,28373,28390,28406,28423,28440,28455,28471,28488,28505,28521,28538,28556,28573,28590,28607,28623,28640,28657,28674,28690,28707,28724,28740,28757,28774,28791,28807,28824,28841,28857,28874,28891,28907,28924,28941,28957,28973,28990,29007,29023,29040,29057,29073,29089,29106,29122,29139,29156,29174,29192,29208,29225,29242,29258,29275,29292,29308,29325,29342,29358,29375,29392,29409,29426,29442,29459,29475,29492,29509,29525,29542,29559,29575,29592,29609,29626,29642,29659,29676,29693,29709,29726,29742,29759,29776,29793,29809,29826,29843,29860,29874,29891,29908,29925,29943,29960,29974,29991,30008,30025,30043,30058,30075,30092,30109,30127,30144,30160,30177,30194,30210,30227,30245,30261,30276,30293,30310,30326,30343,30360,30376,30393,30411,30428,30444,30461,30478,30494,30511,30528,30544,30561,30578,30595,30611,30628,30645,30661,30678,30695,30711,30728,30745,30762,30779,30795,30810,30826,30843,30862,30879,30894,30911,30927,30944,30961,30978,30994,31011,31028,31045,31062,31079,31096,31112,31129,31146,31162,31179,31196,31212,31229,31244,31261,31277,31295,31312,31329,31346,31363,31379,31396,31413,31430,31446,31463,31480,31496,31513,31530,31546,31563,31580,31596,31613,31630,31647,31663,31680,31697,31714,31731,31747,31764,31781,31797,31814,31831,31848,31864,31881,31897,31914,31931,31947,31964,31981,31998,32015,32031,32048,32065,32080,32097,32113,32130,32147,32163,32180,32197,32214,32230,32248,32265,32281,32298,32315,32332,32348,32365,32382,32399,32415,32432,32449,32465,32482,32499,32515,32530,32547,32563,32580,32597,32614,32630,32649,32666,32682,32697,32714,32731,32748,32766,32783,32800,32816,32833,32850,32867,32883,32900,32917,32934,32951,32965,32982,32999,33015,33032,33050,33067,33083,33100,33117,33133,33150,33167,33183,33200,33217,33234,33250,33267,33284,33301,33319,33334,33351,33367,33384,33401,33417,33435,33452,33468,33483,33500,33516,33533,33550,33567,33585,33602,33618,33635,33651,33668,33685,33702,33718,33735,33752,33769,33785,33802,33818,33834,33850,33867,33884,33901,33917,33933,33950,33967,33984,34001,34019,34036,34052,34068,34083,34100,34117,34134,34151,34168,34186,34203,34219,34234,34250,34267,34284,34302,34319,34336,34352,34369,34386,34403,34419,34436,34452,34469,34486,34503,34519,34536,34553,34569,34586,34603,34619,34636,34653,34670,34686,34703,34720,34736,34753,34770,34786,34803,34820,34837,34854,34870,34886,34903,34919,34936,34953,34969,34986,35003,35019,35036,35054,35071,35088,35104,35121,35138,35154,35171,35188,35205,35221,35238,35254,35270,35286,35303,35320,35338,35354,35371,35388,35405,35419,35436,35453,35470,35487,35505,35523,35539,35556,35573,35589,35606,35623,35640,35655,35671,35688,35705,35721,35738,35755,35772,35789,35805,35822,35838,35856,35873,35890,35906,35923,35940,35956,35971,35987,36004,36021,36038,36057,36073,36090,36107,36123,36140,36157,36173,36190,36207,36224,36241,36255,36271,36288,36305,36323,36340,36357,36374,36390,36407,36424,36441,36457,36474,36490,36507,36523,36540,36555,36572,36589,36606,36624,36639,36656,36673,36691,36708,36724,36741,36758,36775,36791,36809,36825,36841,36858,36873,36889,36906,36923,36941,36959,36973,36990,37007,37024,37040,37057,37074,37091,37108,37123,37140,37157,37174,37192,37209,37225,37242,37259,37275,37291,37308,37326,37341,37358,37375,37391,37408,37425,37442,37458,37475,37492,37508,37525,37542,37560,37576,37593,37610,37627,37643,37659,37675,37692,37708,37725,37741,37758,37775,37792,37811,37827,37843,37859,37876,37892,37909,37926,37942,37960,37977,37994,38011,38028,38044,38061,38077,38094,38111,38127,38144,38161,38178,38193,38209,38226,38243,38260,38277,38293,38312,38329,38346,38362,38376,38393,38409,38427,38443,38460,38477,38493,38510,38528,38545,38562,38578,38595,38612,38628,38645,38662,38679,38693,38710,38727,38744,38761,38778,38794,38811,38828,38844,38861,38879,38896,38912,38929,38946,38963,38979,38996,39013,39028,39045,39062,39078,39095,39112,39128,39145,39163,39180,39196,39213,39230,39247,39263,39280,39297,39314,39330,39347,39363,39380,39397,39414,39430,39447,39464,39480,39497,39514,39531,39548,39564,39579,39595,39612,39629,39646,39663,39680,39696,39713,39730,39748,39765,39781,39798,39812,39829,39848,39865,39882,39897,39914,39931,39947,39964,39981,39998,40015,40031,40048,40064,40081,40098,40115,40132,40148,40165,40182,40198,40215,40232,40248,40265,40282,40299,40315,40331,40348,40365,40381,40399,40415,40430,40447,40464,40482,40499,40514,40530,40547,40564,40581,40597,40614,40631,40648,40666,40681,40698,40715,40732,40750,40767,40783,40800,40817,40833,40850,40867,40883,40900,40917,40934,40950,40965,40982,40998,41015,41032,41049,41067,41084,41101,41117,41134,41151,41167,41184,41201,41218,41234,41251,41267,41283,41300,41317,41335,41350,41367,41383,41400,41417,41434,41451,41468,41485,41501,41518,41535,41551,41568,41583,41600,41617,41633,41650,41667,41684,41700,41717,41735,41752,41768,41785,41802,41818,41835,41852,41869,41885,41902,41919,41935,41952,41969,41986,42002,42019,42036,42052,42069,42086,42102,42119,42136,42153,42169,42186,42203,42220,42236,42253,42269,42286,42303,42320,42336,42351,42368,42385,42401,42418,42436,42454,42470,42487,42504,42520,42537,42554,42570,42585,42602,42618,42635,42652,42669,42687,42704,42721,42738,42754,42771,42788,42805,42820,42836,42853,42870,42886,42903,42920,42936,42953,42970,42989,43004,43020,43037,43054,43070,43087,43105,43122,43139,43154,43171,43188,43205,43221,43238,43255,43272,43288,43305,43322,43339,43355,43371,43388,43405,43422,43439,43456,43472,43489,43506,43522,43539,43556,43573,43589,43605,43622,43639,43656,43673,43689,43704,43721,43738,43754,43771,43790,43807,43824,43840,43854,43871,43888,43905,43923,43939,43957,43974,43990,44007,44022,44039,44056,44073,44089,44106,44123,44140,44157,44174,44190,44207,44224,44240,44257,44274,44290,44307,44322,44339,44355,44373,44390,44408,44424,44441,44458,44475,44491,44508,44525,44541,44558,44574,44590,44607,44623,44640,44657,44674,44691,44707,44724,44741,44758,44775,44791,44808,44825,44842,44858,44875,44891,44908,44925,44941,44958,44975,44991,45008,45025,45042,45059,45076,45091,45107,45124,45141,45158,45176,45193,45210,45226,45243,45259,45276,45293,45310,45326,45345,45360,45377,45393,45408,45425,45442,45459,45475,45492,45509,45525,45542,45559,45576,45592,45609,45626,45642,45659,45676,45693,45711,45727,45744,45761,45777,45794,45811,45827,45845,45861,45878,45894,45911,45928,45942,45959,45976,45992,46009,46026,46043,46061,46078,46095,46111,46127,46143,46162,46179,46195,46211,46227,46244,46261,46277,46294,46312,46329,46345,46362,46378,46395,46410,46427,46443,46460,46477,46496,46513,46530,46546,46563,46579,46595,46612,46628,46645,46662,46678,46695,46712,46728,46745,46762,46779,46795,46813,46830,46847,46863,46880,46897,46913,46930,46947,46964,46980,46997,47013,47030,47047,47064,47080,47097,47114,47131,47147,47164,47180,47197,47213,47230,47246,47264,47281,47297,47314,47331,47347,47364,47381,47398,47414,47431,47448,47464,47481,47498,47514,47531,47548,47565,47581,47598,47615,47631,47647,47664,47680,47697,47714,47730,47746,47763,47780,47797,47814,47832,47848,47865,47880,47896,47913,47930,47949,47965,47980,47997,48014,48030,48047,48066,48082,48099,48116,48131,48147,48164,48181,48199,48216,48233,48249,48266,48283,48300,48316,48333,48350,48366,48383,48400,48416,48433,48450,48467,48483,48500,48517,48533,48550,48567,48584,48598,48615,48631,48648,48666,48683,48700,48717,48733,48750,48767,48784,48800,48816,48833,48849,48866,48883,48899,48916,48933,48950,48966,48983,49000,49018,49034,49051,49068,49084,49101,49118,49133,49149,49166,49183,49200,49218,49233,49249,49266,49284,49301,49318,49335,49351,49368,49385,49401,49418,49435,49452,49468,49485,49502,49518,49535,49552,49568,49585,49602,49618,49635,49652,49669,49685,49702,49719,49735,49752,49769,49785,49802,49819,49836,49852,49869,49886,49902,49919,49936,49953,49969,49986,50003,50019,50036,50053,50070,50086,50103,50120,50134,50151,50168,50185,50203,50220,50237,50254,50270,50287,50304,50320,50337,50354,50370,50387,50404,50421,50437,50454,50471,50488,50503,50519,50535,50552,50569,50586,50603,50621,50638,50655,50672,50688,50704,50722,50738,50755,50772,50788,50805,50821,50838,50855,50872,50889,50905,50922,50938,50955,50972,50989,51005,51022,51039,51055,51072,51089,51106,51122,51139,51156,51172,51189,51206,51223,51239,51256,51270,51287,51304,51321,51339,51356,51373,51389,51406,51423,51439,51456,51473,51490,51506,51523,51540,51556,51573,51590,51607,51623,51640,51657,51673,51690,51707,51723,51740,51757,51774,51790,51807,51824,51841,51857,51874,51891,51906,51922,51938,51955,51973,51991,52007,52024,52041,52057,52074,52091,52108,52124,52141,52158,52172,52189,52206,52223,52241,52257,52275,52291,52308,52325,52341,52358,52375,52392,52408,52425,52442,52458,52475,52492,52508,52525,52542,52556,52573,52590,52607,52623,52641,52659,52675,52693,52709,52726,52742,52759,52776,52793,52809,52826,52842,52859,52876,52893,52909,52926,52942,52959,52974,52991,53008,53024,53041,53058,53075,53091,53108,53125,53142,53160,53175,53191,53208,53226,53241,53258,53275,53292,53310,53325,53341,53358,53375,53392,53410,53425,53442,53459,53477,53494,53511,53527,53544,53561,53577,53594,53611,53628,53644,53661,53678,53695,53711,53728,53745,53761,53778,53795,53811,53828,53845,53862,53878,53895,53911,53928,53945,53962,53976,53993,54010,54027,54045,54062,54079,54095,54112,54129,54145,54162,54179,54195,54212,54229,54246,54262,54279,54296,54310,54327,54344,54361,54378,54396,54413,54427,54444,54461,54479,54496,54513,54529,54546,54563,54580,54597,54614,54629,54646,54663,54679,54696,54713,54731,54745,54762,54778,54795,54811,54829,54846,54863,54880,54896,54912,54929,54946,54964,54980,54997,55014,55031,55047,55064,55081,55096,55113,55129,55146,55163,55180,55196,55213,55230,55246,55263,55281,55298,55315,55331,55348,55365,55382,55397,55414,55431,55447,55464,55481,55497,55514,55530,55548,55565,55582,55599,55615,55632,55649,55665,55682,55697,55713,55731,55749,55765,55782,55799,55815,55831,55847,55864,55881,55898,55914,55931,55947,55964,55983,55997,56014,56031,56048,56065,56082,56099,56116,56133,56150,56164,56181,56198,56215,56232,56249,56266,56282,56298,56315,56331,56348,56365,56382,56399,56415,56432,56449,56465,56482,56501,56517,56534,56551,56568,56584,56601,56618,56632,56649,56665,56682,56699,56715,56732,56749,56766,56784,56801,56818,56834,56849,56866,56883,56900,56917,56935,56951,56969,56983,56999,57016,57033,57051,57068,57085,57101,57118,57135,57151,57168,57185,57202,57218,57235,57252,57268,57285,57302,57318,57335,57354,57369,57385,57402,57417,57434,57450,57467,57484,57502,57519,57535,57553,57569,57586,57603,57620,57636,57653,57669,57686,57703,57719,57736,57753,57770,57786,57803,57820,57837,57853,57870,57886,57903,57920,57937,57952,57969,57986,58003,58019,58036,58053,58070,58086,58103,58120,58136,58153,58170,58187,58203,58221,58238,58254,58271,58288,58304,58321,58338,58352,58369,58386,58403,58420,58438,58455,58472,58489,58505,58522,58539,58555,58572,58589,58605,58622,58639,58655,58672,58689,58705,58722,58739,58755,58772,58789,58803,58820,58837,58854,58871,58889,58906,58923,58940,58956,58970,58990,59006,59023,59039,59056,59073,59090,59106,59123,59140,59156,59173,59187,59204,59221,59238,59255,59273,59290,59307,59323,59340,59357,59373,59390,59407,59424,59441,59457,59474,59490,59507,59524,59541,59557,59574,59591,59607,59624,59641,59658,59674,59691,59707,59724,59741,59758,59774,59791,59808,59825,59841,59858,59875,59891,59908,59925,59941,59958,59972,59989,60006,60023,60040,60058,60075,60092,60109,60125,60142,60159,60175,60192,60209,60226,60240,60256,60273,60290,60307,60325,60341,60357,60373,60391,60409,60426,60442,60459,60474,60490,60507,60524,60542,60557,60574,60591,60608,60626,60641,60657,60674,60691,60708,60726,60742,60759,60776,60793,60808,60824,60841,60859,60876,60893,60909,60926,60943,60960,60976,60993,61010,61027,61043,61060,61077,61093,61110,61127,61143,61160,61177,61194,61210,61227,61244,61260,61277,61294,61310,61327,61344,61360,61376,61392,61409,61426,61442,61459,61476,61493,61523,61543,61559,61576,61593,61610,61626,61643,61659,61679,61696,61710,61726,61743,61760,61777,61796,61811,61827,61843,61860,61877,61896,61912,61929,61946,61963,61979,61996,62012,62029,62046,62063,62079,62096,62113,62129,62146,62163,62179,62196,62213,62229,62244,62261,62277,62295,62312,62330,62347,62361,62378,62395,62412,62429,62447,62463,62480,62497,62513,62530,62547,62564,62580,62597,62614,62630,62646,62663,62679,62696,62713,62730,62747,62764,62781,62797,62814,62831,62847,62864,62880,62897,62913,62930,62947,62964,62980,62997,63014,63031,63047,63064,63081,63097,63114,63131,63146,63163,63180,63196,63214,63231,63247,63264,63281,63297,63314,63331,63348,63364,63381,63398,63414,63431,63448,63464,63481,63498,63515,63532,63549,63565,63582,63599,63615,63631,63648,63665,63682,63699,63716,63732,63749,63766,63783,63800,63816,63833,63849,63866,63883,63898,63915,63932,63948,63965,63982,63998,64015,64032,64049,64065,64082,64099,64117,64134,64150,64165,64181,64198,64215,64233,64250,64267,64284,64301,64317,64334,64351,64367,64384,64401,64418,64433,64449,64466,64483,64500,64518,64535,64551,64568,64585,64601,64617,64634,64651,64666,64683,64700,64717,64733,64750,64767,64784,64800,64817,64835,64852,64869,64885,64902,64919,64936,64953,64969,64984,65001,65018,65034,65051,65068,65085,65102,65118,65135,65152,65170,65187,65203,65220,65236,65253,65270,65286,65303,65320,65336,65352,65369,65385,65402,65419,65437,65451,65468,65485,65502,65519,65536,65553,65569,65586,65603,65619,65636,65653,65669,65686,65704,65721,65737,65754,65770,65787,65802,65819,65835,65852,65869,65887,65904,65921,65935,65952,65969,65987,66004,66019,66036,66052,66069,66087,66105,66119,66136,66153,66171,66188,66205,66222,66238,66255,66271,66288,66304,66321,66338,66354,66371,66388,66404,66421,66438,66454,66471,66488,66505,66522,66539,66555,66572,66589,66605,66622,66640,66656,66672,66689,66706,66722,66739,66756,66772,66789,66806,66822,66839,66856,66872,66890,66907,66923,66940,66957,66973,66988,67005,67021,67038,67055,67071,67089,67106,67121,67138,67155,67172,67189,67207,67223,67240,67257,67273,67290,67307,67323,67340,67357,67374,67391,67407,67424,67440,67457,67474,67491,67507,67524,67541,67557,67574,67591,67608,67624,67641,67658,67674,67691,67708,67724,67741,67758,67775,67789,67806,67823,67840,67858,67875,67891,67908,67925,67942,67958,67975,67992,68008,68025,68042,68058,68075,68092,68109,68125,68142,68159,68175,68192,68209,68226,68242,68259,68276,68293,68307,68324,68341,68358,68376,68393,68410,68426,68443,68458,68474,68491,68508,68525,68542,68559,68576,68593,68610,68627,68643,68660,68676,68692,68709,68726,68742,68759,68776,68793,68809,68826,68844,68861,68878,68894,68911,68927,68944,68961,68977,68994,69011,69027,69044,69061,69077,69094,69111,69128,69145,69161,69176,69193,69209,69226,69243,69260,69277,69294,69310,69327,69344,69361,69376,69393,69410,69427,69444,69461,69478,69495,69512,69529,69545,69562,69578,69594,69611,69628,69644,69661,69678,69694,69711,69728,69745,69760,69777,69794,69810,69827,69844,69861,69878,69894,69911,69928,69945,69962,69979,69996,70013,70030,70046,70063,70080,70097,70113,70130,70147,70164,70179,70195,70212,70229,70246,70264,70281,70297,70314,70330,70347,70364,70381,70397,70414,70430,70447,70463,70480,70497,70513,70530,70547,70563,70580,70597,70614,70631,70648,70664,70681,70698,70714,70731,70748,70764,70781,70798,70815,70831,70848,70865,70881,70898,70915,70932,70948,70965,70980,70996,71013,71030,71047,71065,71082,71099,71114,71130,71147,71164,71181,71198,71215,71231,71248,71265,71282,71299,71316,71332,71349,71366,71383,71399,71416,71432,71449,71465,71482,71499,71516,71532,71549,71566,71582,71599,71616,71633,71649,71667,71684,71700,71717,71734,71750,71766,71782,71799,71816,71833,71849,71866,71883,71899,71916,71933,71950,71967,71983,72000,72015,72032,72049,72066,72083,72099,72116,72132,72149,72166,72185,72202,72218,72235,72252,72268,72285,72302,72319,72335,72352,72367,72383,72400,72417,72433,72452,72469,72486,72501,72518,72535,72552,72567,72583,72600,72617,72634,72653,72669,72685,72700,72717,72734,72751,72768,72786,72802,72819,72836,72852,72869,72886,72903,72920,72936,72953,72968,72984,73001,73018,73034,73051,73071,73086,73101,73118,73134,73151,73168,73186,73202,73219,73236,73252,73269,73285,73303,73321,73337,73354,73371,73387,73404,73420,73435,73452,73469,73486,73504,73521,73538,73554,73572,73588,73605,73621,73636,73652,73669,73686,73703,73720,73737,73753,73770,73786,73803,73819,73836,73853,73870,73888,73904,73921,73938,73955,73971,73988,74003,74020,74036,74053,74070,74087,74104,74121,74137,74154,74172,74189,74205,74222,74239,74256,74272,74289,74306,74322,74339,74356,74373,74389,74405,74421,74438,74455,74472,74489,74506,74522,74539,74556,74573,74589,74606,74625],"hit":[null],"x":[0.047619047619047616,0.047619047619047616,0.047619047619047616,0.047619047619047616,0.047619047619047616,0.047619047619047616,0.047619047619047616,0.047619047619047616,0.047619047619047616,0.047619047619047616,0.047619047619047616,0.047619047619047616,0.047619047619047616,0.047619047619047616,0.047619047619047616,0.047619047619047616,0.047619047619047616,0.047619047619047616,0.047619047619047616,0.047619047619047616,0.047619047619047616,0.047619047619047616,0.047619047619047616,0.047619047619047616,0.047619047619047616,0.047619047619047616,0.047619047619047616,0.047619047619047616,0.047619047619047616,0.047619047619047616,0.047619047619047616,0.047619047619047616,0.047619047619047616,0.047619047619047616,0.047619047619047616,0.047619047619047616,0.047619047619047616,0.047619047619047616,0.047619047619047616,0.047619047619047616,0.047619047619047616,0.047619047619047616,0.047619047619047616,0.047619047619047616,0.05442176870748299,0.061224489795918366,0.07142857142857142,0.08503401360544217,0.09523809523809523,0.09863945578231292,0.10204081632653061,0.10204081632653061,0.1054421768707483,0.11224489795918367,0.11904761904761904,0.11904761904761904,0.12244897959183673,0.1360544217687075,0.14965986394557823,0.1598639455782313,0.16326530612244897,0.16666666666666666,0.16666666666666666,0.16666666666666666,0.16666666666666666,0.16666666666666666,0.16666666666666666,0.16666666666666666,0.16666666666666666,0.16666666666666666,0.16666666666666666,0.16666666666666666,0.16666666666666666,0.16666666666666666,0.16666666666666666,0.16666666666666666,0.16666666666666666,0.16666666666666666,0.16666666666666666,0.16666666666666666,0.16666666666666666,0.16666666666666666,0.16666666666666666,0.16666666666666666,0.16666666666666666,0.16666666666666666,0.16666666666666666,0.16666666666666666,0.16666666666666666,0.16666666666666666,0.16666666666666666,0.16666666666666666,0.16666666666666666,0.16666666666666666,0.16666666666666666,0.16666666666666666,0.16666666666666666,0.16666666666666666,0.16666666666666666,0.16666666666666666,0.16666666666666666,0.16666666666666666,0.16666666666666666,0.16666666666666666,0.16666666666666666,0.16666666666666666,0.16666666666666666,0.16666666666666666,0.16666666666666666,0.16666666666666666,0.16666666666666666,0.16666666666666666,0.16666666666666666,0.16666666666666666,0.16666666666666666,0.16666666666666666,0.16666666666666666,0.16666666666666666,0.16666666666666666,0.16666666666666666,0.16666666666666666,0.17346938775510204,0.17687074829931973,0.17687074829931973,0.17687074829931973,0.17687074829931973,0.18027210884353742,0.18027210884353742,0.1870748299319728,0.20068027210884354,0.22108843537414966,0.23809523809523808,0.23809523809523808,0.22108843537414966,0.19727891156462585,0.18027210884353742,0.17006802721088435,0.16326530612244897,0.1598639455782313,0.1564625850340136,0.1564625850340136,0.1564625850340136,0.1564625850340136,0.1564625850340136,0.1564625850340136,0.1564625850340136,0.1564625850340136,0.1564625850340136,0.1564625850340136,0.1564625850340136,0.1564625850340136,0.1564625850340136,0.1564625850340136,0.1564625850340136,0.1564625850340136,0.1564625850340136,0.1564625850340136,0.1564625850340136,0.1564625850340136,0.1564625850340136,0.1598639455782313,0.17346938775510204,0.19727891156462585,0.23469387755102042,0.282312925170068,0.3469387755102041,0.4013605442176871,0.445578231292517,0.47278911564625853,0.48299319727891155,0.48299319727891155,0.48299319727891155,0.48299319727891155,0.48299319727891155,0.48299319727891155,0.48299319727891155,0.48299319727891155,0.48299319727891155,0.48299319727891155,0.48299319727891155,0.48299319727891155,0.47959183673469385,0.46938775510204084,0.4557823129251701,0.445578231292517,0.43537414965986393,0.43197278911564624,0.42857142857142855,0.42857142857142855,0.42857142857142855,0.42857142857142855,0.42857142857142855,0.42857142857142855,0.42857142857142855,0.42857142857142855,0.42857142857142855,0.42857142857142855,0.42857142857142855,0.42857142857142855,0.42857142857142855,0.42857142857142855,0.42857142857142855,0.42857142857142855,0.42857142857142855,0.42857142857142855,0.42857142857142855,0.42857142857142855,0.42857142857142855,0.42857142857142855,0.42857142857142855,0.42857142857142855,0.42857142857142855,0.42857142857142855,0.42857142857142855,0.42857142857142855,0.42857142857142855,0.42857142857142855,0.42857142857142855,0.42857142857142855,0.42857142857142855,0.42857142857142855,0.42857142857142855,0.42857142857142855,0.42857142857142855,0.42857142857142855,0.42857142857142855,0.42857142857142855,0.42857142857142855,0.42857142857142855,0.42857142857142855,0.42857142857142855,0.42857142857142855,0.42857142857142855,0.42857142857142855,0.42857142857142855,0.42857142857142855,0.42857142857142855,0.42857142857142855,0.42857142857142855,0.42857142857142855,0.42857142857142855,0.42857142857142855,0.42857142857142855,0.42857142857142855,0.42857142857142855,0.42857142857142855,0.42857142857142855,0.42857142857142855,0.42857142857142855,0.42857142857142855,0.42857142857142855,0.42857142857142855,0.42857142857142855,0.42857142857142855,0.42857142857142855,0.42857142857142855,0.42857142857142855,0.42857142857142855,0.42857142857142855,0.42857142857142855,0.42857142857142855,0.42857142857142855,0.42857142857142855,0.42857142857142855,0.42857142857142855,0.42857142857142855,0.42857142857142855,0.42857142857142855,0.42857142857142855,0.42857142857142855,0.42857142857142855,0.42857142857142855,0.42857142857142855,0.42857142857142855,0.42857142857142855,0.42857142857142855,0.42857142857142855,0.42857142857142855,0.42857142857142855,0.42857142857142855,0.42857142857142855,0.42857142857142855,0.42857142857142855,0.42857142857142855,0.42857142857142855,0.42857142857142855,0.42857142857142855,0.42857142857142855,0.42857142857142855,0.42857142857142855,0.42857142857142855,0.42857142857142855,0.42857142857142855,0.42857142857142855,0.42857142857142855,0.42857142857142855,0.42857142857142855,0.42857142857142855,0.42857142857142855,0.42857142857142855,0.42857142857142855,0.42857142857142855,0.42857142857142855,0.42857142857142855,0.42857142857142855,0.42857142857142855,0.42857142857142855,0.42857142857142855,0.42857142857142855,0.42857142857142855,0.42857142857142855,0.42857142857142855,0.42857142857142855,0.42857142857142855,0.42857142857142855,0.42857142857142855,0.42857142857142855,0.42857142857142855,0.42857142857142855,0.42857142857142855,0.42857142857142855,0.42857142857142855,0.42857142857142855,0.42857142857142855,0.42857142857142855,0.42517006802721086,0.42517006802721086,0.41836734693877553,0.40476190476190477,0.3741496598639456,0.30272108843537415,0.22789115646258504,0.16326530612244897,0.10884353741496598,0.08843537414965986,0.08503401360544217,0.08503401360544217,0.08503401360544217,0.08503401360544217,0.08503401360544217,0.08503401360544217,0.08503401360544217,0.08503401360544217,0.08503401360544217,0.09523809523809523,0.10204081632653061,0.10884353741496598,0.10884353741496598,0.10884353741496598,0.11224489795918367,0.11224489795918367,0.11224489795918367,0.11224489795918367,0.11224489795918367,0.11224489795918367,0.11224489795918367,0.11224489795918367,0.11564625850340136,0.11904761904761904,0.11904761904761904,0.11904761904761904,0.11904761904761904,0.11904761904761904,0.11904761904761904,0.11904761904761904,0.11904761904761904,0.11904761904761904,0.11904761904761904,0.11904761904761904,0.11904761904761904,0.11904761904761904,0.11904761904761904,0.11904761904761904,0.11904761904761904,0.11904761904761904,0.11904761904761904,0.11904761904761904,0.11904761904761904,0.11904761904761904,0.11904761904761904,0.11904761904761904,0.11904761904761904,0.11904761904761904,0.11904761904761904,0.11904761904761904,0.11904761904761904,0.11904761904761904,0.11904761904761904,0.11904761904761904,0.11904761904761904,0.11904761904761904,0.11904761904761904,0.11904761904761904,0.11904761904761904,0.11904761904761904,0.11904761904761904,0.11904761904761904,0.11904761904761904,0.11904761904761904,0.11904761904761904,0.11904761904761904,0.11904761904761904,0.11904761904761904,0.11904761904761904,0.11904761904761904,0.11904761904761904,0.11904761904761904,0.11904761904761904,0.11904761904761904,0.11904761904761904,0.11904761904761904,0.11904761904761904,0.11904761904761904,0.11904761904761904,0.11904761904761904,0.11904761904761904,0.11904761904761904,0.11904761904761904,0.11904761904761904,0.11904761904761904,0.11904761904761904,0.11904761904761904,0.11904761904761904,0.11904761904761904,0.11904761904761904,0.11904761904761904,0.11904761904761904,0.11904761904761904,0.11904761904761904,0.11904761904761904,0.11904761904761904,0.11904761904761904,0.11904761904761904,0.11904761904761904,0.11904761904761904,0.11904761904761904,0.11904761904761904,0.11904761904761904,0.11904761904761904,0.11904761904761904,0.11904761904761904,0.11904761904761904,0.11904761904761904,0.11904761904761904,0.11904761904761904,0.11904761904761904,0.11904761904761904,0.11904761904761904,0.11904761904761904,0.11904761904761904,0.11904761904761904,0.11904761904761904,0.11904761904761904,0.11904761904761904,0.11904761904761904,0.11904761904761904,0.11904761904761904,0.11904761904761904,0.11904761904761904,0.11904761904761904,0.11904761904761904,0.11904761904761904,0.11904761904761904,0.11904761904761904,0.11904761904761904,0.11904761904761904,0.11904761904761904,0.11904761904761904,0.11904761904761904,0.11904761904761904,0.11904761904761904,0.11904761904761904,0.11904761904761904,0.11904761904761904,0.11904761904761904,0.11904761904761904,0.11904761904761904,0.11904761904761904,0.11904761904761904,0.11904761904761904,0.11904761904761904,0.11904761904761904,0.11904761904761904,0.11904761904761904,0.11904761904761904,0.11904761904761904,0.11904761904761904,0.11904761904761904,0.11904761904761904,0.11904761904761904,0.11904761904761904,0.11904761904761904,0.11904761904761904,0.11904761904761904,0.11904761904761904,0.11904761904761904,0.11904761904761904,0.11904761904761904,0.11904761904761904,0.12244897959183673,0.12244897959183673,0.12585034013605442,0.12585034013605442,0.12585034013605442,0.12585034013605442,0.12585034013605442,0.12585034013605442,0.12585034013605442,0.12585034013605442,0.12585034013605442,0.12585034013605442,0.12585034013605442,0.12585034013605442,0.12585034013605442,0.12585034013605442,0.12585034013605442,0.12585034013605442,0.12585034013605442,0.12585034013605442,0.12585034013605442,0.12585034013605442,0.12585034013605442,0.12585034013605442,0.12585034013605442,0.12585034013605442,0.12585034013605442,0.12585034013605442,0.12585034013605442,0.12585034013605442,0.12585034013605442,0.12585034013605442,0.12585034013605442,0.12585034013605442,0.12585034013605442,0.12585034013605442,0.12585034013605442,0.12585034013605442,0.12585034013605442,0.12585034013605442,0.12585034013605442,0.12585034013605442,0.12585034013605442,0.12585034013605442,0.12585034013605442,0.12585034013605442,0.12585034013605442,0.12585034013605442,0.12585034013605442,0.12585034013605442,0.12585034013605442,0.12585034013605442,0.12585034013605442,0.12585034013605442,0.12585034013605442,0.12585034013605442,0.12585034013605442,0.12585034013605442,0.12585034013605442,0.12585034013605442,0.12585034013605442,0.12585034013605442,0.12585034013605442,0.12585034013605442,0.12585034013605442,0.12585034013605442,0.12585034013605442,0.12585034013605442,0.12585034013605442,0.12585034013605442,0.12585034013605442,0.12585034013605442,0.12585034013605442,0.12585034013605442,0.12585034013605442,0.12585034013605442,0.12585034013605442,0.12585034013605442,0.12585034013605442,0.12585034013605442,0.12585034013605442,0.12585034013605442,0.12585034013605442,0.12585034013605442,0.12585034013605442,0.12585034013605442,0.12585034013605442,0.12585034013605442,0.1326530612244898,0.1564625850340136,0.2108843537414966,0.29931972789115646,0.3843537414965986,0.4557823129251701,0.4931972789115646,0.5238095238095238,0.5510204081632653,0.564625850340136,0.5714285714285714,0.5714285714285714,0.5714285714285714,0.5714285714285714,0.5714285714285714,0.5714285714285714,0.5714285714285714,0.5714285714285714,0.5714285714285714,0.5714285714285714,0.5714285714285714,0.5714285714285714,0.5714285714285714,0.5714285714285714,0.5714285714285714,0.5714285714285714,0.5714285714285714,0.5714285714285714,0.5714285714285714,0.5714285714285714,0.5714285714285714,0.5714285714285714,0.5714285714285714,0.5714285714285714,0.5714285714285714,0.5714285714285714,0.5714285714285714,0.5714285714285714,0.5714285714285714,0.5714285714285714,0.5714285714285714,0.5714285714285714,0.5714285714285714,0.5714285714285714,0.5714285714285714,0.5714285714285714,0.5714285714285714,0.5714285714285714,0.5714285714285714,0.5714285714285714,0.5714285714285714,0.5714285714285714,0.5714285714285714,0.5714285714285714,0.5714285714285714,0.5714285714285714,0.5714285714285714,0.5714285714285714,0.5714285714285714,0.5680272108843537,0.5578231292517006,0.54421768707483,0.5340136054421769,0.5170068027210885,0.5034013605442177,0.4931972789115646,0.47959183673469385,0.46598639455782315,0.45918367346938777,0.4489795918367347,0.4421768707482993,0.43537414965986393,0.43197278911564624,0.42857142857142855,0.42857142857142855,0.42857142857142855,0.42857142857142855,0.42857142857142855,0.42857142857142855,0.42857142857142855,0.42857142857142855,0.42857142857142855,0.42857142857142855,0.42857142857142855,0.42857142857142855,0.42857142857142855,0.42857142857142855,0.42857142857142855,0.42857142857142855,0.42857142857142855,0.42857142857142855,0.42857142857142855,0.42857142857142855,0.42857142857142855,0.42857142857142855,0.42857142857142855,0.42857142857142855,0.42857142857142855,0.42857142857142855,0.42857142857142855,0.42857142857142855,0.42857142857142855,0.42857142857142855,0.42857142857142855,0.42857142857142855,0.42857142857142855,0.42857142857142855,0.42857142857142855,0.42857142857142855,0.42857142857142855,0.42857142857142855,0.42857142857142855,0.42857142857142855,0.42857142857142855,0.42857142857142855,0.42857142857142855,0.42857142857142855,0.42857142857142855,0.42857142857142855,0.42857142857142855,0.42857142857142855,0.42857142857142855,0.42857142857142855,0.42857142857142855,0.42857142857142855,0.42857142857142855,0.42857142857142855,0.42857142857142855,0.42857142857142855,0.42857142857142855,0.42857142857142855,0.42857142857142855,0.42857142857142855,0.42857142857142855,0.42857142857142855,0.42857142857142855,0.42857142857142855,0.42857142857142855,0.42857142857142855,0.42857142857142855,0.42857142857142855,0.42857142857142855,0.42857142857142855,0.42857142857142855,0.42857142857142855,0.42857142857142855,0.42857142857142855,0.42857142857142855,0.42857142857142855,0.42857142857142855,0.42857142857142855,0.42857142857142855,0.42857142857142855,0.42857142857142855,0.42857142857142855,0.42857142857142855,0.42857142857142855,0.42857142857142855,0.42857142857142855,0.42857142857142855,0.42857142857142855,0.42857142857142855,0.42857142857142855,0.42857142857142855,0.42857142857142855,0.42857142857142855,0.42857142857142855,0.42857142857142855,0.42857142857142855,0.42857142857142855,0.42857142857142855,0.42857142857142855,0.42857142857142855,0.42857142857142855,0.42857142857142855,0.42857142857142855,0.42857142857142855,0.42857142857142855,0.42857142857142855,0.42857142857142855,0.42857142857142855,0.42857142857142855,0.42857142857142855,0.42857142857142855,0.42857142857142855,0.42857142857142855,0.42857142857142855,0.42857142857142855,0.42857142857142855,0.42857142857142855,0.42857142857142855,0.42857142857142855,0.42857142857142855,0.42857142857142855,0.42857142857142855,0.42857142857142855,0.42857142857142855,0.42857142857142855,0.42857142857142855,0.42857142857142855,0.42857142857142855,0.42857142857142855,0.42857142857142855,0.42857142857142855,0.42857142857142855,0.42857142857142855,0.42857142857142855,0.42857142857142855,0.42857142857142855,0.42857142857142855,0.42857142857142855,0.42857142857142855,0.42857142857142855,0.42857142857142855,0.42857142857142855,0.42857142857142855,0.42857142857142855,0.42857142857142855,0.42857142857142855,0.42857142857142855,0.42857142857142855,0.42857142857142855,0.42857142857142855,0.42857142857142855,0.42857142857142855,0.42857142857142855,0.42857142857142855,0.42857142857142855,0.42857142857142855,0.42857142857142855,0.42857142857142855,0.42857142857142855,0.42857142857142855,0.42857142857142855,0.42857142857142855,0.42857142857142855,0.42857142857142855,0.42857142857142855,0.42857142857142855,0.42857142857142855,0.42857142857142855,0.42857142857142855,0.42857142857142855,0.42857142857142855,0.42857142857142855,0.42857142857142855,0.42857142857142855,0.42857142857142855,0.42857142857142855,0.42857142857142855,0.42857142857142855,0.42857142857142855,0.42857142857142855,0.42857142857142855,0.42857142857142855,0.42857142857142855,0.42857142857142855,0.42857142857142855,0.42857142857142855,0.42857142857142855,0.42857142857142855,0.42857142857142855,0.42857142857142855,0.42857142857142855,0.42857142857142855,0.42857142857142855,0.42857142857142855,0.42857142857142855,0.42857142857142855,0.42857142857142855,0.42857142857142855,0.42857142857142855,0.42857142857142855,0.42857142857142855,0.42857142857142855,0.42857142857142855,0.42857142857142855,0.42857142857142855,0.42857142857142855,0.42857142857142855,0.42857142857142855,0.42857142857142855,0.42857142857142855,0.42857142857142855,0.42857142857142855,0.42857142857142855,0.42857142857142855,0.42857142857142855,0.42857142857142855,0.42857142857142855,0.42857142857142855,0.42857142857142855,0.42857142857142855,0.42857142857142855,0.42857142857142855,0.42857142857142855,0.42857142857142855,0.42857142857142855,0.42857142857142855,0.42857142857142855,0.42857142857142855,0.42857142857142855,0.42857142857142855,0.42857142857142855,0.42857142857142855,0.42857142857142855,0.42857142857142855,0.42857142857142855,0.42857142857142855,0.42857142857142855,0.42857142857142855,0.42857142857142855,0.42857142857142855,0.42857142857142855,0.42857142857142855,0.42857142857142855,0.42857142857142855,0.42857142857142855,0.42857142857142855,0.42857142857142855,0.42857142857142855,0.42857142857142855,0.42857142857142855,0.42857142857142855,0.42857142857142855,0.42857142857142855,0.42857142857142855,0.42857142857142855,0.42857142857142855,0.42857142857142855,0.42857142857142855,0.42857142857142855,0.42857142857142855,0.42857142857142855,0.42857142857142855,0.42857142857142855,0.42857142857142855,0.42857142857142855,0.42857142857142855,0.42857142857142855,0.42857142857142855,0.42857142857142855,0.42857142857142855,0.42857142857142855,0.42857142857142855,0.42857142857142855,0.42857142857142855,0.42857142857142855,0.42857142857142855,0.42857142857142855,0.42857142857142855,0.42857142857142855,0.42857142857142855,0.42857142857142855,0.42857142857142855,0.42857142857142855,0.42857142857142855,0.42857142857142855,0.42857142857142855,0.42857142857142855,0.42857142857142855,0.42857142857142855,0.42857142857142855,0.42857142857142855,0.42857142857142855,0.42857142857142855,0.42857142857142855,0.42857142857142855,0.42857142857142855,0.42857142857142855,0.42517006802721086,0.42517006802721086,0.42517006802721086,0.42517006802721086,0.4217687074829932,0.4217687074829932,0.41836734693877553,0.41836734693877553,0.41836734693877553,0.41836734693877553,0.42517006802721086,0.4387755102040816,0.4489795918367347,0.4523809523809524,0.4523809523809524,0.4523809523809524,0.445578231292517,0.42857142857142855,0.41496598639455784,0.41156462585034015,0.4217687074829932,0.445578231292517,0.48639455782312924,0.5272108843537415,0.5510204081632653,0.564625850340136,0.564625850340136,0.564625850340136,0.5680272108843537,0.5680272108843537,0.5680272108843537,0.5680272108843537,0.5680272108843537,0.5680272108843537,0.5680272108843537,0.5714285714285714,0.5918367346938775,0.6292517006802721,0.6632653061224489,0.7040816326530612,0.7653061224489796,0.8435374149659864,0.9013605442176871,0.9217687074829932,0.9285714285714286,0.9285714285714286,0.9285714285714286,0.9047619047619048,0.8435374149659864,0.7857142857142857,0.7755102040816326,0.7755102040816326,0.7959183673469388,0.8231292517006803,0.8979591836734694,0.9081632653061225,0.9081632653061225,0.9081632653061225,0.9081632653061225,0.9081632653061225,0.9081632653061225,0.9081632653061225,0.9081632653061225,0.9081632653061225,0.9081632653061225,0.9081632653061225,0.9081632653061225,0.9081632653061225,0.9081632653061225,0.9081632653061225,0.9081632653061225,0.9081632653061225,0.9081632653061225,0.9081632653061225,0.9081632653061225,0.9081632653061225,0.9081632653061225,0.9081632653061225,0.9081632653061225,0.9047619047619048,0.8775510204081632,0.8571428571428571,0.8503401360544217,0.8469387755102041,0.8469387755102041,0.8469387755102041,0.8503401360544217,0.8639455782312925,0.8775510204081632,0.8775510204081632,0.8775510204081632,0.8775510204081632,0.8775510204081632,0.8775510204081632,0.8775510204081632,0.8775510204081632,0.8775510204081632,0.8775510204081632,0.8775510204081632,0.8809523809523809,0.9013605442176871,0.935374149659864,0.9693877551020408,0.9829931972789115,0.9931972789115646,1,1.0068027210884354,1.0170068027210883,1.0238095238095237,1.030612244897959,1.034013605442177,1.0442176870748299,1.0442176870748299,1.0442176870748299,1.0442176870748299,1.0442176870748299,1.0442176870748299,1.0442176870748299,1.0442176870748299,1.0442176870748299,1.0442176870748299,1.0442176870748299,1.0442176870748299,1.0442176870748299,1.0442176870748299,1.0442176870748299,1.0442176870748299,1.0442176870748299,1.0408163265306123,1.0272108843537415,0.9795918367346939,0.8367346938775511,0.6156462585034014,0.3163265306122449,0.08843537414965986,-0.08503401360544217,-0.20748299319727892,-0.282312925170068,-0.3333333333333333,-0.3673469387755102,-0.3707482993197279,-0.3707482993197279,-0.3707482993197279,-0.3707482993197279,-0.3707482993197279,-0.3707482993197279,-0.3707482993197279,-0.35714285714285715,-0.3197278911564626,-0.2619047619047619,-0.1870748299319728,-0.1054421768707483,-0.013605442176870748,0.1054421768707483,0.22108843537414966,0.3197278911564626,0.37755102040816324,0.391156462585034,0.391156462585034,0.391156462585034,0.391156462585034,0.391156462585034,0.391156462585034,0.391156462585034,0.391156462585034,0.391156462585034,0.391156462585034,0.391156462585034,0.391156462585034,0.391156462585034,0.391156462585034,0.391156462585034,0.391156462585034,0.391156462585034,0.391156462585034,0.391156462585034,0.391156462585034,0.391156462585034,0.391156462585034,0.391156462585034,0.391156462585034,0.391156462585034,0.391156462585034,0.391156462585034,0.391156462585034,0.391156462585034,0.3877551020408163,0.38095238095238093,0.37755102040816324,0.3741496598639456,0.3741496598639456,0.3673469387755102,0.3673469387755102,0.36394557823129253,0.36394557823129253,0.36054421768707484,0.36054421768707484,0.36054421768707484,0.36054421768707484,0.35714285714285715,0.35034013605442177,0.3469387755102041,0.3469387755102041,0.3435374149659864,0.3435374149659864,0.3401360544217687,0.336734693877551,0.3333333333333333,0.32653061224489793,0.30952380952380953,0.2891156462585034,0.23809523809523808,0.18027210884353742,0.11564625850340136,0.08163265306122448,0.05782312925170068,0.047619047619047616,0.04081632653061224,0.04081632653061224,0.04081632653061224,0.04081632653061224,0.04081632653061224,0.04081632653061224,0.04081632653061224,0.04081632653061224,0.04081632653061224,0.04081632653061224,0.04081632653061224,0.04081632653061224,0.04081632653061224,0.04081632653061224,0.04081632653061224,0.04081632653061224,0.04421768707482993,0.04421768707482993,0.05102040816326531,0.06462585034013606,0.0782312925170068,0.09863945578231292,0.11564625850340136,0.1326530612244898,0.15306122448979592,0.17006802721088435,0.1870748299319728,0.20068027210884354,0.2108843537414966,0.2108843537414966,0.2108843537414966,0.2108843537414966,0.2108843537414966,0.2108843537414966,0.21428571428571427,0.21428571428571427,0.2108843537414966,0.2108843537414966,0.20748299319727892,0.20748299319727892,0.20748299319727892,0.20748299319727892,0.20748299319727892,0.22448979591836735,0.25510204081632654,0.2891156462585034,0.32653061224489793,0.3673469387755102,0.40476190476190477,0.4489795918367347,0.4965986394557823,0.5374149659863946,0.5680272108843537,0.5986394557823129,0.6190476190476191,0.6360544217687075,0.6394557823129252,0.6394557823129252,0.6394557823129252,0.6394557823129252,0.6394557823129252,0.6394557823129252,0.6394557823129252,0.6394557823129252,0.6394557823129252,0.6394557823129252,0.6394557823129252,0.6394557823129252,0.6394557823129252,0.6394557823129252,0.6394557823129252,0.6394557823129252,0.6394557823129252,0.6394557823129252,0.6394557823129252,0.6394557823129252,0.6394557823129252,0.6394557823129252,0.6394557823129252,0.6394557823129252,0.6394557823129252,0.6394557823129252,0.6394557823129252,0.6394557823129252,0.6394557823129252,0.6394557823129252,0.6394557823129252,0.6394557823129252,0.6394557823129252,0.6394557823129252,0.6394557823129252,0.6394557823129252,0.6394557823129252,0.6394557823129252,0.6394557823129252,0.6394557823129252,0.6394557823129252,0.6428571428571429,0.6632653061224489,0.6904761904761905,0.717687074829932,0.7482993197278912,0.7755102040816326,0.8129251700680272,0.8469387755102041,0.8741496598639455,0.8979591836734694,0.9217687074829932,0.9387755102040817,0.9591836734693877,0.9863945578231292,1.010204081632653,1.0238095238095237,1.034013605442177,1.0374149659863945,1.0374149659863945,1.0374149659863945,1.0374149659863945,1.0374149659863945,1.0374149659863945,1.0374149659863945,1.0374149659863945,1.0442176870748299,1.0510204081632653,1.0612244897959184,1.0748299319727892,1.0782312925170068,1.0850340136054422,1.0850340136054422,1.0850340136054422,1.0850340136054422,1.0850340136054422,1.0850340136054422,1.0850340136054422,1.0850340136054422,1.0850340136054422,1.0850340136054422,1.0850340136054422,1.0850340136054422,1.0850340136054422,1.0850340136054422,1.0850340136054422,1.0850340136054422,1.0850340136054422,1.0816326530612246,1.0782312925170068,1.0680272108843538,1.0578231292517006,1.0374149659863945,1.0238095238095237,1.0068027210884354,0.9931972789115646,0.9761904761904762,0.95578231292517,0.9387755102040817,0.9217687074829932,0.9047619047619048,0.8945578231292517,0.891156462585034,0.891156462585034,0.891156462585034,0.891156462585034,0.891156462585034,0.891156462585034,0.891156462585034,0.8877551020408163,0.8809523809523809,0.8809523809523809,0.8775510204081632,0.8775510204081632,0.8741496598639455,0.8741496598639455,0.8673469387755102,0.8639455782312925,0.8571428571428571,0.8469387755102041,0.8401360544217688,0.8333333333333334,0.8197278911564626,0.7925170068027211,0.7448979591836735,0.6564625850340136,0.5544217687074829,0.4421768707482993,0.3299319727891156,0.2585034013605442,0.22448979591836735,0.2108843537414966,0.2108843537414966,0.2108843537414966,0.2108843537414966,0.2108843537414966,0.2108843537414966,0.2108843537414966,0.2108843537414966,0.2108843537414966,0.2108843537414966,0.2108843537414966,0.2108843537414966,0.2108843537414966,0.2108843537414966,0.2108843537414966,0.2108843537414966,0.2108843537414966,0.2108843537414966,0.2108843537414966,0.2108843537414966,0.2108843537414966,0.2108843537414966,0.2108843537414966,0.2108843537414966,0.2108843537414966,0.2108843537414966,0.20068027210884354,0.1836734693877551,0.17006802721088435,0.16326530612244897,0.15306122448979592,0.14285714285714285,0.1326530612244898,0.12244897959183673,0.11564625850340136,0.11564625850340136,0.11564625850340136,0.11904761904761904,0.1326530612244898,0.15306122448979592,0.21428571428571427,0.30612244897959184,0.45918367346938777,0.6156462585034014,0.7653061224489796,0.9013605442176871,0.9761904761904762,1.0204081632653061,1.0408163265306123,1.0476190476190477,1.0476190476190477,1.0476190476190477,1.0476190476190477,1.0476190476190477,1.0510204081632653,1.064625850340136,1.0782312925170068,1.0850340136054422,1.08843537414966,1.08843537414966,1.08843537414966,1.08843537414966,1.08843537414966,1.08843537414966,1.08843537414966,1.08843537414966,1.08843537414966,1.08843537414966,1.08843537414966,1.08843537414966,1.08843537414966,1.08843537414966,1.08843537414966,1.08843537414966,1.08843537414966,1.08843537414966,1.08843537414966,1.08843537414966,1.08843537414966,1.08843537414966,1.08843537414966,1.08843537414966,1.08843537414966,1.08843537414966,1.08843537414966,1.08843537414966,1.08843537414966,1.08843537414966,1.08843537414966,1.0782312925170068,1.0442176870748299,0.9829931972789115,0.9387755102040817,0.9149659863945578,0.9081632653061225,0.9081632653061225,0.9081632653061225,0.9081632653061225,0.9081632653061225,0.9081632653061225,0.9081632653061225,0.9081632653061225,0.9081632653061225,0.9081632653061225,0.9081632653061225,0.9081632653061225,0.9115646258503401,0.9149659863945578,0.9183673469387755,0.9285714285714286,0.9387755102040817,0.9489795918367347,0.9591836734693877,0.9625850340136054,0.9659863945578231,0.9693877551020408,0.9693877551020408,0.9727891156462585,0.9727891156462585,0.9761904761904762,0.9761904761904762,0.9761904761904762,0.9761904761904762,0.9761904761904762,0.9761904761904762,0.9761904761904762,0.9761904761904762,0.9761904761904762,0.9761904761904762,0.9761904761904762,0.9761904761904762,0.9761904761904762,0.9761904761904762,0.9761904761904762,0.9761904761904762,0.9761904761904762,0.9761904761904762,0.9761904761904762,0.9761904761904762,0.9761904761904762,0.9761904761904762,0.9761904761904762,0.9761904761904762,0.9761904761904762,0.9761904761904762,0.9761904761904762,0.9761904761904762,0.9761904761904762,0.9761904761904762,0.9761904761904762,0.9761904761904762,0.9761904761904762,0.9761904761904762,0.9761904761904762,0.9761904761904762,0.9761904761904762,0.9761904761904762,0.9761904761904762,0.9761904761904762,0.9761904761904762,0.9761904761904762,0.9761904761904762,0.9761904761904762,0.9761904761904762,0.9761904761904762,0.9761904761904762,0.9761904761904762,0.9761904761904762,0.9761904761904762,0.9761904761904762,0.9761904761904762,0.9761904761904762,0.9761904761904762,0.9761904761904762,0.9761904761904762,0.9761904761904762,0.9761904761904762,0.9761904761904762,0.9761904761904762,0.9761904761904762,0.9761904761904762,0.9761904761904762,0.9761904761904762,0.9761904761904762,0.9761904761904762,0.9761904761904762,0.9761904761904762,0.9761904761904762,0.9761904761904762,0.9761904761904762,0.9761904761904762,0.9761904761904762,0.9761904761904762,0.9761904761904762,0.9761904761904762,0.9761904761904762,0.9761904761904762,0.9761904761904762,0.9761904761904762,0.9761904761904762,0.9761904761904762,0.9761904761904762,0.9761904761904762,0.9761904761904762,0.9761904761904762,0.9761904761904762,0.9761904761904762,0.9761904761904762,0.9761904761904762,0.9761904761904762,0.9761904761904762,0.9761904761904762,0.9761904761904762,0.9761904761904762,0.9761904761904762,0.9761904761904762,0.9761904761904762,0.9761904761904762,0.9761904761904762,0.9761904761904762,0.9761904761904762,0.9761904761904762,0.9761904761904762,0.9761904761904762,0.9761904761904762,0.9761904761904762,0.9761904761904762,0.9761904761904762,0.9761904761904762,0.9761904761904762,0.9761904761904762,0.9761904761904762,0.9761904761904762,0.9761904761904762,0.9761904761904762,0.9761904761904762,0.9761904761904762,0.9761904761904762,0.9761904761904762,0.9761904761904762,0.9761904761904762,0.9761904761904762,0.9761904761904762,0.9761904761904762,0.9761904761904762,0.9761904761904762,0.9693877551020408,0.9591836734693877,0.9421768707482994,0.9183673469387755,0.8843537414965986,0.8469387755102041,0.8027210884353742,0.7482993197278912,0.7108843537414966,0.6802721088435374,0.6632653061224489,0.6564625850340136,0.6564625850340136,0.6564625850340136,0.6564625850340136,0.6564625850340136,0.6564625850340136,0.6564625850340136,0.6564625850340136,0.6564625850340136,0.6564625850340136,0.6564625850340136,0.6564625850340136,0.6564625850340136,0.6564625850340136,0.6564625850340136,0.6564625850340136,0.6564625850340136,0.6564625850340136,0.6564625850340136,0.6564625850340136,0.6564625850340136,0.6564625850340136,0.6564625850340136,0.6564625850340136,0.6564625850340136,0.6564625850340136,0.6564625850340136,0.6564625850340136,0.6564625850340136,0.6564625850340136,0.6564625850340136,0.6564625850340136,0.6564625850340136,0.6564625850340136,0.6564625850340136,0.6564625850340136,0.6564625850340136,0.6564625850340136,0.6564625850340136,0.6564625850340136,0.6564625850340136,0.6564625850340136,0.6564625850340136,0.6564625850340136,0.6564625850340136,0.6564625850340136,0.6564625850340136,0.6564625850340136,0.6564625850340136,0.6564625850340136,0.6462585034013606,0.6292517006802721,0.6020408163265306,0.5714285714285714,0.54421768707483,0.5204081632653061,0.4965986394557823,0.47619047619047616,0.4557823129251701,0.4523809523809524,0.4523809523809524,0.4523809523809524,0.4523809523809524,0.4523809523809524,0.4523809523809524,0.4523809523809524,0.4523809523809524,0.4523809523809524,0.4523809523809524,0.4523809523809524,0.4523809523809524,0.4523809523809524,0.4523809523809524,0.4523809523809524,0.4523809523809524,0.4523809523809524,0.4523809523809524,0.4523809523809524,0.4523809523809524,0.4523809523809524,0.4523809523809524,0.4523809523809524,0.4523809523809524,0.4523809523809524,0.4523809523809524,0.4523809523809524,0.4523809523809524,0.4523809523809524,0.4523809523809524,0.4523809523809524,0.4523809523809524,0.4523809523809524,0.4523809523809524,0.4523809523809524,0.4523809523809524,0.4523809523809524,0.4523809523809524,0.4523809523809524,0.4523809523809524,0.4523809523809524,0.4523809523809524,0.4523809523809524,0.4523809523809524,0.4523809523809524,0.4523809523809524,0.4523809523809524,0.4523809523809524,0.4523809523809524,0.4523809523809524,0.4523809523809524,0.4523809523809524,0.4523809523809524,0.4523809523809524,0.43197278911564624,0.3877551020408163,0.3299319727891156,0.24829931972789115,0.17346938775510204,0.10884353741496598,0.05102040816326531,0.013605442176870748,-0.013605442176870748,-0.027210884353741496,-0.03741496598639456,-0.03741496598639456,-0.03741496598639456,-0.03741496598639456,-0.03741496598639456,-0.03741496598639456,-0.03741496598639456,-0.03741496598639456,-0.03741496598639456,-0.03741496598639456,-0.03741496598639456,-0.03741496598639456,-0.03741496598639456,-0.03741496598639456,-0.03741496598639456,-0.03741496598639456,-0.030612244897959183,-0.02040816326530612,-0.013605442176870748,-0.006802721088435374,-0.006802721088435374,-0.006802721088435374,-0.006802721088435374,-0.006802721088435374,-0.006802721088435374,-0.006802721088435374,-0.006802721088435374,-0.006802721088435374,-0.006802721088435374,-0.006802721088435374,-0.006802721088435374,-0.006802721088435374,-0.006802721088435374,-0.006802721088435374,-0.006802721088435374,-0.006802721088435374,-0.006802721088435374,-0.006802721088435374,-0.006802721088435374,-0.006802721088435374,-0.006802721088435374,-0.006802721088435374,-0.006802721088435374,-0.006802721088435374,-0.006802721088435374,-0.006802721088435374,-0.006802721088435374,-0.006802721088435374,-0.006802721088435374,-0.006802721088435374,-0.006802721088435374,-0.006802721088435374,-0.006802721088435374,-0.006802721088435374,-0.006802721088435374,-0.006802721088435374,-0.006802721088435374,-0.006802721088435374,-0.006802721088435374,-0.006802721088435374,-0.006802721088435374,-0.006802721088435374,-0.006802721088435374,-0.006802721088435374,-0.006802721088435374,-0.006802721088435374,-0.006802721088435374,-0.003401360544217687,0.01020408163265306,0.05102040816326531,0.14285714285714285,0.2755102040816326,0.42517006802721086,0.5408163265306123,0.6156462585034014,0.6632653061224489,0.673469387755102,0.673469387755102,0.673469387755102,0.673469387755102,0.673469387755102,0.673469387755102,0.673469387755102,0.673469387755102,0.673469387755102,0.673469387755102,0.673469387755102,0.673469387755102,0.673469387755102,0.673469387755102,0.673469387755102,0.673469387755102,0.673469387755102,0.673469387755102,0.673469387755102,0.673469387755102,0.673469387755102,0.673469387755102,0.673469387755102,0.6768707482993197,0.6836734693877551,0.6972789115646258,0.7210884353741497,0.7517006802721088,0.7925170068027211,0.8299319727891157,0.8707482993197279,0.9047619047619048,0.9285714285714286,0.9523809523809523,0.9659863945578231,0.9761904761904762,0.9829931972789115,0.9931972789115646,1,1.0034013605442176,1.0068027210884354,1.0068027210884354,1.0068027210884354,1.0068027210884354,1.0068027210884354,1.0068027210884354,1.0068027210884354,1.0068027210884354,1.0068027210884354,1.0068027210884354,1.0068027210884354,1.0068027210884354,1.0068027210884354,1.0068027210884354,1.0068027210884354,1.0068027210884354,1.0068027210884354,1.0068027210884354,1.0068027210884354,1.0068027210884354,1.0068027210884354,1.0068027210884354,1.0068027210884354,1.0068027210884354,1.0068027210884354,1.0068027210884354,1.0068027210884354,1.0068027210884354,1.0068027210884354,1.0068027210884354,1.0068027210884354,1.0068027210884354,1.0068027210884354,1.0068027210884354,1.0068027210884354,1.0068027210884354,1.0068027210884354,1.0068027210884354,1.0068027210884354,1.0068027210884354,1.0068027210884354,1.0068027210884354,1.0068027210884354,1.0068027210884354,1.0068027210884354,1.0068027210884354,1.0068027210884354,1.0068027210884354,1.0068027210884354,1.0068027210884354,1.0068027210884354,1.0068027210884354,1.0068027210884354,1.0068027210884354,1.0068027210884354,1.0068027210884354,1.0068027210884354,1.0068027210884354,1.0068027210884354,1.0068027210884354,1.0136054421768708,1.0204081632653061,1.0272108843537415,1.034013605442177,1.0476190476190477,1.0612244897959184,1.0748299319727892,1.0918367346938775,1.098639455782313,1.1054421768707483,1.1122448979591837,1.1156462585034013,1.119047619047619,1.1224489795918366,1.1224489795918366,1.129251700680272,1.129251700680272,1.1326530612244898,1.1326530612244898,1.1326530612244898,1.1326530612244898,1.1326530612244898,1.1326530612244898,1.1326530612244898,1.1326530612244898,1.1326530612244898,1.1326530612244898,1.1326530612244898,1.1326530612244898,1.1326530612244898,1.1258503401360545,1.0918367346938775,1.0068027210884354,0.8503401360544217,0.6700680272108843,0.46258503401360546,0.29931972789115646,0.18027210884353742,0.11564625850340136,0.10204081632653061,0.10204081632653061,0.10204081632653061,0.10204081632653061,0.10204081632653061,0.10204081632653061,0.10204081632653061,0.10204081632653061,0.10204081632653061,0.1054421768707483,0.1054421768707483,0.1054421768707483,0.10884353741496598,0.11224489795918367,0.11904761904761904,0.1292517006802721,0.1360544217687075,0.14285714285714285,0.14625850340136054,0.15306122448979592,0.1564625850340136,0.1598639455782313,0.1598639455782313,0.1598639455782313,0.1598639455782313,0.1598639455782313,0.1598639455782313,0.1598639455782313,0.1598639455782313,0.1598639455782313,0.1598639455782313,0.1598639455782313,0.1598639455782313,0.1598639455782313,0.1598639455782313,0.16326530612244897,0.16666666666666666,0.16666666666666666,0.16666666666666666,0.16666666666666666,0.16666666666666666,0.16666666666666666,0.16666666666666666,0.16666666666666666,0.17006802721088435,0.17346938775510204,0.1870748299319728,0.19727891156462585,0.20748299319727892,0.21768707482993196,0.22448979591836735,0.23129251700680273,0.23129251700680273,0.23469387755102042,0.24489795918367346,0.25170068027210885,0.2653061224489796,0.2755102040816326,0.2857142857142857,0.2925170068027211,0.2925170068027211,0.2925170068027211,0.2925170068027211,0.2925170068027211,0.2925170068027211,0.2925170068027211,0.2925170068027211,0.2925170068027211,0.2925170068027211,0.2925170068027211,0.2925170068027211,0.2925170068027211,0.2925170068027211,0.2925170068027211,0.2925170068027211,0.2925170068027211,0.2925170068027211,0.2925170068027211,0.2925170068027211,0.2925170068027211,0.2925170068027211,0.2925170068027211,0.2925170068027211,0.2925170068027211,0.2925170068027211,0.2925170068027211,0.2925170068027211,0.2925170068027211,0.2925170068027211,0.2925170068027211,0.2925170068027211,0.2925170068027211,0.2925170068027211,0.2925170068027211,0.2925170068027211,0.2925170068027211,0.2925170068027211,0.2925170068027211,0.2925170068027211,0.2925170068027211,0.2925170068027211,0.2925170068027211,0.2925170068027211,0.2925170068027211,0.2925170068027211,0.2925170068027211,0.2925170068027211,0.2925170068027211,0.2925170068027211,0.2925170068027211,0.2925170068027211,0.2925170068027211,0.2925170068027211,0.2925170068027211,0.2925170068027211,0.2925170068027211,0.2925170068027211,0.2925170068027211,0.2925170068027211,0.2925170068027211,0.2925170068027211,0.2925170068027211,0.2925170068027211,0.2925170068027211,0.2925170068027211,0.2925170068027211,0.2925170068027211,0.2925170068027211,0.2925170068027211,0.2925170068027211,0.2925170068027211,0.2891156462585034,0.2857142857142857,0.282312925170068,0.272108843537415,0.2619047619047619,0.25170068027210885,0.24149659863945577,0.23809523809523808,0.23809523809523808,0.23469387755102042,0.23469387755102042,0.23469387755102042,0.23469387755102042,0.23469387755102042,0.23469387755102042,0.23469387755102042,0.23469387755102042,0.23469387755102042,0.23469387755102042,0.23469387755102042,0.23469387755102042,0.23469387755102042,0.23469387755102042,0.23469387755102042,0.23469387755102042,0.23469387755102042,0.23469387755102042,0.23469387755102042,0.23469387755102042,0.23469387755102042,0.23469387755102042,0.23809523809523808,0.23809523809523808,0.23809523809523808,0.24149659863945577,0.24149659863945577,0.24149659863945577,0.24149659863945577,0.24149659863945577,0.24489795918367346,0.24489795918367346,0.24829931972789115,0.24829931972789115,0.25170068027210885,0.25170068027210885,0.25170068027210885,0.25510204081632654,0.25510204081632654,0.25510204081632654,0.25510204081632654,0.25510204081632654,0.2585034013605442,0.2585034013605442,0.2585034013605442,0.2585034013605442,0.2585034013605442,0.2585034013605442,0.2585034013605442,0.2585034013605442,0.2585034013605442,0.2585034013605442,0.2585034013605442,0.2585034013605442,0.2585034013605442,0.2585034013605442,0.2585034013605442,0.2585034013605442,0.2585034013605442,0.2585034013605442,0.2585034013605442,0.2585034013605442,0.2585034013605442,0.2585034013605442,0.2585034013605442,0.2585034013605442,0.2585034013605442,0.2585034013605442,0.2585034013605442,0.2585034013605442,0.2585034013605442,0.2585034013605442,0.2585034013605442,0.2585034013605442,0.2585034013605442,0.2585034013605442,0.2585034013605442,0.2585034013605442,0.2585034013605442,0.2585034013605442,0.2585034013605442,0.2585034013605442,0.2585034013605442,0.2585034013605442,0.2585034013605442,0.2585034013605442,0.2585034013605442,0.2585034013605442,0.2585034013605442,0.2585034013605442,0.2585034013605442,0.2585034013605442,0.2585034013605442,0.2585034013605442,0.2585034013605442,0.2585034013605442,0.2585034013605442,0.2585034013605442,0.2585034013605442,0.2585034013605442,0.2585034013605442,0.2585034013605442,0.2585034013605442,0.2585034013605442,0.2585034013605442,0.2585034013605442,0.2585034013605442,0.2585034013605442,0.2585034013605442,0.2585034013605442,0.2585034013605442,0.2585034013605442,0.2585034013605442,0.2585034013605442,0.2585034013605442,0.2585034013605442,0.25510204081632654,0.25170068027210885,0.24829931972789115,0.24489795918367346,0.24149659863945577,0.24149659863945577,0.24149659863945577,0.24149659863945577,0.24149659863945577,0.23809523809523808,0.23809523809523808,0.23809523809523808,0.23809523809523808,0.23809523809523808,0.23809523809523808,0.23809523809523808,0.23469387755102042,0.23129251700680273,0.22448979591836735,0.22108843537414966,0.21428571428571427,0.20748299319727892,0.20068027210884354,0.19047619047619047,0.1870748299319728,0.17687074829931973,0.17006802721088435,0.16326530612244897,0.1564625850340136,0.14625850340136054,0.14285714285714285,0.1360544217687075,0.1326530612244898,0.1326530612244898,0.1326530612244898,0.1326530612244898,0.1326530612244898,0.1326530612244898,0.1326530612244898,0.1326530612244898,0.1360544217687075,0.1360544217687075,0.13945578231292516,0.13945578231292516,0.13945578231292516,0.13945578231292516,0.13945578231292516,0.13945578231292516,0.13945578231292516,0.13945578231292516,0.13945578231292516,0.13945578231292516,0.13945578231292516,0.13945578231292516,0.1360544217687075,0.1360544217687075,0.1326530612244898,0.1326530612244898,0.1326530612244898,0.1326530612244898,0.1326530612244898,0.1326530612244898,0.1326530612244898,0.13945578231292516,0.14285714285714285,0.14625850340136054,0.14625850340136054,0.14625850340136054,0.14625850340136054,0.14625850340136054,0.14625850340136054,0.14965986394557823,0.14965986394557823,0.15306122448979592,0.15306122448979592,0.15306122448979592,0.15306122448979592,0.15306122448979592,0.1564625850340136,0.1564625850340136,0.1598639455782313,0.17006802721088435,0.18027210884353742,0.19047619047619047,0.20068027210884354,0.21428571428571427,0.23469387755102042,0.2585034013605442,0.2857142857142857,0.30612244897959184,0.3197278911564626,0.3299319727891156,0.336734693877551,0.3401360544217687,0.3435374149659864,0.3435374149659864,0.3435374149659864,0.3435374149659864,0.3435374149659864,0.3435374149659864,0.3435374149659864,0.3469387755102041,0.35034013605442177,0.35034013605442177,0.35034013605442177,0.3333333333333333,0.3231292517006803,0.30952380952380953,0.29931972789115646,0.2925170068027211,0.282312925170068,0.272108843537415,0.272108843537415,0.2687074829931973,0.2687074829931973,0.2653061224489796,0.25510204081632654,0.24489795918367346,0.23129251700680273,0.21768707482993196,0.20068027210884354,0.1870748299319728,0.1564625850340136,0.1292517006802721,0.10204081632653061,0.08503401360544217,0.07482993197278912,0.06462585034013606,0.061224489795918366,0.05782312925170068,0.05782312925170068,0.05782312925170068,0.05782312925170068,0.05782312925170068,0.05782312925170068,0.05782312925170068,0.05782312925170068,0.05782312925170068,0.05782312925170068,0.05782312925170068,0.05782312925170068,0.05782312925170068,0.05782312925170068,0.05782312925170068,0.05782312925170068,0.05782312925170068,0.05782312925170068,0.05782312925170068,0.05782312925170068,0.05782312925170068,0.05782312925170068,0.05782312925170068,0.061224489795918366,0.061224489795918366,0.06802721088435375,0.07482993197278912,0.08163265306122448,0.09523809523809523,0.1054421768707483,0.12244897959183673,0.13945578231292516,0.1564625850340136,0.17687074829931973,0.19047619047619047,0.20748299319727892,0.20748299319727892,0.20748299319727892,0.20748299319727892,0.20748299319727892,0.20408163265306123,0.19727891156462585,0.1836734693877551,0.16666666666666666,0.15306122448979592,0.13945578231292516,0.1326530612244898,0.12585034013605442,0.11904761904761904,0.11224489795918367,0.10204081632653061,0.08843537414965986,0.07142857142857142,0.05102040816326531,0.034013605442176874,0.027210884353741496,0.027210884353741496,0.023809523809523808,0.023809523809523808,0.023809523809523808,0.023809523809523808,0.023809523809523808,0.023809523809523808,0.023809523809523808,0.023809523809523808,0.023809523809523808,0.023809523809523808,0.023809523809523808,0.023809523809523808,0.023809523809523808,0.023809523809523808,0.023809523809523808,0.023809523809523808,0.023809523809523808,0.023809523809523808,0.023809523809523808,0.023809523809523808,0.023809523809523808,0.023809523809523808,0.023809523809523808,0.023809523809523808,0.023809523809523808,0.023809523809523808,0.023809523809523808,0.023809523809523808,0.023809523809523808,0.023809523809523808,0.023809523809523808,0.023809523809523808,0.023809523809523808,0.023809523809523808,0.023809523809523808,0.023809523809523808,0.023809523809523808,0.023809523809523808,0.023809523809523808,0.023809523809523808,0.023809523809523808,0.023809523809523808,0.023809523809523808,0.023809523809523808,0.023809523809523808,0.023809523809523808,0.023809523809523808,0.023809523809523808,0.023809523809523808,0.023809523809523808,0.023809523809523808,0.023809523809523808,0.023809523809523808,0.023809523809523808,0.023809523809523808,0.023809523809523808,0.023809523809523808,0.023809523809523808,0.023809523809523808,0.023809523809523808,0.023809523809523808,0.023809523809523808,0.023809523809523808,0.023809523809523808,0.023809523809523808,0.023809523809523808,0.023809523809523808,0.023809523809523808,0.023809523809523808,0.023809523809523808,0.04421768707482993,0.1836734693877551,0.4897959183673469,1.0408163265306123,1.510204081632653,1.8435374149659864,2.0238095238095237,2.098639455782313,2.1156462585034013,2.1156462585034013,2.1156462585034013,2.1156462585034013,2.1156462585034013,2.1156462585034013,2.1156462585034013,2.1156462585034013,2.1156462585034013,2.1156462585034013,2.1156462585034013,2.078231292517007,1.9523809523809523,1.7312925170068028,1.3843537414965987,1.0510204081632653,0.7959183673469388,0.6360544217687075,0.5884353741496599,0.5782312925170068,0.5782312925170068,0.5782312925170068,0.5782312925170068,0.5782312925170068,0.5782312925170068,0.5782312925170068,0.5782312925170068,0.5782312925170068,0.5782312925170068,0.5782312925170068,0.5782312925170068,0.5782312925170068,0.5782312925170068,0.5782312925170068,0.5782312925170068,0.5782312925170068,0.5782312925170068,0.5782312925170068,0.5782312925170068,0.5782312925170068,0.5782312925170068,0.5782312925170068,0.5782312925170068,0.5782312925170068,0.5816326530612245,0.5816326530612245,0.5884353741496599,0.5952380952380952,0.6122448979591837,0.6632653061224489,0.6836734693877551,0.6836734693877551,0.6836734693877551,0.6836734693877551,0.6836734693877551,0.6836734693877551,0.6836734693877551,0.6836734693877551,0.6836734693877551,0.6836734693877551,0.6836734693877551,0.6836734693877551,0.6836734693877551,0.6836734693877551,0.6836734693877551,0.6836734693877551,0.6836734693877551,0.6836734693877551,0.6836734693877551,0.6836734693877551,0.6836734693877551,0.6836734693877551,0.6836734693877551,0.6836734693877551,0.6836734693877551,0.6598639455782312,0.6768707482993197,0.6666666666666666,0.6666666666666666,0.6666666666666666,0.6666666666666666,0.6666666666666666,0.6666666666666666,0.6666666666666666,0.6666666666666666,0.6768707482993197,0.6938775510204082,0.7278911564625851,0.7857142857142857,0.8469387755102041,0.9183673469387755,1.0170068027210883,1.1802721088435375,1.336734693877551,1.5170068027210883,1.6564625850340136,1.7619047619047619,1.846938775510204,1.9149659863945578,1.9557823129251701,1.9761904761904763,1.9829931972789117,1.9829931972789117,1.9829931972789117,1.9829931972789117,1.9829931972789117,1.9829931972789117,1.9829931972789117,1.9829931972789117,1.9795918367346939,1.9591836734693877,1.8979591836734695,1.7993197278911566,1.6598639455782314,1.5068027210884354,1.41156462585034,1.3639455782312926,1.3503401360544218,1.3503401360544218,1.3503401360544218,1.3503401360544218,1.3503401360544218,1.3503401360544218,1.346938775510204,1.346938775510204,1.346938775510204,1.346938775510204,1.346938775510204,1.346938775510204,1.346938775510204,1.346938775510204,1.346938775510204,1.346938775510204,1.346938775510204,1.346938775510204,1.346938775510204,1.346938775510204,1.3537414965986394,1.4183673469387754,1.5612244897959184,1.683673469387755,1.7414965986394557,1.7619047619047619,1.7687074829931972,1.772108843537415,1.772108843537415,1.772108843537415,1.772108843537415,1.772108843537415,1.772108843537415,1.772108843537415,1.772108843537415,1.772108843537415,1.772108843537415,1.772108843537415,1.772108843537415,1.772108843537415,1.772108843537415,1.772108843537415,1.772108843537415,1.772108843537415,1.772108843537415,1.772108843537415,1.772108843537415,1.772108843537415,1.772108843537415,1.772108843537415,1.772108843537415,1.772108843537415,1.772108843537415,1.772108843537415,1.772108843537415,1.772108843537415,1.772108843537415,1.772108843537415,1.772108843537415,1.772108843537415,1.772108843537415,1.772108843537415,1.772108843537415,1.772108843537415,1.772108843537415,1.772108843537415,1.772108843537415,1.772108843537415,1.7687074829931972,1.7653061224489797,1.7585034013605443,1.7551020408163265,1.7551020408163265,1.7551020408163265,1.7551020408163265,1.7551020408163265,1.7551020408163265,1.7551020408163265,1.7551020408163265,1.7551020408163265,1.7551020408163265,1.7551020408163265,1.7551020408163265,1.7551020408163265,1.7551020408163265,1.7551020408163265,1.751700680272109,1.748299319727891,1.7312925170068028,1.7142857142857142,1.6938775510204083,1.653061224489796,1.5952380952380953,1.5136054421768708,1.3911564625850341,1.248299319727891,1.1088435374149659,0.9897959183673469,0.9