[{"success":true,"trial_type":"fullscreen","trial_index":0,"time_elapsed":3982,"internal_node_id":"0.0-0.0","protocol_sum":"","subject_identifier":131,"subject_sum":[16,140,153,91,149,60,138,53,86,17,3,226,1,76,248,40,235,101,74,153,227,16,248,127,171,148,194,244,183,210,160,79],"subject_pair":65,"STUDY_ID":"669a702db1122fc5150a13ce","PROLIFIC_PID":"663eed67d4b7867ab8b258ac","SESSION_ID":"669b2a314c1e89496d922c1a","practice_instructions":1,"leaderboard_instructions":0,"bonus":1,"reveal_word":true,"self_rating":"4","confidence":"38"},{"view_history":"[{\"page_index\":0,\"viewing_time\":5991.099999964237}]","rt":5991.5,"trial_type":"instructions","trial_index":1,"time_elapsed":9975,"internal_node_id":"0.0-1.0","protocol_sum":"","subject_identifier":131,"subject_sum":[16,140,153,91,149,60,138,53,86,17,3,226,1,76,248,40,235,101,74,153,227,16,248,127,171,148,194,244,183,210,160,79],"subject_pair":65,"STUDY_ID":"669a702db1122fc5150a13ce","PROLIFIC_PID":"663eed67d4b7867ab8b258ac","SESSION_ID":"669b2a314c1e89496d922c1a","practice_instructions":1,"leaderboard_instructions":0,"bonus":1,"reveal_word":true,"self_rating":"4","confidence":"38"},{"view_history":"[{\"page_index\":0,\"viewing_time\":46049.30000001192}]","rt":46049.80000001192,"trial_type":"instructions","trial_index":2,"time_elapsed":56027,"internal_node_id":"0.0-2.0-0.0","protocol_sum":"","subject_identifier":131,"subject_sum":[16,140,153,91,149,60,138,53,86,17,3,226,1,76,248,40,235,101,74,153,227,16,248,127,171,148,194,244,183,210,160,79],"subject_pair":65,"STUDY_ID":"669a702db1122fc5150a13ce","PROLIFIC_PID":"663eed67d4b7867ab8b258ac","SESSION_ID":"669b2a314c1e89496d922c1a","practice_instructions":1,"leaderboard_instructions":0,"bonus":1,"reveal_word":true,"self_rating":"4","confidence":"38"},{"rt":7997.399999976158,"responses":"{\"Q0\":\"... reveal the word with as <b>few letter guesses</b> as possible\"}","question_order":"[0]","trial_type":"survey-multi-choice","trial_index":3,"time_elapsed":64029,"internal_node_id":"0.0-2.0-1.0","protocol_sum":"","subject_identifier":131,"subject_sum":[16,140,153,91,149,60,138,53,86,17,3,226,1,76,248,40,235,101,74,153,227,16,248,127,171,148,194,244,183,210,160,79],"subject_pair":65,"correct":true,"test_part":"multichoice_nonpretend","STUDY_ID":"669a702db1122fc5150a13ce","PROLIFIC_PID":"663eed67d4b7867ab8b258ac","SESSION_ID":"669b2a314c1e89496d922c1a","practice_instructions":1,"leaderboard_instructions":0,"bonus":1,"reveal_word":true,"self_rating":"4","confidence":"38"},{"view_history":"[{\"page_index\":0,\"viewing_time\":1511}]","rt":1511.1000000238419,"trial_type":"instructions","trial_index":4,"time_elapsed":65544,"internal_node_id":"0.0-3.0","protocol_sum":"","subject_identifier":131,"subject_sum":[16,140,153,91,149,60,138,53,86,17,3,226,1,76,248,40,235,101,74,153,227,16,248,127,171,148,194,244,183,210,160,79],"subject_pair":65,"STUDY_ID":"669a702db1122fc5150a13ce","PROLIFIC_PID":"663eed67d4b7867ab8b258ac","SESSION_ID":"669b2a314c1e89496d922c1a","practice_instructions":1,"leaderboard_instructions":0,"bonus":1,"reveal_word":true,"self_rating":"4","confidence":"38"},{"word":"ZEBRA","click_log":{"letter":["","E","T","A","O","R","C","N","S","G","D","H","P","B","Z"],"t":[0,2962.5,6091.199999988079,7742.100000023842,12506,18588.69999998808,32578,37815.80000001192,39614.80000001192,41951.30000001192,49596.89999997616,54767.19999998808,57310.10000002384,97372.30000001192,99198.5],"hit":[null,1,0,1,0,1,0,0,0,0,0,0,0,1,1],"asked":["","E","ET","ETA","ETAO","ETAOR","ETAORC","ETAORCN","ETAORCNS","ETAORCNSG","ETAORCNSGD","ETAORCNSGDH","ETAORCNSGDHP","ETAORCNSGDHPB","ETAORCNSGDHPBZ"],"word_state":["_____","_E___","_E___","_E__A","_E__A","_E_RA","_E_RA","_E_RA","_E_RA","_E_RA","_E_RA","_E_RA","_E_RA","_EBRA","ZEBRA"]},"hover_log":{"letter":["?","?","?","?","?","?","?","?","?","?","?","?","?","?","?","?","?","?","?","?","?","?","?","?","?","?","?","?","?","?","?","?","?","?","?","?","?","?","?","?","?","?","?","?","?","?","?","?","?","?","?","?","?","?","?","?","?","K","K","K","?","?","?","?","?","C","C","C","C","C","C","?","?","D","D","D","D","D","D","D","D","D","D","D","D","D","D","D","D","D","?","?","?","?","?","M","M","M","M","M","M","M","M","M","M","M","M","M","M","M","M","M","?","?","?","?","?","?","?","?","?","?","?","?","?","?","?","?","?","?","?","D","?","?","?","E","E","E","E","E","E","E","E","E","E","E","E","E","E","E","E","E","E","E","E","E","E","E","E","E","E","E","E","E","E","E","E","E","E","E","E","E","E","E","E","E","E","E","E","E","E","E","E","E","E","E","E","E","E","E","E","E","E","E","E","E","E","E","E","E","E","E","E","E","E","E","E","E","E","E","E","E","E","E","?","?","?","?","?","?","?","N","N","N","N","N","N","N","N","N","N","N","?","?","?","?","?","?","?","?","?","?","?","?","U","U","U","U","U","U","U","?","?","?","T","T","T","T","T","T","T","T","T","T","T","T","T","T","T","T","T","T","T","T","T","T","T","T","T","T","T","T","T","T","T","T","T","T","T","T","T","T","T","T","T","T","T","T","T","T","T","T","T","T","T","T","T","T","T","T","T","T","T","T","T","T","T","T","T","T","T","T","T","T","T","T","T","T","T","T","T","T","T","T","T","T","T","T","T","T","T","T","T","T","T","T","T","T","T","T","T","T","T","T","T","T","T","T","T","T","T","T","T","T","T","T","T","T","T","T","T","T","T","T","T","T","T","T","T","T","T","T","T","T","T","T","T","T","T","T","T","T","T","T","T","T","T","T","T","T","T","T","T","T","T","T","T","T","T","T","?","?","?","?","J","?","?","?","?","A","A","A","A","A","A","A","A","A","A","A","A","A","A","A","A","A","A","A","A","A","A","A","A","A","A","A","A","A","A","A","A","A","A","A","A","A","A","A","A","A","A","A","A","A","A","A","A","A","A","A","A","A","A","A","A","A","A","A","A","A","A","A","A","A","A","A","A","A","A","A","A","A","A","A","A","A","A","A","A","A","A","B","B","C","C","D","?","?","?","?","?","?","?","?","P","P","P","?","?","?","?","?","?","?","?","?","?","P","P","P","P","P","P","P","P","P","P","?","?","?","?","?","?","?","?","?","?","?","?","?","?","O","O","O","O","O","O","O","O","O","O","O","O","O","O","O","O","O","O","O","O","O","O","O","O","O","O","O","O","O","O","O","O","O","O","O","O","O","O","O","O","O","O","O","O","O","O","O","O","O","O","O","O","O","O","O","O","O","O","O","O","O","O","O","O","O","O","O","O","O","O","O","O","O","O","O","O","O","O","O","O","O","O","O","O","O","O","O","O","O","O","O","O","O","O","O","O","O","O","O","O","O","O","O","O","O","O","O","O","O","O","O","O","O","O","O","O","O","O","O","O","O","O","O","O","O","O","O","O","O","O","O","O","O","O","O","O","O","O","O","O","O","O","O","O","O","O","O","O","O","O","O","O","O","O","O","O","O","O","O","O","O","O","O","O","O","O","O","O","O","O","O","O","O","O","O","O","O","O","O","O","O","O","O","O","O","O","O","O","O","O","O","O","O","O","O","O","O","O","O","O","O","O","O","O","O","O","O","O","O","O","O","O","O","O","O","O","O","O","O","O","O","O","O","O","O","O","O","O","O","O","O","O","O","O","O","O","O","O","O","O","O","O","O","O","O","O","O","O","O","O","O","O","O","O","O","O","O","O","O","O","O","O","O","O","O","O","O","O","O","O","O","O","O","O","O","O","O","O","O","O","O","O","O","O","O","O","O","O","O","O","O","O","O","O","O","O","O","O","O","O","O","O","O","O","O","O","O","O","O","O","O","O","O","O","O","O","O","O","O","O","O","O","O","O","O","O","O","O","O","O","O","O","O","O","O","O","O","O","O","O","O","O","O","O","O","O","O","O","O","O","O","O","O","O","O","O","O","O","O","O","O","O","O","O","O","O","O","O","O","O","O","O","O","O","O","O","O","O","O","O","O","O","O","O","O","O","O","O","O","O","O","O","O","O","O","O","O","O","O","O","O","O","O","O","O","O","O","O","O","O","O","O","O","O","O","O","O","O","O","O","O","O","O","O","O","O","O","O","O","O","O","O","O","O","O","O","O","O","O","O","O","O","O","O","O","?","?","?","?","?","?","?","?","?","?","F","F","F","F","?","?","?","?","?","?","?","?","E","E","E","E","E","E","E","E","?","?","D","D","D","D","D","D","D","D","?","?","?","?","?","?","?","?","?","?","?","W","W","W","W","W","X","X","?","Y","?","?","?","Z","Z","Z","Z","Z","Z","Z","Z","Z","Z","?","?","?","?","?","?","?","?","?","?","?","?","R","R","R","R","R","R","R","R","R","R","R","R","R","R","R","R","R","R","R","R","R","R","R","R","R","R","R","R","R","R","R","R","R","R","R","R","R","R","R","R","R","R","R","R","R","R","R","R","R","R","R","R","R","R","R","R","R","R","R","R","R","R","R","R","R","R","R","R","R","R","R","R","R","R","R","R","R","R","R","R","R","R","R","R","R","R","R","R","R","R","R","R","R","R","R","R","R","R","R","R","R","R","R","R","R","R","R","R","R","R","R","R","R","R","R","R","R","R","R","R","R","R","R","R","R","R","R","R","R","R","R","R","R","R","R","R","R","R","R","R","R","R","R","R","R","R","R","R","R","R","R","R","R","R","R","R","R","R","R","R","R","R","R","R","R","R","R","R","R","R","R","R","R","R","R","R","R","R","R","R","R","R","R","R","R","R","R","R","R","R","R","R","R","R","R","R","R","R","R","R","R","R","R","R","R","R","R","R","R","R","R","R","R","R","R","R","R","R","R","R","R","R","R","R","R","R","R","R","R","R","R","R","R","R","R","R","R","R","R","R","R","R","R","R","R","R","R","R","R","R","R","R","R","R","R","R","R","R","R","R","R","R","R","R","R","R","R","R","R","R","R","R","R","R","R","R","R","R","R","R","R","R","R","R","R","R","R","R","R","R","R","R","R","R","R","R","R","R","R","R","R","R","R","R","R","R","R","R","R","R","R","R","R","R","R","R","R","R","R","R","R","R","R","R","R","R","R","R","R","R","R","R","R","R","R","R","R","R","R","R","R","R","R","R","R","R","R","R","R","R","R","R","R","R","R","R","R","R","R","R","R","R","R","R","R","R","R","R","R","R","R","R","R","R","R","R","R","R","R","R","R","R","R","R","R","R","R","R","R","R","R","R","R","R","R","R","R","R","R","R","R","R","R","R","R","R","R","R","R","R","R","R","R","R","R","R","R","R","R","R","R","R","R","R","R","R","R","R","R","R","R","R","R","R","R","R","R","R","R","R","R","R","R","R","R","R","R","R","R","R","R","R","R","R","R","R","R","R","R","R","R","R","R","R","R","R","R","R","R","R","R","R","R","R","R","R","R","R","R","R","R","R","R","R","R","R","R","R","R","R","R","?","?","?","?","?","?","Y","Y","Y","Y","?","?","?","?","?","?","?","?","?","?","?","?","?","?","?","?","?","?","?","?","?","?","?","?","?","?","W","W","W","W","W","W","?","?","?","V","V","V","V","V","V","V","V","V","V","V","V","V","V","V","V","V","V","V","V","V","V","V","V","V","V","V","V","V","V","V","V","V","V","V","V","V","V","V","V","V","V","V","V","V","V","V","V","V","V","V","V","V","V","V","V","V","V","V","V","V","V","V","V","V","V","V","V","V","V","V","V","V","V","V","V","V","V","V","V","V","V","V","V","V","V","V","V","V","V","V","V","V","V","V","V","V","V","V","V","V","V","V","V","V","V","V","V","V","V","V","V","V","V","V","V","V","V","V","V","V","V","V","V","V","V","V","V","V","V","V","V","V","V","V","V","V","V","V","V","V","V","V","V","V","V","V","V","V","V","V","V","V","V","V","V","V","V","V","V","V","V","V","V","V","V","V","V","V","V","V","V","V","V","V","V","V","V","V","V","V","V","V","V","V","V","V","V","V","V","V","V","V","V","V","V","V","V","V","V","V","V","V","V","V","V","V","V","V","V","V","V","V","V","V","V","V","V","V","V","V","V","?","?","?","?","M","M","M","M","?","?","?","?","?","?","?","?","?","?","?","?","?","?","?","?","?","?","?","?","?","?","?","?","?","?","?","?","?","?","?","?","?","?","?","?","?","?","?","?","?","?","?","?","?","?","?","?","?","?","?","?","?","?","D","D","?","C","C","C","C","C","C","C","C","C","C","C","C","C","C","C","C","C","C","C","C","C","C","C","C","C","C","C","C","C","C","C","C","C","C","C","C","C","C","C","C","C","C","C","C","C","C","C","C","C","C","C","C","C","C","C","C","C","C","C","C","C","C","C","C","C","C","C","C","C","C","C","C","C","C","C","C","C","C","C","C","C","C","C","C","C","C","C","C","C","C","C","C","C","C","C","C","C","C","C","C","C","C","C","C","C","C","C","C","C","C","C","C","C","C","C","C","C","C","C","C","C","C","C","C","C","C","C","C","C","C","C","C","C","C","C","C","C","C","C","C","C","C","C","C","C","C","C","C","C","C","C","C","C","C","C","C","C","C","C","C","C","C","C","C","C","C","C","C","C","C","C","C","C","C","C","C","C","C","C","C","C","C","C","C","C","C","C","C","C","C","C","C","C","C","C","C","C","C","C","C","C","C","C","C","C","C","C","C","C","C","C","C","C","C","C","C","C","C","C","C","C","C","C","C","C","C","C","C","C","C","C","C","C","C","?","?","?","?","L","L","L","L","?","?","?","?","?","?","?","?","?","?","?","K","K","K","K","K","K","K","K","K","K","K","K","K","K","K","K","K","K","K","K","K","K","K","K","K","K","K","K","K","K","K","K","K","K","K","K","K","K","L","?","M","N","?","O","?","?","?","?","?","?","?","?","?","?","Y","Y","Y","?","?","?","?","?","X","?","?","?","?","?","?","?","?","?","?","?","?","N","N","N","N","N","N","N","N","N","N","N","N","N","N","N","N","N","N","N","N","N","N","N","N","N","N","N","N","N","N","N","N","N","N","N","N","N","N","N","N","N","N","N","N","N","N","N","N","N","N","N","N","N","N","N","N","N","N","N","N","N","N","N","N","N","N","N","N","N","N","N","N","N","N","N","N","?","M","?","?","?","U","U","?","?","?","T","T","T","T","T","T","T","T","T","T","T","T","T","T","T","T","T","T","T","?","?","S","S","S","S","S","S","S","S","S","S","S","S","S","S","S","S","S","S","S","S","S","S","S","S","S","S","S","S","S","S","S","S","S","S","S","S","S","S","S","S","S","S","S","S","S","S","S","S","S","S","S","S","S","S","S","S","S","S","S","S","S","S","S","S","S","S","S","S","S","S","S","S","S","S","S","S","S","S","S","S","S","S","S","S","S","S","?","?","?","?","?","?","?","?","?","?","?","?","?","?","M","M","M","?","N","N","N","N","N","N","N","N","?","?","?","?","O","O","?","?","?","?","?","?","?","?","?","?","?","?","?","?","?","?","?","?","?","?","?","?","?","G","G","G","G","G","G","G","G","G","G","G","G","G","G","G","G","G","G","G","G","G","G","G","G","G","G","G","G","G","G","G","G","G","G","G","G","G","G","G","G","G","G","G","G","G","G","G","G","G","G","G","G","G","G","G","G","G","G","G","G","G","G","G","G","G","G","G","G","G","G","G","G","G","G","G","G","G","G","G","G","G","G","G","G","G","G","G","G","G","G","G","G","G","G","G","G","G","G","G","G","G","G","G","G","G","G","G","G","G","G","G","G","G","G","G","G","G","G","G","G","G","G","G","G","G","G","G","G","G","G","G","G","G","G","G","G","G","G","G","G","G","G","G","G","G","G","G","G","G","G","G","G","G","G","G","G","G","G","G","G","G","G","G","G","G","G","G","G","G","G","G","G","G","G","G","G","G","G","G","G","G","G","G","G","G","G","G","G","G","G","G","G","G","G","G","G","G","G","G","G","G","G","G","G","G","G","G","G","G","G","G","G","G","G","G","G","G","G","G","G","G","G","G","G","G","G","G","G","G","G","G","G","G","G","G","G","G","G","G","G","G","G","G","G","G","G","G","G","G","G","G","G","G","G","G","G","G","G","G","G","G","G","G","G","G","G","G","G","G","G","G","G","G","G","G","G","G","G","G","G","G","G","G","G","G","G","G","G","G","G","G","G","G","G","G","G","G","G","G","G","G","G","G","G","G","G","G","G","G","G","G","G","G","G","G","G","G","G","G","G","G","G","G","G","G","G","G","G","G","G","G","G","G","G","G","G","G","G","G","G","G","G","G","G","G","G","G","G","G","G","G","G","G","G","G","G","G","G","G","G","G","G","G","G","G","G","G","?","?","?","?","?","?","?","?","?","?","?","?","?","?","?","?","?","?","?","?","?","?","?","?","?","?","?","?","?","?","?","?","?","?","?","?","?","?","?","?","?","?","?","?","?","O","O","O","O","O","O","O","O","O","O","O","O","O","?","?","?","?","N","N","N","N","N","N","N","N","N","N","N","N","N","N","N","N","N","N","N","?","?","?","?","?","?","?","D","D","D","D","D","D","D","D","D","D","D","D","D","D","D","D","D","D","D","D","D","D","D","D","D","D","D","D","D","D","D","D","D","D","D","D","D","D","D","D","D","D","D","D","D","D","D","D","D","D","D","D","D","D","D","D","D","D","D","D","D","D","D","D","D","D","D","D","D","D","D","D","D","D","D","D","D","D","D","D","D","D","D","D","D","D","D","D","D","D","D","D","D","D","D","D","D","D","D","D","D","D","D","D","D","D","D","D","D","D","D","D","D","D","D","D","D","D","D","D","D","D","D","D","D","D","D","D","D","D","D","D","D","D","D","D","D","D","D","D","D","D","D","D","D","D","D","D","D","D","D","D","D","D","D","D","D","D","D","D","D","D","D","D","D","D","D","D","D","D","D","D","D","D","D","D","D","D","D","D","D","D","D","D","D","D","D","D","D","D","D","D","D","D","D","D","D","D","D","D","D","D","D","D","D","D","D","D","D","D","D","D","D","D","D","D","D","D","D","D","D","D","D","D","D","D","D","D","D","D","D","D","D","D","D","D","?","?","?","?","?","?","?","?","?","M","M","M","M","M","M","M","M","M","M","M","M","M","M","M","M","M","M","M","M","?","?","?","?","?","?","?","?","?","?","L","L","L","?","K","K","K","K","K","K","K","K","K","K","?","?","?","?","G","?","H","?","?","?","?","?","?","?","?","?","?","?","?","?","H","H","H","H","H","H","H","H","H","H","H","H","H","H","H","H","H","H","H","H","H","H","H","H","H","H","H","H","H","H","H","H","H","H","H","H","H","H","H","H","H","H","H","H","H","H","H","H","H","H","H","H","H","H","H","H","H","H","H","H","H","H","H","H","H","H","H","H","H","H","H","H","H","H","H","H","H","H","H","H","H","H","H","H","H","H","H","H","H","H","H","H","H","H","H","H","H","H","H","H","H","H","H","H","H","H","H","H","H","H","H","H","H","H","H","H","H","H","H","H","H","H","H","H","H","H","H","H","H","H","?","?","?","?","?","?","?","?","?","?","?","?","?","?","?","?","?","?","?","?","?","?","?","?","?","P","P","P","P","P","P","P","P","P","P","P","P","P","P","P","P","P","P","P","P","P","P","P","P","P","P","P","P","P","P","P","P","P","P","P","P","P","P","P","P","P","P","P","P","P","P","P","P","P","P","P","P","P","P","P","P","P","P","P","P","P","P","P","P","P","P","P","P","P","P","P","P","P","P","P","P","P","P","P","P","P","P","P","P","P","P","P","P","P","P","P","P","P","P","P","P","P","P","P","P","P","P","P","P","P","P","P","P","P","P","P","P","P","P","P","P","P","P","P","P","P","P","P","P","P","?","?","?","?","?","?","?","?","?","?","?","?","?","?","?","?","?","?","?","?","?","?","?","?","?","?","?","?","?","?","?","?","?","X","X","X","X","X","X","X","X","X","X","X","X","X","X","X","X","X","X","X","?","?","?","?","?","?","?","?","?","?","?","?","?","?","?","?","?","W","W","W","W","W","W","W","W","W","W","W","W","W","W","W","W","W","W","W","W","W","W","W","W","W","W","W","W","W","W","W","W","W","W","W","W","W","W","W","W","W","W","W","W","W","W","W","W","W","W","W","W","W","W","W","W","W","W","W","W","W","W","W","W","W","W","W","W","W","W","W","W","W","W","W","W","W","W","W","W","W","W","W","W","W","W","W","W","W","W","W","W","W","W","W","W","W","W","W","W","W","W","W","W","W","W","W","W","W","W","W","W","W","W","W","W","W","W","W","W","W","W","W","W","W","W","W","W","W","W","W","W","W","W","W","W","W","W","W","W","W","W","W","W","W","W","W","W","W","W","W","W","W","W","W","W","W","W","W","W","W","W","W","W","W","W","W","W","W","W","W","W","W","W","W","W","W","W","W","W","W","W","W","W","W","W","W","W","W","W","W","W","W","W","W","W","W","W","W","W","W","W","W","W","W","W","W","W","W","W","W","W","W","W","W","W","W","W","W","W","W","W","W","W","W","W","W","W","W","W","W","W","W","W","W","W","W","W","W","W","W","W","W","W","W","W","W","W","W","W","W","W","W","W","W","W","W","W","W","W","W","W","W","W","W","W","W","W","W","W","W","W","W","W","W","W","W","W","W","W","W","W","W","W","W","W","W","W","W","W","W","W","W","W","W","W","W","W","W","W","W","W","W","W","W","W","W","W","W","W","W","W","W","W","W","W","W","W","W","W","W","W","W","W","W","W","W","W","W","W","W","W","W","W","W","W","W","W","W","W","W","W","W","W","W","W","W","W","W","W","W","W","W","W","W","W","W","W","W","W","W","W","W","W","W","W","W","W","W","W","W","W","W","W","W","W","W","W","W","W","W","W","W","W","W","W","W","W","W","W","W","W","W","W","W","W","W","W","W","W","W","W","W","W","W","W","W","W","W","W","W","W","W","W","W","W","W","W","W","W","W","W","W","W","W","W","W","W","W","W","W","W","W","W","W","W","W","W","W","W","W","W","W","W","W","W","W","W","W","W","W","W","W","W","W","W","W","W","W","W","W","W","W","W","W","W","W","W","W","W","W","W","W","W","W","W","W","W","W","W","W","W","W","W","W","W","W","W","W","W","W","W","W","W","W","W","W","W","W","W","W","W","W","W","W","W","W","W","W","W","W","W","W","W","W","W","W","W","W","W","W","W","W","W","W","W","W","W","W","W","W","W","W","W","W","W","W","W","W","W","W","W","W","W","W","W","W","W","W","W","W","W","W","W","W","W","W","W","W","W","W","W","W","W","W","W","W","W","W","W","W","W","W","W","W","W","W","W","W","W","W","W","W","W","W","W","W","W","W","W","W","W","W","W","W","W","W","W","W","W","W","W","W","W","W","W","W","W","W","W","W","W","W","W","W","W","W","W","W","W","W","W","W","W","W","W","W","W","W","W","W","W","W","W","W","W","W","W","W","W","W","W","W","W","W","W","W","W","W","W","W","W","W","W","W","W","W","W","W","W","W","W","W","W","W","W","W","W","W","W","W","W","W","W","W","W","W","W","W","W","W","W","W","W","W","W","W","W","W","W","W","W","W","W","W","W","W","W","W","W","W","W","W","W","W","W","W","W","W","W","W","W","W","W","W","W","W","W","W","W","W","W","W","W","W","W","W","W","W","W","W","W","W","W","W","W","W","W","W","W","W","W","W","W","W","W","W","W","W","W","W","W","W","W","W","W","W","W","W","W","W","W","W","W","W","W","W","W","W","W","W","W","W","W","W","W","W","W","W","W","W","W","W","W","W","W","W","W","W","W","W","W","W","W","W","W","W","W","W","W","W","W","W","W","W","W","W","W","W","W","W","W","W","W","W","W","W","W","W","W","W","W","W","W","W","W","W","W","W","W","W","W","W","W","W","W","W","W","W","W","W","W","W","W","W","W","W","W","W","W","W","W","W","W","W","W","W","W","W","W","W","W","W","W","W","W","W","W","W","W","W","W","W","W","W","W","W","W","W","W","W","W","W","W","W","W","W","W","W","W","W","W","W","W","W","W","W","W","W","W","W","W","W","W","W","W","W","W","W","W","W","W","W","W","W","W","W","W","W","W","W","W","W","W","W","W","W","W","W","W","W","W","W","W","W","W","W","W","W","W","W","W","W","W","W","W","W","W","W","W","W","W","W","W","W","W","W","W","W","W","W","W","W","W","W","W","W","W","W","W","W","W","W","W","W","W","W","W","W","W","W","W","W","W","W","W","W","W","W","W","W","W","W","W","W","W","W","W","W","W","W","W","W","W","W","W","W","W","W","W","W","W","W","W","W","W","W","W","W","W","W","W","W","W","W","W","W","W","W","W","W","W","W","W","W","W","W","W","W","W","W","W","W","W","W","W","W","W","W","W","W","W","W","W","W","W","W","W","W","W","W","W","W","W","W","W","W","W","W","W","W","W","W","W","W","W","W","W","W","W","W","W","W","W","W","W","W","W","W","W","W","W","W","W","W","W","W","W","W","W","W","W","W","W","W","W","W","W","W","W","W","W","W","W","W","W","W","W","W","W","W","W","W","W","W","W","W","W","W","W","W","W","W","W","W","W","W","W","W","W","W","W","W","W","W","W","W","W","W","W","W","W","W","W","W","W","W","W","W","W","W","W","W","W","W","W","W","W","W","W","W","W","W","W","W","W","W","W","W","W","W","W","W","W","W","W","W","W","W","W","W","W","W","W","W","W","W","W","W","W","W","W","W","W","W","W","W","W","W","W","W","W","W","W","W","W","W","W","W","W","W","W","W","W","W","W","W","W","W","W","W","W","W","W","W","W","W","W","W","W","W","W","W","W","W","W","W","W","W","W","W","W","W","W","W","W","W","W","W","W","W","W","W","W","W","W","W","W","W","W","W","W","W","W","W","W","W","W","W","W","W","W","W","W","W","W","W","W","W","W","W","W","W","W","W","W","W","W","W","W","W","W","W","W","W","W","W","W","W","W","W","W","W","W","W","W","W","W","W","W","W","W","W","W","W","W","W","W","W","W","W","W","W","W","W","W","W","W","W","W","W","W","W","W","W","W","W","W","W","W","W","W","W","W","W","W","W","W","W","W","W","W","W","W","W","W","W","W","W","W","W","W","W","W","W","W","W","W","W","W","W","W","W","W","W","W","W","W","W","W","W","W","W","W","W","W","W","W","W","W","W","W","W","W","W","W","W","W","W","W","W","W","W","W","W","W","W","W","W","W","W","W","W","W","W","W","W","W","W","W","W","W","W","W","W","W","W","W","W","W","W","W","W","W","W","W","W","W","W","W","W","W","W","W","W","W","W","W","W","W","W","W","W","W","W","W","W","W","W","W","W","W","W","W","W","W","W","W","W","W","W","W","W","W","W","W","W","W","W","W","W","W","W","W","W","W","W","W","W","W","W","W","W","W","W","W","W","W","W","W","W","W","W","W","W","W","W","W","W","W","W","W","W","W","W","W","W","W","W","W","W","W","W","W","W","W","W","W","W","W","W","W","W","W","W","W","W","W","W","W","W","W","W","W","W","W","W","W","W","W","W","W","W","W","W","W","W","W","W","W","W","W","W","W","W","W","W","W","W","W","W","W","W","W","W","W","W","W","W","W","W","W","W","W","W","W","W","W","W","W","W","W","W","W","W","W","W","W","W","W","W","W","W","W","W","W","W","W","W","W","W","W","W","W","W","W","W","W","W","W","W","W","W","W","W","W","W","W","W","W","W","W","W","W","W","W","W","W","W","W","W","W","W","W","W","W","W","W","W","W","W","W","W","W","W","W","W","W","W","W","W","W","W","W","W","W","W","W","W","W","W","W","W","W","W","W","W","W","W","W","W","W","W","W","W","W","W","W","W","W","W","W","W","W","W","W","W","W","W","W","W","W","W","W","W","W","W","W","W","W","W","W","W","W","W","W","W","W","W","W","W","W","W","W","W","W","W","W","W","W","W","W","W","W","W","W","W","W","W","W","W","W","W","W","W","W","W","W","W","W","W","W","W","W","W","W","W","W","W","W","W","W","W","W","W","W","W","W","W","W","W","W","W","W","W","W","W","W","W","W","W","W","W","W","W","W","W","W","W","W","W","W","W","W","W","W","W","W","W","W","W","W","W","W","W","W","W","W","W","W","W","W","W","W","W","W","W","W","W","W","W","W","W","W","W","W","W","W","W","W","W","W","W","W","W","W","W","W","W","W","W","W","W","W","W","W","W","W","W","W","W","W","W","W","W","W","W","W","W","W","W","W","W","W","W","W","W","W","W","W","W","W","W","W","W","W","W","W","W","W","W","W","W","W","W","W","W","W","W","W","W","W","W","W","W","W","W","W","W","W","W","W","W","W","W","W","W","W","W","W","W","W","W","W","W","W","W","W","W","W","W","W","W","W","W","W","W","W","W","W","W","W","W","W","W","W","W","W","W","W","W","W","W","W","W","W","W","W","W","W","W","W","W","W","W","W","W","W","W","W","W","W","W","W","W","W","W","W","W","W","W","W","W","W","W","W","W","W","W","W","W","W","W","W","W","W","W","W","W","W","W","W","W","W","W","W","W","W","W","W","W","W","W","W","W","W","W","W","W","W","W","W","W","W","W","W","W","W","W","W","W","W","W","W","W","W","W","W","W","W","W","W","W","W","W","W","W","W","W","W","W","W","W","W","W","W","W","W","W","W","W","W","W","W","W","W","W","W","W","W","W","W","W","W","W","W","W","W","W","W","W","W","W","W","W","W","W","W","W","W","W","W","W","W","W","W","W","W","W","W","W","W","W","W","W","W","W","W","W","W","W","W","W","W","W","W","W","W","W","W","W","W","W","W","W","?","?","?","?","?","?","?","?","?","?","?","?","?","?","?","U","U","U","U","U","U","U","U","U","U","U","U","U","U","U","U","U","U","U","U","?","?","V","V","V","V","V","V","V","V","V","V","V","V","V","V","V","?","?","?","M","M","M","?","?","?","?","?","?","?","?","?","?","?","?","?","?","C","C","C","C","C","C","C","C","?","?","B","B","B","B","B","B","B","B","B","B","B","B","B","B","B","B","B","B","B","B","B","B","B","B","B","B","B","B","B","B","B","B","B","B","B","B","B","B","B","B","B","B","B","B","B","B","B","B","B","B","B","B","B","B","B","B","B","B","B","B","B","B","B","B","B","?","?","?","?","?","?","V","V","V","V","V","V","V","V","V","?","?","?","W","?","X","?","Y","Y","Z","Z","Z","Z","Z","?","?","?","?","?","?","?","?","?","?","?","?","?","?","?","Z","Z","Z","Z","Z","Z","Z","Z","Z","Z","Z","Z","Z","Z","Z","Z","Z","Z","Z","Z","Z","Z","Z","Z","Z","Z","Z","Z","Z","Z","Z","Z","Z","Z","Z","Z","Z","Z","Z","Z","Z","Z","Z","Z","Z","Z","Z","Z","Z","Z","Z","Z","Z","Z","Z","Z","Z","Z","Z","Z","Z","Z","Z","Z","Z","Z","Z","Z","Z","Z","Z","?","?","?","?","?","?","?","?","?","?","?","?","?","?","?","?","?","?","?","?","?","?","?","?","?","?","?","?","?","?","?","?","?","?","?","?","?","?","?","?","?","?","?","?","?","?","?","?","?","?","?","?","?","?","?","?","?","?","?","?","?","?","?","?","?","?","?","?","?","?","?","?","?","?","?","?","?","?","?","?","?"],"t":[42,54,74,90,107,124,140,157,174,191,207,223,241,258,275,292,309,326,343,358,375,391,408,425,441,458,474,491,508,525,541,558,574,591,608,624,641,657,674,691,708,725,743,758,775,791,808,825,841,857,874,891,907,924,941,958,975,997,1010,1026,1042,1059,1076,1093,1109,1126,1142,1159,1175,1192,1209,1225,1242,1261,1275,1292,1310,1325,1343,1359,1375,1392,1410,1427,1442,1460,1475,1492,1509,1526,1542,1561,1575,1592,1609,1626,1642,1660,1676,1692,1709,1726,1742,1758,1775,1792,1809,1825,1841,1859,1875,1892,1908,1924,1941,1959,1975,1992,2008,2025,2042,2059,2075,2092,2109,2126,2142,2158,2175,2192,2209,2225,2242,2260,2275,2293,2308,2325,2342,2359,2375,2392,2409,2425,2442,2458,2475,2492,2509,2524,2542,2558,2575,2592,2608,2627,2645,2658,2674,2691,2708,2725,2743,2759,2775,2792,2808,2825,2846,2858,2875,2891,2908,2924,2941,2958,2976,2991,3008,3025,3041,3058,3074,3091,3108,3124,3141,3158,3174,3191,3208,3224,3241,3257,3274,3291,3308,3324,3341,3357,3374,3391,3407,3424,3440,3457,3474,3490,3507,3524,3540,3556,3575,3591,3608,3625,3641,3658,3674,3691,3707,3725,3741,3758,3774,3791,3807,3824,3841,3857,3874,3891,3907,3924,3941,3957,3974,3991,4007,4024,4042,4058,4074,4091,4109,4124,4141,4157,4174,4191,4209,4225,4241,4257,4275,4291,4307,4324,4341,4357,4374,4391,4406,4422,4439,4455,4473,4489,4507,4523,4539,4557,4572,4589,4606,4623,4640,4657,4675,4690,4707,4723,4743,4756,4774,4790,4807,4823,4840,4857,4874,4891,4906,4924,4940,4957,4973,4990,5006,5023,5040,5057,5073,5090,5107,5123,5140,5156,5173,5190,5206,5223,5239,5256,5273,5290,5307,5323,5340,5356,5373,5390,5406,5423,5440,5456,5473,5490,5507,5523,5540,5557,5573,5590,5607,5624,5641,5657,5674,5690,5707,5723,5740,5756,5773,5790,5806,5823,5839,5856,5873,5890,5907,5923,5940,5956,5973,5990,6006,6023,6040,6056,6073,6090,6108,6123,6140,6157,6174,6190,6206,6223,6240,6257,6273,6290,6307,6323,6339,6356,6373,6390,6407,6423,6440,6457,6473,6490,6507,6524,6540,6556,6573,6590,6606,6623,6639,6655,6671,6688,6704,6721,6738,6755,6771,6789,6806,6823,6841,6857,6874,6891,6907,6924,6941,6957,6974,6991,7007,7024,7040,7059,7074,7090,7106,7123,7139,7156,7173,7190,7206,7223,7240,7256,7273,7289,7306,7322,7341,7357,7373,7390,7406,7423,7439,7456,7473,7489,7505,7523,7540,7556,7573,7589,7606,7623,7639,7656,7673,7689,7706,7723,7740,7757,7773,7789,7806,7823,7840,7860,7873,7889,7906,7923,7939,7956,7973,7989,8010,8023,8039,8056,8073,8089,8106,8123,8139,8156,8173,8189,8206,8222,8239,8256,8273,8289,8306,8323,8339,8356,8373,8391,8406,8423,8440,8456,8476,8491,8504,8522,8538,8555,8572,8588,8605,8623,8640,8656,8673,8690,8706,8723,8739,8755,8773,8790,8806,8823,8840,8856,8873,8889,8906,8923,8940,8956,8973,8989,9006,9023,9040,9056,9073,9089,9105,9122,9139,9156,9173,9189,9206,9224,9239,9256,9273,9290,9306,9323,9340,9356,9373,9390,9406,9423,9440,9455,9473,9489,9505,9522,9538,9555,9572,9588,9605,9622,9639,9656,9672,9688,9705,9722,9738,9757,9773,9789,9806,9822,9840,9855,9871,9887,9904,9920,9938,9955,9972,9988,10005,10022,10038,10055,10072,10088,10105,10122,10138,10155,10172,10188,10205,10222,10238,10255,10272,10288,10305,10322,10338,10355,10372,10388,10405,10422,10439,10455,10472,10488,10505,10522,10539,10556,10572,10589,10606,10622,10639,10655,10672,10688,10705,10722,10739,10755,10772,10788,10805,10822,10839,10855,10872,10888,10905,10922,10938,10955,10972,10989,11005,11022,11039,11055,11072,11089,11106,11122,11138,11156,11171,11187,11204,11220,11243,11253,11270,11288,11305,11322,11338,11355,11372,11388,11405,11422,11438,11455,11472,11488,11505,11522,11538,11555,11572,11588,11605,11622,11638,11655,11672,11689,11704,11721,11738,11755,11772,11788,11805,11821,11838,11855,11871,11889,11905,11921,11938,11955,11972,11989,12005,12021,12038,12055,12072,12088,12105,12122,12138,12155,12171,12188,12205,12221,12238,12255,12271,12288,12305,12321,12338,12355,12372,12388,12405,12421,12438,12455,12472,12488,12505,12523,12538,12555,12571,12588,12605,12627,12655,12671,12688,12704,12721,12740,12754,12771,12788,12804,12821,12838,12854,12871,12888,12904,12921,12938,12954,12971,12988,13004,13021,13037,13054,13072,13087,13104,13121,13138,13154,13171,13187,13204,13221,13238,13254,13271,13288,13304,13321,13338,13354,13371,13388,13404,13421,13438,13454,13471,13488,13505,13521,13538,13554,13571,13587,13604,13621,13638,13654,13671,13688,13704,13721,13738,13754,13771,13787,13804,13821,13837,13854,13871,13887,13904,13921,13937,13954,13971,13987,14004,14021,14038,14059,14071,14087,14105,14121,14138,14154,14171,14188,14204,14221,14238,14255,14271,14287,14304,14321,14338,14354,14371,14387,14404,14421,14437,14454,14471,14487,14504,14521,14537,14554,14571,14587,14604,14620,14637,14654,14671,14687,14703,14720,14737,14755,14771,14787,14804,14821,14837,14854,14870,14887,14904,14920,14937,14952,14969,14986,15002,15019,15036,15052,15070,15087,15104,15120,15137,15153,15171,15187,15204,15220,15236,15253,15269,15286,15302,15319,15337,15354,15370,15386,15403,15424,15437,15454,15471,15487,15504,15520,15537,15554,15570,15587,15604,15620,15637,15654,15670,15687,15703,15720,15737,15753,15770,15787,15803,15819,15837,15854,15870,15886,15904,15920,15936,15953,15969,15986,16003,16023,16037,16053,16069,16087,16104,16120,16137,16153,16170,16187,16203,16220,16236,16253,16270,16286,16303,16320,16336,16353,16370,16386,16403,16420,16436,16454,16470,16486,16503,16520,16537,16554,16571,16587,16604,16621,16637,16654,16671,16687,16704,16721,16737,16755,16771,16790,16805,16822,16837,16854,16871,16887,16903,16921,16937,16954,16971,16987,17004,17021,17037,17054,17071,17087,17103,17121,17137,17154,17170,17187,17204,17220,17236,17253,17269,17287,17304,17320,17337,17353,17371,17387,17404,17421,17437,17453,17470,17487,17505,17521,17537,17554,17571,17588,17604,17621,17638,17654,17671,17687,17704,17721,17736,17754,17770,17787,17804,17820,17837,17854,17870,17887,17904,17920,17936,17954,17971,17987,18004,18020,18037,18054,18071,18087,18104,18120,18137,18154,18171,18186,18203,18219,18237,18253,18270,18286,18303,18319,18336,18353,18377,18403,18419,18436,18453,18469,18486,18503,18519,18536,18553,18569,18586,18603,18620,18636,18653,18669,18686,18702,18719,18735,18754,18769,18786,18803,18820,18836,18853,18870,18886,18903,18920,18936,18953,18969,18986,19003,19019,19036,19053,19069,19085,19103,19119,19135,19153,19169,19186,19203,19219,19236,19253,19269,19286,19301,19317,19334,19351,19367,19386,19403,19419,19436,19453,19469,19486,19503,19519,19536,19552,19575,19603,19619,19636,19652,19669,19686,19702,19719,19736,19752,19769,19786,19803,19819,19835,19852,19869,19886,19902,19919,19936,19952,19969,19986,20002,20019,20036,20053,20069,20086,20102,20119,20135,20151,20168,20184,20201,20218,20234,20252,20268,20286,20302,20319,20335,20352,20369,20386,20402,20419,20436,20452,20469,20485,20502,20519,20535,20552,20569,20585,20602,20619,20636,20652,20668,20685,20702,20719,20735,20753,20769,20785,20802,20819,20836,20852,20869,20885,20902,20919,20935,20952,20972,20986,21003,21019,21035,21052,21069,21086,21102,21119,21136,21153,21169,21186,21202,21219,21235,21252,21269,21285,21302,21319,21336,21352,21368,21386,21402,21419,21435,21452,21468,21485,21502,21519,21536,21552,21569,21585,21602,21619,21636,21652,21669,21686,21702,21719,21736,21752,21768,21785,21801,21819,21836,21852,21869,21885,21901,21919,21935,21952,21969,21985,22001,22019,22035,22051,22069,22086,22102,22119,22135,22152,22169,22185,22202,22218,22235,22252,22269,22285,22306,22318,22335,22351,22369,22385,22402,22419,22435,22452,22468,22485,22502,22519,22535,22552,22569,22585,22602,22618,22635,22651,22668,22685,22702,22718,22735,22752,22768,22784,22802,22818,22835,22852,22868,22885,22902,22918,22935,22952,22968,22985,23002,23018,23035,23051,23068,23085,23101,23118,23135,23152,23168,23185,23201,23218,23235,23251,23268,23285,23301,23318,23334,23350,23367,23383,23400,23421,23435,23451,23468,23485,23501,23520,23536,23555,23572,23585,23601,23617,23633,23650,23667,23683,23699,23716,23732,23749,23767,23783,23799,23816,23832,23849,23865,23883,23900,23917,23933,23953,23970,23984,24002,24017,24034,24050,24067,24083,24099,24116,24133,24150,24166,24183,24200,24216,24233,24250,24266,24283,24300,24317,24332,24349,24368,24385,24401,24418,24435,24451,24469,24486,24501,24519,24537,24552,24567,24586,24602,24618,24633,24649,24666,24683,24700,24716,24733,24750,24766,24782,24799,24817,24834,24850,24866,24883,24899,24916,24932,24949,24967,24989,25000,25016,25033,25049,25066,25083,25100,25117,25134,25151,25167,25184,25201,25217,25233,25249,25266,25283,25301,25317,25334,25352,25367,25384,25401,25417,25434,25450,25468,25483,25499,25516,25533,25549,25568,25584,25601,25617,25634,25651,25667,25684,25701,25717,25734,25751,25768,25784,25801,25817,25834,25851,25868,25884,25901,25917,25934,25951,25967,25984,26001,26018,26034,26050,26068,26084,26100,26118,26134,26150,26167,26184,26201,26218,26235,26252,26268,26286,26303,26333,26350,26366,26383,26399,26416,26433,26449,26465,26483,26499,26515,26533,26550,26566,26584,26602,26617,26635,26651,26668,26684,26701,26719,26734,26753,26767,26784,26800,26817,26834,26851,26867,26884,26901,26917,26934,26953,26967,26984,27001,27017,27034,27052,27068,27084,27101,27118,27134,27151,27168,27184,27201,27218,27234,27250,27268,27284,27301,27317,27333,27351,27367,27386,27399,27416,27433,27450,27467,27484,27500,27517,27534,27550,27567,27584,27601,27617,27634,27650,27667,27684,27706,27734,27750,27767,27783,27800,27816,27834,27850,27867,27883,27900,27917,27933,27950,27967,27983,28000,28017,28033,28049,28066,28082,28099,28116,28134,28150,28167,28183,28200,28217,28233,28250,28267,28283,28300,28317,28334,28350,28367,28383,28400,28417,28433,28450,28467,28483,28500,28517,28533,28550,28567,28584,28600,28617,28636,28651,28667,28684,28700,28716,28734,28752,28767,28784,28801,28817,28834,28850,28867,28883,28900,28917,28933,28950,28967,28984,29000,29017,29033,29050,29067,29084,29104,29117,29134,29150,29167,29183,29199,29216,29233,29250,29266,29283,29300,29317,29333,29350,29367,29383,29400,29417,29433,29449,29467,29483,29500,29517,29533,29549,29565,29582,29599,29616,29633,29650,29666,29684,29700,29716,29733,29749,29766,29783,29800,29816,29833,29849,29866,29883,29900,29916,29933,29950,29966,29983,29999,30016,30033,30050,30066,30083,30099,30117,30133,30150,30166,30183,30200,30217,30233,30249,30267,30283,30300,30316,30333,30350,30366,30383,30400,30416,30433,30454,30466,30483,30499,30516,30533,30549,30566,30582,30598,30615,30632,30649,30666,30684,30700,30717,30734,30751,30767,30783,30800,30817,30833,30850,30866,30883,30900,30917,30933,30950,30966,30983,31000,31017,31033,31051,31066,31083,31100,31116,31133,31150,31167,31183,31200,31216,31233,31250,31266,31283,31300,31316,31333,31350,31366,31383,31400,31416,31433,31449,31465,31482,31498,31515,31532,31549,31565,31582,31599,31615,31632,31650,31665,31683,31700,31719,31736,31749,31769,31781,31798,31814,31830,31847,31863,31880,31897,31913,31930,31946,31963,31980,31996,32013,32030,32048,32063,32080,32096,32113,32130,32146,32163,32180,32196,32213,32230,32246,32263,32280,32296,32314,32330,32346,32363,32380,32396,32414,32431,32446,32463,32479,32496,32513,32529,32546,32563,32581,32597,32615,32632,32648,32666,32682,32699,32714,32731,32750,32765,32784,32799,32818,32835,32851,32866,32881,32897,32914,32930,32948,32963,32980,32997,33013,33031,33048,33064,33081,33099,33115,33132,33149,33164,33181,33197,33214,33231,33248,33264,33282,33297,33314,33332,33347,33364,33380,33397,33414,33431,33447,33464,33480,33497,33514,33530,33547,33564,33580,33597,33614,33631,33649,33665,33681,33697,33715,33730,33747,33764,33781,33797,33814,33832,33848,33865,33881,33897,33914,33931,33947,33964,33981,33998,34014,34030,34048,34064,34081,34097,34114,34131,34148,34165,34180,34197,34214,34230,34247,34264,34280,34297,34313,34331,34347,34363,34381,34398,34415,34431,34448,34465,34484,34497,34514,34531,34548,34565,34581,34598,34616,34631,34648,34664,34681,34698,34716,34732,34751,34766,34781,34798,34815,34831,34848,34864,34881,34897,34914,34930,34947,34965,34981,34998,35015,35032,35048,35066,35081,35098,35115,35132,35148,35165,35182,35198,35215,35232,35248,35265,35281,35297,35315,35331,35348,35365,35381,35397,35415,35431,35450,35465,35481,35498,35515,35531,35548,35565,35581,35598,35615,35631,35647,35665,35681,35698,35715,35732,35751,35766,35783,35798,35817,35832,35849,35869,35882,35897,35914,35930,35947,35964,35980,35997,36014,36031,36047,36065,36082,36098,36116,36133,36148,36165,36182,36198,36216,36233,36249,36265,36282,36298,36315,36331,36348,36365,36381,36397,36414,36432,36448,36465,36481,36498,36516,36532,36548,36565,36583,36599,36616,36632,36648,36665,36682,36698,36716,36732,36749,36765,36781,36798,36815,36832,36848,36866,36882,36898,36916,36932,36948,36965,36982,36998,37015,37032,37051,37065,37082,37098,37115,37132,37148,37165,37182,37202,37216,37231,37248,37264,37281,37298,37315,37331,37348,37365,37382,37398,37415,37431,37450,37464,37481,37498,37514,37530,37548,37564,37580,37598,37614,37631,37648,37664,37681,37698,37714,37731,37749,37764,37781,37798,37815,37832,37848,37865,37881,37898,37914,37931,37948,37964,37980,37997,38014,38031,38048,38064,38081,38098,38114,38131,38147,38164,38181,38197,38214,38231,38247,38264,38281,38298,38314,38331,38347,38364,38384,38398,38415,38431,38448,38464,38480,38497,38514,38530,38547,38565,38581,38598,38615,38632,38648,38665,38681,38700,38717,38732,38750,38765,38782,38798,38815,38831,38849,38864,38881,38897,38914,38931,38948,38964,38981,38998,39015,39031,39048,39066,39081,39099,39115,39131,39148,39164,39181,39198,39214,39232,39247,39264,39280,39298,39314,39330,39347,39364,39380,39398,39414,39431,39447,39464,39480,39497,39513,39530,39547,39563,39580,39597,39614,39631,39647,39664,39680,39702,39714,39731,39749,39764,39781,39798,39814,39831,39847,39864,39880,39898,39913,39930,39947,39963,39980,39997,40014,40030,40047,40067,40080,40097,40113,40130,40147,40163,40180,40197,40214,40230,40247,40263,40280,40297,40313,40330,40347,40363,40380,40396,40413,40430,40446,40463,40480,40498,40515,40531,40547,40565,40580,40598,40615,40630,40648,40664,40680,40697,40714,40730,40748,40764,40781,40797,40815,40830,40847,40865,40880,40897,40914,40931,40947,40964,40980,40997,41014,41030,41050,41069,41080,41096,41114,41129,41146,41163,41179,41196,41213,41229,41246,41262,41279,41296,41313,41329,41345,41363,41379,41396,41414,41430,41448,41464,41480,41497,41514,41530,41547,41564,41581,41598,41613,41629,41647,41664,41681,41697,41715,41730,41748,41764,41781,41797,41813,41830,41846,41864,41880,41897,41913,41930,41947,41964,41981,41996,42013,42030,42047,42063,42080,42096,42113,42130,42147,42163,42180,42196,42213,42229,42246,42263,42280,42296,42313,42330,42347,42363,42380,42397,42413,42436,42463,42480,42496,42513,42530,42546,42563,42580,42596,42613,42630,42646,42663,42679,42696,42713,42729,42747,42762,42780,42796,42813,42829,42845,42863,42880,42896,42913,42929,42946,42963,42979,42996,43012,43029,43046,43062,43079,43096,43112,43129,43146,43163,43179,43196,43213,43229,43246,43263,43280,43296,43313,43330,43346,43363,43379,43396,43413,43429,43446,43463,43479,43496,43513,43529,43545,43561,43578,43594,43611,43628,43646,43662,43679,43695,43712,43729,43746,43762,43779,43796,43812,43833,43846,43862,43879,43896,43913,43930,43946,43962,43979,43996,44012,44029,44046,44062,44079,44096,44112,44129,44146,44162,44179,44196,44212,44229,44246,44262,44279,44296,44312,44329,44346,44363,44379,44395,44412,44429,44445,44462,44479,44495,44512,44529,44545,44562,44579,44596,44612,44629,44646,44662,44679,44696,44713,44729,44746,44762,44779,44796,44812,44829,44846,44863,44879,44896,44913,44929,44946,44963,44979,44995,45012,45029,45046,45063,45079,45096,45112,45129,45146,45162,45179,45200,45212,45229,45246,45262,45279,45296,45312,45329,45346,45362,45379,45395,45412,45429,45446,45462,45479,45495,45512,45529,45546,45562,45579,45596,45612,45629,45645,45662,45679,45696,45712,45729,45747,45762,45779,45796,45812,45829,45846,45862,45879,45895,45912,45928,45945,45962,45979,45995,46012,46028,46045,46062,46079,46095,46112,46128,46145,46162,46178,46195,46212,46228,46245,46262,46278,46295,46312,46328,46345,46362,46378,46395,46411,46429,46445,46462,46477,46493,46510,46527,46545,46562,46582,46595,46612,46628,46645,46661,46678,46695,46712,46728,46745,46762,46778,46795,46811,46828,46845,46861,46878,46895,46911,46928,46945,46961,46978,46995,47011,47028,47045,47061,47079,47095,47111,47128,47144,47161,47178,47195,47211,47228,47245,47262,47279,47295,47313,47329,47346,47362,47379,47396,47411,47429,47444,47460,47477,47495,47512,47529,47545,47562,47580,47595,47611,47630,47645,47662,47679,47695,47712,47729,47746,47761,47779,47795,47812,47828,47845,47861,47879,47895,47912,47930,47950,47979,47996,48011,48028,48045,48061,48079,48095,48111,48129,48145,48161,48178,48195,48212,48229,48245,48261,48279,48295,48312,48328,48345,48361,48378,48395,48411,48428,48446,48461,48478,48495,48511,48529,48545,48561,48578,48595,48611,48628,48645,48661,48678,48695,48713,48728,48747,48761,48779,48795,48812,48829,48846,48862,48879,48896,48911,48929,48946,48962,48979,48996,49012,49028,49046,49061,49079,49096,49111,49129,49145,49161,49178,49195,49211,49228,49245,49261,49278,49294,49312,49334,49361,49378,49396,49411,49428,49444,49461,49478,49494,49511,49528,49544,49561,49578,49595,49612,49628,49644,49661,49678,49694,49711,49727,49745,49761,49778,49794,49811,49828,49844,49860,49878,49894,49911,49928,49944,49961,49978,49994,50011,50027,50044,50062,50078,50094,50111,50128,50144,50161,50177,50194,50211,50227,50244,50261,50277,50294,50311,50328,50344,50361,50378,50394,50411,50427,50444,50460,50477,50494,50511,50528,50544,50561,50577,50594,50611,50628,50644,50661,50677,50694,50710,50726,50743,50759,50776,50794,50811,50828,50844,50861,50877,50894,50911,50927,50944,50960,50978,50994,51011,51027,51044,51061,51077,51094,51110,51127,51144,51160,51177,51194,51210,51227,51244,51260,51277,51294,51310,51327,51344,51361,51377,51394,51410,51428,51444,51460,51477,51494,51510,51527,51542,51558,51577,51593,51610,51626,51643,51660,51676,51693,51709,51726,51744,51760,51777,51794,51810,51827,51844,51861,51877,51894,51910,51927,51944,51960,51977,51994,52010,52027,52044,52060,52078,52094,52111,52127,52143,52161,52177,52193,52210,52226,52243,52260,52277,52293,52310,52327,52343,52360,52377,52393,52409,52426,52442,52459,52477,52494,52510,52527,52543,52561,52577,52593,52610,52626,52643,52660,52677,52693,52710,52725,52742,52758,52776,52793,52810,52827,52843,52859,52877,52892,52908,52926,52942,52959,52976,52992,53009,53026,53043,53059,53076,53092,53109,53126,53142,53159,53176,53192,53209,53225,53242,53259,53276,53292,53309,53325,53342,53359,53376,53393,53410,53426,53442,53460,53476,53493,53509,53525,53542,53559,53576,53593,53610,53626,53643,53660,53677,53693,53711,53728,53744,53761,53778,53793,53810,53828,53844,53860,53878,53893,53912,53928,53943,53961,53977,53995,54011,54027,54044,54061,54077,54093,54110,54126,54144,54160,54178,54194,54211,54227,54243,54260,54277,54294,54311,54327,54346,54363,54378,54393,54410,54426,54443,54460,54476,54493,54510,54526,54543,54560,54576,54593,54610,54626,54643,54660,54677,54693,54715,54727,54744,54760,54778,54793,54810,54826,54843,54860,54876,54893,54909,54926,54943,54960,54977,54995,55010,55026,55043,55060,55076,55093,55110,55126,55143,55159,55176,55192,55209,55226,55242,55259,55276,55292,55309,55326,55342,55359,55376,55393,55409,55426,55443,55459,55476,55493,55509,55526,55543,55559,55576,55592,55609,55626,55643,55660,55676,55692,55711,55726,55743,55759,55776,55793,55809,55825,55843,55860,55875,55893,55910,55925,55943,55959,55976,55993,56010,56026,56047,56060,56076,56096,56109,56126,56143,56159,56175,56193,56210,56226,56243,56260,56276,56293,56310,56327,56343,56360,56377,56393,56410,56427,56443,56460,56477,56493,56510,56526,56543,56560,56577,56593,56610,56626,56643,56660,56677,56693,56710,56726,56744,56760,56777,56793,56810,56826,56843,56860,56877,56893,56909,56926,56943,56958,56975,56992,57009,57025,57041,57057,57075,57093,57109,57126,57142,57159,57176,57192,57209,57226,57242,57259,57276,57292,57309,57327,57342,57359,57376,57393,57409,57426,57442,57459,57475,57492,57509,57524,57541,57559,57574,57591,57607,57624,57640,57657,57675,57692,57710,57725,57742,57762,57777,57791,57807,57826,57841,57857,57875,57892,57909,57926,57942,57959,57975,57993,58008,58025,58042,58059,58075,58092,58109,58125,58142,58159,58175,58192,58209,58225,58242,58258,58275,58292,58308,58326,58342,58359,58376,58395,58409,58425,58443,58459,58476,58492,58509,58526,58542,58559,58576,58593,58609,58626,58642,58660,58676,58693,58708,58726,58744,58762,58775,58791,58809,58826,58842,58859,58875,58892,58908,58925,58942,58958,58975,58992,59008,59026,59042,59058,59076,59092,59109,59126,59142,59158,59175,59193,59209,59226,59242,59259,59275,59292,59309,59325,59343,59359,59375,59392,59409,59426,59443,59458,59475,59493,59509,59525,59543,59559,59575,59593,59609,59626,59643,59659,59676,59692,59711,59725,59742,59759,59775,59792,59809,59825,59843,59859,59875,59892,59909,59925,59942,59959,59975,59992,60009,60025,60043,60058,60075,60092,60109,60125,60142,60159,60174,60192,60209,60225,60242,60259,60275,60292,60308,60324,60341,60358,60375,60391,60408,60425,60442,60458,60475,60491,60508,60525,60542,60558,60575,60592,60608,60624,60642,60658,60675,60691,60707,60725,60743,60758,60774,60791,60808,60824,60840,60856,60873,60890,60908,60925,60941,60958,60975,60992,61008,61024,61041,61058,61074,61092,61108,61125,61141,61158,61174,61191,61208,61224,61241,61257,61274,61291,61310,61325,61341,61358,61374,61392,61408,61424,61441,61458,61474,61491,61513,61524,61541,61558,61575,61591,61608,61625,61641,61657,61674,61691,61707,61724,61743,61758,61775,61791,61807,61824,61841,61857,61875,61891,61907,61924,61941,61957,61974,61991,62007,62024,62041,62057,62074,62091,62106,62123,62139,62156,62174,62190,62207,62224,62241,62257,62274,62290,62307,62324,62340,62358,62375,62391,62406,62423,62439,62456,62474,62489,62507,62524,62541,62556,62573,62589,62606,62623,62640,62657,62674,62691,62706,62723,62739,62756,62772,62789,62807,62823,62840,62856,62872,62890,62906,62922,62939,62956,62972,62989,63005,63022,63039,63056,63072,63089,63107,63122,63139,63155,63172,63189,63205,63222,63239,63255,63272,63289,63306,63322,63338,63355,63372,63389,63405,63422,63439,63455,63473,63489,63505,63522,63539,63556,63572,63589,63605,63622,63640,63657,63673,63690,63705,63723,63739,63755,63771,63790,63807,63822,63839,63855,63872,63888,63907,63924,63940,63957,63973,63990,64007,64023,64041,64057,64073,64090,64110,64124,64140,64157,64173,64190,64208,64223,64240,64261,64273,64289,64305,64322,64339,64355,64372,64389,64406,64424,64440,64457,64474,64491,64507,64523,64540,64557,64573,64590,64607,64623,64640,64657,64673,64689,64707,64723,64741,64757,64773,64790,64807,64823,64840,64857,64873,64890,64907,64923,64940,64956,64973,64990,65007,65023,65040,65057,65073,65090,65107,65123,65140,65157,65173,65190,65206,65222,65240,65257,65273,65290,65306,65323,65340,65356,65373,65390,65406,65423,65440,65456,65473,65490,65506,65523,65540,65556,65574,65590,65606,65622,65639,65655,65672,65688,65705,65722,65740,65756,65773,65790,65806,65823,65840,65856,65873,65889,65906,65923,65940,65956,65973,65990,66007,66023,66040,66056,66073,66090,66106,66123,66139,66156,66173,66190,66206,66223,66240,66256,66273,66289,66306,66323,66339,66356,66373,66389,66406,66422,66440,66457,66473,66489,66507,66523,66540,66556,66573,66589,66606,66623,66640,66657,66673,66689,66707,66723,66741,66756,66773,66790,66807,66823,66840,66856,66873,66890,66906,66923,66940,66956,66973,66994,67006,67023,67040,67055,67072,67088,67104,67121,67138,67155,67172,67189,67207,67222,67239,67256,67273,67289,67306,67323,67340,67356,67372,67389,67406,67423,67439,67456,67472,67488,67504,67521,67538,67555,67572,67588,67606,67622,67638,67654,67671,67688,67704,67721,67738,67755,67771,67788,67804,67821,67839,67856,67872,67889,67906,67923,67939,67956,67972,67988,68006,68022,68038,68056,68072,68089,68106,68122,68139,68156,68172,68189,68206,68223,68239,68256,68273,68289,68306,68323,68339,68356,68373,68394,68422,68439,68456,68472,68489,68506,68523,68539,68556,68572,68589,68606,68622,68639,68656,68672,68689,68706,68723,68739,68755,68772,68789,68806,68823,68839,68856,68872,68890,68905,68922,68939,68956,68972,68989,69005,69022,69038,69056,69072,69089,69106,69123,69139,69156,69173,69189,69206,69222,69239,69256,69272,69289,69306,69322,69339,69356,69372,69389,69405,69422,69439,69455,69472,69489,69505,69522,69539,69555,69572,69591,69605,69622,69639,69655,69672,69689,69706,69724,69738,69756,69772,69789,69811,69838,69856,69872,69889,69905,69922,69939,69956,69972,69989,70005,70022,70039,70055,70072,70089,70105,70122,70139,70155,70172,70189,70205,70222,70238,70255,70272,70289,70305,70322,70339,70355,70372,70389,70405,70421,70438,70455,70471,70488,70505,70522,70539,70555,70572,70588,70605,70622,70639,70655,70672,70689,70706,70722,70739,70755,70772,70788,70805,70822,70838,70855,70872,70889,70905,70922,70939,70955,70972,70989,71005,71022,71038,71055,71072,71088,71105,71122,71139,71155,71172,71189,71205,71227,71239,71255,71272,71289,71305,71322,71338,71355,71372,71389,71405,71421,71439,71455,71471,71488,71505,71522,71538,71555,71571,71588,71605,71622,71639,71655,71672,71688,71705,71722,71738,71755,71772,71789,71805,71821,71838,71855,71872,71888,71905,71921,71938,71955,71972,71988,72005,72021,72038,72055,72072,72088,72105,72125,72138,72155,72171,72188,72205,72221,72238,72254,72272,72288,72305,72321,72338,72354,72371,72388,72405,72422,72438,72455,72471,72488,72505,72521,72538,72554,72571,72588,72609,72621,72638,72655,72672,72688,72703,72720,72737,72755,72771,72788,72804,72821,72838,72853,72870,72887,72904,72921,72938,72954,72971,72988,73004,73021,73038,73054,73071,73088,73104,73121,73138,73154,73171,73188,73205,73221,73238,73254,73271,73288,73304,73321,73338,73354,73371,73388,73404,73421,73438,73454,73471,73488,73504,73521,73537,73554,73571,73588,73604,73621,73637,73654,73671,73688,73704,73720,73738,73755,73771,73788,73804,73821,73838,73854,73871,73888,73904,73920,73937,73958,73971,73988,74004,74021,74037,74054,74070,74087,74104,74120,74137,74154,74171,74187,74204,74221,74237,74254,74271,74287,74304,74321,74337,74354,74371,74387,74404,74421,74437,74454,74471,74487,74504,74521,74537,74554,74571,74587,74604,74621,74637,74654,74671,74687,74703,74720,74737,74754,74771,74787,74804,74821,74837,74854,74871,74887,74904,74921,74937,74954,74970,74987,75004,75021,75037,75054,75071,75087,75104,75120,75137,75154,75171,75187,75204,75220,75237,75254,75270,75292,75304,75321,75337,75355,75371,75387,75404,75421,75437,75454,75471,75487,75504,75520,75537,75554,75571,75587,75604,75620,75637,75654,75671,75687,75704,75720,75738,75753,75771,75787,75804,75820,75837,75854,75870,75886,75903,75920,75937,75953,75970,75987,76003,76020,76037,76053,76070,76087,76104,76120,76137,76153,76170,76187,76204,76220,76237,76254,76270,76287,76303,76320,76337,76353,76370,76387,76403,76420,76437,76454,76470,76487,76503,76520,76537,76553,76570,76587,76603,76620,76637,76653,76675,76687,76704,76720,76737,76756,76770,76787,76804,76820,76836,76854,76870,76887,76904,76921,76937,76954,76971,76987,77004,77021,77037,77053,77070,77086,77104,77120,77136,77154,77170,77186,77204,77220,77237,77254,77270,77287,77303,77320,77337,77354,77370,77386,77404,77420,77436,77454,77471,77487,77504,77520,77536,77554,77570,77587,77604,77620,77637,77654,77670,77687,77704,77719,77736,77754,77770,77786,77803,77819,77835,77852,77868,77887,77903,77919,77936,77952,77969,77985,78002,78019,78035,78052,78069,78087,78103,78120,78136,78153,78170,78186,78203,78220,78237,78253,78270,78286,78303,78320,78336,78353,78370,78386,78403,78420,78436,78453,78469,78486,78503,78519,78536,78552,78570,78586,78603,78619,78636,78653,78669,78686,78703,78719,78736,78754,78770,78786,78803,78819,78836,78853,78870,78886,78903,78920,78936,78953,78969,78986,79003,79019,79036,79053,79069,79086,79103,79120,79136,79152,79169,79186,79203,79219,79236,79253,79270,79286,79302,79319,79336,79353,79369,79390,79403,79419,79436,79452,79469,79486,79502,79520,79536,79553,79569,79585,79602,79619,79635,79652,79669,79686,79702,79719,79736,79753,79769,79786,79802,79819,79836,79852,79869,79886,79901,79917,79934,79952,79969,79986,80002,80019,80036,80052,80069,80086,80102,80119,80140,80152,80169,80186,80202,80219,80236,80252,80269,80286,80302,80319,80336,80352,80369,80386,80402,80419,80435,80452,80469,80486,80503,80519,80536,80552,80569,80586,80603,80619,80636,80653,80669,80686,80703,80719,80736,80760,80771,80785,80803,80819,80836,80853,80869,80886,80902,80919,80936,80953,80969,80986,81002,81019,81035,81052,81070,81085,81102,81119,81135,81153,81169,81186,81202,81219,81235,81253,81269,81285,81302,81319,81335,81352,81369,81385,81402,81419,81435,81452,81469,81486,81502,81519,81535,81552,81569,81585,81602,81619,81635,81652,81669,81686,81702,81719,81736,81753,81769,81786,81802,81819,81836,81852,81869,81885,81903,81919,81935,81952,81969,81986,82002,82019,82036,82052,82069,82086,82102,82119,82141,82169,82185,82202,82219,82235,82252,82269,82285,82302,82319,82336,82352,82369,82385,82402,82419,82435,82452,82469,82485,82502,82519,82535,82552,82569,82585,82602,82618,82635,82652,82668,82686,82701,82719,82735,82753,82768,82785,82802,82818,82835,82852,82869,82885,82901,82918,82935,82952,82968,82985,83002,83018,83035,83052,83068,83085,83101,83116,83133,83150,83167,83183,83200,83216,83233,83251,83268,83285,83301,83318,83335,83352,83368,83385,83402,83419,83435,83452,83469,83485,83502,83519,83536,83557,83569,83585,83602,83618,83635,83652,83669,83685,83702,83718,83734,83752,83768,83785,83802,83818,83835,83852,83868,83885,83902,83919,83935,83950,83967,83984,84001,84017,84035,84051,84068,84085,84102,84118,84135,84151,84168,84184,84202,84218,84235,84251,84268,84284,84302,84318,84335,84351,84368,84385,84401,84418,84435,84452,84468,84485,84501,84518,84534,84552,84568,84584,84601,84618,84635,84651,84668,84684,84701,84718,84734,84752,84768,84785,84802,84818,84835,84851,84868,84884,84901,84918,84939,84951,84968,84985,85001,85018,85034,85051,85068,85084,85101,85118,85135,85151,85168,85184,85201,85218,85234,85251,85268,85284,85301,85318,85334,85351,85368,85385,85401,85418,85434,85451,85467,85484,85501,85518,85534,85551,85568,85584,85600,85618,85634,85651,85668,85685,85701,85718,85734,85752,85768,85784,85801,85818,85834,85851,85868,85884,85901,85917,85934,85951,85968,85984,86001,86018,86034,86051,86068,86084,86101,86117,86134,86150,86168,86184,86201,86217,86234,86251,86268,86288,86301,86318,86335,86351,86367,86384,86401,86417,86434,86451,86467,86484,86501,86517,86535,86551,86567,86584,86600,86617,86634,86651,86667,86684,86701,86717,86734,86750,86767,86784,86800,86817,86834,86851,86867,86884,86901,86917,86934,86951,86967,86984,87000,87018,87034,87051,87067,87084,87100,87117,87134,87151,87167,87184,87201,87217,87234,87251,87267,87284,87300,87317,87334,87350,87367,87384,87400,87417,87434,87450,87467,87484,87500,87517,87534,87550,87567,87583,87600,87617,87637,87650,87667,87684,87700,87716,87733,87753,87768,87784,87800,87818,87834,87850,87867,87883,87900,87915,87932,87949,87965,87981,88000,88017,88033,88050,88067,88083,88101,88117,88134,88154,88167,88184,88200,88217,88234,88250,88266,88282,88299,88315,88333,88350,88367,88383,88400,88417,88433,88450,88467,88483,88500,88517,88534,88550,88567,88583,88600,88617,88634,88650,88667,88683,88700,88717,88734,88752,88766,88784,88800,88817,88834,88850,88867,88883,88900,88917,88934,88950,88967,88988,89000,89017,89033,89050,89068,89083,89100,89117,89134,89150,89167,89183,89200,89216,89233,89250,89266,89283,89300,89316,89333,89350,89366,89383,89400,89416,89433,89450,89466,89483,89500,89516,89533,89550,89566,89583,89600,89616,89633,89650,89667,89684,89700,89717,89733,89752,89767,89784,89800,89817,89833,89851,89867,89883,89900,89917,89933,89950,89967,89984,90000,90017,90034,90050,90067,90083,90100,90116,90133,90150,90167,90183,90199,90216,90233,90250,90266,90283,90300,90316,90337,90349,90367,90383,90400,90417,90433,90450,90467,90483,90500,90516,90533,90550,90567,90583,90599,90616,90633,90650,90667,90683,90700,90716,90733,90750,90767,90783,90800,90817,90833,90849,90866,90883,90899,90915,90933,90949,90966,90983,90999,91016,91032,91049,91066,91083,91099,91116,91133,91149,91166,91183,91199,91216,91233,91249,91266,91283,91299,91316,91333,91349,91366,91383,91399,91416,91432,91449,91466,91483,91499,91516,91532,91549,91566,91583,91599,91616,91632,91649,91665,91689,91700,91717,91733,91750,91766,91783,91800,91817,91833,91850,91866,91884,91900,91916,91933,91949,91966,91983,91999,92016,92032,92050,92066,92083,92099,92116,92132,92149,92166,92183,92199,92216,92232,92249,92266,92282,92299,92316,92333,92349,92366,92382,92399,92416,92432,92449,92466,92483,92499,92516,92532,92549,92566,92582,92599,92616,92632,92649,92666,92682,92699,92716,92732,92750,92766,92782,92799,92816,92832,92849,92866,92882,92899,92916,92932,92949,92966,92982,92999,93016,93037,93049,93066,93083,93099,93115,93132,93149,93166,93183,93199,93216,93232,93249,93265,93282,93299,93316,93332,93349,93366,93382,93399,93416,93432,93449,93465,93482,93499,93515,93532,93548,93565,93582,93598,93615,93632,93648,93665,93682,93698,93714,93732,93749,93765,93782,93798,93815,93832,93849,93865,93882,93899,93915,93932,93949,93965,93982,93998,94015,94032,94048,94065,94082,94098,94115,94132,94148,94166,94181,94198,94215,94232,94248,94265,94282,94299,94315,94332,94348,94365,94381,94402,94415,94431,94449,94465,94482,94498,94515,94532,94548,94565,94581,94599,94615,94631,94648,94665,94681,94698,94715,94731,94749,94765,94781,94798,94815,94831,94848,94865,94881,94898,94915,94931,94948,94965,94981,94999,95015,95032,95049,95065,95082,95098,95115,95132,95148,95165,95182,95198,95214,95231,95248,95265,95282,95298,95315,95332,95348,95365,95382,95398,95415,95431,95448,95465,95483,95499,95516,95532,95549,95565,95583,95599,95615,95633,95649,95665,95682,95699,95717,95733,95749,95766,95783,95799,95815,95833,95849,95866,95882,95898,95916,95931,95948,95965,95982,95999,96016,96032,96048,96065,96082,96099,96115,96133,96148,96168,96183,96198,96216,96231,96248,96265,96281,96298,96315,96332,96348,96366,96382,96398,96416,96432,96449,96466,96482,96498,96515,96533,96549,96565,96582,96598,96615,96632,96649,96665,96682,96699,96715,96732,96750,96765,96782,96799,96815,96832,96849,96866,96883,96898,96915,96932,96948,96966,96982,96998,97015,97032,97048,97066,97087,97115,97131,97147,97168,97181,97198,97215,97232,97248,97265,97281,97297,97314,97331,97347,97364,97382,97398,97415,97431,97448,97465,97481,97498,97514,97531,97547,97564,97581,97597,97614,97631,97647,97664,97681,97698,97714,97730,97749,97765,97781,97798,97815,97831,97847,97864,97881,97897,97915,97932,97948,97966,97983,97999,98015,98032,98048,98065,98082,98099,98115,98132,98149,98165,98181,98199,98216,98232,98248,98265,98282,98298,98316,98332,98348,98365,98382,98399,98417,98433,98448,98465,98482,98499,98515,98531,98548,98564,98581,98598,98614,98632,98648,98665,98682,98698,98715,98732,98751,98765,98782,98799,98814,98831,98847,98864,98880,98897,98914,98930,98947,98964,98982,98998,99015,99031,99048,99064,99081,99098,99114,99131,99147,99164,99181,99198,99216,99231,99248,99265,99281,99298,99314,99331,99348,99365,99381,99397,99414,99431,99447,99465,99481,99497,99514,99531,99547,99564,99581,99597,99614,99631,99647,99664,99680,99697,99714,99731,99748,99766,99782,99798,99815,99831,99848,99865,99881,99898,99915,99932,99948,99965,99982,99998,100015,100032,100048,100065,100081,100098,100114,100132,100148,100165,100181,100198,100215,100231,100247,100264,100281,100297,100314,100330,100347,100363,100380,100397,100414,100430,100447,100463,100480,100497,100513,100531,100547,100564,100580,100598,100614,100631,100647,100664,100680,100697,100713,100731,100749,100764,100781,100798,100814,100830,100847,100865,100881,100897,100914,100930,100947,100964,100980,100997,101014,101030,101054,101065,101079,101096,101113,101129,101146,101162,101180,101195,101214],"hit":[null],"x":[-1.6054421768707483,-1.6054421768707483,-1.6054421768707483,-1.6054421768707483,-1.6054421768707483,-1.6054421768707483,-1.6054421768707483,-1.6054421768707483,-1.6054421768707483,-1.6054421768707483,-1.6054421768707483,-1.6054421768707483,-1.6054421768707483,-1.6054421768707483,-1.6054421768707483,-1.6054421768707483,-1.6054421768707483,-1.6054421768707483,-1.6054421768707483,-1.6054421768707483,-1.6054421768707483,-1.6054421768707483,-1.6054421768707483,-1.6054421768707483,-1.6054421768707483,-1.6054421768707483,-1.6054421768707483,-1.6054421768707483,-1.6054421768707483,-1.6054421768707483,-1.6054421768707483,-1.6054421768707483,-1.6054421768707483,-1.6054421768707483,-1.6054421768707483,-1.6054421768707483,-1.6054421768707483,-1.6054421768707483,-1.6054421768707483,-1.6054421768707483,-1.6054421768707483,-1.6054421768707483,-1.6054421768707483,-1.6054421768707483,-1.6054421768707483,-1.6054421768707483,-1.6054421768707483,-1.6054421768707483,-1.6054421768707483,-1.6054421768707483,-1.6054421768707483,-1.6054421768707483,-1.6054421768707483,-1.6054421768707483,-1.6054421768707483,-1.6054421768707483,-1.6054421768707483,0.10884353741496598,0.12585034013605442,0.14285714285714285,0.16326530612244897,0.17346938775510204,0.1870748299319728,0.20748299319727892,0.22448979591836735,0.24149659863945577,0.2687074829931973,0.2857142857142857,0.29931972789115646,0.3197278911564626,0.3333333333333333,0.3469387755102041,0.3673469387755102,0.37755102040816324,0.391156462585034,0.4013605442176871,0.40816326530612246,0.41496598639455784,0.4217687074829932,0.4217687074829932,0.42857142857142855,0.42857142857142855,0.43197278911564624,0.43197278911564624,0.43197278911564624,0.43537414965986393,0.43537414965986393,0.43537414965986393,0.43537414965986393,0.4387755102040816,0.4387755102040816,0.4387755102040816,0.4387755102040816,0.4387755102040816,0.43537414965986393,0.43537414965986393,0.42857142857142855,0.42857142857142855,0.4217687074829932,0.4217687074829932,0.41836734693877553,0.41156462585034015,0.40816326530612246,0.40476190476190477,0.4013605442176871,0.3979591836734694,0.3945578231292517,0.391156462585034,0.3843537414965986,0.38095238095238093,0.37755102040816324,0.3741496598639456,0.3673469387755102,0.3673469387755102,0.36394557823129253,0.36394557823129253,0.36394557823129253,0.36394557823129253,0.36394557823129253,0.36394557823129253,0.3741496598639456,0.3741496598639456,0.37755102040816324,0.38095238095238093,0.3843537414965986,0.3877551020408163,0.3945578231292517,0.3979591836734694,0.40476190476190477,0.4217687074829932,0.43537414965986393,0.4557823129251701,0.48299319727891155,0.4965986394557823,0.5170068027210885,0.5306122448979592,0.54421768707483,0.5510204081632653,0.564625850340136,0.5714285714285714,0.5748299319727891,0.5748299319727891,0.5782312925170068,0.5816326530612245,0.5884353741496599,0.5918367346938775,0.5918367346938775,0.5952380952380952,0.5952380952380952,0.5952380952380952,0.5918367346938775,0.5884353741496599,0.5884353741496599,0.5884353741496599,0.5884353741496599,0.5884353741496599,0.5884353741496599,0.5884353741496599,0.5884353741496599,0.5884353741496599,0.5884353741496599,0.5884353741496599,0.5884353741496599,0.5884353741496599,0.5884353741496599,0.5884353741496599,0.5884353741496599,0.5884353741496599,0.5884353741496599,0.5884353741496599,0.5884353741496599,0.5884353741496599,0.5884353741496599,0.5884353741496599,0.5884353741496599,0.5884353741496599,0.5884353741496599,0.5884353741496599,0.5884353741496599,0.5884353741496599,0.5884353741496599,0.5884353741496599,0.5884353741496599,0.5884353741496599,0.5884353741496599,0.5884353741496599,0.5884353741496599,0.5884353741496599,0.5884353741496599,0.5884353741496599,0.5884353741496599,0.5884353741496599,0.5884353741496599,0.5884353741496599,0.5884353741496599,0.5884353741496599,0.5884353741496599,0.5884353741496599,0.5884353741496599,0.5884353741496599,0.5884353741496599,0.5884353741496599,0.5884353741496599,0.5884353741496599,0.5884353741496599,0.5884353741496599,0.5884353741496599,0.5884353741496599,0.5884353741496599,0.5884353741496599,0.5884353741496599,0.5884353741496599,0.5884353741496599,0.5782312925170068,0.5680272108843537,0.5578231292517006,0.5578231292517006,0.5578231292517006,0.5544217687074829,0.5510204081632653,0.5510204081632653,0.5510204081632653,0.5476190476190477,0.5476190476190477,0.5476190476190477,0.54421768707483,0.5408163265306123,0.5374149659863946,0.5374149659863946,0.5306122448979592,0.5238095238095238,0.5170068027210885,0.5068027210884354,0.48639455782312924,0.47959183673469385,0.46938775510204084,0.45918367346938777,0.4489795918367347,0.43537414965986393,0.41836734693877553,0.3945578231292517,0.38095238095238093,0.36054421768707484,0.3469387755102041,0.3333333333333333,0.3129251700680272,0.29931972789115646,0.282312925170068,0.2585034013605442,0.24489795918367346,0.23809523809523808,0.22448979591836735,0.21768707482993196,0.20408163265306123,0.19047619047619047,0.17687074829931973,0.17006802721088435,0.16666666666666666,0.16326530612244897,0.1564625850340136,0.1564625850340136,0.1564625850340136,0.1564625850340136,0.1564625850340136,0.1564625850340136,0.1564625850340136,0.1564625850340136,0.1564625850340136,0.1564625850340136,0.1564625850340136,0.1564625850340136,0.1564625850340136,0.1564625850340136,0.1564625850340136,0.1564625850340136,0.15306122448979592,0.15306122448979592,0.15306122448979592,0.15306122448979592,0.15306122448979592,0.15306122448979592,0.15306122448979592,0.15306122448979592,0.15306122448979592,0.15306122448979592,0.15306122448979592,0.15306122448979592,0.15306122448979592,0.15306122448979592,0.15306122448979592,0.15306122448979592,0.15306122448979592,0.15306122448979592,0.15306122448979592,0.15306122448979592,0.15306122448979592,0.15306122448979592,0.15306122448979592,0.15306122448979592,0.15306122448979592,0.15306122448979592,0.15306122448979592,0.15306122448979592,0.15306122448979592,0.15306122448979592,0.15306122448979592,0.15306122448979592,0.15306122448979592,0.15306122448979592,0.15306122448979592,0.15306122448979592,0.15306122448979592,0.15306122448979592,0.15306122448979592,0.15306122448979592,0.15306122448979592,0.15306122448979592,0.15306122448979592,0.15306122448979592,0.15306122448979592,0.15306122448979592,0.15306122448979592,0.15306122448979592,0.15306122448979592,0.15306122448979592,0.15306122448979592,0.15306122448979592,0.15306122448979592,0.15306122448979592,0.15306122448979592,0.15306122448979592,0.15306122448979592,0.15306122448979592,0.15306122448979592,0.15306122448979592,0.15306122448979592,0.15306122448979592,0.15306122448979592,0.15306122448979592,0.15306122448979592,0.15306122448979592,0.15306122448979592,0.15306122448979592,0.15306122448979592,0.15306122448979592,0.15306122448979592,0.15306122448979592,0.15306122448979592,0.15306122448979592,0.15306122448979592,0.15306122448979592,0.15306122448979592,0.15306122448979592,0.15306122448979592,0.15306122448979592,0.15306122448979592,0.15306122448979592,0.15306122448979592,0.15306122448979592,0.15306122448979592,0.15306122448979592,0.15306122448979592,0.15306122448979592,0.15306122448979592,0.15306122448979592,0.15306122448979592,0.15306122448979592,0.15306122448979592,0.15306122448979592,0.15306122448979592,0.15306122448979592,0.15306122448979592,0.15306122448979592,0.15306122448979592,0.15306122448979592,0.15306122448979592,0.15306122448979592,0.15306122448979592,0.15306122448979592,0.15306122448979592,0.15306122448979592,0.15306122448979592,0.15306122448979592,0.15306122448979592,0.15306122448979592,0.15306122448979592,0.15306122448979592,0.15306122448979592,0.15306122448979592,0.15306122448979592,0.15306122448979592,0.15306122448979592,0.15306122448979592,0.15306122448979592,0.15306122448979592,0.15306122448979592,0.15306122448979592,0.15306122448979592,0.15306122448979592,0.15306122448979592,0.15306122448979592,0.15306122448979592,0.15306122448979592,0.15306122448979592,0.15306122448979592,0.15306122448979592,0.15306122448979592,0.15306122448979592,0.14965986394557823,0.1360544217687075,0.11564625850340136,0.09523809523809523,0.08503401360544217,0.061224489795918366,0.047619047619047616,0.04081632653061224,0.027210884353741496,0.02040816326530612,0.013605442176870748,0.006802721088435374,0.003401360544217687,0,-0.003401360544217687,-0.006802721088435374,-0.006802721088435374,-0.01020408163265306,-0.01020408163265306,-0.01020408163265306,-0.013605442176870748,-0.013605442176870748,-0.013605442176870748,-0.017006802721088437,-0.017006802721088437,-0.017006802721088437,-0.02040816326530612,-0.02040816326530612,-0.02040816326530612,-0.02040816326530612,-0.017006802721088437,-0.013605442176870748,-0.013605442176870748,-0.013605442176870748,-0.013605442176870748,-0.013605442176870748,-0.013605442176870748,-0.013605442176870748,-0.013605442176870748,-0.013605442176870748,-0.013605442176870748,-0.013605442176870748,-0.013605442176870748,-0.013605442176870748,-0.013605442176870748,-0.013605442176870748,-0.013605442176870748,-0.013605442176870748,-0.013605442176870748,-0.013605442176870748,-0.013605442176870748,-0.013605442176870748,-0.013605442176870748,-0.013605442176870748,-0.013605442176870748,-0.013605442176870748,-0.013605442176870748,-0.013605442176870748,-0.013605442176870748,-0.013605442176870748,-0.013605442176870748,-0.013605442176870748,-0.013605442176870748,-0.013605442176870748,-0.013605442176870748,-0.013605442176870748,-0.013605442176870748,-0.013605442176870748,-0.013605442176870748,-0.013605442176870748,-0.013605442176870748,-0.013605442176870748,-0.013605442176870748,-0.013605442176870748,-0.013605442176870748,-0.013605442176870748,-0.013605442176870748,-0.013605442176870748,-0.013605442176870748,-0.013605442176870748,-0.013605442176870748,-0.013605442176870748,-0.013605442176870748,-0.013605442176870748,-0.013605442176870748,-0.013605442176870748,-0.013605442176870748,-0.013605442176870748,-0.013605442176870748,-0.013605442176870748,-0.013605442176870748,-0.013605442176870748,0.030612244897959183,0.08843537414965986,0.19047619047619047,0.25510204081632654,0.3231292517006803,0.38095238095238093,0.46258503401360546,0.5306122448979592,0.6190476190476191,0.6768707482993197,0.7210884353741497,0.7482993197278912,0.7959183673469388,0.8231292517006803,0.8639455782312925,0.8843537414965986,0.8979591836734694,0.9149659863945578,0.9183673469387755,0.9183673469387755,0.9217687074829932,0.9251700680272109,0.9251700680272109,0.9251700680272109,0.9251700680272109,0.9217687074829932,0.9183673469387755,0.9115646258503401,0.9047619047619048,0.8945578231292517,0.8639455782312925,0.8503401360544217,0.8367346938775511,0.8231292517006803,0.8163265306122449,0.8095238095238095,0.7993197278911565,0.7959183673469388,0.7925170068027211,0.7857142857142857,0.782312925170068,0.782312925170068,0.7789115646258503,0.7789115646258503,0.7789115646258503,0.7789115646258503,0.7789115646258503,0.7789115646258503,0.7755102040816326,0.7755102040816326,0.7755102040816326,0.7687074829931972,0.7687074829931972,0.7653061224489796,0.7619047619047619,0.7619047619047619,0.7585034013605442,0.7551020408163265,0.7551020408163265,0.7517006802721088,0.7482993197278912,0.7482993197278912,0.7482993197278912,0.7482993197278912,0.7448979591836735,0.7448979591836735,0.7448979591836735,0.7448979591836735,0.7448979591836735,0.7448979591836735,0.7448979591836735,0.7448979591836735,0.7448979591836735,0.7448979591836735,0.7448979591836735,0.7448979591836735,0.7448979591836735,0.7448979591836735,0.7448979591836735,0.7448979591836735,0.7448979591836735,0.7448979591836735,0.7448979591836735,0.7448979591836735,0.7448979591836735,0.7448979591836735,0.7482993197278912,0.7448979591836735,0.7448979591836735,0.7448979591836735,0.7448979591836735,0.7448979591836735,0.7448979591836735,0.7448979591836735,0.7448979591836735,0.7448979591836735,0.7448979591836735,0.7448979591836735,0.7448979591836735,0.7448979591836735,0.7448979591836735,0.7448979591836735,0.7448979591836735,0.7448979591836735,0.7448979591836735,0.7448979591836735,0.7448979591836735,0.7448979591836735,0.7448979591836735,0.7448979591836735,0.7448979591836735,0.7448979591836735,0.7448979591836735,0.7448979591836735,0.7448979591836735,0.7448979591836735,0.7448979591836735,0.7448979591836735,0.7448979591836735,0.7448979591836735,0.7448979591836735,0.7448979591836735,0.7448979591836735,0.7448979591836735,0.7448979591836735,0.7448979591836735,0.7448979591836735,0.7448979591836735,0.7448979591836735,0.7448979591836735,0.7448979591836735,0.7448979591836735,0.7448979591836735,0.7448979591836735,0.7448979591836735,0.7448979591836735,0.7448979591836735,0.7448979591836735,0.7448979591836735,0.7448979591836735,0.7448979591836735,0.7448979591836735,0.7448979591836735,0.7448979591836735,0.7448979591836735,0.7448979591836735,0.7448979591836735,0.7448979591836735,0.7448979591836735,0.7448979591836735,0.7448979591836735,0.7448979591836735,0.7448979591836735,0.7448979591836735,0.7448979591836735,0.7448979591836735,0.7448979591836735,0.7448979591836735,0.7448979591836735,0.7448979591836735,0.7448979591836735,0.7448979591836735,0.7448979591836735,0.7448979591836735,0.7448979591836735,0.7448979591836735,0.7448979591836735,0.7448979591836735,0.7448979591836735,0.7448979591836735,0.7448979591836735,0.7448979591836735,0.7448979591836735,0.7448979591836735,0.7448979591836735,0.7448979591836735,0.7448979591836735,0.7448979591836735,0.7448979591836735,0.7448979591836735,0.7448979591836735,0.7448979591836735,0.7448979591836735,0.7448979591836735,0.7448979591836735,0.7448979591836735,0.7448979591836735,0.7448979591836735,0.7448979591836735,0.7448979591836735,0.7448979591836735,0.7448979591836735,0.7448979591836735,0.7448979591836735,0.7448979591836735,0.7448979591836735,0.7448979591836735,0.7448979591836735,0.7448979591836735,0.7448979591836735,0.7448979591836735,0.7448979591836735,0.7448979591836735,0.7448979591836735,0.7448979591836735,0.7448979591836735,0.7448979591836735,0.7448979591836735,0.7448979591836735,0.7448979591836735,0.7448979591836735,0.7448979591836735,0.7448979591836735,0.7448979591836735,0.7448979591836735,0.7448979591836735,0.7448979591836735,0.7448979591836735,0.7448979591836735,0.7448979591836735,0.7448979591836735,0.7448979591836735,0.7448979591836735,0.7448979591836735,0.7448979591836735,0.7448979591836735,0.7448979591836735,0.7448979591836735,0.7448979591836735,0.7448979591836735,0.7448979591836735,0.7448979591836735,0.7448979591836735,0.7448979591836735,0.7448979591836735,0.7448979591836735,0.7448979591836735,0.7448979591836735,0.7448979591836735,0.7448979591836735,0.7448979591836735,0.7448979591836735,0.7448979591836735,0.7448979591836735,0.7448979591836735,0.7448979591836735,0.7448979591836735,0.7448979591836735,0.7448979591836735,0.7448979591836735,0.7448979591836735,0.7448979591836735,0.7448979591836735,0.7448979591836735,0.7448979591836735,0.7448979591836735,0.7448979591836735,0.7448979591836735,0.7448979591836735,0.7448979591836735,0.7448979591836735,0.7448979591836735,0.7448979591836735,0.7448979591836735,0.7448979591836735,0.7448979591836735,0.7448979591836735,0.7448979591836735,0.7448979591836735,0.7448979591836735,0.7448979591836735,0.7448979591836735,0.7448979591836735,0.7448979591836735,0.7448979591836735,0.7448979591836735,0.7448979591836735,0.7448979591836735,0.7448979591836735,0.7448979591836735,0.7448979591836735,0.7448979591836735,0.7448979591836735,0.7448979591836735,0.7448979591836735,0.7448979591836735,0.7448979591836735,0.7448979591836735,0.7448979591836735,0.7448979591836735,0.7448979591836735,0.7448979591836735,0.7448979591836735,0.7448979591836735,0.7448979591836735,0.7448979591836735,0.7448979591836735,0.7448979591836735,0.7448979591836735,0.7448979591836735,0.7448979591836735,0.7448979591836735,0.7448979591836735,0.7448979591836735,0.7448979591836735,0.7448979591836735,0.7448979591836735,0.7448979591836735,0.7448979591836735,0.7448979591836735,0.7448979591836735,0.7448979591836735,0.7448979591836735,0.7448979591836735,0.7448979591836735,0.7448979591836735,0.7448979591836735,0.7448979591836735,0.7448979591836735,0.7448979591836735,0.7448979591836735,0.7448979591836735,0.7448979591836735,0.7448979591836735,0.7448979591836735,0.7448979591836735,0.7448979591836735,0.7448979591836735,0.7448979591836735,0.7448979591836735,0.7448979591836735,0.7448979591836735,0.7448979591836735,0.7448979591836735,0.7448979591836735,0.7448979591836735,0.7448979591836735,0.7448979591836735,0.7448979591836735,0.7448979591836735,0.7448979591836735,0.7448979591836735,0.7448979591836735,0.7448979591836735,0.7448979591836735,0.7448979591836735,0.7448979591836735,0.7448979591836735,0.7448979591836735,0.7448979591836735,0.7448979591836735,0.7448979591836735,0.7448979591836735,0.7448979591836735,0.7448979591836735,0.7448979591836735,0.7448979591836735,0.7448979591836735,0.7448979591836735,0.7448979591836735,0.7448979591836735,0.7448979591836735,0.7448979591836735,0.7448979591836735,0.7448979591836735,0.7448979591836735,0.7448979591836735,0.7448979591836735,0.7448979591836735,0.7448979591836735,0.7448979591836735,0.7448979591836735,0.7448979591836735,0.7448979591836735,0.7448979591836735,0.7448979591836735,0.7448979591836735,0.7448979591836735,0.7448979591836735,0.7448979591836735,0.7448979591836735,0.7448979591836735,0.7448979591836735,0.7448979591836735,0.7448979591836735,0.7448979591836735,0.7448979591836735,0.7448979591836735,0.7448979591836735,0.7448979591836735,0.7448979591836735,0.7448979591836735,0.7448979591836735,0.7448979591836735,0.7448979591836735,0.7448979591836735,0.7448979591836735,0.7448979591836735,0.7448979591836735,0.7448979591836735,0.7448979591836735,0.7448979591836735,0.7448979591836735,0.7448979591836735,0.7448979591836735,0.7448979591836735,0.7448979591836735,0.7448979591836735,0.7448979591836735,0.7448979591836735,0.7448979591836735,0.7448979591836735,0.7448979591836735,0.7448979591836735,0.7448979591836735,0.7448979591836735,0.7448979591836735,0.7448979591836735,0.7448979591836735,0.7448979591836735,0.7448979591836735,0.7448979591836735,0.7448979591836735,0.7448979591836735,0.7448979591836735,0.7448979591836735,0.7448979591836735,0.7448979591836735,0.7448979591836735,0.7448979591836735,0.7448979591836735,0.7448979591836735,0.7448979591836735,0.7448979591836735,0.7448979591836735,0.7448979591836735,0.7448979591836735,0.7448979591836735,0.7448979591836735,0.7448979591836735,0.7448979591836735,0.7448979591836735,0.7448979591836735,0.7448979591836735,0.7448979591836735,0.7448979591836735,0.7448979591836735,0.7448979591836735,0.7448979591836735,0.7448979591836735,0.7448979591836735,0.7448979591836735,0.7448979591836735,0.7448979591836735,0.7448979591836735,0.7448979591836735,0.7448979591836735,0.7448979591836735,0.7448979591836735,0.7448979591836735,0.7448979591836735,0.7448979591836735,0.7448979591836735,0.7448979591836735,0.7448979591836735,0.7448979591836735,0.7448979591836735,0.7448979591836735,0.7448979591836735,0.7448979591836735,0.7448979591836735,0.7448979591836735,0.7448979591836735,0.7448979591836735,0.7448979591836735,0.7448979591836735,0.7448979591836735,0.7448979591836735,0.7448979591836735,0.7448979591836735,0.7448979591836735,0.7448979591836735,0.7448979591836735,0.7448979591836735,0.7448979591836735,0.7448979591836735,0.7448979591836735,0.7448979591836735,0.7448979591836735,0.7448979591836735,0.7448979591836735,0.7448979591836735,0.7482993197278912,0.7482993197278912,0.7482993197278912,0.7482993197278912,0.7517006802721088,0.7551020408163265,0.7551020408163265,0.7585034013605442,0.7585034013605442,0.7585034013605442,0.7585034013605442,0.7551020408163265,0.7482993197278912,0.7414965986394558,0.7210884353741497,0.7074829931972789,0.6802721088435374,0.6632653061224489,0.6496598639455783,0.6462585034013606,0.6428571428571429,0.6428571428571429,0.6428571428571429,0.6394557823129252,0.6394557823129252,0.6360544217687075,0.6292517006802721,0.6258503401360545,0.6190476190476191,0.6054421768707483,0.5918367346938775,0.5612244897959183,0.5374149659863946,0.5238095238095238,0.4965986394557823,0.48639455782312924,0.47619047619047616,0.46938775510204084,0.46938775510204084,0.46938775510204084,0.46938775510204084,0.46938775510204084,0.47619047619047616,0.47619047619047616,0.48299319727891155,0.48299319727891155,0.4965986394557823,0.5034013605442177,0.5034013605442177,0.5034013605442177,0.5034013605442177,0.5034013605442177,0.5034013605442177,0.5068027210884354,0.5068027210884354,0.5170068027210885,0.5238095238095238,0.5374149659863946,0.5714285714285714,0.6156462585034014,0.6870748299319728,0.7346938775510204,0.7857142857142857,0.8299319727891157,0.9047619047619048,0.9387755102040817,0.95578231292517,0.9761904761904762,0.9795918367346939,0.9863945578231292,0.9931972789115646,0.9931972789115646,1,1,1.0034013605442176,1.0068027210884354,1.0170068027210883,1.0374149659863945,1.0612244897959184,1.0952380952380953,1.1156462585034013,1.1224489795918366,1.1326530612244898,1.1394557823129252,1.1428571428571428,1.1428571428571428,1.1428571428571428,1.1462585034013606,1.1496598639455782,1.1496598639455782,1.1496598639455782,1.1496598639455782,1.1496598639455782,1.1496598639455782,1.1496598639455782,1.1496598639455782,1.1496598639455782,1.1462585034013606,1.1462585034013606,1.1462585034013606,1.1462585034013606,1.1462585034013606,1.1462585034013606,1.1462585034013606,1.1462585034013606,1.1462585034013606,1.1462585034013606,1.1462585034013606,1.1462585034013606,1.1462585034013606,1.1462585034013606,1.1462585034013606,1.1462585034013606,1.1462585034013606,1.1462585034013606,1.1462585034013606,1.1462585034013606,1.1462585034013606,1.1462585034013606,1.1462585034013606,1.1462585034013606,1.1462585034013606,1.1462585034013606,1.1462585034013606,1.1462585034013606,1.1462585034013606,1.1462585034013606,1.1462585034013606,1.1462585034013606,1.1462585034013606,1.1462585034013606,1.1462585034013606,1.1462585034013606,1.1462585034013606,1.1462585034013606,1.1462585034013606,1.1462585034013606,1.1462585034013606,1.1462585034013606,1.1462585034013606,1.1462585034013606,1.1462585034013606,1.1462585034013606,1.1462585034013606,1.1462585034013606,1.1462585034013606,1.1462585034013606,1.1462585034013606,1.1462585034013606,1.1462585034013606,1.1462585034013606,1.1462585034013606,1.1462585034013606,1.1462585034013606,1.1462585034013606,1.1462585034013606,1.1462585034013606,1.1462585034013606,1.1462585034013606,1.1462585034013606,1.1462585034013606,1.1462585034013606,1.1462585034013606,1.1462585034013606,1.1462585034013606,1.1462585034013606,1.1462585034013606,1.1462585034013606,1.1462585034013606,1.1462585034013606,1.1462585034013606,1.1462585034013606,1.1462585034013606,1.1462585034013606,1.1462585034013606,1.1462585034013606,1.1462585034013606,1.1462585034013606,1.1462585034013606,1.1462585034013606,1.1462585034013606,1.1462585034013606,1.1462585034013606,1.1462585034013606,1.1462585034013606,1.1462585034013606,1.1462585034013606,1.1462585034013606,1.1462585034013606,1.1462585034013606,1.1462585034013606,1.1462585034013606,1.1462585034013606,1.1462585034013606,1.1462585034013606,1.1462585034013606,1.1462585034013606,1.1462585034013606,1.1462585034013606,1.1462585034013606,1.1462585034013606,1.1462585034013606,1.1462585034013606,1.1462585034013606,1.1462585034013606,1.1462585034013606,1.1462585034013606,1.1462585034013606,1.1462585034013606,1.1462585034013606,1.1462585034013606,1.1462585034013606,1.1462585034013606,1.1462585034013606,1.1462585034013606,1.1462585034013606,1.1462585034013606,1.1462585034013606,1.1462585034013606,1.1462585034013606,1.1462585034013606,1.1462585034013606,1.1462585034013606,1.1462585034013606,1.1462585034013606,1.1462585034013606,1.1462585034013606,1.1462585034013606,1.1462585034013606,1.1462585034013606,1.1462585034013606,1.1462585034013606,1.1462585034013606,1.1462585034013606,1.1462585034013606,1.1462585034013606,1.1462585034013606,1.1462585034013606,1.1462585034013606,1.1462585034013606,1.1462585034013606,1.1462585034013606,1.1462585034013606,1.1462585034013606,1.1462585034013606,1.1462585034013606,1.1462585034013606,1.1462585034013606,1.1462585034013606,1.1462585034013606,1.1462585034013606,1.1462585034013606,1.1462585034013606,1.1462585034013606,1.1462585034013606,1.1462585034013606,1.1462585034013606,1.1462585034013606,1.1462585034013606,1.1462585034013606,1.1462585034013606,1.1462585034013606,1.1462585034013606,1.1462585034013606,1.1462585034013606,1.1462585034013606,1.1462585034013606,1.1462585034013606,1.1462585034013606,1.1462585034013606,1.1462585034013606,1.1462585034013606,1.1462585034013606,1.1462585034013606,1.1462585034013606,1.1462585034013606,1.1462585034013606,1.1462585034013606,1.1462585034013606,1.1462585034013606,1.1462585034013606,1.1462585034013606,1.1462585034013606,1.1462585034013606,1.1462585034013606,1.1462585034013606,1.1462585034013606,1.1462585034013606,1.1462585034013606,1.1462585034013606,1.1462585034013606,1.1462585034013606,1.1462585034013606,1.1462585034013606,1.1462585034013606,1.1462585034013606,1.1462585034013606,1.1462585034013606,1.1462585034013606,1.1462585034013606,1.1462585034013606,1.1462585034013606,1.1462585034013606,1.1462585034013606,1.1462585034013606,1.1462585034013606,1.1462585034013606,1.1462585034013606,1.1462585034013606,1.1462585034013606,1.1462585034013606,1.1462585034013606,1.1462585034013606,1.1462585034013606,1.1462585034013606,1.1462585034013606,1.1462585034013606,1.1462585034013606,1.1462585034013606,1.1462585034013606,1.1462585034013606,1.1462585034013606,1.1462585034013606,1.1462585034013606,1.1462585034013606,1.1462585034013606,1.1462585034013606,1.1462585034013606,1.1462585034013606,1.1462585034013606,1.1462585034013606,1.1462585034013606,1.1462585034013606,1.1462585034013606,1.1462585034013606,1.1462585034013606,1.1462585034013606,1.1462585034013606,1.1462585034013606,1.1462585034013606,1.1462585034013606,1.1462585034013606,1.1462585034013606,1.1462585034013606,1.1462585034013606,1.1462585034013606,1.1462585034013606,1.1462585034013606,1.1462585034013606,1.1462585034013606,1.1462585034013606,1.1462585034013606,1.1462585034013606,1.1462585034013606,1.1462585034013606,1.1462585034013606,1.1462585034013606,1.1462585034013606,1.1462585034013606,1.1462585034013606,1.1462585034013606,1.1462585034013606,1.1462585034013606,1.1462585034013606,1.1462585034013606,1.1462585034013606,1.1462585034013606,1.1462585034013606,1.1462585034013606,1.1462585034013606,1.1462585034013606,1.1462585034013606,1.1462585034013606,1.1462585034013606,1.1462585034013606,1.1462585034013606,1.1462585034013606,1.1462585034013606,1.1462585034013606,1.1462585034013606,1.1462585034013606,1.1462585034013606,1.1462585034013606,1.1462585034013606,1.1462585034013606,1.1462585034013606,1.1462585034013606,1.1462585034013606,1.1462585034013606,1.1462585034013606,1.1462585034013606,1.1462585034013606,1.1462585034013606,1.1462585034013606,1.1462585034013606,1.1462585034013606,1.1462585034013606,1.1462585034013606,1.1462585034013606,1.1462585034013606,1.1462585034013606,1.1462585034013606,1.1462585034013606,1.1462585034013606,1.1462585034013606,1.1462585034013606,1.1462585034013606,1.1462585034013606,1.1462585034013606,1.1462585034013606,1.1462585034013606,1.1462585034013606,1.1462585034013606,1.1462585034013606,1.1462585034013606,1.1462585034013606,1.1462585034013606,1.1462585034013606,1.1462585034013606,1.1462585034013606,1.1462585034013606,1.1462585034013606,1.1462585034013606,1.1462585034013606,1.1462585034013606,1.1462585034013606,1.1462585034013606,1.1462585034013606,1.1462585034013606,1.1462585034013606,1.1462585034013606,1.1462585034013606,1.1462585034013606,1.1462585034013606,1.1462585034013606,1.1462585034013606,1.1462585034013606,1.1462585034013606,1.1462585034013606,1.1462585034013606,1.1462585034013606,1.1462585034013606,1.1462585034013606,1.1462585034013606,1.1462585034013606,1.1462585034013606,1.1462585034013606,1.1462585034013606,1.1462585034013606,1.1462585034013606,1.1462585034013606,1.1462585034013606,1.1462585034013606,1.1462585034013606,1.1462585034013606,1.1462585034013606,1.1462585034013606,1.1462585034013606,1.1462585034013606,1.1462585034013606,1.1462585034013606,1.1462585034013606,1.1462585034013606,1.1462585034013606,1.1462585034013606,1.1462585034013606,1.1462585034013606,1.1462585034013606,1.1462585034013606,1.1462585034013606,1.1462585034013606,1.1462585034013606,1.1462585034013606,1.1462585034013606,1.1462585034013606,1.1462585034013606,1.1462585034013606,1.1462585034013606,1.1462585034013606,1.1462585034013606,1.1462585034013606,1.1462585034013606,1.1462585034013606,1.1462585034013606,1.1462585034013606,1.1462585034013606,1.1462585034013606,1.1462585034013606,1.1462585034013606,1.1462585034013606,1.1462585034013606,1.1462585034013606,1.1462585034013606,1.1462585034013606,1.1462585034013606,1.1462585034013606,1.1462585034013606,1.1462585034013606,1.1462585034013606,1.1462585034013606,1.1462585034013606,1.1462585034013606,1.1462585034013606,1.1462585034013606,1.1462585034013606,1.1462585034013606,1.1462585034013606,1.1462585034013606,1.1462585034013606,1.1462585034013606,1.1462585034013606,1.1462585034013606,1.1462585034013606,1.1462585034013606,1.1462585034013606,1.1462585034013606,1.1462585034013606,1.1462585034013606,1.1462585034013606,1.1462585034013606,1.1462585034013606,1.1462585034013606,1.1462585034013606,1.1462585034013606,1.1462585034013606,1.1462585034013606,1.1462585034013606,1.1462585034013606,1.1462585034013606,1.1462585034013606,1.1462585034013606,1.1462585034013606,1.1462585034013606,1.1462585034013606,1.1462585034013606,1.1462585034013606,1.1462585034013606,1.1462585034013606,1.1462585034013606,1.1462585034013606,1.1462585034013606,1.1462585034013606,1.1462585034013606,1.1462585034013606,1.1462585034013606,1.1462585034013606,1.1462585034013606,1.1462585034013606,1.1462585034013606,1.1462585034013606,1.1462585034013606,1.1462585034013606,1.1462585034013606,1.1462585034013606,1.1462585034013606,1.1462585034013606,1.1462585034013606,1.1462585034013606,1.1462585034013606,1.1462585034013606,1.1462585034013606,1.1462585034013606,1.1462585034013606,1.1462585034013606,1.1462585034013606,1.1462585034013606,1.1462585034013606,1.1462585034013606,1.1462585034013606,1.1462585034013606,1.1462585034013606,1.1462585034013606,1.1462585034013606,1.1462585034013606,1.1462585034013606,1.1462585034013606,1.1462585034013606,1.1360544217687074,1.129251700680272,1.1122448979591837,1.08843537414966,1.0680272108843538,1.0170068027210883,0.9795918367346939,0.9387755102040817,0.9149659863945578,0.891156462585034,0.8673469387755102,0.8435374149659864,0.8299319727891157,0.8027210884353742,0.7891156462585034,0.7653061224489796,0.7517006802721088,0.7278911564625851,0.7210884353741497,0.7108843537414966,0.7074829931972789,0.7006802721088435,0.6972789115646258,0.6938775510204082,0.6870748299319728,0.6802721088435374,0.673469387755102,0.673469387755102,0.673469387755102,0.6700680272108843,0.6666666666666666,0.6666666666666666,0.6598639455782312,0.6598639455782312,0.6564625850340136,0.6496598639455783,0.6462585034013606,0.6394557823129252,0.6224489795918368,0.6156462585034014,0.6020408163265306,0.5816326530612245,0.5680272108843537,0.5510204081632653,0.5272108843537415,0.5136054421768708,0.5034013605442177,0.48299319727891155,0.46598639455782315,0.4523809523809524,0.43537414965986393,0.42517006802721086,0.41836734693877553,0.41496598639455784,0.41156462585034015,0.41156462585034015,0.41156462585034015,0.41156462585034015,0.41156462585034015,0.41156462585034015,0.41156462585034015,0.41156462585034015,0.41156462585034015,0.41156462585034015,0.41156462585034015,0.41156462585034015,0.41156462585034015,0.41156462585034015,0.41156462585034015,0.41156462585034015,0.41156462585034015,0.41156462585034015,0.41156462585034015,0.41156462585034015,0.41156462585034015,0.41156462585034015,0.41156462585034015,0.41156462585034015,0.41156462585034015,0.41156462585034015,0.41156462585034015,0.41156462585034015,0.41156462585034015,0.41156462585034015,0.41156462585034015,0.41156462585034015,0.41156462585034015,0.41156462585034015,0.41156462585034015,0.41156462585034015,0.41156462585034015,0.41156462585034015,0.41156462585034015,0.41156462585034015,0.41156462585034015,0.41156462585034015,0.41156462585034015,0.41156462585034015,0.41156462585034015,0.41156462585034015,0.41156462585034015,0.41156462585034015,0.41156462585034015,0.41156462585034015,0.41156462585034015,0.41156462585034015,0.41156462585034015,0.41156462585034015,0.41156462585034015,0.41156462585034015,0.41156462585034015,0.41156462585034015,0.41156462585034015,0.41156462585034015,0.41156462585034015,0.41156462585034015,0.41156462585034015,0.41156462585034015,0.41156462585034015,0.41156462585034015,0.41156462585034015,0.41156462585034015,0.41156462585034015,0.41156462585034015,0.41156462585034015,0.41156462585034015,0.41156462585034015,0.41156462585034015,0.41156462585034015,0.41156462585034015,0.41156462585034015,0.41156462585034015,0.41156462585034015,0.41156462585034015,0.41156462585034015,0.41156462585034015,0.41156462585034015,0.41156462585034015,0.41156462585034015,0.41156462585034015,0.41156462585034015,0.41156462585034015,0.41156462585034015,0.41156462585034015,0.41156462585034015,0.41156462585034015,0.41156462585034015,0.41156462585034015,0.41156462585034015,0.41156462585034015,0.41156462585034015,0.41156462585034015,0.41156462585034015,0.41156462585034015,0.41156462585034015,0.41156462585034015,0.41156462585034015,0.41156462585034015,0.41156462585034015,0.41156462585034015,0.41156462585034015,0.41156462585034015,0.41156462585034015,0.41156462585034015,0.41156462585034015,0.41156462585034015,0.41156462585034015,0.41156462585034015,0.41156462585034015,0.41156462585034015,0.41156462585034015,0.41156462585034015,0.41156462585034015,0.41156462585034015,0.41156462585034015,0.41156462585034015,0.41156462585034015,0.41156462585034015,0.41156462585034015,0.41156462585034015,0.41156462585034015,0.41156462585034015,0.41156462585034015,0.41156462585034015,0.41156462585034015,0.41156462585034015,0.41156462585034015,0.41156462585034015,0.41156462585034015,0.41156462585034015,0.41156462585034015,0.41156462585034015,0.41156462585034015,0.41156462585034015,0.41156462585034015,0.41156462585034015,0.41156462585034015,0.41156462585034015,0.41156462585034015,0.41156462585034015,0.41156462585034015,0.41156462585034015,0.41156462585034015,0.41156462585034015,0.41156462585034015,0.41156462585034015,0.41156462585034015,0.41156462585034015,0.41156462585034015,0.41156462585034015,0.41156462585034015,0.41156462585034015,0.41156462585034015,0.41156462585034015,0.41156462585034015,0.41156462585034015,0.41156462585034015,0.41156462585034015,0.41156462585034015,0.41156462585034015,0.41156462585034015,0.41156462585034015,0.41156462585034015,0.41156462585034015,0.41156462585034015,0.41156462585034015,0.41156462585034015,0.41156462585034015,0.41156462585034015,0.41156462585034015,0.41156462585034015,0.41156462585034015,0.41156462585034015,0.41156462585034015,0.41156462585034015,0.41156462585034015,0.41156462585034015,0.41156462585034015,0.41156462585034015,0.41156462585034015,0.41156462585034015,0.41156462585034015,0.41156462585034015,0.41156462585034015,0.41156462585034015,0.41156462585034015,0.41156462585034015,0.41156462585034015,0.41156462585034015,0.41156462585034015,0.41156462585034015,0.41156462585034015,0.41156462585034015,0.41156462585034015,0.41156462585034015,0.41156462585034015,0.41156462585034015,0.41156462585034015,0.41156462585034015,0.41156462585034015,0.41156462585034015,0.41156462585034015,0.41156462585034015,0.41156462585034015,0.41156462585034015,0.41156462585034015,0.41156462585034015,0.40816326530612246,0.40816326530612246,0.40816326530612246,0.4013605442176871,0.4013605442176871,0.3979591836734694,0.3945578231292517,0.3877551020408163,0.3877551020408163,0.38095238095238093,0.38095238095238093,0.3741496598639456,0.3673469387755102,0.36394557823129253,0.36394557823129253,0.36054421768707484,0.36054421768707484,0.36054421768707484,0.36054421768707484,0.3673469387755102,0.3673469387755102,0.3707482993197279,0.3741496598639456,0.37755102040816324,0.38095238095238093,0.38095238095238093,0.3877551020408163,0.391156462585034,0.3945578231292517,0.3945578231292517,0.3945578231292517,0.39455782312925