[{"success":true,"trial_type":"fullscreen","trial_index":0,"time_elapsed":7883,"internal_node_id":"0.0-0.0","protocol_sum":"","subject_identifier":326,"subject_sum":[61,50,134,247,205,25,7,79,4,229,20,176,198,194,55,231,87,81,63,179,40,32,105,139,121,14,29,236,128,29,148,122],"subject_pair":163,"STUDY_ID":"66a0b3911f23dfc7665bb169","PROLIFIC_PID":"669929be12961a7c2fcf8559","SESSION_ID":"66a155dd97d5d892bd2d4f2c","practice_instructions":1,"leaderboard_instructions":1,"bonus":0,"reveal_word":false,"self_rating":"3","confidence":"81"},{"view_history":"[{\"page_index\":0,\"viewing_time\":3768}]","rt":3768,"trial_type":"instructions","trial_index":1,"time_elapsed":11656,"internal_node_id":"0.0-1.0","protocol_sum":"","subject_identifier":326,"subject_sum":[61,50,134,247,205,25,7,79,4,229,20,176,198,194,55,231,87,81,63,179,40,32,105,139,121,14,29,236,128,29,148,122],"subject_pair":163,"STUDY_ID":"66a0b3911f23dfc7665bb169","PROLIFIC_PID":"669929be12961a7c2fcf8559","SESSION_ID":"66a155dd97d5d892bd2d4f2c","practice_instructions":1,"leaderboard_instructions":1,"bonus":0,"reveal_word":false,"self_rating":"3","confidence":"81"},{"view_history":"[{\"page_index\":0,\"viewing_time\":31253}]","rt":31253,"trial_type":"instructions","trial_index":2,"time_elapsed":42910,"internal_node_id":"0.0-2.0-0.0","protocol_sum":"","subject_identifier":326,"subject_sum":[61,50,134,247,205,25,7,79,4,229,20,176,198,194,55,231,87,81,63,179,40,32,105,139,121,14,29,236,128,29,148,122],"subject_pair":163,"STUDY_ID":"66a0b3911f23dfc7665bb169","PROLIFIC_PID":"669929be12961a7c2fcf8559","SESSION_ID":"66a155dd97d5d892bd2d4f2c","practice_instructions":1,"leaderboard_instructions":1,"bonus":0,"reveal_word":false,"self_rating":"3","confidence":"81"},{"rt":15184,"responses":"{\"Q0\":\"... reveal the word with as <b>few letter guesses</b> as possible\"}","question_order":"[0]","trial_type":"survey-multi-choice","trial_index":3,"time_elapsed":58096,"internal_node_id":"0.0-2.0-1.0","protocol_sum":"","subject_identifier":326,"subject_sum":[61,50,134,247,205,25,7,79,4,229,20,176,198,194,55,231,87,81,63,179,40,32,105,139,121,14,29,236,128,29,148,122],"subject_pair":163,"correct":true,"test_part":"multichoice_nonpretend","STUDY_ID":"66a0b3911f23dfc7665bb169","PROLIFIC_PID":"669929be12961a7c2fcf8559","SESSION_ID":"66a155dd97d5d892bd2d4f2c","practice_instructions":1,"leaderboard_instructions":1,"bonus":0,"reveal_word":false,"self_rating":"3","confidence":"81"},{"view_history":"[{\"page_index\":0,\"viewing_time\":2120}]","rt":2120,"trial_type":"instructions","trial_index":4,"time_elapsed":60218,"internal_node_id":"0.0-3.0","protocol_sum":"","subject_identifier":326,"subject_sum":[61,50,134,247,205,25,7,79,4,229,20,176,198,194,55,231,87,81,63,179,40,32,105,139,121,14,29,236,128,29,148,122],"subject_pair":163,"STUDY_ID":"66a0b3911f23dfc7665bb169","PROLIFIC_PID":"669929be12961a7c2fcf8559","SESSION_ID":"66a155dd97d5d892bd2d4f2c","practice_instructions":1,"leaderboard_instructions":1,"bonus":0,"reveal_word":false,"self_rating":"3","confidence":"81"},{"word":"ZEBRA","click_log":{"letter":["","H","O","R","S","A","Z","E","B"],"t":[0,11997,12977,17560,18681,96126,99250,100299,101326],"hit":[null,0,0,1,0,1,1,1,1],"asked":["","H","HO","HOR","HORS","HORSA","HORSAZ","HORSAZE","HORSAZEB"],"word_state":["_____","_____","_____","___R_","___R_","___RA","Z__RA","ZE_RA","ZEBRA"]},"hover_log":{"letter":["?","?","?","?","?","?","?","?","?","?","?","?","?","?","?","?","?","?","?","?","?","?","?","?","?","?","?","?","?","?","?","?","?","?","?","?","?","?","?","?","?","?","?","?","?","?","?","?","?","?","?","?","?","?","?","?","?","?","?","?","?","?","?","?","?","?","?","?","?","?","?","?","?","?","?","?","?","?","?","?","?","?","?","?","?","?","?","?","?","?","?","?","?","?","?","?","?","?","?","?","?","?","?","?","?","?","?","?","?","?","?","?","?","J","?","?","?","?","?","?","?","?","?","?","?","?","?","?","?","?","?","?","?","?","?","B","B","B","B","B","B","B","B","B","B","B","B","B","B","B","B","B","B","B","B","B","B","B","B","B","B","B","B","B","B","B","B","B","B","B","B","B","B","B","B","B","B","B","B","B","B","B","B","B","B","B","B","B","B","B","B","B","B","B","B","B","B","B","B","B","B","B","B","B","?","C","C","C","C","C","C","C","C","C","C","C","C","C","C","C","C","C","C","C","C","C","C","?","?","?","?","?","?","?","?","?","?","?","?","?","?","?","?","?","?","?","?","?","?","?","?","?","?","?","?","?","?","?","?","?","?","?","?","?","?","?","?","?","?","?","?","?","?","?","?","?","?","?","?","?","?","?","?","?","?","?","?","?","?","?","?","?","?","?","?","?","?","?","?","?","?","?","?","?","?","?","?","?","?","?","?","?","?","?","?","?","?","?","?","?","?","?","?","?","?","D","D","D","D","D","D","D","D","?","?","E","E","?","F","F","F","F","F","F","F","F","F","F","F","F","F","?","E","E","E","E","E","?","?","?","D","D","D","D","D","D","D","D","D","D","D","?","E","E","?","?","?","F","F","F","F","F","F","F","F","F","F","F","F","F","F","F","?","?","?","?","?","?","?","?","?","?","?","?","?","?","?","?","?","?","?","?","?","?","?","?","?","?","?","?","?","?","?","?","?","?","?","?","?","?","?","?","?","?","?","?","?","?","?","?","?","?","?","?","?","?","?","?","?","?","?","?","?","?","?","?","?","?","?","?","?","?","?","?","?","?","?","?","?","?","?","?","?","?","?","?","?","?","?","?","?","?","?","?","?","?","?","?","?","?","?","?","?","?","?","?","?","?","?","?","?","?","?","?","?","?","?","?","?","?","?","?","?","?","?","?","?","?","?","?","?","C","C","C","C","C","C","C","C","C","C","?","?","?","?","?","L","L","L","L","L","L","L","L","L","L","L","L","L","L","L","L","L","L","L","L","L","L","L","L","L","L","L","L","L","L","L","L","L","L","L","L","L","L","L","L","L","L","L","L","L","L","L","L","L","L","L","L","L","L","?","?","?","?","?","?","?","?","?","?","?","?","?","?","?","?","?","?","?","?","?","?","?","?","?","?","?","?","?","?","?","?","?","?","?","?","?","?","?","?","?","?","?","?","?","N","N","N","N","N","N","N","N","N","N","M","M","?","?","?","?","?","?","?","?","?","?","?","?","?","?","?","E","E","E","E","E","?","?","?","?","?","?","?","?","F","F","F","F","F","F","G","G","G","G","G","G","G","G","G","G","?","?","?","H","H","H","H","H","H","H","H","H","H","H","H","H","H","H","H","H","H","H","H","H","H","H","H","H","H","H","H","H","H","H","H","H","H","G","G","F","F","F","?","E","?","?","?","?","?","M","M","M","?","?","?","?","?","?","N","N","?","O","O","O","O","O","O","O","O","O","O","O","O","O","O","O","O","O","O","O","O","O","O","O","O","O","O","O","O","O","O","O","O","O","O","O","O","O","O","O","O","O","O","O","O","O","O","O","O","O","O","O","O","O","O","O","O","O","O","O","O","O","O","O","?","N","N","N","N","N","N","?","?","M","M","M","M","M","M","M","M","M","M","?","?","?","?","?","?","?","?","?","?","?","?","?","?","?","C","C","C","D","D","?","?","E","E","E","E","E","E","E","E","E","E","?","?","?","F","F","F","F","F","F","F","F","F","F","F","F","E","E","E","?","?","D","D","D","D","D","D","D","D","D","D","D","D","D","D","?","?","?","M","M","M","M","M","M","M","?","?","?","?","?","?","?","?","?","?","?","?","?","?","V","V","V","V","?","?","?","?","?","?","?","U","U","U","U","?","?","?","?","?","T","T","T","T","T","?","?","?","?","?","K","K","K","K","K","K","K","?","?","?","?","?","E","E","?","?","?","?","?","?","?","?","?","O","O","O","O","?","P","P","P","P","P","?","?","?","?","?","?","?","?","?","?","?","?","?","?","?","?","?","?","?","P","P","P","P","P","P","P","P","P","P","P","P","P","P","P","P","?","Q","Q","Q","Q","Q","Q","Q","Q","?","?","?","R","R","R","R","R","R","R","R","R","R","R","R","R","R","R","R","R","R","R","R","R","R","R","R","R","R","R","R","R","R","R","?","Q","Q","Q","P","P","P","P","O","O","?","?","?","?","?","?","?","?","?","?","?","?","?","U","U","?","?","T","T","T","?","S","S","S","S","S","S","S","S","S","S","S","S","S","S","S","S","S","S","S","S","S","S","S","S","S","S","S","S","S","S","S","S","S","S","S","S","S","S","S","S","S","S","S","S","S","S","S","S","S","?","?","?","?","?","?","K","K","?","?","?","?","?","?","?","?","?","?","?","?","?","?","?","B","B","B","B","B","B","B","B","B","B","B","B","B","B","B","B","B","B","B","B","B","B","B","B","?","C","C","C","C","C","C","C","C","C","C","C","C","C","C","C","C","C","C","C","C","C","C","C","C","C","C","C","C","C","C","C","C","C","C","C","C","C","C","C","C","C","C","C","C","C","C","C","C","C","C","C","C","C","C","C","C","C","C","C","C","C","C","C","C","C","C","C","C","C","C","C","C","C","C","C","C","C","C","C","C","C","C","C","C","C","C","C","C","C","C","C","C","C","C","C","C","C","C","C","C","C","C","C","C","C","C","C","C","C","C","C","C","C","C","C","C","C","C","C","C","C","C","C","C","C","C","C","C","C","C","C","C","C","C","C","C","C","C","C","C","C","C","C","C","C","C","C","C","C","C","C","C","C","C","C","C","C","C","C","C","C","C","C","C","C","C","C","C","C","C","C","C","C","C","C","C","C","C","C","C","C","C","C","C","C","C","C","C","C","C","C","C","C","C","C","C","C","C","C","C","C","C","C","C","C","C","C","C","C","C","C","C","C","C","C","C","C","D","?","?","?","?","?","?","?","?","?","?","?","?","?","?","?","?","?","?","?","?","?","?","?","?","?","?","?","?","?","?","?","?","?","?","?","?","?","?","?","?","?","?","?","?","?","?","?","?","?","?","?","?","?","?","?","?","?","?","?","?","?","?","?","?","?","?","?","?","?","?","?","?","?","?","?","?","?","?","?","?","?","?","?","?","?","?","?","?","?","?","?","?","?","?","?","?","?","?","?","?","?","?","?","?","?","?","?","?","?","?","?","?","?","?","?","?","?","?","?","?","?","?","?","?","?","?","?","?","?","?","?","?","?","?","?","?","?","?","?","?","?","?","?","?","?","?","?","?","?","?","?","?","?","?","?","?","?","?","?","?","?","?","?","?","?","?","?","?","?","?","?","?","?","?","?","?","?","?","?","?","?","?","?","?","?","?","?","?","?","?","?","?","?","?","?","?","?","?","?","?","?","?","?","?","?","?","?","?","?","?","?","?","?","?","?","?","?","?","?","?","?","?","?","?","?","?","?","?","?","?","?","?","?","?","?","?","?","?","?","?","?","?","?","?","?","?","?","?","?","?","?","?","?","?","?","?","?","?","?","?","?","?","?","?","?","?","?","?","?","?","?","?","?","?","?","?","?","?","?","?","?","?","?","?","?","?","?","?","?","?","?","?","?","?","?","?","?","?","?","?","?","?","?","?","?","?","?","?","?","?","?","?","?","?","?","?","?","?","?","?","?","?","?","?","?","?","?","?","?","?","?","?","?","?","?","?","?","?","?","?","?","?","?","?","?","?","?","?","?","?","?","?","?","?","?","?","?","?","?","?","?","?","?","?","?","?","?","?","?","?","?","?","?","?","?","?","?","?","?","?","?","?","?","?","?","?","?","?","?","?","?","?","?","?","?","?","?","?","?","?","?","?","?","?","?","?","?","?","?","?","?","?","?","?","?","?","?","?","?","?","?","?","?","?","?","?","?","?","?","?","?","?","?","?","?","?","?","?","?","?","?","?","?","?","?","?","?","?","?","?","?","?","?","?","?","?","?","?","?","?","?","?","?","?","?","?","?","?","?","?","?","?","?","?","?","?","?","?","?","?","?","?","?","?","?","?","?","?","?","?","?","?","?","?","?","?","?","?","?","?","?","?","?","?","?","?","?","?","?","?","?","?","?","?","?","?","?","?","?","?","?","?","?","?","?","?","?","?","?","?","?","?","?","?","?","?","?","?","?","?","?","?","?","?","?","?","?","?","?","?","?","?","?","?","?","?","?","?","?","?","?","?","?","?","?","?","?","?","?","?","?","?","?","?","?","?","?","?","?","?","?","?","?","?","?","?","?","?","?","?","?","?","?","?","?","?","?","?","?","?","?","?","?","?","?","?","?","?","?","?","?","?","?","?","?","?","?","?","?","?","?","?","?","?","?","?","?","?","?","?","?","?","?","?","?","?","?","?","?","?","?","?","?","?","?","?","?","?","?","?","?","?","?","?","?","?","?","?","?","?","?","?","?","?","?","?","?","?","?","?","?","?","?","?","?","?","?","?","?","?","?","?","?","?","?","?","?","?","?","?","?","?","?","?","?","?","?","?","?","?","?","?","?","?","?","?","?","?","?","?","?","?","?","?","?","?","?","?","?","?","?","?","?","?","?","?","?","?","?","?","?","?","?","?","?","?","?","?","?","?","?","?","?","?","?","?","?","?","?","?","?","?","?","?","?","?","?","?","?","?","?","?","?","?","?","?","?","?","?","?","?","?","?","?","?","?","?","?","?","?","?","?","?","?","?","?","?","?","?","?","?","?","?","?","?","?","?","?","?","?","?","?","?","?","?","?","?","?","?","?","?","?","?","?","?","?","?","?","?","?","?","?","?","?","?","?","?","?","?","?","?","?","?","?","?","?","?","?","?","?","?","?","?","?","?","?","?","?","?","?","?","?","?","?","?","?","?","?","?","?","?","?","?","?","?","?","?","?","?","?","?","?","?","?","?","?","?","?","?","?","?","?","?","?","?","?","?","?","?","?","?","?","?","?","?","?","?","?","?","?","?","?","?","?","?","?","?","?","?","?","?","?","?","?","?","?","?","?","?","?","?","?","?","?","?","?","?","?","?","?","?","?","?","?","?","?","?","?","?","?","?","?","?","?","?","?","?","?","?","?","?","?","?","?","?","?","?","?","?","?","?","?","?","?","?","?","?","?","?","?","?","?","?","?","?","?","?","?","?","?","?","?","?","?","?","?","?","?","?","?","?","?","?","?","?","?","?","?","?","?","?","?","?","?","?","?","?","?","?","?","?","?","?","?","?","?","?","?","?","?","?","?","?","?","?","?","?","?","?","?","?","?","?","?","?","?","?","?","?","?","?","?","?","?","?","?","?","?","?","?","?","?","?","?","?","?","?","?","?","?","?","?","?","?","?","?","?","?","?","?","?","?","?","?","?","?","?","?","?","?","?","?","?","?","?","?","?","?","?","?","?","?","?","?","?","?","?","?","?","?","?","?","?","?","?","?","?","?","?","?","?","?","?","?","?","?","?","?","?","?","?","?","?","?","?","?","?","?","?","?","?","?","?","?","?","?","?","?","?","?","?","?","?","?","?","?","?","?","?","?","?","?","?","?","?","?","?","?","?","?","?","?","?","?","?","?","?","?","?","?","?","?","?","?","?","?","?","?","?","?","?","?","?","?","?","?","?","?","?","?","?","?","?","?","?","?","?","?","?","?","?","?","?","?","?","?","?","?","?","?","?","?","?","?","?","?","?","?","?","?","?","?","?","?","?","?","?","?","?","?","?","?","?","?","?","?","?","?","?","?","?","?","?","?","?","?","?","?","?","?","?","?","?","?","?","?","?","?","?","?","?","?","?","?","?","?","?","?","?","?","?","?","?","?","?","?","?","?","?","?","?","?","?","?","?","?","?","?","?","?","?","?","?","?","?","?","?","?","?","?","?","?","?","?","?","?","?","?","?","?","?","?","?","?","?","?","?","?","?","?","?","?","?","?","?","?","?","?","?","?","?","?","?","?","?","?","?","?","?","?","?","?","?","?","?","?","?","?","?","?","?","?","?","?","?","?","?","?","?","?","?","?","?","?","?","?","?","?","?","?","?","?","?","?","?","?","?","?","?","?","?","?","?","?","?","?","?","?","?","?","?","?","?","?","?","?","?","?","?","?","?","?","?","?","?","?","?","?","?","?","?","?","?","?","?","?","?","?","?","?","?","?","?","?","?","?","?","?","?","?","?","?","?","?","?","?","?","?","?","?","?","?","?","?","?","?","?","?","?","?","?","?","?","?","?","?","?","?","?","?","?","?","?","?","?","?","?","?","?","?","?","?","?","?","?","?","?","?","?","?","?","?","?","?","?","?","?","?","?","?","?","?","?","?","?","?","?","?","?","?","?","?","?","?","?","?","?","?","?","?","?","?","?","?","?","?","?","?","?","?","?","?","?","?","?","?","?","?","?","?","?","?","?","?","?","?","?","?","?","?","?","?","?","?","?","?","?","?","?","?","?","?","?","?","?","?","?","?","?","?","?","?","?","?","?","?","?","?","?","?","?","?","?","?","?","?","?","?","?","?","?","?","?","?","?","?","?","?","?","?","?","?","?","?","?","?","?","?","?","?","?","?","?","?","?","?","?","?","?","?","?","?","?","?","?","?","?","?","?","?","?","?","?","?","?","?","?","?","?","?","?","?","?","?","?","?","?","?","?","?","?","?","?","?","?","?","?","?","?","?","?","?","?","?","?","?","?","?","?","?","?","?","?","?","?","?","?","?","?","?","?","?","?","?","?","?","?","?","?","?","?","?","?","?","?","?","?","?","?","?","?","?","?","?","?","?","?","?","?","?","?","?","?","?","?","?","?","?","?","?","?","?","?","?","?","?","?","?","?","?","?","?","?","?","?","?","?","?","?","?","?","?","?","?","?","?","?","?","?","?","?","?","?","?","?","?","?","?","?","?","?","?","?","?","?","?","?","?","?","?","?","?","?","?","?","?","?","?","?","?","?","?","?","?","?","?","?","?","?","?","?","?","?","?","?","?","?","?","?","?","?","?","?","?","?","?","?","?","?","?","?","?","?","?","?","?","?","?","?","?","?","?","?","?","?","?","?","?","?","?","?","?","?","?","?","?","?","?","?","?","?","?","?","?","?","?","?","?","?","?","?","?","?","?","?","?","?","?","?","?","?","?","?","?","?","?","?","?","?","?","?","?","?","?","?","?","?","?","?","?","?","?","?","?","?","?","?","?","?","?","?","?","?","?","?","?","?","?","?","?","?","?","?","?","?","?","?","?","?","?","?","?","?","?","?","?","?","?","?","?","?","?","?","?","?","?","?","?","?","?","?","?","?","?","?","?","?","?","?","?","?","?","?","?","?","?","?","?","?","?","?","?","?","?","?","?","?","?","?","?","?","?","?","?","?","?","?","?","?","?","?","?","?","?","?","?","?","?","?","?","?","?","?","?","?","?","?","?","?","?","?","?","?","?","?","?","?","?","?","?","?","?","?","?","?","?","?","?","?","?","?","?","?","?","?","?","?","?","?","?","?","?","?","?","?","?","?","?","?","?","?","?","?","?","?","?","?","?","?","?","?","?","?","?","?","?","?","?","?","?","?","?","?","?","?","?","?","?","?","?","?","?","?","?","?","?","?","?","?","?","?","?","?","?","?","?","?","?","?","?","?","?","?","?","?","?","?","?","?","?","?","?","?","?","?","?","?","?","?","?","?","?","?","?","?","?","?","?","?","?","?","?","?","?","?","?","?","?","?","?","?","?","?","?","?","?","?","?","?","?","?","?","?","?","?","?","?","?","?","?","?","?","?","?","?","?","?","?","?","?","?","?","?","?","?","?","?","?","?","?","?","?","?","?","?","?","?","?","?","?","?","?","?","?","?","?","?","?","?","?","?","?","?","?","?","?","?","?","?","?","?","?","?","?","?","?","?","?","?","?","?","?","?","?","?","?","?","?","?","?","?","?","?","?","?","?","?","?","?","?","?","?","?","?","?","?","?","?","?","?","?","?","?","?","?","?","?","?","?","?","?","?","?","?","?","?","?","?","?","?","?","?","?","?","?","?","?","?","?","?","?","?","?","?","?","?","?","?","?","?","?","?","?","?","?","?","?","?","?","?","?","?","?","?","?","?","?","?","?","?","?","?","?","?","?","?","?","?","?","?","?","?","?","?","?","?","?","?","?","?","?","?","?","?","?","?","?","?","?","?","?","?","?","?","?","?","?","?","?","?","?","?","?","?","?","?","?","?","?","?","?","?","?","?","?","?","?","?","?","?","?","?","?","?","?","?","?","?","?","?","?","?","?","?","?","?","?","?","?","?","?","?","?","?","?","?","?","?","?","?","?","?","?","?","?","?","?","?","?","?","?","?","?","?","?","?","?","?","?","?","?","?","?","?","?","?","?","?","?","?","?","?","?","?","?","?","?","?","?","?","?","?","?","?","?","?","?","?","?","?","?","?","?","?","?","?","?","?","?","?","?","?","?","?","?","?","?","?","?","?","?","?","?","?","?","?","?","?","?","?","?","?","?","?","?","?","?","?","?","?","?","?","?","?","?","?","?","?","?","?","?","?","?","?","?","?","?","?","?","?","?","?","?","?","?","?","?","?","?","?","?","?","?","?","?","?","?","?","?","?","?","?","?","?","?","?","?","?","?","?","?","?","?","?","?","?","?","?","?","?","?","?","?","?","?","?","?","?","?","?","?","?","?","?","?","?","?","?","?","?","?","?","?","?","?","?","?","?","?","?","?","?","?","?","?","?","?","?","?","?","?","?","?","?","?","?","?","?","?","?","?","?","?","?","?","?","?","?","?","?","?","?","?","?","?","?","?","?","?","?","?","?","?","?","?","?","?","?","?","?","?","?","?","?","?","?","?","?","?","?","?","?","?","?","?","?","?","?","?","?","?","?","?","?","?","?","?","?","?","?","?","?","?","?","?","?","?","?","?","?","?","?","?","?","?","?","?","?","?","?","?","?","?","?","?","?","?","?","?","?","?","?","?","?","?","?","?","?","?","?","?","?","?","?","?","?","?","?","?","?","?","?","?","?","?","?","?","?","?","?","?","?","?","?","?","?","?","?","?","?","?","?","?","?","?","?","?","?","?","?","?","?","?","?","?","?","?","?","?","?","?","?","?","?","?","?","?","?","?","?","?","?","?","?","?","?","?","?","?","?","?","?","?","?","?","?","?","?","?","?","?","?","?","?","?","?","?","?","?","?","?","?","?","?","?","?","?","?","?","?","?","?","?","?","?","?","?","?","?","?","?","?","?","?","?","?","?","?","?","?","?","?","?","?","?","?","?","?","?","?","?","?","?","?","?","?","?","?","?","?","?","?","?","?","?","?","?","?","?","?","?","?","?","?","?","?","?","?","?","?","?","?","?","?","?","?","?","?","?","?","?","?","?","?","?","?","?","?","?","?","?","?","?","?","?","?","?","?","?","?","?","?","?","?","?","?","?","?","?","?","?","?","?","?","?","?","?","?","?","?","?","?","?","?","?","?","?","?","?","?","?","?","?","?","?","?","?","?","?","?","?","?","?","?","?","?","?","?","?","?","?","?","?","?","?","?","?","?","?","?","?","?","?","?","?","?","?","?","?","?","?","?","?","?","?","?","?","?","?","?","?","?","?","?","?","?","?","?","?","?","?","?","?","?","?","?","?","?","?","?","?","?","?","?","?","?","?","?","?","?","?","?","?","?","?","?","?","?","?","?","?","?","?","?","?","?","?","?","?","?","?","?","?","?","?","?","?","?","?","?","?","?","?","?","?","?","?","?","?","?","?","?","?","?","?","?","?","?","?","?","?","?","?","?","?","?","?","?","?","?","?","?","?","?","?","?","?","?","?","?","?","?","?","?","?","?","?","?","?","?","?","?","?","?","?","?","?","?","?","?","?","?","?","?","?","?","?","?","?","?","?","?","?","?","?","?","?","?","?","?","?","?","?","?","?","?","?","?","?","?","?","?","?","?","?","?","?","?","?","?","?","?","?","?","?","?","?","?","?","?","?","?","?","?","?","?","?","?","?","?","?","?","?","?","?","?","?","?","?","?","?","?","?","?","?","?","?","?","?","?","?","?","?","?","?","?","?","?","?","?","?","?","?","?","?","?","?","?","?","?","?","?","?","?","?","?","?","?","?","?","?","?","?","?","?","?","?","?","?","?","?","?","?","?","?","?","?","?","?","?","?","?","?","?","?","?","?","?","?","?","?","?","?","?","?","?","?","?","?","?","?","?","?","?","?","?","?","?","?","?","?","?","?","?","?","?","?","?","?","?","?","?","?","?","?","?","?","?","?","?","?","?","?","?","?","?","?","?","?","?","?","?","?","?","?","?","?","?","?","?","?","?","?","?","?","?","?","?","?","?","?","?","?","?","?","?","?","?","?","?","?","?","?","?","?","?","?","?","?","?","?","?","?","?","?","?","?","?","?","?","?","?","?","?","?","?","?","?","?","?","?","?","?","?","?","?","?","?","?","?","?","?","?","?","?","?","?","?","?","?","?","?","?","?","?","?","?","?","?","?","?","?","?","?","?","?","?","?","?","?","?","?","?","?","?","?","?","?","?","?","?","?","?","?","?","?","?","?","?","?","?","?","?","?","?","?","?","?","?","?","?","?","?","?","?","?","?","?","?","?","?","?","?","?","?","?","?","?","?","?","?","?","?","?","?","?","?","?","?","?","?","?","?","?","?","?","?","?","?","?","?","?","?","?","?","?","?","?","?","?","?","?","?","?","?","?","?","?","?","?","?","?","?","?","?","?","?","?","?","?","?","?","?","?","?","?","?","?","?","?","?","?","?","?","?","?","?","?","?","?","?","?","?","?","?","?","?","?","?","?","?","?","?","?","?","?","?","?","?","?","?","?","?","?","?","?","?","?","?","?","?","?","?","?","?","?","?","?","?","?","?","?","?","?","?","?","?","?","?","?","?","?","?","?","?","?","?","?","?","?","?","?","?","?","?","?","?","?","?","?","?","?","?","?","?","?","?","?","?","?","?","?","?","?","?","?","?","?","?","?","?","?","?","?","?","?","?","?","?","?","?","?","?","?","?","?","?","?","?","?","?","?","?","?","?","?","?","?","?","?","?","?","?","?","?","?","?","?","?","?","?","?","?","?","?","?","?","?","?","?","?","?","?","?","?","?","?","?","?","?","?","?","?","?","?","?","?","?","?","?","?","?","?","?","?","?","?","?","?","?","?","?","?","?","?","?","?","?","?","?","?","?","?","?","?","?","?","?","?","?","?","?","?","?","?","?","?","?","?","?","?","?","?","?","?","?","?","?","?","?","?","?","?","?","?","?","?","?","?","?","?","?","?","?","?","?","?","?","?","?","?","?","?","?","?","?","?","?","?","?","?","?","?","?","?","?","?","?","?","?","?","?","?","?","?","?","?","?","?","?","?","?","?","?","?","?","?","?","?","?","?","?","?","?","?","?","?","?","?","?","?","?","?","?","?","?","?","?","?","?","?","?","?","?","?","?","?","?","?","?","?","?","?","?","?","?","?","?","?","?","?","?","?","?","?","?","?","?","?","?","?","?","?","?","?","?","?","?","?","?","?","?","?","?","?","?","?","?","?","?","?","?","?","?","?","?","?","?","?","?","?","?","?","?","?","?","?","?","?","?","?","?","?","?","?","?","?","?","?","?","?","?","?","?","?","?","?","?","?","?","?","?","?","?","?","?","?","?","?","?","?","?","?","?","?","?","?","?","?","?","?","?","?","?","?","?","?","?","?","?","?","?","?","?","?","?","?","?","?","?","?","?","?","?","?","?","?","?","?","?","?","?","?","?","?","?","?","?","?","?","?","?","?","?","?","?","?","?","?","?","?","?","?","?","?","?","?","?","?","?","?","?","?","?","?","?","?","?","?","?","?","?","?","?","?","?","?","?","?","?","?","?","?","?","?","?","?","?","?","?","?","?","?","?","?","?","?","?","?","?","?","?","?","?","?","?","?","?","?","?","?","?","?","?","?","?","?","?","?","?","?","?","?","?","?","?","?","?","?","?","?","?","?","?","?","?","?","?","?","?","?","?","?","?","?","?","?","?","?","?","?","?","?","?","?","?","?","?","?","?","?","?","?","?","?","?","?","?","?","?","?","?","?","?","?","?","?","?","?","?","?","?","?","?","?","?","?","?","?","?","?","?","?","?","?","?","?","?","?","?","?","?","?","?","?","?","?","?","?","?","?","?","?","?","?","?","?","?","?","?","?","?","?","?","?","?","?","?","?","?","?","?","?","?","?","?","?","?","?","?","?","?","?","?","?","?","?","?","?","?","?","?","?","?","?","?","?","?","?","?","?","?","?","?","?","?","?","?","?","?","?","?","?","?","?","?","?","?","?","?","?","?","?","?","?","?","?","?","?","?","?","?","?","?","?","?","?","?","?","?","?","?","?","?","?","?","?","?","?","?","?","?","?","?","?","?","?","?","?","?","?","?","?","?","?","?","?","?","?","?","?","?","?","?","?","?","?","?","?","?","?","?","?","?","?","?","?","?","?","?","?","?","?","?","?","?","?","?","?","?","?","?","?","?","?","?","?","?","?","?","?","?","?","?","?","?","?","?","?","?","?","?","?","?","?","?","?","?","?","?","?","?","?","?","G","G","G","G","G","G","G","G","G","G","G","G","G","?","?","?","?","?","?","?","?","?","?","Q","Q","Q","Q","Q","Q","Q","Q","Q","Q","Q","Q","Q","Q","Q","Q","Q","Q","Q","Q","?","?","?","?","P","P","?","?","?","?","?","?","D","D","D","D","D","D","D","D","?","C","C","C","C","C","C","C","C","C","C","C","C","C","?","?","B","B","B","B","B","B","B","B","B","B","B","?","?","?","?","A","A","A","A","A","A","A","A","A","A","A","A","A","A","A","A","A","A","A","A","A","A","A","A","A","A","A","A","A","A","A","A","A","A","A","A","A","A","A","A","A","?","?","?","?","?","?","?","?","?","?","?","?","?","?","?","?","B","B","B","B","B","B","B","B","B","B","B","B","B","B","B","B","B","B","B","B","B","B","B","B","B","B","B","B","B","B","B","B","B","B","B","B","B","B","B","B","B","B","B","B","B","B","B","B","B","B","B","B","B","B","B","B","B","B","B","B","B","B","B","B","B","B","B","B","B","B","B","B","B","B","B","B","B","B","B","B","B","B","B","B","B","B","B","B","B","B","B","B","B","?","?","K","K","K","?","?","?","?","T","?","U","U","?","?","V","V","W","W","W","?","X","X","X","?","Y","Y","Y","?","?","Z","Z","Z","Z","Z","Z","Z","Z","Z","Z","Z","Z","Z","Z","Z","Z","Z","Z","Z","Z","Z","Z","Z","Z","Z","Z","Z","Z","Z","Z","Z","Z","Z","Z","Z","Z","Z","Z","Z","Z","Z","Z","Z","?","O","?","?","?","?","?","?","D","D","D","D","D","D","D","D","D","D","D","D","D","D","?","E","E","E","E","E","E","E","E","E","E","E","E","E","E","E","E","E","E","E","E","E","E","E","E","E","E","E","E","E","E","E","E","E","E","E","E","E","E","E","E","E","E","E","E","E","E","D","D","D","?","?","C","C","C","C","C","C","?","B","B","B","B","B","B","B","B","B","B","B","B","B","B","B","B","B","B","B","B","B","B","B","B","B","B","B","B","B","B","B","B","B","B","B","B","B","B","B","B","B","B","B","B","B","B","B","B","B","B","B","B","B","B","B","B","B","B","B","B","B","B","B","B","B","B","B","B","B","B","B","B","B","B","B","B","B","B","B","B","B","B","B","B","B","B","B","B","B","B","B","B","B","B","B","B","B","B","B","B","B","B","B","B","B","B","B","B","B","B","B","B","B","B","B","B","B","B","B","B","B","B","B","B","B","B","B","B","B","B","B","B","B","B","B","B","B","B","B","B","B","B","B","B","B","B","B","B","B"],"t":[36,41,86,98,119,130,157,170,191,206,227,241,256,272,290,311,326,339,356,372,387,404,420,437,453,470,488,503,520,536,553,570,586,604,620,637,654,669,687,703,720,738,754,770,786,804,820,838,856,870,886,906,920,942,958,973,988,1003,1020,1036,1052,1069,1086,1103,1118,1136,1153,1169,1186,1202,1219,1236,1252,1269,1286,1303,1320,1336,1355,1370,1386,1405,1422,1438,1455,1470,1490,1506,1522,1535,1553,1571,1587,1604,1619,1636,1653,1670,1689,1706,1722,1740,1757,1776,1791,1808,1828,1845,1868,1873,1894,1910,1929,1964,1972,2004,2017,2039,2049,2076,2086,2100,2125,2149,2165,2177,2197,2206,2225,2242,2260,2275,2295,2301,2331,2340,2367,2375,2390,2411,2427,2449,2457,2479,2493,2500,2515,2539,2548,2565,2585,2591,2617,2624,2642,2661,2674,2696,2709,2739,2750,2766,2786,2799,2830,2843,2858,2869,2894,2900,2919,2931,2956,2963,2981,2998,3018,3036,3047,3067,3081,3104,3121,3137,3153,3167,3183,3202,3215,3233,3248,3268,3286,3303,3324,3331,3346,3358,3373,3390,3408,3421,3444,3460,3479,3502,3510,3533,3539,3556,3571,3580,3597,3614,3630,3645,3661,3678,3695,3714,3732,3748,3763,3783,3801,3820,3835,3853,3868,3878,3905,3916,3934,3950,3965,3985,3996,4014,4037,4046,4068,4086,4105,4107,4126,4147,4156,4170,4188,4207,4223,4233,4252,4272,4289,4297,4324,4337,4368,4374,4389,4397,4414,4433,4451,4466,4481,4501,4515,4532,4546,4572,4581,4595,4608,4625,4639,4663,4675,4701,4709,4723,4742,4754,4775,4793,4807,4823,4839,4861,4874,4895,4920,4941,4946,4964,4980,5003,5016,5037,5044,5055,5079,5089,5115,5122,5141,5160,5168,5185,5204,5212,5236,5250,5265,5274,5291,5309,5330,5340,5358,5374,5402,5409,5426,5451,5469,5487,5499,5517,5537,5549,5580,5588,5603,5627,5637,5664,5673,5700,5713,5738,5747,5773,5786,5795,5808,5830,5838,5863,5872,5891,5915,5937,5955,5967,6008,6018,6036,6053,6076,6085,6100,6120,6130,6149,6168,6178,6197,6206,6241,6253,6263,6281,6292,6312,6324,6343,6361,6373,6395,6408,6424,6444,6453,6474,6493,6505,6520,6540,6556,6572,6589,6607,6621,6632,6661,6669,6687,6691,6709,6722,6745,6761,6777,6794,6811,6833,6850,6873,6880,6900,6916,6935,6946,6955,6975,6997,7025,7037,7065,7075,7090,7110,7124,7144,7156,7174,7181,7204,7210,7230,7253,7272,7289,7304,7316,7339,7349,7364,7382,7398,7411,7430,7448,7463,7481,7498,7512,7532,7550,7567,7582,7597,7615,7633,7650,7670,7682,7698,7713,7730,7750,7762,7779,7795,7813,7828,7846,7863,7881,7900,7924,7940,7952,7968,7989,8007,8022,8037,8053,8069,8085,8103,8119,8135,8152,8169,8186,8203,8214,8228,8247,8266,8280,8299,8316,8338,8347,8361,8379,8397,8411,8427,8445,8463,8480,8496,8511,8529,8547,8564,8578,8595,8613,8630,8647,8664,8678,8696,8714,8731,8747,8761,8781,8797,8815,8830,8844,8857,8877,8886,8907,8926,8941,8961,8975,8997,9006,9020,9036,9053,9069,9089,9104,9120,9136,9153,9170,9186,9204,9219,9237,9254,9269,9285,9298,9313,9328,9344,9362,9379,9395,9411,9427,9445,9464,9479,9498,9513,9528,9549,9566,9580,9595,9612,9632,9652,9672,9679,9694,9716,9731,9749,9761,9779,9786,9805,9814,9838,9856,9877,9887,9897,9923,9930,9950,9967,9978,9998,10019,10037,10053,10062,10091,10098,10111,10130,10138,10161,10168,10185,10202,10218,10228,10243,10263,10271,10291,10307,10326,10344,10353,10373,10390,10405,10428,10437,10463,10480,10498,10511,10534,10551,10556,10575,10598,10615,10635,10655,10670,10679,10696,10717,10730,10756,10773,10797,10812,10827,10845,10862,10881,10896,10918,10929,10949,10968,10981,11005,11025,11044,11064,11072,11096,11106,11129,11138,11160,11171,11182,11196,11220,11229,11250,11269,11288,11305,11323,11342,11356,11373,11391,11406,11428,11440,11453,11470,11487,11506,11524,11538,11554,11570,11589,11604,11618,11634,11651,11669,11687,11701,11719,11735,11754,11769,11785,11801,11817,11834,11853,11868,11887,11903,11921,11936,11953,11968,11986,12005,12023,12039,12056,12076,12094,12106,12128,12136,12154,12173,12190,12206,12217,12229,12256,12274,12287,12303,12315,12340,12349,12365,12370,12395,12414,12432,12447,12471,12477,12499,12511,12520,12551,12553,12581,12596,12605,12629,12638,12656,12673,12680,12696,12707,12724,12744,12758,12769,12792,12809,12820,12840,12854,12869,12886,12896,12914,12923,12935,12955,12968,12987,12996,13015,13030,13048,13060,13082,13095,13113,13128,13145,13161,13176,13192,13209,13226,13243,13259,13276,13293,13309,13326,13344,13360,13376,13395,13411,13427,13444,13461,13478,13498,13513,13530,13549,13566,13581,13601,13612,13632,13651,13665,13683,13698,13716,13733,13753,13763,13779,13799,13816,13831,13848,13864,13880,13898,13914,13930,13948,13966,13984,13998,14013,14029,14049,14065,14084,14101,14121,14153,14180,14198,14219,14237,14249,14266,14290,14299,14315,14337,14347,14367,14386,14402,14414,14432,14452,14470,14474,14492,14511,14525,14544,14557,14573,14593,14604,14630,14638,14651,14673,14692,14705,14721,14740,14759,14777,14791,14805,14824,14840,14852,14871,14893,14906,14924,14942,14955,14972,14990,15008,15022,15037,15055,15075,15092,15107,15120,15137,15148,15168,15179,15193,15215,15238,15258,15266,15281,15299,15313,15337,15345,15365,15382,15396,15413,15427,15448,15466,15481,15497,15512,15527,15548,15563,15580,15593,15612,15628,15631,15646,15660,15677,15685,15702,15719,15735,15750,15768,15785,15803,15819,15838,15854,15869,15885,15902,15908,15928,15945,15971,15977,15999,16010,16029,16051,16064,16090,16095,16115,16134,16150,16178,16187,16206,16221,16243,16262,16268,16280,16303,16311,16338,16346,16364,16380,16389,16399,16427,16435,16450,16469,16479,16504,16521,16543,16554,16572,16587,16603,16630,16637,16655,16677,16695,16717,16730,16760,16770,16793,16804,16820,16840,16854,16869,16885,16903,16920,16937,16959,16968,16987,17005,17021,17038,17054,17071,17090,17101,17121,17138,17152,17171,17185,17206,17226,17237,17262,17270,17290,17301,17320,17338,17353,17368,17387,17402,17420,17439,17454,17470,17489,17508,17519,17543,17558,17576,17589,17606,17618,17638,17653,17673,17689,17712,17720,17739,17758,17778,17788,17806,17828,17844,17861,17879,17887,17904,17929,17938,17956,17976,17996,18009,18021,18030,18057,18064,18098,18108,18132,18136,18156,18177,18197,18212,18225,18248,18255,18271,18299,18315,18335,18348,18362,18381,18394,18418,18430,18445,18466,18478,18497,18512,18530,18541,18555,18575,18592,18595,18613,18626,18639,18650,18673,18680,18695,18716,18729,18749,18764,18779,18798,18810,18827,18843,18859,18877,18893,18911,18930,18946,18963,18986,19005,19015,19032,19051,19070,19079,19099,19119,19133,19153,19160,19176,19192,19205,19220,19238,19255,19269,19286,19305,19319,19334,19353,19363,19381,19397,19421,19434,19444,19461,19473,19492,19509,19518,19542,19553,19568,19587,19605,19621,19637,19654,19673,19690,19706,19719,19738,19756,19774,19791,19804,19821,19839,19857,19872,19886,19903,19919,19937,19954,19969,19986,20001,20020,20036,20051,20068,20085,20101,20117,20133,20150,20167,20185,20200,20217,20235,20250,20267,20284,20300,20316,20333,20351,20367,20383,20400,20417,20433,20451,20467,20485,20501,20518,20533,20550,20566,20584,20600,20617,20633,20650,20667,20684,20701,20717,20737,20755,20768,20786,20800,20817,20833,20850,20867,20883,20900,20917,20933,20949,20967,20985,21001,21017,21034,21050,21068,21085,21100,21117,21134,21152,21167,21183,21200,21217,21234,21249,21267,21283,21299,21317,21334,21350,21366,21383,21399,21417,21433,21449,21468,21485,21501,21517,21534,21550,21567,21584,21601,21617,21633,21651,21668,21685,21701,21717,21735,21751,21768,21784,21800,21817,21834,21850,21866,21884,21901,21919,21933,21951,21967,21985,22000,22017,22034,22050,22068,22085,22100,22116,22133,22152,22167,22184,22201,22217,22234,22250,22267,22286,22301,22320,22335,22351,22367,22385,22404,22417,22433,22450,22467,22483,22501,22516,22534,22550,22567,22585,22600,22617,22633,22652,22668,22684,22700,22718,22736,22750,22766,22791,22804,22823,22835,22850,22868,22885,22901,22917,22934,22951,22968,22987,23001,23020,23034,23052,23069,23085,23100,23117,23133,23151,23168,23184,23200,23217,23235,23250,23266,23283,23299,23318,23333,23350,23367,23384,23401,23417,23433,23449,23467,23484,23501,23516,23533,23550,23568,23586,23604,23620,23638,23654,23671,23685,23701,23718,23736,23753,23767,23784,23802,23818,23833,23849,23867,23884,23903,23920,23934,23951,23968,23986,24001,24018,24037,24055,24067,24085,24102,24118,24137,24153,24172,24185,24204,24224,24233,24254,24269,24287,24306,24326,24338,24355,24364,24380,24400,24412,24431,24443,24467,24479,24499,24514,24526,24544,24558,24576,24594,24610,24625,24642,24658,24676,24691,24711,24725,24743,24760,24775,24792,24808,24825,24844,24860,24877,24895,24909,24928,24942,24959,24974,24992,25009,25026,25041,25058,25075,25094,25110,25126,25142,25160,25178,25193,25212,25228,25243,25266,25277,25296,25309,25335,25338,25355,25367,25385,25400,25420,25434,25451,25472,25486,25508,25518,25534,25557,25571,25588,25602,25618,25635,25645,25665,25682,25694,25717,25732,25744,25760,25777,25796,25809,25827,25845,25859,25876,25892,25909,25927,25943,25958,25975,25993,26009,26028,26042,26058,26075,26092,26108,26125,26141,26158,26176,26191,26208,26225,26242,26259,26278,26296,26309,26327,26347,26361,26378,26391,26408,26425,26442,26457,26474,26492,26507,26527,26542,26557,26576,26596,26611,26627,26641,26660,26678,26694,26711,26726,26744,26761,26778,26795,26808,26826,26842,26859,26876,26891,26909,26926,26943,26958,26975,26991,27008,27026,27042,27058,27074,27093,27109,27127,27144,27157,27177,27196,27211,27229,27246,27263,27278,27292,27310,27328,27344,27360,27377,27397,27412,27427,27442,27461,27477,27493,27511,27526,27545,27555,27568,27584,27603,27619,27635,27650,27666,27682,27698,27715,27733,27749,27765,27783,27799,27815,27834,27848,27865,27881,27898,27916,27932,27949,27967,27983,27998,28015,28032,28049,28066,28083,28098,28115,28132,28150,28165,28181,28198,28215,28232,28248,28265,28282,28298,28315,28332,28348,28365,28383,28399,28418,28435,28449,28465,28482,28498,28514,28531,28548,28564,28582,28599,28616,28631,28649,28665,28682,28699,28716,28732,28748,28765,28782,28799,28815,28832,28849,28865,28881,28898,28916,28937,28950,28965,28981,28998,29016,29032,29052,29065,29082,29099,29114,29135,29151,29165,29181,29198,29215,29231,29248,29265,29281,29298,29317,29335,29353,29365,29382,29395,29407,29424,29439,29457,29473,29490,29506,29523,29544,29558,29576,29591,29607,29624,29642,29659,29674,29688,29704,29716,29734,29750,29769,29785,29800,29815,29833,29846,29858,29874,29893,29908,29924,29940,29958,29975,29992,30008,30026,30041,30058,30076,30091,30108,30125,30145,30158,30174,30189,30207,30224,30240,30257,30273,30290,30306,30324,30341,30356,30374,30391,30406,30424,30441,30458,30474,30490,30507,30524,30540,30556,30574,30590,30607,30623,30641,30656,30674,30690,30707,30723,30741,30758,30773,30789,30806,30822,30841,30856,30876,30897,30912,30930,30942,30958,30976,30993,31011,31024,31040,31056,31073,31091,31106,31123,31140,31158,31173,31190,31206,31225,31240,31258,31274,31291,31309,31324,31341,31358,31373,31391,31408,31424,31440,31457,31479,31506,31519,31539,31562,31575,31618,31625,31645,31659,31674,31690,31709,31727,31740,31756,31773,31790,31806,31823,31840,31856,31874,31890,31906,31924,31940,31956,31975,31992,32006,32024,32042,32059,32076,32090,32109,32127,32141,32159,32175,32190,32206,32224,32241,32257,32272,32290,32307,32323,32339,32356,32374,32392,32406,32424,32440,32459,32476,32492,32509,32526,32542,32561,32574,32593,32610,32627,32645,32659,32673,32691,32707,32725,32740,32757,32773,32789,32807,32825,32841,32857,32873,32892,32909,32927,32947,32958,32975,32992,33007,33023,33040,33057,33074,33090,33107,33125,33143,33156,33174,33191,33206,33224,33241,33256,33272,33290,33306,33323,33340,33355,33372,33390,33407,33423,33439,33455,33473,33490,33508,33523,33539,33555,33573,33590,33606,33623,33640,33657,33673,33689,33708,33726,33743,33759,33774,33792,33809,33827,33842,33857,33874,33892,33909,33924,33940,33956,33974,33992,34007,34023,34040,34057,34075,34090,34106,34123,34142,34158,34174,34190,34207,34225,34241,34256,34274,34290,34308,34325,34342,34357,34374,34392,34408,34424,34440,34458,34476,34492,34507,34525,34541,34562,34574,34593,34607,34623,34643,34657,34673,34689,34707,34725,34741,34757,34773,34789,34806,34824,34841,34857,34874,34892,34908,34924,34940,34957,34973,34989,35007,35023,35041,35057,35074,35090,35105,35123,35138,35157,35175,35193,35207,35223,35239,35257,35275,35292,35306,35323,35340,35356,35372,35390,35406,35423,35440,35457,35474,35490,35506,35525,35544,35569,35574,35588,35601,35616,35634,35650,35668,35681,35699,35716,35735,35752,35772,35782,35798,35817,35832,35849,35864,35881,35899,35916,35931,35947,35964,35981,35997,36014,36031,36047,36065,36080,36098,36114,36131,36147,36164,36180,36198,36214,36230,36247,36264,36280,36297,36314,36331,36347,36364,36381,36397,36414,36430,36446,36464,36480,36497,36513,36530,36547,36563,36582,36598,36614,36631,36648,36664,36680,36696,36714,36733,36750,36764,36780,36797,36814,36832,36847,36864,36880,36897,36913,36931,36947,36963,36980,36997,37014,37031,37048,37066,37083,37098,37114,37132,37150,37166,37182,37200,37216,37233,37248,37264,37280,37297,37314,37330,37347,37364,37380,37398,37415,37433,37448,37464,37480,37499,37516,37531,37547,37564,37581,37599,37614,37631,37647,37664,37681,37697,37714,37731,37748,37765,37780,37797,37814,37831,37847,37863,37885,37899,37914,37932,37947,37964,37981,37997,38014,38030,38047,38064,38081,38097,38113,38130,38148,38164,38181,38198,38213,38233,38247,38265,38280,38298,38315,38332,38347,38364,38380,38398,38415,38431,38447,38464,38481,38498,38515,38532,38548,38567,38583,38598,38615,38635,38653,38665,38685,38698,38715,38733,38748,38768,38785,38797,38817,38832,38847,38864,38881,38898,38916,38933,38950,38964,38981,38998,39014,39030,39047,39065,39083,39097,39114,39131,39149,39165,39180,39196,39213,39231,39247,39264,39281,39297,39315,39331,39347,39363,39381,39398,39415,39431,39447,39464,39485,39499,39514,39531,39548,39565,39583,39597,39614,39630,39649,39666,39685,39700,39716,39737,39749,39765,39782,39801,39820,39834,39847,39866,39880,39898,39914,39929,39946,39963,39982,39998,40014,40031,40047,40066,40082,40097,40113,40130,40147,40165,40181,40198,40214,40233,40249,40264,40279,40297,40313,40330,40348,40363,40379,40397,40413,40430,40447,40463,40481,40497,40513,40530,40547,40564,40579,40596,40613,40630,40647,40664,40682,40698,40714,40731,40747,40763,40780,40796,40812,40829,40847,40863,40880,40897,40913,40930,40947,40963,40980,40996,41013,41030,41046,41063,41080,41097,41113,41130,41147,41164,41181,41200,41215,41233,41246,41266,41282,41298,41315,41331,41347,41364,41380,41397,41415,41430,41446,41464,41481,41497,41513,41529,41547,41564,41580,41597,41613,41630,41648,41667,41684,41698,41715,41734,41748,41764,41781,41797,41815,41832,41851,41865,41884,41904,41914,41939,41949,41969,41986,41997,42017,42031,42048,42067,42082,42098,42116,42131,42150,42168,42182,42198,42215,42233,42248,42264,42283,42298,42316,42332,42347,42364,42380,42397,42416,42431,42447,42465,42482,42499,42514,42530,42548,42563,42581,42597,42614,42632,42647,42664,42681,42699,42714,42731,42746,42765,42782,42799,42816,42831,42850,42865,42875,42913,42932,42950,42957,42973,42986,42998,43008,43029,43042,43061,43076,43092,43112,43125,43141,43157,43176,43193,43206,43224,43240,43258,43273,43289,43305,43325,43341,43355,43371,43388,43405,43421,43438,43455,43471,43489,43506,43522,43539,43556,43571,43580,43598,43616,43634,43649,43665,43682,43698,43715,43731,43746,43764,43780,43797,43813,43830,43846,43862,43879,43896,43914,43930,43946,43964,43980,43996,44013,44029,44046,44063,44079,44096,44113,44129,44146,44163,44180,44197,44213,44231,44246,44263,44280,44296,44313,44330,44346,44363,44379,44396,44412,44432,44448,44463,44480,44495,44513,44530,44545,44563,44580,44598,44615,44630,44646,44662,44678,44695,44713,44729,44745,44768,44787,44796,44814,44829,44846,44862,44878,44896,44912,44929,44945,44963,44979,44996,45012,45029,45048,45063,45079,45096,45112,45128,45146,45163,45183,45196,45213,45229,45246,45262,45279,45298,45313,45328,45346,45363,45381,45395,45414,45433,45453,45463,45479,45495,45515,45534,45545,45563,45578,45597,45614,45631,45647,45662,45680,45697,45713,45730,45747,45765,45782,45796,45813,45829,45847,45863,45880,45896,45912,45928,45946,45962,45979,45995,46013,46028,46046,46063,46078,46097,46112,46128,46146,46163,46181,46199,46214,46229,46246,46265,46285,46297,46315,46330,46348,46365,46380,46396,46413,46429,46445,46462,46479,46495,46512,46530,46545,46565,46580,46597,46612,46628,46646,46662,46681,46697,46709,46724,46741,46755,46778,46792,46808,46821,46840,46854,46872,46887,46906,46921,46937,46955,46971,46987,47005,47021,47038,47055,47072,47089,47105,47120,47138,47155,47171,47188,47204,47221,47237,47255,47271,47287,47305,47323,47340,47355,47373,47388,47407,47420,47440,47455,47472,47488,47503,47526,47538,47554,47571,47589,47605,47620,47637,47654,47671,47687,47704,47721,47738,47754,47771,47787,47804,47824,47839,47854,47870,47887,47904,47923,47942,47955,47970,47986,48005,48021,48037,48054,48070,48088,48104,48120,48137,48155,48173,48187,48204,48220,48237,48254,48271,48287,48307,48324,48337,48354,48370,48390,48409,48421,48436,48456,48471,48486,48503,48520,48538,48555,48575,48588,48604,48620,48636,48653,48670,48687,48703,48719,48737,48753,48770,48787,48803,48820,48839,48854,48870,48886,48903,48921,48937,48953,48970,48987,49004,49020,49036,49054,49071,49087,49104,49120,49137,49154,49170,49190,49206,49222,49237,49253,49271,49286,49303,49319,49337,49353,49369,49387,49403,49421,49437,49452,49470,49487,49507,49521,49536,49553,49573,49588,49605,49620,49636,49653,49673,49688,49703,49720,49737,49753,49770,49787,49803,49820,49837,49854,49870,49889,49904,49923,49937,49953,49970,49987,50004,50019,50037,50053,50072,50091,50104,50120,50137,50153,50170,50192,50204,50222,50238,50254,50269,50288,50305,50321,50338,50354,50370,50387,50406,50421,50437,50455,50474,50488,50504,50520,50537,50553,50570,50587,50605,50621,50637,50655,50670,50687,50704,50720,50738,50754,50770,50787,50805,50820,50837,50853,50870,50887,50906,50920,50939,50955,50971,50987,51004,51020,51036,51054,51074,51088,51105,51121,51137,51155,51169,51187,51204,51219,51236,51253,51270,51287,51303,51320,51337,51356,51379,51387,51407,51421,51439,51457,51471,51487,51504,51520,51537,51554,51570,51587,51604,51620,51636,51654,51670,51686,51704,51721,51739,51753,51774,51790,51805,51820,51836,51853,51869,51888,51907,51920,51936,51953,51969,51986,52003,52020,52036,52052,52069,52088,52105,52124,52136,52155,52170,52187,52204,52223,52241,52253,52271,52288,52303,52319,52337,52356,52372,52387,52403,52422,52436,52452,52473,52488,52502,52522,52540,52553,52571,52586,52606,52623,52636,52653,52669,52686,52703,52718,52736,52752,52773,52790,52806,52820,52835,52855,52876,52886,52903,52919,52936,52954,52969,52986,53003,53020,53036,53052,53069,53086,53103,53119,53135,53153,53169,53186,53203,53219,53236,53252,53269,53287,53303,53319,53336,53353,53369,53388,53408,53423,53436,53453,53469,53486,53504,53519,53536,53552,53570,53586,53606,53621,53636,53655,53672,53687,53706,53719,53736,53753,53769,53786,53803,53820,53836,53853,53869,53885,53904,53920,53937,53952,53974,53987,54006,54022,54037,54052,54070,54086,54103,54119,54136,54153,54169,54186,54204,54220,54237,54254,54271,54287,54304,54323,54339,54354,54370,54386,54403,54421,54439,54456,54472,54489,54506,54523,54537,54554,54569,54589,54605,54620,54636,54654,54672,54688,54705,54720,54737,54755,54772,54787,54803,54820,54838,54857,54870,54887,54905,54922,54937,54954,54971,54986,55004,55022,55037,55054,55071,55089,55104,55121,55137,55153,55170,55187,55204,55220,55237,55254,55271,55287,55303,55319,55337,55354,55370,55386,55403,55420,55437,55453,55470,55487,55505,55521,55539,55554,55569,55587,55605,55619,55637,55653,55670,55688,55704,55720,55735,55754,55771,55786,55803,55820,55837,55854,55869,55886,55903,55919,55937,55953,55970,55987,56006,56022,56041,56055,56071,56090,56105,56121,56137,56153,56172,56188,56203,56220,56236,56254,56272,56286,56302,56319,56336,56353,56369,56386,56403,56420,56436,56453,56469,56485,56503,56520,56535,56553,56569,56586,56603,56619,56635,56652,56669,56686,56702,56719,56736,56752,56769,56786,56802,56818,56837,56853,56869,56885,56903,56919,56935,56952,56968,56986,57006,57018,57035,57052,57068,57085,57103,57119,57136,57153,57169,57185,57202,57218,57236,57252,57269,57285,57304,57319,57335,57353,57369,57385,57402,57419,57436,57452,57468,57485,57502,57520,57536,57552,57569,57585,57604,57620,57636,57653,57670,57686,57704,57719,57738,57755,57774,57787,57804,57821,57837,57854,57870,57886,57904,57920,57936,57954,57969,57986,58002,58020,58036,58053,58069,58087,58106,58122,58136,58154,58173,58187,58205,58220,58237,58254,58272,58286,58303,58319,58337,58354,58369,58386,58402,58420,58436,58453,58469,58487,58506,58522,58549,58556,58569,58590,58607,58623,58637,58654,58672,58687,58705,58721,58738,58756,58772,58789,58804,58820,58840,58856,58872,58887,58905,58922,58942,58960,58970,58988,59009,59028,59045,59061,59078,59095,59106,59134,59137,59155,59171,59179,59194,59207,59221,59243,59257,59272,59294,59307,59320,59340,59358,59378,59392,59404,59423,59439,59457,59471,59488,59507,59524,59539,59554,59571,59590,59597,59613,59622,59636,59657,59672,59681,59695,59708,59724,59742,59758,59770,59788,59805,59823,59839,59856,59872,59889,59904,59920,59938,59953,59968,59985,60002,60019,60035,60052,60069,60085,60103,60119,60135,60152,60169,60187,60205,60221,60238,60255,60269,60286,60301,60318,60335,60353,60368,60384,60402,60418,60435,60452,60469,60485,60502,60520,60535,60553,60569,60586,60603,60619,60635,60653,60669,60687,60703,60719,60735,60754,60770,60785,60802,60820,60836,60852,60869,60886,60903,60921,60936,60953,60969,60986,61003,61020,61036,61051,61068,61086,61106,61122,61136,61154,61169,61186,61202,61219,61236,61252,61270,61286,61302,61319,61336,61353,61368,61385,61403,61419,61437,61453,61469,61486,61503,61520,61535,61552,61572,61589,61603,61621,61637,61656,61675,61689,61703,61716,61730,61747,61760,61779,61796,61813,61827,61845,61865,61881,61897,61914,61929,61947,61964,61984,61999,62012,62030,62048,62063,62079,62095,62115,62137,62181,62197,62204,62222,62238,62256,62276,62287,62313,62332,62348,62364,62381,62396,62412,62431,62448,62467,62480,62501,62513,62530,62548,62560,62580,62594,62603,62624,62637,62655,62673,62686,62715,62723,62736,62756,62772,62789,62800,62816,62828,62847,62861,62880,62895,62911,62928,62947,62966,62977,62998,63012,63030,63047,63065,63081,63094,63113,63131,63145,63162,63175,63188,63209,63221,63242,63256,63270,63295,63304,63322,63343,63356,63373,63387,63406,63422,63446,63455,63473,63486,63505,63521,63543,63553,63570,63588,63605,63631,63638,63651,63672,63688,63705,63719,63736,63756,63771,63789,63803,63820,63837,63853,63870,63886,63904,63924,63938,63961,63970,63988,64007,64022,64038,64053,64071,64089,64104,64123,64139,64155,64172,64185,64199,64221,64231,64245,64256,64270,64287,64308,64319,64338,64353,64371,64389,64404,64418,64436,64454,64471,64486,64504,64524,64536,64556,64569,64586,64602,64618,64634,64651,64668,64685,64701,64717,64734,64752,64768,64784,64800,64818,64835,64850,64867,64886,64902,64918,64935,64951,64969,64984,65001,65017,65034,65050,65068,65084,65100,65118,65134,65151,65170,65185,65202,65219,65235,65251,65268,65285,65301,65317,65334,65351,65367,65383,65401,65417,65434,65453,65474,65486,65505,65518,65535,65551,65569,65584,65600,65621,65642,65651,65668,65683,65701,65717,65735,65752,65767,65784,65802,65819,65834,65850,65868,65885,65901,65917,65934,65954,65972,65986,66003,66018,66034,66051,66067,66084,66101,66118,66134,66151,66167,66184,66202,66222,66234,66251,66267,66284,66300,66317,66334,66351,66370,66389,66405,66419,66435,66454,66471,66485,66502,66513,66529,66546,66562,66577,66595,66611,66627,66643,66658,66677,66694,66710,66725,66743,66761,66778,66793,66810,66828,66847,66864,66880,66890,66909,66923,66936,66948,66964,66977,66995,67013,67026,67043,67060,67076,67093,67109,67127,67143,67160,67178,67193,67209,67226,67245,67261,67276,67294,67311,67329,67350,67362,67387,67396,67412,67435,67446,67463,67481,67496,67513,67527,67545,67559,67569,67587,67604,67621,67635,67648,67661,67682,67693,67711,67728,67736,67754,67769,67787,67801,67818,67835,67852,67870,67887,67901,67919,67936,67954,67969,67985,68003,68019,68037,68051,68068,68086,68102,68119,68136,68151,68169,68187,68204,68221,68234,68253,68269,68286,68301,68317,68335,68352,68369,68385,68401,68419,68436,68454,68469,68484,68501,68517,68536,68555,68568,68585,68602,68619,68634,68650,68669,68686,68703,68717,68735,68752,68770,68787,68802,68818,68836,68853,68869,68885,68902,68919,68937,68953,68968,68984,69002,69019,69035,69050,69067,69086,69103,69118,69134,69151,69169,69186,69202,69217,69234,69252,69268,69286,69300,69316,69335,69351,69367,69384,69400,69417,69435,69450,69467,69483,69500,69517,69534,69551,69567,69584,69601,69618,69634,69650,69667,69684,69702,69718,69734,69751,69768,69785,69802,69818,69836,69852,69869,69885,69902,69920,69936,69954,69971,69984,70006,70022,70037,70053,70068,70084,70101,70118,70133,70150,70167,70184,70202,70217,70234,70251,70267,70284,70301,70317,70334,70350,70371,70385,70401,70419,70435,70452,70468,70484,70501,70517,70537,70555,70568,70584,70603,70619,70635,70650,70667,70683,70701,70717,70734,70752,70767,70784,70801,70817,70834,70850,70868,70884,70900,70916,70934,70950,70967,70984,71000,71016,71034,71051,71067,71084,71100,71117,71134,71150,71166,71183,71200,71219,71235,71253,71267,71283,71308,71317,71334,71350,71366,71384,71399,71417,71433,71450,71467,71485,71501,71516,71533,71550,71566,71584,71600,71618,71638,71650,71667,71685,71700,71716,71733,71750,71766,71783,71799,71816,71833,71850,71866,71884,71899,71919,71936,71950,71967,71983,72002,72017,72035,72049,72066,72083,72099,72116,72133,72149,72169,72187,72204,72216,72234,72251,72268,72284,72300,72316,72333,72350,72366,72383,72400,72417,72433,72450,72467,72483,72499,72516,72532,72550,72566,72583,72602,72616,72633,72649,72666,72683,72704,72719,72733,72750,72766,72786,72803,72818,72836,72852,72867,72883,72899,72917,72933,72949,72970,72986,73000,73017,73032,73050,73066,73082,73099,73115,73132,73149,73166,73182,73198,73216,73232,73249,73266,73283,73299,73316,73334,73351,73366,73383,73399,73416,73433,73449,73465,73483,73500,73516,73532,73548,73566,73583,73599,73615,73632,73649,73665,73683,73700,73716,73732,73750,73766,73783,73799,73815,73834,73851,73866,73882,73899,73915,73933,73952,73970,73984,74001,74019,74034,74049,74065,74083,74100,74116,74133,74150,74166,74183,74199,74216,74232,74252,74269,74283,74301,74317,74335,74351,74368,74385,74399,74416,74433,74448,74465,74483,74500,74516,74532,74549,74566,74583,74599,74615,74633,74649,74666,74682,74699,74715,74732,74749,74766,74782,74799,74815,74832,74849,74866,74882,74899,74916,74932,74949,74966,74982,74999,75015,75032,75049,75066,75085,75105,75116,75133,75149,75166,75182,75200,75216,75232,75250,75266,75282,75300,75316,75332,75349,75366,75385,75397,75410,75428,75443,75459,75476,75492,75507,75524,75540,75557,75576,75591,75607,75624,75641,75659,75675,75690,75708,75724,75744,75759,75775,75792,75809,75824,75840,75856,75874,75891,75907,75924,75940,75957,75974,75990,76007,76024,76040,76058,76074,76090,76107,76124,76140,76158,76174,76186,76199,76216,76232,76248,76265,76282,76299,76315,76332,76348,76365,76382,76398,76415,76434,76449,76465,76484,76503,76519,76532,76549,76565,76582,76600,76615,76632,76649,76665,76682,76699,76719,76733,76752,76767,76783,76799,76817,76832,76849,76865,76883,76898,76915,76932,76949,76966,76984,77001,77017,77032,77048,77067,77086,77103,77116,77132,77148,77165,77181,77199,77215,77231,77249,77265,77282,77299,77316,77332,77348,77366,77382,77398,77415,77432,77448,77465,77481,77499,77515,77532,77548,77565,77582,77598,77616,77632,77648,77666,77682,77699,77716,77733,77748,77766,77783,77799,77816,77833,77849,77867,77883,77900,77916,77932,77950,77967,77984,78003,78018,78036,78052,78070,78089,78101,78119,78139,78150,78167,78185,78201,78217,78234,78250,78267,78283,78300,78316,78333,78349,78366,78384,78398,78416,78433,78449,78465,78484,78499,78516,78533,78549,78566,78585,78599,78615,78632,78649,78666,78683,78699,78716,78732,78748,78766,78782,78798,78816,78834,78849,78865,78883,78899,78916,78932,78950,78966,78983,79000,79017,79033,79049,79066,79083,79099,79116,79133,79149,79166,79183,79198,79215,79233,79250,79266,79282,79300,79316,79334,79349,79367,79383,79400,79418,79434,79449,79466,79484,79500,79516,79532,79549,79566,79583,79599,79615,79634,79649,79665,79684,79699,79715,79734,79749,79765,79782,79799,79816,79832,79849,79865,79884,79900,79915,79933,79948,79966,79982,79999,80015,80032,80049,80064,80083,80099,80115,80132,80150,80166,80183,80198,80215,80232,80249,80265,80282,80298,80315,80331,80348,80366,80384,80405,80418,80432,80448,80466,80487,80503,80515,80531,80548,80565,80584,80604,80617,80634,80648,80664,80681,80700,80718,80734,80750,80765,80781,80798,80815,80833,80850,80866,80882,80898,80915,80931,80948,80965,80981,81000,81016,81031,81049,81065,81081,81098,81114,81131,81148,81164,81182,81198,81215,81232,81247,81265,81282,81298,81315,81331,81349,81364,81381,81398,81415,81432,81448,81464,81482,81498,81515,81531,81551,81568,81584,81598,81614,81631,81648,81665,81681,81698,81716,81732,81749,81768,81784,81798,81815,81831,81848,81864,81885,81900,81915,81932,81947,81965,81983,81998,82015,82032,82048,82065,82081,82101,82118,82131,82148,82164,82183,82202,82215,82231,82248,82266,82281,82298,82315,82332,82347,82367,82382,82398,82416,82434,82448,82466,82482,82498,82515,82531,82548,82565,82582,82598,82615,82635,82650,82666,82682,82700,82715,82731,82749,82768,82782,82798,82815,82832,82849,82865,82886,82901,82915,82932,82947,82965,82981,82997,83017,83033,83048,83065,83081,83098,83118,83135,83148,83166,83184,83197,83216,83231,83248,83265,83283,83301,83317,83333,83348,83365,83382,83398,83414,83432,83449,83467,83487,83499,83515,83531,83548,83564,83583,83601,83615,83632,83649,83665,83683,83701,83715,83732,83749,83765,83782,83799,83815,83832,83849,83864,83881,83899,83915,83932,83947,83965,83981,83997,84015,84031,84047,84065,84081,84097,84114,84131,84148,84165,84181,84197,84214,84231,84247,84265,84280,84297,84315,84331,84348,84364,84382,84398,84415,84431,84447,84464,84482,84498,84516,84532,84547,84564,84582,84598,84614,84631,84647,84664,84682,84697,84714,84731,84748,84765,84781,84798,84814,84831,84847,84867,84885,84902,84915,84931,84947,84966,84986,84999,85016,85030,85048,85065,85083,85098,85115,85131,85147,85167,85186,85199,85215,85231,85249,85268,85281,85298,85314,85330,85347,85363,85384,85400,85420,85435,85447,85467,85483,85498,85514,85531,85551,85569,85582,85597,85614,85626,85643,85657,85673,85693,85705,85722,85739,85758,85777,85790,85809,85824,85839,85855,85871,85889,85905,85921,85939,85956,85971,85989,86005,86022,86038,86056,86072,86089,86105,86122,86139,86155,86172,86189,86205,86223,86238,86256,86273,86289,86305,86323,86340,86356,86372,86389,86407,86423,86439,86456,86472,86489,86506,86523,86538,86556,86572,86589,86607,86623,86639,86656,86673,86689,86706,86723,86739,86756,86773,86788,86806,86823,86839,86856,86872,86890,86906,86923,86939,86957,86972,86989,87006,87023,87038,87056,87073,87089,87105,87123,87139,87155,87172,87189,87207,87223,87238,87256,87273,87288,87307,87322,87339,87355,87372,87391,87409,87424,87438,87455,87472,87488,87505,87522,87539,87555,87572,87588,87606,87622,87638,87655,87673,87693,87707,87723,87739,87757,87774,87790,87805,87825,87840,87859,87874,87889,87905,87924,87943,87957,87973,87989,88007,88025,88039,88057,88072,88088,88105,88122,88138,88154,88171,88189,88206,88223,88239,88256,88272,88288,88305,88322,88338,88355,88372,88388,88405,88421,88438,88458,88475,88496,88507,88523,88538,88556,88574,88590,88606,88622,88639,88655,88672,88689,88715,88728,88747,88756,88772,88789,88806,88822,88841,88859,88873,88889,88905,88925,88943,88956,88976,88992,89005,89026,89039,89058,89075,89088,89109,89122,89142,89160,89174,89190,89205,89221,89237,89255,89272,89288,89304,89321,89338,89354,89371,89388,89404,89422,89438,89454,89472,89488,89505,89522,89538,89555,89572,89588,89605,89622,89637,89655,89671,89688,89704,89722,89738,89754,89772,89787,89805,89822,89840,89858,89874,89892,89908,89923,89942,89956,89972,89988,90004,90024,90039,90055,90072,90088,90105,90124,90138,90155,90172,90188,90205,90222,90239,90257,90273,90289,90306,90322,90340,90356,90373,90389,90405,90422,90439,90456,90472,90490,90506,90522,90538,90555,90573,90590,90606,90622,90639,90655,90673,90689,90706,90722,90740,90755,90772,90788,90806,90822,90838,90856,90871,90888,90906,90923,90940,90955,90972,90988,91006,91023,91038,91055,91072,91089,91106,91122,91138,91155,91171,91188,91206,91224,91242,91257,91272,91288,91305,91322,91340,91359,91373,91389,91405,91425,91440,91455,91472,91489,91505,91521,91538,91556,91572,91589,91605,91621,91639,91655,91671,91688,91705,91722,91739,91755,91772,91787,91805,91823,91838,91855,91871,91889,91905,91922,91939,91956,91973,91988,92005,92022,92038,92054,92072,92089,92106,92121,92138,92156,92172,92188,92206,92222,92238,92256,92272,92288,92304,92322,92338,92355,92372,92388,92406,92422,92439,92455,92471,92488,92506,92522,92538,92556,92573,92589,92605,92622,92638,92655,92672,92689,92705,92722,92738,92756,92772,92788,92805,92822,92838,92855,92872,92889,92905,92922,92939,92956,92972,92988,93005,93022,93038,93054,93072,93088,93105,93120,93139,93155,93171,93188,93205,93222,93238,93254,93272,93288,93306,93322,93337,93355,93373,93390,93404,93422,93438,93455,93472,93488,93504,93522,93538,93555,93575,93588,93605,93621,93638,93655,93673,93689,93704,93721,93737,93755,93772,93789,93804,93822,93838,93856,93872,93888,93906,93922,93938,93955,93971,93989,94005,94021,94038,94055,94073,94089,94109,94123,94139,94155,94172,94189,94206,94221,94238,94254,94272,94289,94306,94322,94337,94355,94371,94388,94405,94422,94436,94448,94463,94480,94496,94514,94530,94547,94564,94581,94597,94613,94630,94648,94664,94682,94700,94713,94733,94748,94765,94780,94796,94814,94829,94847,94865,94879,94897,94914,94932,94948,94964,94980,94996,95013,95030,95048,95064,95081,95096,95113,95129,95146,95164,95180,95196,95212,95231,95247,95263,95280,95297,95312,95330,95346,95366,95380,95396,95413,95430,95447,95463,95479,95496,95513,95530,95546,95564,95580,95596,95613,95631,95647,95664,95681,95703,95718,95733,95752,95767,95787,95802,95814,95831,95848,95864,95880,95896,95913,95930,95947,95963,95980,95996,96013,96029,96047,96063,96080,96097,96113,96130,96147,96164,96180,96196,96213,96229,96246,96263,96279,96296,96313,96329,96347,96363,96379,96396,96412,96429,96446,96463,96479,96497,96513,96529,96546,96563,96580,96596,96612,96630,96645,96663,96680,96696,96712,96729,96747,96763,96780,96796,96813,96829,96845,96864,96879,96896,96913,96929,96946,96962,96979,96996,97013,97029,97045,97062,97079,97096,97113,97129,97146,97162,97179,97196,97212,97230,97246,97262,97279,97298,97314,97331,97346,97361,97381,97400,97416,97429,97446,97465,97483,97497,97513,97528,97546,97562,97578,97595,97612,97629,97646,97662,97678,97695,97712,97730,97745,97761,97779,97795,97812,97829,97845,97862,97878,97895,97912,97929,97945,97962,97979,97995,98012,98029,98046,98063,98079,98096,98112,98129,98146,98162,98179,98196,98212,98228,98246,98263,98281,98296,98314,98330,98347,98363,98380,98398,98413,98431,98447,98464,98480,98496,98512,98531,98547,98565,98583,98598,98615,98629,98646,98665,98681,98697,98713,98733,98751,98768,98783,98799,98818,98835,98852,98867,98881,98899,98918,98932,98949,98965,98979,98999,99016,99032,99042,99056,99072,99087,99105,99121,99138,99154,99172,99188,99204,99222,99238,99255,99271,99287,99306,99322,99338,99355,99373,99390,99406,99424,99440,99456,99475,99489,99506,99524,99540,99559,99576,99588,99608,99625,99640,99655,99671,99690,99708,99724,99745,99756,99775,99790,99810,99825,99840,99859,99876,99893,99908,99926,99939,99957,99973,99990,99999,100017,100032,100047,100064,100081,100097,100113,100130,100146,100162,100172,100188,100204,100221,100237,100255,100270,100287,100304,100321,100337,100353,100372,100387,100404,100420,100437,100453,100472,100490,100509,100521,100537,100554,100571,100587,100603,100620,100639,100656,100670,100689,100704,100720,100738,100755,100771,100787,100803,100823,100838,100855,100870,100887,100907,100923,100939,100955,100970,100990,101007,101021,101038,101053,101071,101088,101104,101121,101137,101156,101171,101187,101204,101219,101237,101253,101272,101288,101304,101324,101342,101357,101372,101387,101405,101420,101437,101454,101470,101487,101504,101520,101537,101553,101570,101586,101606,101628,101638,101656,101672,101689,101705,101720,101737,101754,101772,101788,101804,101821,101837,101853,101875,101887,101904,101920,101936,101954,101972,101991,102006,102022,102038,102054,102070,102087,102104,102121,102137,102154,102175,102189,102204,102220,102237,102253,102271,102291,102305,102321,102337,102354,102371,102388,102404,102420,102438,102454,102473,102488,102504,102520,102537,102553,102574,102593,102604,102621,102633,102647,102663,102680,102696,102712,102728,102745,102762,102778,102796,102812,102830,102845,102862,102879,102895,102912,102929,102945,102962,102978,102998,103011,103029,103045,103062,103078,103095,103111,103128,103147,103168,103178,103196,103212,103228,103245,103263,103278,103294,103313,103329],"hit":[null],"x":[-1.6054421768707483,-1.6054421768707483,-1.6054421768707483,-1.6054421768707483,-1.6054421768707483,-1.6054421768707483,-1.6054421768707483,-1.6054421768707483,-1.6054421768707483,-1.6054421768707483,-1.6054421768707483,-1.6054421768707483,-1.6054421768707483,-1.6054421768707483,-1.6054421768707483,-1.6054421768707483,-1.6054421768707483,-1.6054421768707483,-1.6054421768707483,-1.6054421768707483,-1.6054421768707483,-1.6054421768707483,-1.6054421768707483,-1.6054421768707483,-1.6054421768707483,-1.6054421768707483,-1.6054421768707483,-1.6054421768707483,-1.6054421768707483,-1.6054421768707483,-1.6054421768707483,-1.6054421768707483,-1.6054421768707483,-1.6054421768707483,-1.6054421768707483,-1.6054421768707483,-1.6054421768707483,-1.6054421768707483,-1.6054421768707483,-1.6054421768707483,-1.6054421768707483,-1.6054421768707483,-1.6054421768707483,-1.6054421768707483,-1.6054421768707483,-1.6054421768707483,-1.6054421768707483,-1.6054421768707483,-1.6054421768707483,-1.6054421768707483,-1.6054421768707483,-1.6054421768707483,-1.6054421768707483,-1.6054421768707483,-1.6054421768707483,-1.6054421768707483,-1.6054421768707483,-1.6054421768707483,-1.6054421768707483,-1.6054421768707483,-1.6054421768707483,-1.6054421768707483,-1.6054421768707483,-1.6054421768707483,-1.6054421768707483,-1.6054421768707483,-1.6054421768707483,-1.6054421768707483,-1.6054421768707483,-1.6054421768707483,-1.6054421768707483,-1.6054421768707483,-1.6054421768707483,-1.6054421768707483,-1.6054421768707483,-1.6054421768707483,-1.6054421768707483,-1.6054421768707483,-1.6054421768707483,-1.6054421768707483,-1.6054421768707483,-1.6054421768707483,-1.6054421768707483,-1.6054421768707483,-1.6054421768707483,-1.6054421768707483,-1.6054421768707483,-1.6054421768707483,-1.6054421768707483,-1.6054421768707483,-1.6054421768707483,-1.6054421768707483,-1.6054421768707483,-1.6054421768707483,-1.6054421768707483,-1.6054421768707483,-1.6054421768707483,-1.6054421768707483,-1.6054421768707483,-1.6054421768707483,-1.6054421768707483,-1.6054421768707483,-1.6054421768707483,-1.6054421768707483,-1.6054421768707483,-1.6054421768707483,-1.6054421768707483,-1.6054421768707483,-1.6054421768707483,-1.6054421768707483,-1.6054421768707483,-1.6054421768707483,-1.6054421768707483,0.02040816326530612,0.0782312925170068,0.09183673469387756,0.1054421768707483,0.11564625850340136,0.12585034013605442,0.12585034013605442,0.1326530612244898,0.1326530612244898,0.13945578231292516,0.16326530612244897,0.17346938775510204,0.1836734693877551,0.1870748299319728,0.1870748299319728,0.1870748299319728,0.1870748299319728,0.1870748299319728,0.1870748299319728,0.1870748299319728,0.1870748299319728,0.1870748299319728,0.17006802721088435,0.16326530612244897,0.16326530612244897,0.1598639455782313,0.1598639455782313,0.1598639455782313,0.1598639455782313,0.1598639455782313,0.1598639455782313,0.1598639455782313,0.1598639455782313,0.1598639455782313,0.1598639455782313,0.1598639455782313,0.1598639455782313,0.1598639455782313,0.1598639455782313,0.1598639455782313,0.1598639455782313,0.1598639455782313,0.1598639455782313,0.1598639455782313,0.1598639455782313,0.1598639455782313,0.1598639455782313,0.1598639455782313,0.1598639455782313,0.1598639455782313,0.1598639455782313,0.1598639455782313,0.1598639455782313,0.1598639455782313,0.1598639455782313,0.1598639455782313,0.1598639455782313,0.1598639455782313,0.1598639455782313,0.1598639455782313,0.1598639455782313,0.1598639455782313,0.1598639455782313,0.1598639455782313,0.1598639455782313,0.1598639455782313,0.1598639455782313,0.1598639455782313,0.1598639455782313,0.1598639455782313,0.1598639455782313,0.1598639455782313,0.1598639455782313,0.1598639455782313,0.1598639455782313,0.1598639455782313,0.1598639455782313,0.1598639455782313,0.1598639455782313,0.1598639455782313,0.1598639455782313,0.1598639455782313,0.1598639455782313,0.1598639455782313,0.1598639455782313,0.1598639455782313,0.1598639455782313,0.1598639455782313,0.1598639455782313,0.1598639455782313,0.19047619047619047,0.21428571428571427,0.23809523809523808,0.24489795918367346,0.24829931972789115,0.25170068027210885,0.25510204081632654,0.2585034013605442,0.2585034013605442,0.2585034013605442,0.2585034013605442,0.2585034013605442,0.2585034013605442,0.2585034013605442,0.2585034013605442,0.2585034013605442,0.2585034013605442,0.2585034013605442,0.2585034013605442,0.2619047619047619,0.2687074829931973,0.2891156462585034,0.30272108843537415,0.3129251700680272,0.3299319727891156,0.336734693877551,0.336734693877551,0.336734693877551,0.336734693877551,0.336734693877551,0.336734693877551,0.336734693877551,0.336734693877551,0.336734693877551,0.336734693877551,0.336734693877551,0.336734693877551,0.336734693877551,0.336734693877551,0.336734693877551,0.336734693877551,0.336734693877551,0.336734693877551,0.336734693877551,0.336734693877551,0.336734693877551,0.336734693877551,0.336734693877551,0.336734693877551,0.336734693877551,0.336734693877551,0.336734693877551,0.336734693877551,0.4387755102040816,0.45918367346938777,0.47959183673469385,0.48639455782312924,0.48639455782312924,0.4897959183673469,0.4931972789115646,0.4931972789115646,0.4931972789115646,0.4931972789115646,0.4931972789115646,0.4931972789115646,0.4931972789115646,0.4931972789115646,0.4931972789115646,0.4931972789115646,0.4931972789115646,0.4931972789115646,0.4931972789115646,0.4931972789115646,0.4931972789115646,0.4931972789115646,0.4931972789115646,0.4931972789115646,0.4931972789115646,0.4931972789115646,0.4931972789115646,0.4931972789115646,0.4931972789115646,0.4931972789115646,0.4931972789115646,0.4931972789115646,0.4931972789115646,0.4931972789115646,0.4931972789115646,0.4931972789115646,0.4931972789115646,0.4931972789115646,0.4931972789115646,0.4931972789115646,0.4931972789115646,0.4931972789115646,0.4931972789115646,0.4931972789115646,0.4931972789115646,0.4931972789115646,0.4931972789115646,0.4931972789115646,0.4931972789115646,0.4931972789115646,0.4931972789115646,0.4931972789115646,0.4931972789115646,0.4931972789115646,0.4931972789115646,0.4931972789115646,0.4931972789115646,0.4931972789115646,0.4931972789115646,0.4931972789115646,0.4931972789115646,0.4931972789115646,0.4931972789115646,0.4931972789115646,0.4931972789115646,0.4931972789115646,0.4931972789115646,0.4931972789115646,0.48299319727891155,0.46258503401360546,0.4557823129251701,0.4557823129251701,0.4557823129251701,0.4557823129251701,0.4557823129251701,0.45918367346938777,0.46258503401360546,0.4897959183673469,0.5068027210884354,0.5748299319727891,0.6122448979591837,0.6360544217687075,0.673469387755102,0.6938775510204082,0.6972789115646258,0.7006802721088435,0.7006802721088435,0.7006802721088435,0.7006802721088435,0.7006802721088435,0.7006802721088435,0.6972789115646258,0.6972789115646258,0.6904761904761905,0.6700680272108843,0.6496598639455783,0.608843537414966,0.5816326530612245,0.5680272108843537,0.5408163265306123,0.5340136054421769,0.5,0.4897959183673469,0.47959183673469385,0.47278911564625853,0.46938775510204084,0.46598639455782315,0.46258503401360546,0.45918367346938777,0.45918367346938777,0.45918367346938777,0.45918367346938777,0.45918367346938777,0.45918367346938777,0.46598639455782315,0.5170068027210885,0.5850340136054422,0.6122448979591837,0.6292517006802721,0.6496598639455783,0.6632653061224489,0.6700680272108843,0.6700680272108843,0.6700680272108843,0.6700680272108843,0.6700680272108843,0.6700680272108843,0.6700680272108843,0.6700680272108843,0.6700680272108843,0.6700680272108843,0.6700680272108843,0.6700680272108843,0.6700680272108843,0.6700680272108843,0.6700680272108843,0.6666666666666666,0.6666666666666666,0.6632653061224489,0.6632653061224489,0.6632653061224489,0.6632653061224489,0.6632653061224489,0.6632653061224489,0.6632653061224489,0.6632653061224489,0.6598639455782312,0.6598639455782312,0.6564625850340136,0.6462585034013606,0.6156462585034014,0.5476190476190477,0.48639455782312924,0.4557823129251701,0.41836734693877553,0.3979591836734694,0.3843537414965986,0.3707482993197279,0.36394557823129253,0.36394557823129253,0.35714285714285715,0.35034013605442177,0.3435374149659864,0.3231292517006803,0.3129251700680272,0.30272108843537415,0.29591836734693877,0.29591836734693877,0.29591836734693877,0.29591836734693877,0.29591836734693877,0.29591836734693877,0.29591836734693877,0.29591836734693877,0.29591836734693877,0.29591836734693877,0.29591836734693877,0.29591836734693877,0.30612244897959184,0.3231292517006803,0.3435374149659864,0.3707482993197279,0.3979591836734694,0.40476190476190477,0.41156462585034015,0.41156462585034015,0.41836734693877553,0.41836734693877553,0.41836734693877553,0.41836734693877553,0.41836734693877553,0.41836734693877553,0.41836734693877553,0.41836734693877553,0.41836734693877553,0.41836734693877553,0.4217687074829932,0.42517006802721086,0.4387755102040816,0.46598639455782315,0.5068027210884354,0.5340136054421769,0.5476190476190477,0.5578231292517006,0.5680272108843537,0.5748299319727891,0.5748299319727891,0.5748299319727891,0.5782312925170068,0.5782312925170068,0.5782312925170068,0.5782312925170068,0.5782312925170068,0.5782312925170068,0.5816326530612245,0.5952380952380952,0.6054421768707483,0.6428571428571429,0.6530612244897959,0.6768707482993197,0.6938775510204082,0.6972789115646258,0.7040816326530612,0.7040816326530612,0.7040816326530612,0.7040816326530612,0.7040816326530612,0.7006802721088435,0.6972789115646258,0.6972789115646258,0.6938775510204082,0.6768707482993197,0.6564625850340136,0.5986394557823129,0.5748299319727891,0.564625850340136,0.5136054421768708,0.48639455782312924,0.46258503401360546,0.4523809523809524,0.4217687074829932,0.41156462585034015,0.40816326530612246,0.40476190476190477,0.4013605442176871,0.3979591836734694,0.3979591836734694,0.3979591836734694,0.391156462585034,0.391156462585034,0.3877551020408163,0.3401360544217687,0.30952380952380953,0.2789115646258503,0.24149659863945577,0.22108843537414966,0.2108843537414966,0.2108843537414966,0.2108843537414966,0.2108843537414966,0.2108843537414966,0.2108843537414966,0.21768707482993196,0.21768707482993196,0.22448979591836735,0.22789115646258504,0.22789115646258504,0.23469387755102042,0.23809523809523808,0.24489795918367346,0.2585034013605442,0.2653061224489796,0.272108843537415,0.2755102040816326,0.2891156462585034,0.29591836734693877,0.29931972789115646,0.30272108843537415,0.30272108843537415,0.30952380952380953,0.30952380952380953,0.30952380952380953,0.30952380952380953,0.3129251700680272,0.3129251700680272,0.3129251700680272,0.3129251700680272,0.3163265306122449,0.3163265306122449,0.3163265306122449,0.3163265306122449,0.3163265306122449,0.3163265306122449,0.3163265306122449,0.3163265306122449,0.3163265306122449,0.3163265306122449,0.3163265306122449,0.3163265306122449,0.3163265306122449,0.3163265306122449,0.3163265306122449,0.3163265306122449,0.3163265306122449,0.3129251700680272,0.3129251700680272,0.3129251700680272,0.3129251700680272,0.3129251700680272,0.3129251700680272,0.30952380952380953,0.30952380952380953,0.30952380952380953,0.30952380952380953,0.30952380952380953,0.30952380952380953,0.30612244897959184,0.30612244897959184,0.30612244897959184,0.30612244897959184,0.30612244897959184,0.30272108843537415,0.30272108843537415,0.30272108843537415,0.29931972789115646,0.29931972789115646,0.29931972789115646,0.29591836734693877,0.29591836734693877,0.29591836734693877,0.29591836734693877,0.2891156462585034,0.2891156462585034,0.272108843537415,0.24489795918367346,0.23809523809523808,0.23129251700680273,0.22789115646258504,0.22448979591836735,0.22448979591836735,0.22448979591836735,0.22448979591836735,0.22448979591836735,0.22448979591836735,0.22448979591836735,0.22448979591836735,0.22448979591836735,0.22448979591836735,0.22448979591836735,0.22789115646258504,0.22789115646258504,0.22789115646258504,0.23469387755102042,0.23809523809523808,0.23809523809523808,0.24489795918367346,0.2755102040816326,0.2925170068027211,0.30272108843537415,0.3401360544217687,0.3435374149659864,0.36394557823129253,0.38095238095238093,0.391156462585034,0.4013605442176871,0.41496598639455784,0.43197278911564624,0.4421768707482993,0.4523809523809524,0.46598639455782315,0.47619047619047616,0.47959183673469385,0.48299319727891155,0.48299319727891155,0.48639455782312924,0.48639455782312924,0.4897959183673469,0.5034013605442177,0.5068027210884354,0.5136054421768708,0.5204081632653061,0.5272108843537415,0.5272108843537415,0.5272108843537415,0.5272108843537415,0.5272108843537415,0.5272108843537415,0.5238095238095238,0.5136054421768708,0.45918367346938777,0.40476190476190477,0.37755102040816324,0.36394557823129253,0.36394557823129253,0.36394557823129253,0.36394557823129253,0.36394557823129253,0.36394557823129253,0.36394557823129253,0.36394557823129253,0.36394557823129253,0.3707482993197279,0.37755102040816324,0.40476190476190477,0.47959183673469385,0.5136054421768708,0.5476190476190477,0.5850340136054422,0.6020408163265306,0.6224489795918368,0.6224489795918368,0.6258503401360545,0.6258503401360545,0.6292517006802721,0.6326530612244898,0.6360544217687075,0.6394557823129252,0.6530612244897959,0.6598639455782312,0.6632653061224489,0.6666666666666666,0.673469387755102,0.6836734693877551,0.7006802721088435,0.7653061224489796,0.8197278911564626,0.8673469387755102,0.9013605442176871,0.9081632653061225,0.9081632653061225,0.9115646258503401,0.9115646258503401,0.9115646258503401,0.9115646258503401,0.9115646258503401,0.9217687074829932,0.9251700680272109,0.9387755102040817,0.9421768707482994,0.9489795918367347,0.9489795918367347,0.9489795918367347,0.9489795918367347,0.9489795918367347,0.9489795918367347,0.9523809523809523,0.9523809523809523,0.9591836734693877,0.9625850340136054,0.9625850340136054,0.9625850340136054,0.9659863945578231,0.9693877551020408,0.9693877551020408,0.9693877551020408,0.9693877551020408,0.9693877551020408,0.9693877551020408,0.9693877551020408,0.9693877551020408,0.9693877551020408,0.9693877551020408,0.9693877551020408,0.9693877551020408,0.9693877551020408,0.9693877551020408,0.9693877551020408,0.9693877551020408,0.9693877551020408,0.9693877551020408,0.9693877551020408,0.9693877551020408,0.9081632653061225,0.8129251700680272,0.7721088435374149,0.7074829931972789,0.6938775510204082,0.6462585034013606,0.5782312925170068,0.5238095238095238,0.4931972789115646,0.47619047619047616,0.4557823129251701,0.4421768707482993,0.41156462585034015,0.4013605442176871,0.3979591836734694,0.3945578231292517,0.41836734693877553,0.4421768707482993,0.46598639455782315,0.5170068027210885,0.5408163265306123,0.5680272108843537,0.6122448979591837,0.6462585034013606,0.6700680272108843,0.6904761904761905,0.7006802721088435,0.7244897959183674,0.7312925170068028,0.7346938775510204,0.7380952380952381,0.7380952380952381,0.7380952380952381,0.7380952380952381,0.7380952380952381,0.7380952380952381,0.7380952380952381,0.7380952380952381,0.7380952380952381,0.7380952380952381,0.7380952380952381,0.7380952380952381,0.7380952380952381,0.7380952380952381,0.7380952380952381,0.7380952380952381,0.7380952380952381,0.7380952380952381,0.7380952380952381,0.7380952380952381,0.7380952380952381,0.7380952380952381,0.7380952380952381,0.7380952380952381,0.7380952380952381,0.7380952380952381,0.7380952380952381,0.7380952380952381,0.7380952380952381,0.7380952380952381,0.7380952380952381,0.7380952380952381,0.7380952380952381,0.7380952380952381,0.7380952380952381,0.7380952380952381,0.7380952380952381,0.7380952380952381,0.7380952380952381,0.7380952380952381,0.7380952380952381,0.7380952380952381,0.7380952380952381,0.7380952380952381,0.7380952380952381,0.7380952380952381,0.7380952380952381,0.7380952380952381,0.7380952380952381,0.7380952380952381,0.7380952380952381,0.7380952380952381,0.7380952380952381,0.7346938775510204,0.7006802721088435,0.6802721088435374,0.6632653061224489,0.6360544217687075,0.6190476190476191,0.6020408163265306,0.5850340136054422,0.5680272108843537,0.5408163265306123,0.5272108843537415,0.5136054421768708,0.4965986394557823,0.47959183673469385,0.4523809523809524,0.4421768707482993,0.42517006802721086,0.4217687074829932,0.41836734693877553,0.40476190476190477,0.391156462585034,0.3877551020408163,0.3741496598639456,0.36394557823129253,0.35714285714285715,0.35714285714285715,0.35714285714285715,0.35714285714285715,0.35034013605442177,0.35034013605442177,0.3435374149659864,0.336734693877551,0.336734693877551,0.3333333333333333,0.32653061224489793,0.3231292517006803,0.3163265306122449,0.3163265306122449,0.3163265306122449,0.3163265306122449,0.3231292517006803,0.3945578231292517,0.46598639455782315,0.47278911564625853,0.54421768707483,0.5612244897959183,0.5714285714285714,0.5816326530612245,0.5850340136054422,0.5918367346938775,0.5952380952380952,0.6020408163265306,0.6054421768707483,0.608843537414966,0.6224489795918368,0.6292517006802721,0.6360544217687075,0.6632653061224489,0.6802721088435374,0.6904761904761905,0.7142857142857143,0.717687074829932,0.7312925170068028,0.7346938775510204,0.7380952380952381,0.7380952380952381,0.7380952380952381,0.7312925170068028,0.7244897959183674,0.6836734693877551,0.6020408163265306,0.5544217687074829,0.5306122448979592,0.5136054421768708,0.4897959183673469,0.47959183673469385,0.47278911564625853,0.46598639455782315,0.45918367346938777,0.45918367346938777,0.4557823129251701,0.4523809523809524,0.4523809523809524,0.4489795918367347,0.4421768707482993,0.43537414965986393,0.42517006802721086,0.4013605442176871,0.3979591836734694,0.3979591836734694,0.3979591836734694,0.40476190476190477,0.41836734693877553,0.4217687074829932,0.4387755102040816,0.445578231292517,0.45918367346938777,0.46598639455782315,0.47278911564625853,0.47959183673469385,0.47959183673469385,0.48639455782312924,0.4897959183673469,0.4897959183673469,0.4931972789115646,0.4931972789115646,0.4931972789115646,0.4931972789115646,0.4931972789115646,0.4931972789115646,0.4931972789115646,0.4931972789115646,0.48299319727891155,0.4557823129251701,0.43537414965986393,0.41156462585034015,0.3877551020408163,0.37755102040816324,0.3673469387755102,0.36394557823129253,0.35714285714285715,0.3469387755102041,0.3401360544217687,0.3231292517006803,0.30272108843537415,0.29591836734693877,0.2857142857142857,0.2653061224489796,0.24829931972789115,0.22108843537414966,0.20748299319727892,0.20068027210884354,0.19387755102040816,0.1870748299319728,0.1836734693877551,0.18027210884353742,0.18027210884353742,0.18027210884353742,0.18027210884353742,0.17346938775510204,0.17006802721088435,0.16666666666666666,0.16326530612244897,0.15306122448979592,0.15306122448979592,0.15306122448979592,0.15306122448979592,0.15306122448979592,0.15306122448979592,0.16666666666666666,0.21428571428571427,0.3741496598639456,0.43537414965986393,0.47959183673469385,0.5136054421768708,0.5476190476190477,0.5544217687074829,0.5782312925170068,0.5884353741496599,0.5952380952380952,0.6156462585034014,0.6258503401360545,0.6428571428571429,0.6564625850340136,0.6700680272108843,0.6768707482993197,0.7006802721088435,0.717687074829932,0.7517006802721088,0.7653061224489796,0.7789115646258503,0.8231292517006803,0.8537414965986394,0.8741496598639455,0.8979591836734694,0.9047619047619048,0.9217687074829932,0.9319727891156463,0.935374149659864,0.9421768707482994,0.9421768707482994,0.9421768707482994,0.9421768707482994,0.9421768707482994,0.9421768707482994,0.9421768707482994,0.9421768707482994,0.9421768707482994,0.9387755102040817,0.9387755102040817,0.9387755102040817,0.9387755102040817,0.935374149659864,0.935374149659864,0.9217687074829932,0.8945578231292517,0.8809523809523809,0.8741496598639455,0.8707482993197279,0.8707482993197279,0.8707482993197279,0.8707482993197279,0.8707482993197279,0.8707482993197279,0.8673469387755102,0.8673469387755102,0.8673469387755102,0.8673469387755102,0.8673469387755102,0.8775510204081632,0.8843537414965986,0.9421768707482994,0.9489795918367347,1.010204081632653,1.030612244897959,1.0374149659863945,1.0442176870748299,1.0510204081632653,1.054421768707483,1.054421768707483,1.0612244897959184,1.0714285714285714,1.0748299319727892,1.0918367346938775,1.0952380952380953,1.1054421768707483,1.1088435374149659,1.1122448979591837,1.1156462585034013,1.119047619047619,1.119047619047619,1.119047619047619,1.119047619047619,1.119047619047619,1.119047619047619,1.119047619047619,1.119047619047619,1.119047619047619,1.119047619047619,1.119047619047619,1.119047619047619,1.119047619047619,1.119047619047619,1.119047619047619,1.119047619047619,1.119047619047619,1.119047619047619,1.119047619047619,1.119047619047619,1.119047619047619,1.119047619047619,1.119047619047619,1.119047619047619,1.1054421768707483,1.0748299319727892,1.0170068027210883,0.95578231292517,0.9421768707482994,0.9013605442176871,0.8945578231292517,0.8469387755102041,0.8095238095238095,0.7448979591836735,0.6972789115646258,0.6700680272108843,0.6156462585034014,0.5612244897959183,0.5340136054421769,0.5204081632653061,0.5170068027210885,0.5068027210884354,0.4931972789115646,0.4489795918367347,0.41496598639455784,0.3979591836734694,0.35034013605442177,0.3231292517006803,0.282312925170068,0.24829931972789115,0.22108843537414966,0.19047619047619047,0.1598639455782313,0.11904761904761904,0.09863945578231292,0.0782312925170068,0.05782312925170068,0.03741496598639456,0.017006802721088437,0,-0.023809523809523808,-0.027210884353741496,-0.034013605442176874,-0.034013605442176874,-0.034013605442176874,-0.034013605442176874,-0.034013605442176874,-0.034013605442176874,-0.034013605442176874,-0.034013605442176874,-0.034013605442176874,-0.034013605442176874,-0.034013605442176874,-0.034013605442176874,-0.034013605442176874,-0.034013605442176874,-0.034013605442176874,-0.034013605442176874,-0.034013605442176874,-0.034013605442176874,-0.034013605442176874,-0.034013605442176874,-0.034013605442176874,-0.034013605442176874,-0.034013605442176874,-0.034013605442176874,-0.034013605442176874,-0.034013605442176874,-0.034013605442176874,-0.034013605442176874,-0.034013605442176874,-0.034013605442176874,-0.034013605442176874,-0.034013605442176874,-0.034013605442176874,-0.034013605442176874,-0.034013605442176874,-0.034013605442176874,-0.034013605442176874,-0.034013605442176874,-0.034013605442176874,-0.034013605442176874,-0.034013605442176874,-0.034013605442176874,-0.023809523809523808,0.017006802721088437,0.027210884353741496,0.030612244897959183,0.034013605442176874,0.03741496598639456,0.05782312925170068,0.09863945578231292,0.12585034013605442,0.15306122448979592,0.16666666666666666,0.17346938775510204,0.17687074829931973,0.17687074829931973,0.17687074829931973,0.17687074829931973,0.17687074829931973,0.17687074829931973,0.18027210884353742,0.18027210884353742,0.18027210884353742,0.1836734693877551,0.1870748299319728,0.1870748299319728,0.1870748299319728,0.1870748299319728,0.1870748299319728,0.1870748299319728,0.1836734693877551,0.1836734693877551,0.18027210884353742,0.18027210884353742,0.18027210884353742,0.18027210884353742,0.17687074829931973,0.17687074829931973,0.17687074829931973,0.17687074829931973,0.17687074829931973,0.17687074829931973,0.17687074829931973,0.17687074829931973,0.17687074829931973,0.18027210884353742,0.18027210884353742,0.18027210884353742,0.1836734693877551,0.19387755102040816,0.21428571428571427,0.23809523809523808,0.2891156462585034,0.29931972789115646,0.3163265306122449,0.3231292517006803,0.3231292517006803,0.3231292517006803,0.3231292517006803,0.3231292517006803,0.3231292517006803,0.3231292517006803,0.3231292517006803,0.3231292517006803,0.3231292517006803,0.3231292517006803,0.3231292517006803,0.3231292517006803,0.3231292517006803,0.3231292517006803,0.3231292517006803,0.3231292517006803,0.3231292517006803,0.3231292517006803,0.3231292517006803,0.3231292517006803,0.3231292517006803,0.3231292517006803,0.3231292517006803,0.3231292517006803,0.3231292517006803,0.3231292517006803,0.3231292517006803,0.3231292517006803,0.3231292517006803,0.3231292517006803,0.3231292517006803,0.3231292517006803,0.3231292517006803,0.3231292517006803,0.3231292517006803,0.3231292517006803,0.3231292517006803,0.3231292517006803,0.3231292517006803,0.3231292517006803,0.3231292517006803,0.3231292517006803,0.3231292517006803,0.3231292517006803,0.3231292517006803,0.3231292517006803,0.3231292517006803,0.3231292517006803,0.3231292517006803,0.3231292517006803,0.3231292517006803,0.3231292517006803,0.3231292517006803,0.3231292517006803,0.3231292517006803,0.3231292517006803,0.3231292517006803,0.3231292517006803,0.3231292517006803,0.3231292517006803,0.3231292517006803,0.3231292517006803,0.3231292517006803,0.3231292517006803,0.3231292517006803,0.3231292517006803,0.3231292517006803,0.3231292517006803,0.3231292517006803,0.3231292517006803,0.3231292517006803,0.3231292517006803,0.3231292517006803,0.3231292517006803,0.3231292517006803,0.3231292517006803,0.3231292517006803,0.3231292517006803,0.3231292517006803,0.3231292517006803,0.3231292517006803,0.3231292517006803,0.3231292517006803,0.3231292517006803,0.3231292517006803,0.3231292517006803,0.3231292517006803,0.3231292517006803,0.3231292517006803,0.3231292517006803,0.3231292517006803,0.3231292517006803,0.3231292517006803,0.3231292517006803,0.3231292517006803,0.3231292517006803,0.3231292517006803,0.3231292517006803,0.3231292517006803,0.3231292517006803,0.3231292517006803,0.3231292517006803,0.3231292517006803,0.3231292517006803,0.3231292517006803,0.3231292517006803,0.3231292517006803,0.3231292517006803,0.3231292517006803,0.3231292517006803,0.3231292517006803,0.3231292517006803,0.3231292517006803,0.3231292517006803,0.3231292517006803,0.3231292517006803,0.3231292517006803,0.3231292517006803,0.3231292517006803,0.3231292517006803,0.3231292517006803,0.3231292517006803,0.3231292517006803,0.3231292517006803,0.3231292517006803,0.3231292517006803,0.3231292517006803,0.3231292517006803,0.3231292517006803,0.3231292517006803,0.3231292517006803,0.3231292517006803,0.3231292517006803,0.3231292517006803,0.3231292517006803,0.3231292517006803,0.3231292517006803,0.3231292517006803,0.3231292517006803,0.3231292517006803,0.3231292517006803,0.3231292517006803,0.3231292517006803,0.3231292517006803,0.3231292517006803,0.3231292517006803,0.3231292517006803,0.3231292517006803,0.3231292517006803,0.3231292517006803,0.3231292517006803,0.3231292517006803,0.3231292517006803,0.3231292517006803,0.3231292517006803,0.3231292517006803,0.3231292517006803,0.3231292517006803,0.3231292517006803,0.3231292517006803,0.3231292517006803,0.3231292517006803,0.3231292517006803,0.3231292517006803,0.3231292517006803,0.3231292517006803,0.3231292517006803,0.3231292517006803,0.3231292517006803,0.3231292517006803,0.3231292517006803,0.3231292517006803,0.3231292517006803,0.3231292517006803,0.3231292517006803,0.3231292517006803,0.3231292517006803,0.3231292517006803,0.3231292517006803,0.3231292517006803,0.3231292517006803,0.3231292517006803,0.3231292517006803,0.3231292517006803,0.3231292517006803,0.3231292517006803,0.3231292517006803,0.3231292517006803,0.3231292517006803,0.3231292517006803,0.3231292517006803,0.3231292517006803,0.3231292517006803,0.3231292517006803,0.3231292517006803,0.3231292517006803,0.3231292517006803,0.3231292517006803,0.3231292517006803,0.3231292517006803,0.3231292517006803,0.3231292517006803,0.3231292517006803,0.3231292517006803,0.3231292517006803,0.3231292517006803,0.3231292517006803,0.3231292517006803,0.3231292517006803,0.3231292517006803,0.3231292517006803,0.3231292517006803,0.40816326530612246,0.564625850340136,0.6666666666666666,0.7448979591836735,0.7687074829931972,0.7721088435374149,0.7789115646258503,0.7789115646258503,0.7789115646258503,0.7755102040816326,0.7653061224489796,0.7551020408163265,0.7448979591836735,0.7346938775510204,0.7312925170068028,0.7278911564625851,0.7244897959183674,0.7244897959183674,0.7244897959183674,0.7244897959183674,0.7244897959183674,0.7244897959183674,0.7210884353741497,0.7210884353741497,0.717687074829932,0.717687074829932,0.717687074829932,0.717687074829932,0.717687074829932,0.717687074829932,0.717687074829932,0.717687074829932,0.717687074829932,0.717687074829932,0.717687074829932,0.717687074829932,0.717687074829932,0.717687074829932,0.717687074829932,0.717687074829932,0.717687074829932,0.717687074829932,0.717687074829932,0.717687074829932,0.717687074829932,0.717687074829932,0.717687074829932,0.717687074829932,0.717687074829932,0.7244897959183674,0.7312925170068028,0.7380952380952381,0.7414965986394558,0.7448979591836735,0.7517006802721088,0.7517006802721088,0.7551020408163265,0.7551020408163265,0.7585034013605442,0.7585034013605442,0.7585034013605442,0.7585034013605442,0.7585034013605442,0.7585034013605442,0.7585034013605442,0.7585034013605442,0.7585034013605442,0.7585034013605442,0.7585034013605442,0.7585034013605442,0.7585034013605442,0.7585034013605442,0.7585034013605442,0.7585034013605442,0.7585034013605442,0.7585034013605442,0.7585034013605442,0.7585034013605442,0.7585034013605442,0.7585034013605442,0.7585034013605442,0.7585034013605442,0.7585034013605442,0.7585034013605442,0.7585034013605442,0.7585034013605442,0.7585034013605442,0.7585034013605442,0.7585034013605442,0.7585034013605442,0.7585034013605442,0.7585034013605442,0.7585034013605442,0.7585034013605442,0.7585034013605442,0.7585034013605442,0.7585034013605442,0.7585034013605442,0.7585034013605442,0.7585034013605442,0.7585034013605442,0.7585034013605442,0.7585034013605442,0.7585034013605442,0.7585034013605442,0.7585034013605442,0.7585034013605442,0.7585034013605442,0.7585034013605442,0.7585034013605442,0.7585034013605442,0.7585034013605442,0.7585034013605442,0.7585034013605442,0.7585034013605442,0.7585034013605442,0.7585034013605442,0.7585034013605442,0.7585034013605442,0.7585034013605442,0.7585034013605442,0.7585034013605442,0.7585034013605442,0.7585034013605442,0.7585034013605442,0.7585034013605442,0.7585034013605442,0.7585034013605442,0.7585034013605442,0.7585034013605442,0.7585034013605442,0.7585034013605442,0.7585034013605442,0.7585034013605442,0.7585034013605442,0.7585034013605442,0.7585034013605442,0.7585034013605442,0.7585034013605442,0.7585034013605442,0.7585034013605442,0.7585034013605442,0.7585034013605442,0.7585034013605442,0.7585034013605442,0.7585034013605442,0.7585034013605442,0.7585034013605442,0.7585034013605442,0.7585034013605442,0.7585034013605442,0.7585034013605442,0.7585034013605442,0.7585034013605442,0.7585034013605442,0.7585034013605442,0.7585034013605442,0.7585034013605442,0.7585034013605442,0.7585034013605442,0.7585034013605442,0.7585034013605442,0.7585034013605442,0.7585034013605442,0.7585034013605442,0.7585034013605442,0.7585034013605442,0.7585034013605442,0.7585034013605442,0.7585034013605442,0.7585034013605442,0.7585034013605442,0.7585034013605442,0.7585034013605442,0.7585034013605442,0.7585034013605442,0.7585034013605442,0.7585034013605442,0.7585034013605442,0.7585034013605442,0.7585034013605442,0.7585034013605442,0.7585034013605442,0.7585034013605442,0.7585034013605442,0.7585034013605442,0.7585034013605442,0.7585034013605442,0.7585034013605442,0.7585034013605442,0.7585034013605442,0.7585034013605442,0.7585034013605442,0.7585034013605442,0.7585034013605442,0.7585034013605442,0.7585034013605442,0.7585034013605442,0.7585034013605442,0.7585034013605442,0.7585034013605442,0.7585034013605442,0.7585034013605442,0.7585034013605442,0.7585034013605442,0.7585034013605442,0.7585034013605442,0.7585034013605442,0.7585034013605442,0.7585034013605442,0.7585034013605442,0.7585034013605442,0.7585034013605442,0.7585034013605442,0.7585034013605442,0.7585034013605442,0.7585034013605442,0.7585034013605442,0.7585034013605442,0.7585034013605442,0.7585034013605442,0.7585034013605442,0.7585034013605442,0.7585034013605442,0.7585034013605442,0.7585034013605442,0.7585034013605442,0.7585034013605442,0.7585034013605442,0.7585034013605442,0.7585034013605442,0.7585034013605442,0.7585034013605442,0.7585034013605442,0.7585034013605442,0.7585034013605442,0.7585034013605442,0.7585034013605442,0.7585034013605442,0.7585034013605442,0.7585034013605442,0.7585034013605442,0.7585034013605442,0.7585034013605442,0.7585034013605442,0.7585034013605442,0.7585034013605442,0.7585034013605442,0.7585034013605442,0.7585034013605442,0.7585034013605442,0.7585034013605442,0.7585034013605442,0.7585034013605442,0.7585034013605442,0.7585034013605442,0.7585034013605442,0.7585034013605442,0.7585034013605442,0.7585034013605442,0.7585034013605442,0.7585034013605442,0.7585034013605442,0.7585034013605442,0.7585034013605442,0.7585034013605442,0.7585034013605442,0.7585034013605442,0.7585034013605442,0.7585034013605442,0.7585034013605442,0.7585034013605442,0.7585034013605442,0.7585034013605442,0.7585034013605442,0.7585034013605442,0.7585034013605442,0.7585034013605442,0.7585034013605442,0.7585034013605442,0.7585034013605442,0.7585034013605442,0.7585034013605442,0.7585034013605442,0.7585034013605442,0.7585034013605442,0.7585034013605442,0.7585034013605442,0.7585034013605442,0.7585034013605442,0.7585034013605442,0.7585034013605442,0.7585034013605442,0.7585034013605442,0.7585034013605442,0.7585034013605442,0.7585034013605442,0.7585034013605442,0.7585034013605442,0.7585034013605442,0.7585034013605442,0.7585034013605442,0.7585034013605442,0.7585034013605442,0.7585034013605442,0.7585034013605442,0.7585034013605442,0.7585034013605442,0.7585034013605442,0.7585034013605442,0.7585034013605442,0.7585034013605442,0.7585034013605442,0.7585034013605442,0.7585034013605442,0.7585034013605442,0.7585034013605442,0.7585034013605442,0.7585034013605442,0.7585034013605442,0.7585034013605442,0.7585034013605442,0.7585034013605442,0.7585034013605442,0.7585034013605442,0.7585034013605442,0.7585034013605442,0.7585034013605442,0.7585034013605442,0.7585034013605442,0.7585034013605442,0.7585034013605442,0.7585034013605442,0.7585034013605442,0.7585034013605442,0.7585034013605442,0.7585034013605442,0.7585034013605442,0.7585034013605442,0.7585034013605442,0.7585034013605442,0.7585034013605442,0.7585034013605442,0.7585034013605442,0.7585034013605442,0.7585034013605442,0.7585034013605442,0.7585034013605442,0.7585034013605442,0.7585034013605442,0.7585034013605442,0.7585034013605442,0.7585034013605442,0.7585034013605442,0.7585034013605442,0.7585034013605442,0.7585034013605442,0.7585034013605442,0.7585034013605442,0.7585034013605442,0.7585034013605442,0.7585034013605442,0.7585034013605442,0.7585034013605442,0.7585034013605442,0.7585034013605442,0.7585034013605442,0.7585034013605442,0.7585034013605442,0.7585034013605442,0.7585034013605442,0.7585034013605442,0.7585034013605442,0.7585034013605442,0.7585034013605442,0.7585034013605442,0.7585034013605442,0.7585034013605442,0.7585034013605442,0.7585034013605442,0.7585034013605442,0.7585034013605442,0.7585034013605442,0.7585034013605442,0.7585034013605442,0.7585034013605442,0.7585034013605442,0.7585034013605442,0.7585034013605442,0.7585034013605442,0.7585034013605442,0.7585034013605442,0.7585034013605442,0.7585034013605442,0.7585034013605442,0.7585034013605442,0.7585034013605442,0.7585034013605442,0.7585034013605442,0.7585034013605442,0.7585034013605442,0.7585034013605442