[{"success":true,"trial_type":"fullscreen","trial_index":0,"time_elapsed":27331,"internal_node_id":"0.0-0.0","protocol_sum":"","subject_identifier":132,"subject_sum":[58,218,146,242,139,76,237,163,133,98,235,240,71,198,255,5,64,13,76,87,35,82,161,20,46,237,254,246,125,33,230,98],"subject_pair":66,"STUDY_ID":"669a702db1122fc5150a13ce","PROLIFIC_PID":"65a5ba58381a45c10a471062","SESSION_ID":"669b2d7c3f38d13b0654a78a","practice_instructions":1,"leaderboard_instructions":1,"bonus":0,"reveal_word":false,"self_rating":"2","confidence":"87"},{"view_history":"[{\"page_index\":0,\"viewing_time\":21179.600000023842}]","rt":21180.100000023842,"trial_type":"instructions","trial_index":1,"time_elapsed":48512,"internal_node_id":"0.0-1.0","protocol_sum":"","subject_identifier":132,"subject_sum":[58,218,146,242,139,76,237,163,133,98,235,240,71,198,255,5,64,13,76,87,35,82,161,20,46,237,254,246,125,33,230,98],"subject_pair":66,"STUDY_ID":"669a702db1122fc5150a13ce","PROLIFIC_PID":"65a5ba58381a45c10a471062","SESSION_ID":"669b2d7c3f38d13b0654a78a","practice_instructions":1,"leaderboard_instructions":1,"bonus":0,"reveal_word":false,"self_rating":"2","confidence":"87"},{"view_history":"[{\"page_index\":0,\"viewing_time\":70457.5}]","rt":70457.69999998808,"trial_type":"instructions","trial_index":2,"time_elapsed":118971,"internal_node_id":"0.0-2.0-0.0","protocol_sum":"","subject_identifier":132,"subject_sum":[58,218,146,242,139,76,237,163,133,98,235,240,71,198,255,5,64,13,76,87,35,82,161,20,46,237,254,246,125,33,230,98],"subject_pair":66,"STUDY_ID":"669a702db1122fc5150a13ce","PROLIFIC_PID":"65a5ba58381a45c10a471062","SESSION_ID":"669b2d7c3f38d13b0654a78a","practice_instructions":1,"leaderboard_instructions":1,"bonus":0,"reveal_word":false,"self_rating":"2","confidence":"87"},{"rt":57551.89999997616,"responses":"{\"Q0\":\"... reveal the word with as <b>few letter guesses</b> as possible\"}","question_order":"[0]","trial_type":"survey-multi-choice","trial_index":3,"time_elapsed":176524,"internal_node_id":"0.0-2.0-1.0","protocol_sum":"","subject_identifier":132,"subject_sum":[58,218,146,242,139,76,237,163,133,98,235,240,71,198,255,5,64,13,76,87,35,82,161,20,46,237,254,246,125,33,230,98],"subject_pair":66,"correct":true,"test_part":"multichoice_nonpretend","STUDY_ID":"669a702db1122fc5150a13ce","PROLIFIC_PID":"65a5ba58381a45c10a471062","SESSION_ID":"669b2d7c3f38d13b0654a78a","practice_instructions":1,"leaderboard_instructions":1,"bonus":0,"reveal_word":false,"self_rating":"2","confidence":"87"},{"view_history":"[{\"page_index\":0,\"viewing_time\":37101.59999996424}]","rt":37101.69999998808,"trial_type":"instructions","trial_index":4,"time_elapsed":213627,"internal_node_id":"0.0-3.0","protocol_sum":"","subject_identifier":132,"subject_sum":[58,218,146,242,139,76,237,163,133,98,235,240,71,198,255,5,64,13,76,87,35,82,161,20,46,237,254,246,125,33,230,98],"subject_pair":66,"STUDY_ID":"669a702db1122fc5150a13ce","PROLIFIC_PID":"65a5ba58381a45c10a471062","SESSION_ID":"669b2d7c3f38d13b0654a78a","practice_instructions":1,"leaderboard_instructions":1,"bonus":0,"reveal_word":false,"self_rating":"2","confidence":"87"},{"word":"ZEBRA","click_log":{"letter":["","L","I","O","N","S","G","Z","E","B","R","A"],"t":[0,13015,15511.5,33261,37955.69999998808,39895.30000001192,72194.89999997616,89063.19999998808,90510.80000001192,92023.30000001192,94030.39999997616,95664.39999997616],"hit":[null,0,0,0,0,0,0,1,1,1,1,1],"asked":["","L","LI","LIO","LION","LIONS","LIONSG","LIONSGZ","LIONSGZE","LIONSGZEB","LIONSGZEBR","LIONSGZEBRA"],"word_state":["_____","_____","_____","_____","_____","_____","_____","Z____","ZE___","ZEB__","ZEBR_","ZEBRA"]},"hover_log":{"letter":["?","?","?","?","?","?","?","?","?","?","?","?","?","?","?","?","?","?","?","?","?","?","?","?","?","?","?","?","?","?","?","?","?","?","?","?","?","?","?","?","?","?","?","?","?","?","?","?","?","?","?","?","?","?","?","?","?","?","?","?","?","?","?","?","?","?","?","?","?","?","?","?","?","?","?","?","?","?","?","?","?","?","?","?","?","?","?","?","?","?","?","?","?","?","?","?","?","?","?","?","?","?","?","?","?","?","?","?","?","?","?","?","?","?","?","?","?","?","J","?","?","?","?","?","?","?","?","?","?","?","?","?","?","?","?","?","?","?","?","?","K","?","?","?","?","L","L","L","L","L","L","L","L","L","L","L","L","L","L","L","L","L","L","L","L","L","L","L","L","L","L","L","L","L","L","L","L","L","L","L","L","L","L","L","L","L","L","L","L","L","L","L","L","L","L","L","L","L","L","L","L","L","L","L","L","L","L","L","L","L","L","L","L","L","L","L","L","L","L","L","L","L","L","L","L","L","L","L","L","L","L","L","L","L","L","L","L","L","L","L","L","L","L","L","L","L","L","L","L","L","L","L","L","L","L","L","L","L","L","L","L","L","L","L","L","L","L","L","L","L","L","L","L","L","L","L","L","L","L","L","L","L","L","L","L","L","L","L","L","L","L","L","L","L","L","L","L","L","L","L","L","L","L","L","L","L","L","L","L","L","L","L","L","L","L","L","L","L","L","L","L","L","L","L","L","L","L","L","L","L","L","L","L","L","L","L","L","L","L","L","L","L","L","L","L","L","L","L","L","L","L","L","L","L","L","L","L","L","L","L","L","L","L","L","L","L","L","L","L","L","L","L","L","L","L","L","L","L","L","L","L","L","L","L","L","L","L","L","L","L","L","L","L","L","L","L","L","L","L","L","L","L","L","L","L","L","L","L","L","L","L","L","L","L","L","L","L","L","L","L","L","L","L","L","L","L","L","L","L","L","L","L","L","L","L","L","L","L","L","L","L","L","L","L","L","L","L","L","L","L","L","L","L","L","L","L","L","L","L","L","L","L","L","L","L","L","L","L","L","L","?","?","?","?","?","?","?","?","?","?","?","M","M","M","M","M","M","M","M","M","M","M","M","M","M","?","?","?","?","?","?","?","?","?","?","?","?","?","?","?","?","?","?","?","?","?","?","?","?","?","?","?","?","?","?","?","?","?","?","?","?","?","?","?","?","?","?","?","?","?","?","?","?","?","?","?","?","?","?","?","?","?","?","?","?","?","?","?","?","L","L","L","L","L","?","?","?","C","C","C","C","C","C","C","C","C","C","?","?","?","?","?","?","?","?","?","?","?","?","?","?","?","?","?","?","?","?","?","?","?","?","?","?","?","?","?","?","?","?","?","?","?","?","?","?","?","?","?","?","?","?","?","?","?","?","?","?","?","?","?","?","?","?","?","?","?","?","?","?","?","?","?","?","?","?","?","?","?","?","?","?","?","?","?","?","?","?","?","?","?","?","?","?","?","?","?","?","?","?","?","?","?","F","?","?","?","?","?","?","?","?","?","?","?","?","?","?","?","?","?","?","?","?","?","?","?","?","?","?","?","N","?","M","M","M","?","?","L","L","L","L","L","L","L","L","L","L","L","L","L","L","L","L","L","L","L","L","L","L","L","L","L","L","L","L","L","L","L","L","L","L","L","L","L","L","L","L","L","L","L","L","L","L","L","L","L","L","L","L","L","L","M","M","M","M","N","N","N","N","?","?","?","?","O","O","O","O","O","O","O","O","O","O","O","O","O","O","?","?","?","?","?","?","?","?","?","?","?","?","?","?","?","?","?","?","?","?","?","?","?","?","?","?","?","H","H","H","H","H","H","H","H","H","H","H","H","H","H","H","H","H","H","H","H","H","H","H","?","?","?","?","?","?","?","?","?","?","I","I","I","I","I","I","I","I","I","I","I","I","I","I","I","I","I","I","I","I","I","I","I","I","I","I","I","I","I","I","I","I","I","I","I","I","I","I","I","I","I","I","I","I","I","I","I","I","I","I","I","I","I","I","I","I","I","I","I","I","I","I","I","I","I","I","I","I","I","I","I","I","I","I","I","I","I","I","I","I","I","I","I","I","I","I","I","I","I","I","I","I","I","I","I","I","I","I","I","I","I","I","I","I","I","I","I","I","I","I","I","I","I","I","I","I","I","I","I","I","I","I","I","I","I","I","I","I","I","I","I","I","I","I","I","I","I","I","I","H","H","?","G","G","?","?","F","F","F","F","F","F","?","E","E","E","E","E","E","E","E","E","E","E","E","E","E","E","E","E","E","E","E","E","E","E","?","?","?","?","?","?","?","?","?","?","?","?","?","?","?","?","?","?","?","?","?","?","?","?","?","?","?","?","?","?","?","?","?","?","?","?","?","?","?","?","?","?","?","?","?","?","?","?","?","?","?","?","?","?","?","?","?","?","?","?","?","?","?","?","?","?","?","?","?","?","?","?","?","?","?","?","O","O","O","O","O","O","O","O","O","O","O","O","O","O","O","O","O","O","O","O","O","O","O","O","O","O","O","O","O","O","O","O","O","O","O","O","O","O","O","O","O","O","O","O","O","O","O","O","O","O","O","O","O","O","O","O","O","O","O","O","O","O","O","O","O","O","O","O","O","O","O","O","O","O","O","O","O","O","O","O","O","O","O","O","O","O","O","O","O","O","O","O","O","O","O","O","O","O","O","O","O","O","O","O","O","O","O","O","O","O","O","O","O","O","O","O","O","O","O","O","O","O","O","O","O","O","O","O","O","O","O","O","O","O","O","O","O","?","?","N","N","N","?","?","?","?","?","?","?","?","?","?","?","?","?","?","?","?","?","?","?","?","?","?","?","?","?","?","?","?","?","?","?","?","?","?","?","?","?","?","?","?","?","?","?","?","?","?","?","?","?","?","?","?","?","?","?","?","?","?","?","?","?","?","?","?","?","?","?","?","?","?","?","?","?","?","?","?","?","?","?","?","?","?","?","?","?","?","?","?","?","?","?","?","?","?","?","?","?","?","?","?","?","?","?","?","?","?","?","?","?","?","?","?","?","?","?","?","?","?","?","?","?","?","?","?","?","?","?","?","?","?","?","?","?","?","?","?","?","?","?","?","?","?","?","?","?","?","?","?","?","?","?","?","?","?","?","?","?","?","?","?","?","?","?","?","?","?","?","?","?","?","?","?","M","M","M","M","M","M","M","M","M","M","M","?","?","N","N","N","N","N","N","N","N","N","N","N","N","N","N","N","N","N","N","N","N","N","N","N","N","N","N","N","N","N","N","N","N","?","?","?","M","M","M","M","M","?","?","?","?","?","?","?","?","?","?","?","?","?","?","B","B","B","B","B","B","B","B","B","B","B","B","B","B","B","B","B","B","B","B","B","B","B","B","B","B","B","B","B","B","B","B","B","B","B","B","B","B","B","B","B","B","B","B","B","B","B","B","B","B","B","B","B","B","B","B","B","B","B","B","B","B","B","B","B","B","B","B","B","B","B","B","B","B","B","B","B","B","B","B","B","B","B","B","B","B","B","B","B","B","B","B","B","B","B","B","B","B","?","?","?","?","?","?","?","?","?","?","?","?","?","?","?","?","?","?","?","?","?","?","?","?","?","?","?","?","?","?","?","?","?","?","?","?","?","?","?","?","?","?","?","?","?","?","?","?","?","?","?","?","?","?","?","?","?","?","?","?","?","?","?","?","?","?","?","?","?","?","?","?","?","?","?","?","?","?","?","?","?","?","?","?","?","?","?","?","?","?","?","?","?","?","?","?","?","?","?","?","?","?","?","?","?","?","?","?","?","?","?","?","?","?","?","?","?","?","?","?","?","?","?","?","?","?","?","?","?","?","?","?","?","?","?","?","?","?","?","?","?","?","?","?","?","?","?","?","?","?","D","D","D","D","D","D","D","D","D","D","D","D","D","D","D","D","D","D","D","D","D","D","D","D","D","D","D","D","D","D","D","D","D","D","D","D","D","D","D","D","D","D","D","D","D","D","D","D","D","D","D","D","D","D","D","D","D","D","D","D","D","D","D","D","D","D","D","D","D","D","D","D","D","D","D","D","D","D","?","?","?","?","?","E","?","?","?","?","?","?","?","?","?","?","?","?","?","?","?","?","?","?","?","?","O","O","O","O","O","O","O","O","O","O","O","O","O","O","O","O","O","O","O","O","O","O","O","O","O","O","O","O","O","O","O","O","O","O","O","O","O","O","O","O","O","O","O","O","O","O","O","O","O","O","O","O","O","O","O","O","O","O","O","O","O","O","O","O","O","O","O","O","O","O","O","O","O","O","O","O","O","O","O","O","O","O","O","O","O","O","O","O","O","O","O","O","O","O","O","O","O","O","O","O","O","O","O","O","O","O","O","O","O","O","O","O","O","O","O","O","O","O","O","O","O","O","O","O","O","O","O","O","O","O","O","O","O","O","O","O","O","O","O","O","O","O","O","O","O","O","O","O","O","O","O","O","O","O","O","O","O","O","O","O","O","O","O","O","O","O","O","O","O","O","O","O","O","O","O","O","O","O","O","O","O","O","O","O","O","O","O","O","O","O","O","O","O","O","O","O","O","O","O","O","O","O","O","O","O","O","O","O","O","O","O","O","O","O","O","O","O","O","O","O","O","O","O","O","O","O","O","O","O","O","O","O","O","O","?","?","?","?","?","?","?","?","?","?","?","?","?","?","?","?","?","?","?","?","?","?","?","?","?","?","?","?","?","?","?","?","?","?","?","?","?","?","?","?","?","?","?","?","?","L","L","L","L","L","?","?","?","?","?","?","?","?","?","?","?","?","?","?","?","?","?","?","?","?","?","?","?","?","?","N","N","N","N","N","N","N","N","N","N","N","N","N","N","N","N","N","N","N","N","N","N","N","N","N","N","N","N","N","N","N","N","N","N","N","N","N","N","N","N","N","N","N","N","N","N","N","N","N","N","N","N","N","N","N","N","N","N","N","N","N","N","N","N","N","N","N","N","N","N","M","M","?","?","?","L","L","L","?","?","?","?","?","?","?","?","?","?","?","?","?","?","?","?","?","?","?","?","?","?","?","?","?","?","?","?","?","?","?","?","?","?","?","?","?","?","S","S","S","S","S","S","S","S","S","S","S","S","S","S","S","S","S","S","S","S","S","S","S","S","S","S","S","S","S","S","S","S","S","S","S","S","S","S","S","S","S","S","S","S","S","S","S","S","S","S","S","S","S","S","S","S","S","S","S","S","S","S","S","S","S","S","S","S","S","S","S","S","S","S","S","S","S","S","S","S","S","S","S","S","S","S","S","S","S","S","S","S","S","S","S","S","S","S","S","S","S","S","S","S","S","S","S","S","S","S","S","S","S","S","S","S","S","S","S","S","S","S","S","S","S","S","S","S","S","S","S","S","S","S","S","S","S","S","S","S","?","?","?","?","?","?","?","?","?","?","?","?","?","?","?","?","?","?","?","?","?","?","?","?","?","?","?","?","?","?","?","?","?","?","?","?","?","?","?","?","?","?","?","?","?","?","?","?","?","?","?","?","?","?","?","?","?","?","?","?","?","?","?","?","?","?","?","?","?","?","?","?","?","?","?","?","?","?","?","?","?","?","?","?","?","?","?","?","?","?","?","?","?","?","?","?","?","?","?","?","?","?","?","?","?","?","?","?","?","?","?","?","?","?","?","?","?","?","?","?","?","?","?","?","?","?","?","?","?","?","?","?","?","?","?","?","?","?","?","?","?","?","?","?","?","?","?","?","?","?","?","?","B","B","B","B","B","B","B","B","B","B","B","B","B","B","B","B","B","B","B","B","B","B","B","B","B","B","B","B","B","B","B","B","B","B","B","B","B","B","B","B","B","B","B","B","B","B","B","B","B","B","B","B","B","B","B","B","B","B","B","B","B","B","B","B","B","B","B","B","B","B","B","B","B","B","B","B","B","B","B","B","B","B","B","B","B","B","B","B","B","B","B","B","B","B","B","B","B","B","B","B","B","B","B","B","B","B","B","B","B","B","B","B","B","B","B","B","B","?","?","?","K","K","K","K","K","K","K","K","K","K","K","K","K","K","K","K","K","K","K","K","K","K","K","K","K","K","K","K","K","K","K","K","K","K","K","K","?","?","?","?","?","?","?","?","?","?","?","?","T","T","T","T","T","T","T","T","T","T","T","T","T","T","T","T","T","T","T","T","T","T","T","T","T","T","T","T","T","T","T","T","T","T","T","T","T","T","T","T","T","T","T","T","T","T","T","T","T","T","T","T","T","T","T","T","T","T","T","T","T","?","M","F","?","?","?","?","?","?","?","?","?","?","?","?","?","?","?","?","?","?","?","?","?","?","?","?","?","?","?","?","?","?","?","?","?","?","?","?","?","?","?","?","H","H","H","H","H","H","H","H","H","H","H","H","H","H","H","H","H","H","H","H","H","H","H","H","H","H","H","H","H","H","H","H","H","H","H","H","H","H","H","H","H","H","H","H","H","H","H","H","H","H","H","H","H","H","H","H","H","H","H","H","H","H","H","H","H","H","H","H","H","H","H","H","H","H","H","H","H","H","H","H","H","H","H","H","H","H","H","H","H","H","H","H","H","H","H","H","H","H","H","H","H","H","H","H","H","H","H","H","H","H","H","H","H","H","H","H","H","H","H","H","H","H","H","H","H","H","H","H","H","H","H","H","H","H","H","H","H","H","H","H","H","H","H","H","H","H","H","H","H","H","H","H","H","H","H","H","H","H","H","H","H","H","H","H","H","H","H","H","H","H","H","H","H","H","H","H","H","H","H","H","H","H","H","H","H","H","H","H","H","H","H","H","H","H","H","H","H","H","H","H","H","H","H","H","H","H","H","H","H","H","H","H","H","H","H","H","H","H","H","H","H","H","H","H","H","H","H","H","H","H","H","?","G","F","?","?","E","E","?","?","?","?","?","?","?","?","?","?","?","?","?","?","?","?","?","?","?","?","?","?","?","?","?","?","?","?","?","?","?","?","?","?","?","?","?","?","?","?","?","?","?","O","O","O","O","O","O","O","O","O","O","O","O","O","O","O","O","O","O","O","O","O","O","O","O","O","O","?","N","?","?","?","?","?","?","?","?","?","?","?","?","?","?","?","?","?","?","?","?","?","?","?","?","?","?","?","?","?","?","?","?","?","?","?","?","?","?","?","?","?","?","?","?","?","?","?","?","?","?","?","?","?","?","?","?","?","?","?","?","?","?","?","?","?","?","?","?","?","?","?","?","?","?","?","?","?","?","?","?","?","?","?","?","?","?","?","?","?","?","?","?","?","?","?","?","?","?","?","?","?","?","?","?","?","?","?","?","?","?","?","?","?","?","?","?","?","?","?","?","?","?","?","?","?","?","?","?","?","?","?","?","M","?","?","?","?","?","?","?","?","?","?","?","F","F","F","F","F","F","F","F","F","F","F","F","F","F","F","F","F","F","F","F","F","F","?","?","?","E","E","E","E","E","E","E","E","E","E","E","E","E","E","E","E","E","E","E","E","E","E","E","E","E","E","E","E","E","E","E","E","E","E","E","E","E","E","E","E","E","E","E","E","E","E","E","E","E","E","E","E","E","E","E","E","E","E","E","E","E","E","E","E","E","E","E","E","E","E","E","E","E","E","E","E","E","E","E","E","E","E","E","E","E","E","E","E","E","E","E","E","E","E","E","E","E","E","E","E","E","E","E","E","E","E","E","E","E","E","E","E","E","E","E","E","E","E","E","E","E","E","E","E","E","E","E","E","E","E","E","E","E","E","E","E","E","E","E","E","E","E","E","E","E","E","E","E","E","E","E","E","E","E","E","E","E","E","E","E","E","E","E","E","E","E","E","E","E","E","E","E","E","E","E","E","E","E","E","E","E","E","E","E","E","E","E","E","E","E","E","E","E","E","E","E","E","E","E","E","E","E","E","E","E","E","E","E","E","E","E","E","E","E","E","E","E","E","E","E","E","E","E","E","E","E","E","E","E","E","E","E","E","E","E","E","E","E","E","E","E","E","E","E","E","E","E","E","E","E","E","E","E","E","E","E","E","E","E","?","?","?","?","?","?","?","?","?","?","?","?","F","F","F","F","F","F","F","F","F","F","F","F","F","F","F","F","F","F","F","F","F","F","F","F","F","F","F","F","F","F","F","F","F","F","F","F","F","F","F","F","F","F","F","F","F","F","F","F","F","F","F","F","F","F","F","F","F","F","F","F","F","F","F","F","F","F","F","F","F","F","F","F","F","F","F","F","F","F","F","F","F","F","F","F","F","F","F","F","F","F","F","F","F","F","F","F","F","F","F","F","F","F","F","F","F","F","F","F","F","F","F","F","F","F","F","F","F","F","F","F","F","F","F","F","F","F","F","F","F","F","F","F","F","F","F","F","F","F","F","F","F","F","F","F","F","F","F","F","F","F","F","F","F","F","F","F","F","F","F","F","F","F","F","F","F","F","F","F","F","F","F","F","F","F","F","F","F","F","F","F","F","F","F","F","F","F","F","F","F","F","F","F","F","F","F","F","F","F","F","F","F","F","F","F","F","F","F","F","F","F","F","F","F","F","F","F","F","F","F","F","F","F","F","F","F","F","F","F","F","F","F","F","F","F","F","F","F","F","F","F","F","F","F","F","F","F","F","F","F","F","F","F","F","F","F","F","F","F","F","F","F","F","F","F","F","F","F","F","F","F","F","F","F","F","F","F","F","F","F","F","F","F","F","F","F","F","F","F","F","F","F","F","F","F","F","F","F","F","F","F","F","F","F","F","F","F","F","F","F","F","F","F","F","F","F","F","F","F","F","F","F","F","F","F","F","F","F","F","F","F","F","F","F","F","F","F","F","F","F","F","F","F","F","F","F","F","F","F","F","F","F","F","F","F","F","F","F","F","F","F","F","F","F","F","F","F","F","F","F","F","F","F","F","F","F","F","F","F","F","F","F","F","F","F","F","F","F","F","F","F","F","F","F","F","F","F","F","F","F","F","F","F","F","F","F","F","F","F","F","F","F","F","F","F","F","F","F","F","F","F","F","F","F","F","F","F","F","F","F","F","F","F","F","F","F","F","F","F","F","F","F","F","F","F","F","F","F","F","F","F","F","F","F","F","F","F","F","F","F","F","F","F","F","F","F","F","F","F","F","F","F","F","F","F","F","F","F","F","F","F","F","F","F","F","F","F","F","F","F","F","F","F","F","F","F","F","F","F","F","F","F","F","F","F","F","F","F","F","F","F","F","F","F","F","F","F","F","F","F","F","?","?","?","?","G","G","G","G","G","G","G","G","G","G","G","G","G","G","G","G","G","G","G","G","G","G","G","G","G","G","G","G","G","G","G","G","G","G","G","G","G","G","G","G","G","G","G","G","G","G","G","G","G","G","G","G","G","G","G","G","G","G","G","G","G","G","G","G","G","G","G","G","G","G","G","G","G","G","G","G","G","G","G","G","G","G","G","G","G","G","G","G","G","G","G","G","G","G","G","G","G","G","G","G","G","G","G","G","G","G","G","G","G","G","G","G","G","G","G","G","G","G","G","G","G","G","G","G","G","G","G","G","G","G","G","G","G","G","G","G","G","G","G","G","G","G","G","G","G","G","G","G","?","?","?","F","F","F","F","F","?","E","E","E","E","E","?","D","D","D","D","D","D","D","D","D","D","?","C","C","C","C","C","C","C","C","C","C","C","C","C","C","C","C","C","?","?","?","?","?","?","?","?","B","B","B","B","B","B","B","B","B","B","B","B","B","B","?","?","?","?","?","?","?","B","?","D","?","?","?","?","?","Q","Q","Q","Q","Q","Q","Q","Q","Q","Q","Q","Q","Q","Q","Q","Q","Q","Q","Q","Q","Q","Q","Q","Q","Q","Q","Q","Q","Q","Q","Q","Q","Q","Q","Q","Q","Q","Q","Q","Q","Q","Q","Q","Q","Q","Q","Q","Q","Q","Q","Q","Q","Q","Q","Q","Q","Q","Q","Q","Q","Q","Q","Q","Q","Q","Q","Q","Q","Q","Q","Q","Q","Q","Q","Q","Q","Q","Q","Q","Q","Q","Q","Q","Q","Q","Q","Q","Q","Q","Q","Q","Q","Q","Q","Q","Q","Q","Q","Q","Q","Q","Q","Q","Q","Q","Q","Q","Q","Q","Q","Q","Q","Q","Q","Q","Q","Q","Q","Q","Q","Q","Q","Q","Q","Q","Q","Q","Q","Q","Q","Q","Q","Q","Q","Q","Q","Q","Q","Q","Q","Q","Q","Q","Q","Q","Q","Q","Q","Q","Q","Q","Q","Q","Q","Q","Q","Q","Q","Q","Q","Q","Q","Q","Q","Q","Q","Q","Q","Q","Q","Q","Q","Q","Q","Q","Q","Q","Q","Q","Q","Q","Q","Q","Q","Q","Q","Q","Q","Q","Q","Q","Q","Q","Q","Q","Q","Q","Q","Q","Q","Q","Q","Q","Q","Q","Q","Q","Q","Q","Q","Q","Q","Q","Q","Q","Q","Q","Q","Q","Q","Q","Q","Q","Q","Q","Q","Q","Q","Q","Q","Q","Q","Q","Q","Q","Q","Q","Q","Q","Q","Q","Q","Q","Q","Q","Q","Q","Q","Q","Q","Q","Q","Q","Q","Q","Q","Q","Q","Q","Q","Q","Q","Q","Q","Q","Q","Q","Q","Q","Q","Q","Q","Q","Q","Q","Q","Q","Q","Q","Q","Q","Q","Q","Q","Q","Q","Q","Q","Q","Q","Q","Q","Q","Q","Q","Q","Q","Q","Q","Q","Q","Q","Q","Q","Q","Q","Q","Q","Q","Q","Q","Q","Q","Q","Q","Q","Q","Q","Q","Q","Q","Q","Q","Q","Q","Q","Q","Q","Q","Q","Q","Q","Q","Q","Q","Q","Q","Q","Q","Q","Q","Q","Q","Q","Q","Q","Q","Q","Q","Q","Q","Q","Q","Q","Q","Q","Q","Q","Q","Q","Q","Q","Q","Q","Q","Q","Q","Q","Q","Q","Q","Q","Q","Q","Q","Q","Q","Q","Q","Q","Q","Q","Q","Q","Q","Q","Q","Q","Q","Q","Q","Q","Q","Q","Q","Q","Q","Q","Q","Q","Q","Q","Q","Q","Q","Q","Q","Q","Q","Q","Q","Q","Q","Q","Q","Q","Q","Q","Q","Q","Q","Q","Q","Q","Q","Q","Q","Q","Q","Q","Q","Q","Q","Q","Q","Q","Q","Q","Q","Q","Q","Q","Q","Q","Q","Q","Q","Q","Q","Q","Q","Q","Q","Q","Q","Q","Q","Q","Q","Q","Q","Q","Q","Q","Q","Q","Q","Q","Q","Q","Q","Q","Q","Q","Q","Q","Q","Q","Q","Q","Q","Q","Q","Q","Q","Q","Q","Q","Q","Q","Q","Q","Q","Q","Q","Q","Q","Q","Q","Q","Q","Q","Q","Q","Q","Q","Q","Q","Q","Q","Q","Q","Q","Q","Q","Q","Q","Q","Q","Q","Q","Q","Q","Q","Q","Q","Q","Q","Q","Q","Q","Q","Q","Q","Q","Q","Q","Q","Q","Q","Q","Q","Q","Q","Q","Q","Q","Q","Q","Q","Q","Q","Q","Q","Q","Q","Q","Q","Q","Q","Q","Q","Q","Q","Q","Q","Q","Q","Q","Q","Q","Q","Q","Q","Q","Q","Q","Q","Q","Q","Q","Q","Q","Q","Q","Q","Q","Q","Q","Q","Q","Q","Q","Q","Q","Q","Q","Q","Q","Q","?","?","?","?","?","?","?","?","?","X","X","X","X","?","W","W","W","W","W","?","V","V","V","V","V","V","V","V","?","?","?","?","?","?","?","?","V","V","W","?","X","X","X","X","X","X","X","X","X","X","X","X","X","X","X","X","X","X","X","X","X","X","X","X","X","X","X","?","W","W","W","W","W","W","W","W","W","?","?","?","V","V","V","V","V","V","V","V","V","V","V","V","V","V","V","V","V","V","V","V","?","?","?","?","?","?","?","?","?","?","?","N","N","N","N","N","N","N","N","N","N","N","N","?","?","?","O","O","O","O","O","O","O","O","?","?","?","?","?","?","?","?","?","?","?","?","Y","Y","Y","Y","Y","Y","Y","?","?","?","?","Z","Z","Z","Z","Z","Z","Z","Z","Z","Z","Z","Z","Z","Z","Z","Z","Z","Z","Z","Z","Z","Z","Z","Z","Z","Z","Z","Z","Z","Z","Z","Z","Z","Z","Z","Z","Z","Z","Z","Z","Z","Z","Z","Z","Z","Z","Y","Y","?","?","?","?","?","?","?","O","O","O","O","O","O","?","?","?","?","?","?","?","?","?","?","?","?","?","?","?","?","?","E","E","E","E","E","E","E","E","E","E","E","E","E","E","E","E","E","E","E","E","E","E","E","E","E","E","E","E","E","E","E","E","E","E","E","E","E","E","E","E","E","E","E","E","E","E","E","E","E","E","E","E","E","E","E","E","E","E","E","E","E","E","E","E","E","E","?","?","?","?","?","?","?","?","?","C","C","?","?","?","?","?","B","B","B","B","B","B","B","B","B","B","B","B","B","B","B","B","B","B","B","B","B","B","B","B","B","B","B","B","B","B","B","B","B","B","B","B","B","B","B","B","B","B","B","B","B","B","B","B","B","B","B","B","B","B","B","B","B","B","B","B","B","B","B","B","C","C","?","?","?","?","?","?","?","N","N","N","N","N","N","N","N","?","?","?","O","O","O","O","O","O","O","O","O","?","P","P","P","P","P","P","P","P","?","?","?","?","Q","Q","Q","Q","Q","Q","Q","Q","Q","Q","Q","Q","Q","Q","?","?","?","?","R","R","R","R","R","R","R","R","R","R","R","R","R","R","R","R","R","R","R","R","R","R","R","R","R","R","R","R","R","R","R","R","R","R","R","R","R","R","R","R","R","R","R","R","R","R","R","?","?","?","?","D","D","D","D","D","?","C","C","C","C","C","C","C","C","C","C","?","?","B","B","B","B","B","B","B","B","B","B","?","?","?","?","?","A","A","A","A","A","A","A","A","A","A","A","A","A","A","A","A","A","A","A","A","A","A","A","A","A","A","A","A","A","A","A","A","A","A","A","A","A","A","A","A","A","A","A","A","A","A","A","A","A","A","A","A","A","A","A","A","A","A","A","A","A","A","A","A","A","A","A","A","A","A","A","A","A","A","A","A","A","A","A","A","A","A","A","A","A","A","A","A","A","A","A","A","A","A","A","A","A","A","A","A","A","A","A","A","A","A","A","A","A","A","A","A","A","A","A","A","A","A","A","A","A","A","A","A","A","A","A","A","A","A","A","A","A","A","A","A","A","A","A","A","A","A","A","A","A","A","A","A","A","A","A","A","A","A"],"t":[26,33,50,68,84,103,121,137,155,190,207,224,242,259,276,294,311,329,347,363,381,398,416,433,450,468,485,503,520,538,555,572,590,607,625,642,659,677,694,712,729,747,764,781,799,816,834,851,869,885,903,921,938,956,973,990,1008,1025,1042,1060,1077,1095,1112,1130,1147,1164,1182,1199,1217,1234,1252,1269,1286,1304,1321,1339,1356,1373,1391,1408,1426,1443,1460,1478,1495,1513,1530,1548,1565,1582,1600,1618,1635,1652,1669,1687,1704,1722,1739,1757,1774,1791,1809,1826,1844,1861,1878,1896,1913,1931,1948,1965,1983,2000,2018,2035,2053,2070,2090,2105,2123,2140,2158,2175,2192,2209,2228,2245,2262,2279,2296,2314,2332,2349,2366,2384,2402,2418,2436,2453,2472,2489,2506,2523,2541,2558,2575,2593,2610,2628,2645,2662,2680,2697,2715,2732,2749,2767,2784,2802,2819,2837,2854,2871,2889,2906,2923,2941,2958,2976,2993,3011,3028,3045,3063,3080,3098,3115,3132,3150,3167,3185,3202,3219,3237,3254,3272,3289,3306,3324,3342,3359,3376,3393,3411,3428,3446,3464,3480,3498,3516,3533,3550,3568,3585,3603,3620,3637,3655,3673,3690,3707,3724,3742,3759,3777,3794,3811,3829,3846,3864,3881,3899,3916,3933,3951,3968,3986,4003,4020,4038,4055,4073,4090,4107,4125,4142,4160,4177,4194,4212,4229,4247,4264,4282,4299,4316,4334,4351,4369,4386,4404,4421,4438,4456,4473,4491,4508,4526,4543,4561,4578,4595,4613,4630,4647,4665,4682,4700,4717,4734,4752,4769,4787,4804,4821,4839,4856,4874,4891,4909,4926,4943,4961,4978,4996,5013,5031,5048,5065,5083,5100,5118,5135,5153,5170,5187,5205,5222,5239,5257,5274,5292,5309,5326,5344,5362,5379,5396,5414,5431,5448,5466,5483,5501,5518,5535,5553,5571,5588,5605,5623,5640,5658,5675,5692,5710,5727,5745,5762,5779,5797,5814,5831,5849,5866,5884,5901,5919,5936,5954,5971,5988,6006,6023,6041,6059,6076,6093,6110,6128,6145,6162,6180,6197,6215,6232,6250,6267,6284,6302,6319,6337,6354,6371,6389,6406,6424,6441,6459,6476,6493,6511,6528,6546,6563,6581,6598,6615,6633,6650,6668,6685,6702,6720,6737,6755,6772,6789,6807,6824,6842,6859,6877,6894,6912,6929,6946,6964,6981,6998,7016,7033,7051,7068,7086,7103,7120,7138,7155,7173,7190,7208,7225,7242,7260,7277,7295,7312,7329,7347,7364,7382,7399,7417,7434,7451,7469,7486,7503,7521,7538,7556,7573,7591,7608,7626,7643,7660,7678,7695,7713,7730,7748,7765,7782,7800,7817,7834,7852,7870,7886,7904,7922,7939,7956,7974,7991,8009,8026,8043,8061,8078,8096,8113,8130,8148,8166,8183,8200,8218,8235,8253,8270,8287,8305,8322,8340,8357,8375,8392,8410,8427,8444,8462,8479,8497,8514,8531,8549,8566,8584,8601,8619,8636,8653,8671,8688,8705,8723,8741,8758,8775,8793,8810,8827,8845,8862,8880,8897,8914,8932,8949,8967,8984,9001,9019,9036,9054,9071,9089,9106,9124,9141,9158,9176,9193,9210,9228,9245,9262,9280,9298,9315,9332,9350,9367,9385,9402,9419,9437,9454,9472,9489,9506,9524,9541,9559,9576,9593,9611,9628,9646,9663,9681,9698,9715,9733,9750,9768,9785,9803,9820,9837,9856,9872,9890,9907,9925,9943,9960,9977,9994,10012,10029,10047,10064,10082,10099,10116,10134,10151,10169,10186,10203,10220,10238,10256,10273,10291,10307,10325,10342,10360,10377,10395,10412,10429,10447,10464,10482,10499,10517,10534,10551,10569,10586,10604,10621,10639,10656,10673,10691,10708,10725,10744,10761,10778,10795,10814,10831,10848,10865,10883,10900,10917,10935,10952,10970,10988,11004,11022,11039,11057,11074,11091,11109,11127,11144,11161,11179,11196,11214,11231,11248,11266,11283,11301,11318,11335,11353,11370,11388,11405,11422,11440,11458,11475,11492,11509,11527,11545,11562,11580,11597,11615,11632,11649,11666,11684,11701,11719,11736,11753,11771,11789,11806,11824,11840,11858,11875,11892,11910,11927,11945,11962,11980,11997,12014,12032,12050,12067,12085,12102,12119,12136,12154,12172,12189,12206,12224,12241,12259,12276,12293,12311,12328,12346,12363,12380,12398,12416,12433,12450,12467,12485,12503,12520,12537,12555,12572,12589,12607,12624,12641,12659,12676,12693,12711,12729,12746,12763,12781,12798,12816,12833,12850,12868,12885,12903,12920,12938,12955,12973,12990,13007,13026,13042,13060,13077,13094,13112,13129,13147,13164,13181,13199,13218,13234,13252,13269,13286,13304,13321,13338,13357,13374,13391,13408,13426,13443,13460,13478,13495,13513,13530,13547,13565,13583,13600,13617,13636,13652,13669,13687,13704,13722,13739,13757,13774,13791,13809,13826,13843,13861,13878,13896,13913,13931,13949,13965,13983,14000,14018,14035,14053,14070,14088,14105,14122,14140,14157,14175,14192,14209,14227,14245,14262,14279,14296,14314,14331,14349,14366,14384,14401,14418,14436,14453,14471,14488,14506,14523,14540,14558,14575,14593,14610,14627,14645,14662,14680,14697,14714,14732,14749,14767,14784,14801,14819,14837,14854,14871,14889,14906,14924,14941,14958,14976,14993,15010,15028,15045,15064,15080,15097,15115,15132,15150,15167,15185,15202,15219,15237,15254,15272,15289,15307,15324,15342,15358,15376,15393,15411,15428,15446,15463,15480,15498,15516,15533,15551,15568,15585,15603,15620,15637,15655,15672,15689,15707,15725,15742,15759,15777,15794,15811,15829,15847,15864,15881,15899,15916,15934,15951,15969,15986,16003,16020,16038,16055,16073,16090,16107,16126,16143,16160,16177,16195,16212,16230,16247,16264,16282,16299,16317,16334,16351,16369,16387,16404,16421,16438,16456,16473,16491,16508,16526,16543,16561,16578,16595,16613,16630,16648,16665,16682,16700,16717,16735,16752,16770,16787,16804,16822,16839,16857,16874,16891,16909,16926,16944,16961,16979,16996,17014,17031,17048,17066,17083,17100,17118,17138,17153,17170,17188,17205,17222,17240,17258,17275,17292,17310,17327,17345,17362,17379,17397,17415,17432,17449,17466,17484,17501,17519,17536,17554,17571,17588,17606,17623,17641,17658,17676,17693,17710,17729,17745,17763,17780,17798,17815,17832,17850,17867,17885,17902,17919,17936,17954,17972,17989,18007,18024,18042,18059,18076,18093,18111,18129,18146,18163,18180,18198,18215,18233,18250,18268,18285,18302,18320,18337,18355,18372,18389,18407,18424,18442,18459,18477,18494,18511,18529,18546,18563,18581,18599,18616,18633,18651,18668,18686,18703,18720,18738,18755,18773,18790,18808,18825,18843,18860,18877,18895,18912,18930,18947,18964,18982,18999,19017,19034,19052,19069,19086,19104,19121,19139,19156,19174,19191,19208,19226,19243,19261,19278,19295,19313,19331,19348,19365,19382,19400,19417,19435,19452,19469,19487,19504,19523,19539,19557,19574,19591,19609,19627,19644,19661,19678,19696,19714,19731,19749,19766,19783,19802,19818,19835,19853,19870,19888,19905,19922,19940,19957,19975,19992,20010,20027,20044,20062,20079,20097,20114,20131,20149,20166,20184,20201,20219,20236,20253,20271,20288,20305,20323,20341,20358,20375,20393,20410,20428,20445,20463,20480,20497,20515,20532,20549,20567,20584,20602,20619,20637,20654,20671,20689,20707,20724,20741,20759,20776,20793,20811,20828,20845,20863,20880,20898,20916,20933,20950,20968,20985,21002,21020,21038,21055,21072,21089,21107,21124,21142,21159,21177,21194,21211,21229,21246,21264,21281,21298,21316,21333,21351,21368,21386,21403,21420,21438,21455,21473,21490,21508,21525,21542,21560,21578,21595,21612,21630,21647,21665,21682,21699,21717,21734,21752,21769,21786,21803,21822,21839,21856,21874,21891,21909,21926,21943,21960,21978,21995,22013,22030,22048,22066,22082,22100,22117,22135,22152,22170,22187,22204,22221,22239,22256,22274,22291,22309,22327,22344,22361,22378,22396,22413,22431,22448,22466,22483,22500,22518,22535,22553,22570,22588,22605,22623,22640,22657,22675,22692,22710,22727,22744,22762,22779,22797,22814,22831,22849,22866,22884,22901,22919,22936,22954,22971,22988,23005,23023,23041,23058,23075,23093,23110,23128,23145,23162,23180,23197,23215,23232,23250,23267,23284,23302,23319,23337,23354,23371,23389,23406,23424,23441,23458,23476,23493,23511,23528,23545,23563,23580,23598,23615,23633,23650,23667,23685,23702,23720,23737,23755,23772,23790,23807,23824,23842,23859,23877,23894,23911,23929,23946,23963,23982,23999,24016,24033,24051,24068,24086,24103,24120,24138,24156,24172,24190,24208,24225,24243,24260,24277,24294,24312,24329,24347,24364,24382,24399,24417,24434,24451,24469,24486,24504,24521,24538,24557,24573,24591,24608,24626,24643,24661,24678,24695,24713,24730,24748,24765,24782,24801,24817,24835,24852,24870,24887,24905,24922,24939,24957,24974,24992,25009,25026,25044,25061,25079,25096,25114,25131,25148,25166,25183,25201,25218,25235,25253,25270,25287,25305,25323,25340,25358,25375,25392,25409,25427,25444,25462,25479,25497,25514,25531,25549,25566,25584,25601,25619,25636,25653,25671,25688,25706,25723,25741,25759,25776,25793,25810,25828,25845,25862,25880,25897,25915,25932,25950,25967,25985,26002,26019,26037,26054,26071,26089,26106,26124,26141,26160,26176,26193,26211,26228,26246,26263,26280,26298,26315,26333,26350,26368,26385,26402,26420,26437,26455,26472,26489,26507,26524,26542,26559,26576,26595,26611,26629,26646,26664,26681,26698,26716,26733,26751,26768,26786,26803,26821,26838,26855,26873,26890,26908,26925,26943,26960,26977,26995,27012,27031,27047,27064,27082,27099,27117,27134,27151,27169,27187,27204,27222,27238,27256,27274,27291,27309,27326,27343,27361,27378,27395,27413,27431,27448,27465,27483,27500,27518,27535,27552,27570,27588,27605,27622,27639,27657,27674,27692,27709,27726,27744,27762,27779,27796,27813,27831,27848,27865,27883,27900,27918,27935,27953,27970,27988,28005,28022,28040,28057,28075,28093,28110,28127,28145,28162,28179,28197,28214,28232,28250,28266,28284,28301,28319,28336,28353,28371,28389,28406,28423,28441,28458,28476,28493,28510,28528,28545,28563,28580,28597,28615,28633,28650,28667,28685,28702,28719,28737,28754,28772,28789,28807,28824,28841,28859,28876,28894,28911,28928,28946,28963,28981,28998,29016,29033,29051,29068,29086,29103,29120,29137,29155,29172,29190,29208,29225,29242,29259,29277,29294,29312,29329,29346,29364,29381,29399,29416,29434,29451,29468,29486,29503,29521,29539,29555,29573,29590,29608,29625,29642,29660,29678,29696,29712,29730,29747,29765,29782,29800,29817,29834,29852,29869,29886,29904,29922,29939,29956,29974,29991,30009,30026,30043,30061,30079,30096,30113,30130,30148,30165,30182,30200,30218,30235,30252,30270,30287,30304,30322,30339,30357,30374,30392,30409,30426,30444,30461,30479,30496,30513,30531,30548,30566,30583,30601,30618,30635,30653,30670,30688,30705,30722,30740,30758,30775,30792,30810,30827,30844,30862,30879,30897,30914,30932,30949,30967,30984,31001,31019,31036,31054,31071,31088,31106,31123,31141,31158,31176,31193,31210,31228,31245,31263,31280,31298,31315,31332,31350,31367,31385,31402,31419,31437,31455,31472,31489,31507,31524,31542,31559,31576,31594,31611,31629,31646,31663,31681,31699,31716,31733,31751,31769,31785,31803,31820,31838,31855,31872,31890,31907,31925,31942,31960,31977,31994,32012,32030,32047,32064,32081,32099,32116,32134,32151,32168,32186,32203,32221,32238,32255,32273,32291,32308,32325,32343,32360,32377,32395,32412,32430,32447,32464,32482,32499,32517,32534,32551,32569,32586,32604,32621,32639,32656,32674,32691,32708,32726,32743,32761,32778,32796,32813,32830,32848,32865,32883,32900,32918,32935,32953,32970,32987,33004,33022,33040,33057,33074,33092,33109,33126,33144,33161,33179,33196,33214,33231,33249,33266,33283,33301,33318,33336,33353,33370,33388,33405,33423,33440,33458,33475,33492,33510,33527,33545,33562,33579,33597,33614,33632,33650,33667,33684,33701,33719,33736,33754,33771,33789,33806,33823,33841,33858,33876,33893,33910,33928,33945,33963,33980,33997,34015,34032,34050,34067,34085,34102,34119,34137,34154,34172,34189,34207,34224,34242,34259,34276,34293,34311,34329,34346,34363,34381,34398,34415,34433,34450,34468,34485,34503,34520,34538,34556,34572,34590,34607,34625,34642,34660,34677,34694,34712,34729,34747,34764,34781,34799,34816,34834,34851,34868,34886,34903,34921,34938,34956,34973,34990,35008,35025,35043,35060,35078,35095,35112,35130,35147,35165,35182,35200,35217,35234,35252,35269,35287,35304,35322,35339,35356,35374,35391,35409,35426,35443,35461,35478,35496,35513,35530,35548,35565,35583,35600,35618,35635,35652,35670,35687,35705,35722,35739,35757,35774,35792,35809,35827,35844,35862,35879,35896,35914,35931,35949,35967,35984,36001,36018,36036,36053,36071,36088,36105,36123,36140,36158,36175,36193,36210,36228,36245,36262,36281,36298,36315,36332,36350,36367,36384,36402,36419,36437,36454,36471,36489,36506,36524,36541,36559,36576,36594,36611,36628,36645,36663,36681,36698,36716,36733,36751,36769,36785,36803,36820,36838,36855,36872,36889,36907,36925,36942,36959,36976,36995,37011,37029,37046,37064,37081,37098,37116,37134,37151,37169,37185,37203,37220,37238,37256,37273,37290,37308,37325,37342,37360,37377,37395,37412,37429,37447,37465,37482,37499,37517,37534,37551,37568,37586,37603,37621,37638,37656,37673,37691,37708,37726,37744,37760,37778,37795,37813,37830,37847,37865,37882,37900,37917,37934,37952,37970,37987,38004,38022,38039,38057,38074,38091,38109,38126,38144,38161,38178,38196,38213,38231,38248,38266,38283,38301,38318,38335,38353,38370,38388,38405,38422,38440,38457,38475,38492,38510,38528,38545,38562,38579,38597,38615,38632,38649,38667,38684,38701,38719,38736,38754,38772,38788,38806,38823,38841,38859,38876,38893,38910,38928,38945,38963,38980,38998,39015,39032,39050,39067,39085,39102,39120,39137,39154,39172,39189,39206,39224,39241,39259,39276,39294,39311,39329,39347,39363,39381,39398,39416,39433,39450,39468,39485,39502,39520,39537,39555,39574,39590,39607,39624,39642,39659,39677,39694,39712,39729,39746,39764,39781,39799,39816,39834,39851,39868,39886,39903,39921,39938,39956,39973,39990,40008,40025,40043,40060,40077,40095,40112,40130,40147,40164,40182,40199,40217,40234,40252,40269,40286,40304,40321,40339,40356,40373,40391,40409,40426,40443,40460,40478,40495,40513,40531,40548,40565,40583,40600,40617,40635,40653,40670,40687,40705,40722,40739,40757,40775,40792,40809,40827,40844,40861,40879,40896,40914,40931,40948,40966,40983,41001,41018,41036,41053,41070,41088,41105,41123,41140,41157,41175,41192,41210,41227,41245,41262,41279,41297,41314,41332,41349,41367,41384,41401,41419,41437,41454,41471,41488,41506,41523,41541,41558,41576,41593,41610,41628,41645,41663,41680,41698,41715,41732,41750,41767,41785,41802,41820,41838,41855,41872,41889,41907,41924,41942,41959,41976,41994,42011,42029,42046,42063,42081,42098,42116,42133,42151,42168,42185,42203,42220,42238,42255,42272,42290,42308,42325,42342,42360,42377,42395,42412,42430,42447,42464,42482,42499,42516,42534,42552,42569,42586,42604,42621,42638,42656,42673,42691,42708,42726,42744,42760,42778,42795,42813,42830,42847,42865,42882,42900,42918,42934,42952,42969,42987,43004,43022,43039,43056,43074,43091,43109,43126,43144,43161,43178,43196,43213,43231,43248,43265,43283,43301,43318,43335,43352,43370,43388,43405,43422,43440,43457,43474,43492,43509,43532,43549,43565,43583,43600,43619,43635,43653,43670,43687,43705,43723,43741,43757,43777,43792,43809,43828,43845,43862,43884,43904,43917,43933,43951,43966,43985,44001,44021,44039,44057,44072,44091,44107,44126,44142,44160,44176,44194,44211,44230,44248,44264,44282,44300,44317,44334,44352,44369,44389,44404,44422,44438,44456,44474,44490,44507,44527,44544,44560,44577,44596,44612,44630,44647,44665,44680,44702,44715,44733,44750,44768,44788,44802,44821,44838,44855,44872,44890,44909,44925,44942,44959,44977,44995,45012,45029,45046,45064,45081,45101,45116,45133,45151,45170,45186,45203,45220,45240,45255,45273,45290,45308,45326,45343,45362,45377,45395,45416,45435,45448,45465,45483,45499,45517,45534,45552,45569,45587,45604,45621,45639,45656,45674,45693,45711,45726,45743,45760,45778,45796,45813,45830,45847,45866,45882,45901,45917,45938,45952,45970,45987,46004,46023,46039,46058,46075,46093,46109,46126,46144,46165,46179,46196,46213,46232,46250,46266,46283,46303,46319,46337,46356,46371,46388,46406,46425,46442,46460,46476,46495,46513,46530,46546,46565,46581,46598,46615,46632,46648,46666,46680,46697,46715,46732,46750,46767,46784,46801,46819,46836,46854,46871,46889,46907,46924,46941,46959,46976,46994,47011,47028,47046,47064,47081,47098,47116,47133,47151,47168,47185,47203,47220,47238,47255,47272,47290,47307,47325,47342,47360,47377,47394,47411,47429,47446,47464,47481,47499,47516,47533,47551,47568,47586,47603,47620,47638,47656,47673,47690,47708,47725,47742,47760,47777,47795,47812,47829,47847,47864,47882,47899,47917,47934,47952,47969,47986,48004,48021,48038,48057,48073,48091,48108,48126,48143,48161,48178,48195,48213,48230,48248,48265,48283,48300,48317,48335,48352,48370,48387,48405,48422,48439,48457,48474,48492,48509,48527,48544,48562,48579,48597,48614,48631,48649,48666,48683,48701,48718,48736,48753,48771,48788,48805,48823,48840,48858,48875,48892,48910,48928,48945,48962,48979,48997,49015,49032,49049,49067,49084,49101,49119,49136,49154,49171,49189,49206,49223,49241,49258,49276,49293,49310,49328,49346,49362,49381,49398,49415,49432,49450,49467,49484,49502,49519,49537,49554,49572,49589,49608,49624,49641,49659,49676,49694,49711,49729,49746,49763,49780,49798,49815,49833,49850,49868,49885,49903,49920,49937,49955,49972,49990,50007,50025,50042,50060,50077,50094,50112,50129,50147,50164,50181,50199,50216,50234,50251,50269,50286,50304,50321,50338,50356,50373,50390,50408,50425,50443,50460,50478,50495,50512,50530,50547,50565,50582,50599,50618,50635,50652,50669,50686,50704,50721,50739,50756,50773,50791,50809,50826,50843,50861,50878,50896,50913,50930,50948,50965,50982,51000,51018,51035,51052,51070,51087,51105,51122,51139,51157,51174,51192,51209,51227,51244,51261,51279,51296,51314,51331,51348,51366,51383,51401,51418,51436,51453,51471,51488,51505,51523,51541,51558,51575,51592,51610,51627,51645,51662,51680,51697,51714,51732,51749,51767,51784,51801,51819,51836,51854,51871,51889,51906,51924,51941,51958,51975,51993,52011,52028,52045,52063,52081,52098,52115,52132,52150,52167,52185,52202,52220,52237,52254,52272,52289,52307,52324,52342,52359,52376,52394,52411,52429,52446,52464,52481,52498,52516,52533,52550,52568,52585,52603,52620,52638,52655,52673,52690,52708,52725,52742,52760,52777,52794,52812,52829,52847,52864,52881,52899,52917,52934,52951,52969,52986,53004,53021,53039,53056,53073,53091,53108,53125,53143,53161,53178,53196,53213,53230,53248,53265,53283,53300,53317,53335,53352,53370,53387,53404,53422,53439,53457,53474,53492,53509,53527,53544,53561,53579,53596,53614,53631,53648,53666,53683,53701,53718,53735,53753,53770,53787,53805,53823,53840,53858,53875,53892,53909,53927,53945,53962,53979,53997,54014,54032,54049,54066,54084,54102,54119,54136,54154,54171,54188,54206,54224,54240,54258,54275,54293,54310,54328,54345,54362,54380,54397,54415,54432,54450,54467,54484,54502,54519,54537,54554,54572,54589,54607,54624,54641,54659,54677,54693,54711,54728,54746,54763,54781,54798,54816,54833,54851,54868,54885,54903,54920,54937,54955,54972,54990,55007,55025,55042,55060,55077,55094,55112,55129,55147,55164,55182,55199,55216,55234,55251,55269,55286,55303,55321,55338,55356,55373,55390,55408,55425,55443,55460,55478,55495,55512,55530,55547,55565,55582,55599,55617,55634,55652,55669,55687,55704,55721,55739,55756,55774,55791,55809,55826,55843,55860,55878,55896,55913,55930,55948,55965,55982,56000,56018,56035,56053,56070,56088,56105,56122,56139,56157,56174,56192,56209,56227,56244,56261,56279,56296,56314,56331,56349,56366,56383,56401,56418,56436,56453,56471,56488,56506,56523,56540,56558,56575,56592,56610,56627,56645,56662,56679,56697,56714,56732,56749,56767,56784,56802,56819,56836,56854,56871,56889,56906,56924,56942,56959,56976,56993,57011,57028,57045,57063,57080,57098,57115,57133,57150,57167,57185,57202,57219,57237,57254,57272,57289,57307,57324,57342,57359,57377,57394,57412,57429,57446,57464,57481,57499,57516,57534,57551,57568,57586,57603,57620,57638,57655,57673,57690,57707,57725,57742,57760,57777,57794,57812,57829,57847,57864,57882,57899,57917,57934,57951,57969,57986,58003,58021,58038,58056,58073,58091,58108,58125,58143,58160,58178,58195,58213,58230,58248,58265,58282,58300,58317,58335,58352,58369,58387,58404,58422,58439,58456,58474,58491,58509,58526,58544,58561,58579,58596,58613,58631,58648,58666,58683,58701,58718,58735,58753,58770,58788,58805,58822,58840,58857,58875,58892,58909,58927,58944,58962,58979,58997,59014,59031,59049,59066,59084,59101,59119,59136,59154,59171,59188,59206,59223,59241,59258,59275,59293,59311,59328,59345,59362,59380,59397,59415,59432,59450,59467,59484,59502,59519,59537,59554,59572,59589,59607,59624,59641,59659,59676,59693,59711,59728,59746,59763,59781,59798,59815,59833,59850,59868,59885,59902,59920,59937,59955,59972,59990,60007,60025,60042,60059,60077,60094,60112,60129,60147,60164,60181,60199,60216,60234,60251,60268,60286,60303,60321,60338,60356,60373,60390,60408,60425,60443,60460,60478,60495,60512,60530,60547,60564,60582,60599,60617,60634,60652,60669,60686,60704,60721,60739,60756,60774,60791,60808,60826,60844,60861,60878,60895,60913,60931,60948,60966,60983,61000,61018,61035,61052,61070,61088,61105,61122,61139,61157,61174,61192,61209,61227,61244,61261,61279,61296,61314,61331,61349,61366,61384,61401,61418,61436,61453,61471,61488,61505,61523,61540,61558,61575,61592,61610,61627,61644,61662,61680,61697,61714,61732,61749,61767,61785,61802,61819,61837,61854,61872,61889,61906,61924,61941,61959,61976,61993,62011,62028,62045,62063,62080,62098,62115,62133,62150,62168,62186,62203,62220,62237,62255,62272,62290,62307,62324,62342,62359,62377,62394,62411,62429,62446,62464,62481,62498,62516,62533,62551,62568,62586,62603,62620,62638,62655,62673,62690,62708,62725,62742,62760,62777,62795,62812,62830,62847,62864,62882,62899,62917,62934,62951,62969,62986,63004,63021,63039,63056,63073,63091,63109,63126,63143,63160,63178,63195,63213,63230,63248,63265,63282,63300,63317,63335,63352,63370,63387,63405,63422,63439,63456,63474,63491,63509,63527,63544,63561,63579,63596,63613,63631,63648,63666,63683,63701,63718,63735,63753,63770,63788,63806,63822,63840,63857,63875,63892,63910,63927,63945,63962,63979,63997,64014,64032,64049,64066,64084,64101,64119,64136,64153,64171,64188,64206,64223,64240,64258,64276,64293,64310,64328,64345,64363,64380,64397,64415,64432,64450,64467,64485,64502,64519,64537,64554,64572,64589,64606,64624,64641,64659,64676,64693,64711,64728,64746,64763,64781,64798,64816,64833,64850,64868,64885,64903,64920,64937,64955,64972,64990,65008,65025,65042,65059,65077,65094,65112,65129,65147,65165,65181,65199,65216,65234,65251,65269,65286,65303,65321,65338,65356,65373,65391,65408,65426,65443,65460,65478,65495,65512,65530,65548,65565,65582,65600,65617,65634,65652,65669,65687,65704,65722,65739,65757,65774,65791,65809,65826,65844,65861,65878,65896,65913,65931,65948,65965,65983,66001,66018,66035,66053,66070,66087,66105,66122,66140,66157,66175,66192,66209,66227,66244,66262,66279,66297,66314,66331,66349,66366,66384,66401,66418,66436,66453,66471,66488,66505,66523,66541,66558,66575,66593,66610,66628,66645,66662,66680,66698,66715,66732,66750,66767,66785,66802,66819,66837,66854,66872,66889,66906,66924,66941,66958,66976,66993,67011,67028,67045,67063,67081,67098,67115,67133,67150,67168,67185,67202,67220,67237,67255,67272,67290,67307,67324,67342,67359,67377,67394,67411,67429,67446,67464,67481,67498,67516,67533,67551,67568,67586,67603,67621,67638,67655,67673,67690,67708,67725,67742,67760,67777,67795,67812,67830,67847,67864,67882,67899,67917,67934,67951,67969,67986,68004,68021,68039,68057,68073,68091,68108,68126,68143,68161,68178,68195,68213,68230,68248,68265,68283,68300,68318,68335,68353,68370,68387,68404,68422,68440,68457,68475,68492,68509,68526,68544,68561,68579,68596,68614,68631,68648,68666,68683,68701,68718,68736,68753,68770,68788,68805,68823,68840,68858,68875,68892,68910,68927,68945,68962,68980,68997,69014,69032,69049,69067,69084,69101,69119,69136,69154,69171,69189,69206,69223,69241,69258,69276,69293,69310,69328,69346,69363,69380,69398,69416,69432,69450,69468,69485,69502,69520,69537,69554,69572,69589,69607,69624,69641,69659,69676,69694,69711,69729,69746,69763,69781,69799,69816,69833,69851,69868,69885,69903,69920,69938,69955,69972,69990,70007,70025,70042,70060,70077,70094,70112,70130,70147,70164,70182,70199,70216,70234,70251,70269,70286,70303,70321,70338,70356,70373,70391,70409,70426,70443,70460,70478,70495,70513,70530,70548,70565,70582,70600,70617,70635,70652,70669,70687,70704,70722,70739,70756,70774,70791,70809,70826,70844,70862,70879,70896,70913,70931,70948,70966,70983,71001,71018,71036,71053,71070,71088,71105,71123,71140,71158,71175,71192,71210,71227,71245,71263,71280,71297,71314,71332,71349,71367,71384,71401,71419,71436,71454,71471,71489,71506,71523,71541,71558,71576,71593,71611,71628,71645,71663,71680,71698,71715,71732,71750,71767,71784,71802,71819,71837,71854,71872,71889,71906,71924,71941,71959,71976,71995,72011,72028,72046,72063,72081,72098,72116,72133,72150,72168,72185,72203,72220,72238,72255,72272,72290,72307,72325,72342,72359,72377,72395,72412,72429,72447,72464,72482,72499,72516,72534,72551,72569,72586,72603,72621,72638,72656,72673,72691,72708,72725,72743,72760,72778,72795,72813,72830,72848,72865,72882,72900,72917,72934,72952,72969,72987,73004,73022,73039,73056,73074,73091,73109,73126,73144,73161,73178,73196,73213,73231,73248,73266,73283,73300,73318,73335,73353,73370,73388,73405,73422,73440,73457,73475,73492,73509,73527,73544,73562,73579,73596,73614,73631,73649,73666,73684,73701,73719,73736,73753,73771,73788,73806,73823,73841,73859,73876,73893,73910,73928,73945,73963,73980,73998,74015,74032,74050,74068,74085,74102,74120,74137,74154,74172,74189,74206,74224,74242,74259,74276,74294,74311,74329,74346,74363,74381,74399,74416,74433,74450,74468,74486,74503,74520,74538,74556,74573,74590,74608,74625,74643,74660,74677,74694,74712,74730,74747,74764,74782,74799,74818,74834,74851,74869,74887,74904,74921,74938,74956,74974,74991,75008,75026,75043,75061,75078,75095,75113,75130,75147,75165,75182,75200,75218,75234,75252,75269,75287,75305,75322,75339,75356,75374,75391,75409,75426,75443,75462,75479,75496,75513,75531,75548,75565,75583,75600,75618,75635,75653,75670,75688,75705,75722,75740,75757,75775,75792,75809,75827,75844,75861,75879,75896,75914,75931,75949,75966,75984,76001,76019,76036,76053,76071,76088,76105,76123,76140,76158,76175,76193,76210,76228,76245,76262,76280,76297,76315,76332,76350,76367,76384,76402,76419,76437,76454,76471,76489,76506,76523,76541,76559,76576,76594,76611,76628,76646,76663,76680,76698,76715,76733,76750,76768,76785,76802,76820,76837,76855,76872,76890,76907,76925,76942,76959,76977,76994,77011,77029,77046,77064,77081,77099,77116,77133,77151,77168,77186,77203,77221,77238,77255,77273,77290,77308,77325,77342,77360,77378,77395,77412,77430,77447,77464,77482,77499,77517,77534,77552,77569,77586,77604,77621,77639,77656,77674,77691,77708,77726,77743,77761,77778,77796,77813,77830,77848,77865,77883,77900,77918,77935,77953,77970,77987,78005,78022,78039,78057,78074,78092,78109,78127,78144,78161,78179,78196,78214,78231,78249,78266,78283,78301,78318,78336,78353,78370,78388,78405,78423,78440,78458,78475,78492,78510,78527,78545,78562,78580,78597,78614,78632,78649,78667,78684,78702,78719,78736,78754,78771,78789,78806,78823,78841,78858,78876,78893,78911,78928,78946,78963,78980,78998,79015,79032,79050,79067,79085,79102,79120,79137,79155,79172,79189,79207,79224,79242,79259,79276,79294,79311,79329,79346,79364,79381,79398,79416,79433,79451,79468,79485,79503,79520,79538,79555,79573,79590,79608,79625,79642,79660,79677,79695,79712,79729,79747,79764,79782,79799,79816,79834,79852,79869,79886,79904,79921,79938,79956,79973,79991,80008,80026,80043,80061,80078,80096,80113,80130,80148,80165,80182,80200,80217,80235,80252,80270,80287,80304,80322,80339,80357,80375,80392,80409,80427,80444,80461,80479,80496,80514,80531,80548,80566,80583,80601,80618,80636,80653,80670,80688,80705,80723,80740,80758,80775,80792,80810,80827,80845,80862,80879,80897,80914,80932,80949,80967,80984,81001,81019,81036,81054,81071,81089,81106,81123,81141,81158,81175,81193,81210,81228,81245,81263,81280,81298,81315,81332,81350,81367,81385,81402,81420,81437,81455,81472,81489,81507,81524,81541,81559,81576,81594,81611,81629,81646,81664,81681,81698,81716,81733,81751,81768,81785,81803,81820,81838,81855,81873,81891,81907,81925,81942,81960,81977,81995,82012,82029,82047,82064,82082,82099,82117,82134,82151,82169,82186,82204,82221,82239,82256,82273,82291,82308,82325,82343,82360,82378,82395,82413,82431,82448,82465,82482,82500,82517,82535,82552,82570,82587,82604,82622,82639,82657,82674,82691,82709,82726,82744,82761,82778,82796,82813,82831,82848,82866,82883,82901,82918,82935,82953,82970,82988,83005,83023,83040,83057,83075,83092,83109,83127,83144,83162,83179,83197,83214,83231,83249,83267,83284,83301,83319,83336,83354,83371,83388,83406,83423,83441,83458,83475,83494,83510,83528,83545,83563,83580,83597,83615,83632,83650,83667,83684,83702,83720,83737,83754,83772,83789,83807,83824,83841,83859,83876,83894,83911,83929,83946,83963,83981,83998,84015,84033,84050,84068,84085,84103,84120,84137,84155,84172,84190,84207,84225,84242,84260,84277,84294,84312,84329,84347,84364,84381,84399,84417,84434,84451,84469,84486,84503,84521,84538,84556,84573,84590,84608,84625,84643,84660,84678,84695,84713,84730,84747,84765,84782,84800,84817,84834,84852,84870,84887,84904,84922,84939,84956,84974,84991,85009,85026,85044,85061,85079,85096,85113,85130,85148,85165,85183,85200,85218,85235,85253,85270,85287,85305,85322,85340,85357,85375,85392,85409,85427,85444,85462,85479,85497,85514,85531,85549,85566,85584,85601,85619,85636,85653,85671,85688,85706,85723,85741,85758,85775,85793,85810,85828,85845,85863,85880,85897,85915,85932,85950,85967,85985,86003,86020,86037,86054,86073,86090,86107,86124,86141,86160,86176,86194,86211,86229,86246,86263,86281,86298,86316,86333,86350,86368,86386,86403,86420,86438,86455,86473,86490,86507,86525,86542,86560,86577,86594,86612,86629,86647,86664,86681,86699,86716,86734,86751,86768,86786,86803,86821,86839,86856,86873,86891,86914,86932,86948,86966,86984,87002,87019,87036,87055,87071,87088,87106,87124,87140,87157,87175,87192,87211,87228,87245,87262,87280,87297,87314,87332,87349,87366,87385,87401,87418,87438,87453,87471,87488,87505,87523,87541,87558,87576,87594,87611,87628,87645,87662,87680,87701,87715,87733,87751,87769,87787,87808,87825,87850,87865,87891,87907,87923,87941,87959,87975,87992,88012,88028,88046,88063,88080,88099,88115,88134,88149,88168,88186,88202,88220,88239,88254,88271,88290,88308,88325,88343,88359,88378,88396,88411,88429,88447,88463,88481,88500,88515,88535,88550,88568,88586,88603,88621,88640,88655,88671,88689,88708,88723,88741,88758,88780,88794,88810,88828,88845,88864,88891,88915,88934,88950,88968,88985,89002,89019,89037,89054,89076,89092,89147,89161,89178,89195,89213,89230,89248,89266,89284,89299,89317,89334,89352,89371,89405,89419,89441,89458,89475,89485,89511,89527,89545,89561,89579,89596,89614,89631,89648,89665,89683,89701,89720,89737,89755,89770,89788,89806,89822,89840,89858,89875,89892,89909,89927,89946,89961,89979,89996,90015,90032,90045,90061,90079,90096,90113,90130,90148,90166,90183,90200,90218,90235,90252,90270,90287,90305,90322,90339,90357,90374,90392,90409,90427,90444,90462,90479,90496,90514,90531,90549,90566,90583,90601,90619,90636,90653,90671,90688,90705,90723,90740,90758,90775,90792,90810,90828,90845,90862,90880,90897,90915,90932,90949,90967,90984,91002,91019,91037,91054,91071,91089,91107,91124,91141,91159,91176,91193,91211,91229,91246,91263,91281,91298,91316,91333,91350,91368,91385,91403,91421,91438,91455,91472,91490,91507,91525,91542,91560,91577,91594,91612,91629,91646,91664,91681,91699,91716,91734,91751,91768,91786,91803,91821,91838,91855,91873,91890,91908,91925,91942,91960,91977,91995,92012,92030,92047,92064,92082,92099,92117,92134,92151,92170,92187,92204,92221,92239,92256,92274,92291,92309,92326,92343,92361,92378,92396,92413,92430,92448,92465,92483,92500,92518,92535,92553,92570,92588,92605,92623,92640,92657,92675,92692,92710,92727,92744,92762,92779,92797,92814,92831,92849,92866,92884,92901,92918,92936,92953,92971,92988,93006,93023,93041,93058,93076,93093,93110,93128,93145,93162,93180,93197,93215,93232,93250,93267,93285,93302,93319,93337,93355,93372,93389,93406,93424,93441,93459,93476,93493,93511,93528,93546,93563,93581,93598,93615,93632,93650,93668,93685,93702,93720,93737,93755,93772,93789,93807,93824,93842,93859,93876,93895,93911,93929,93946,93964,93981,93998,94016,94034,94051,94068,94085,94103,94120,94138,94155,94173,94190,94208,94225,94242,94260,94277,94295,94312,94329,94347,94365,94382,94400,94418,94434,94452,94469,94487,94504,94521,94539,94556,94574,94591,94609,94626,94643,94661,94678,94696,94713,94733,94748,94765,94783,94800,94818,94835,94853,94870,94888,94905,94922,94940,94957,94975,94992,95009,95026,95045,95062,95079,95097,95114,95131,95149,95166,95184,95201,95218,95236,95253,95271,95288,95305,95322,95340,95358,95375,95392,95410,95427,95445,95462,95480,95497,95514,95532,95549,95567,95584,95602,95619,95636,95654,95675,95689,95706,95724,95741,95758,95776,95794,95810,95828,95845,95863,95880,95898,95915,95932,95950,95967,95985,96002,96020,96037,96054,96072,96089,96107,96124,96142,96159,96177,96194,96211,96229,96246,96264,96281,96298,96316,96333,96351,96368,96385,96403,96420,96438,96455,96473,96491,96508,96525,96542,96560,96577,96594,96612,96630,96647,96664,96682,96699,96717,96734,96751,96769,96787,96804,96821,96838,96856,96873,96891,96908,96926,96943,96960,96978,96996,97013,97030,97048,97065,97084,97100,97117,97135,97152,97170,97187,97204,97222,97240,97257,97274,97291,97309,97326,97344,97361,97379,97396,97413,97431,97448,97466,97483,97501,97518,97536,97553,97570,97588,97605,97623,97640,97657,97676],"hit":[null],"x":[-1.751700680272109,-1.751700680272109,-1.751700680272109,-1.751700680272109,-1.751700680272109,-1.751700680272109,-1.751700680272109,-1.751700680272109,-1.751700680272109,-1.751700680272109,-1.751700680272109,-1.751700680272109,-1.751700680272109,-1.751700680272109,-1.751700680272109,-1.751700680272109,-1.751700680272109,-1.751700680272109,-1.751700680272109,-1.751700680272109,-1.751700680272109,-1.751700680272109,-1.751700680272109,-1.751700680272109,-1.751700680272109,-1.751700680272109,-1.751700680272109,-1.751700680272109,-1.751700680272109,-1.751700680272109,-1.751700680272109,-1.751700680272109,-1.751700680272109,-1.751700680272109,-1.751700680272109,-1.751700680272109,-1.751700680272109,-1.751700680272109,-1.751700680272109,-1.751700680272109,-1.751700680272109,-1.751700680272109,-1.751700680272109,-1.751700680272109,-1.751700680272109,-1.751700680272109,-1.751700680272109,-1.751700680272109,-1.751700680272109,-1.751700680272109,-1.751700680272109,-1.751700680272109,-1.751700680272109,-1.751700680272109,-1.751700680272109,-1.751700680272109,-1.751700680272109,-1.751700680272109,-1.751700680272109,-1.751700680272109,-1.751700680272109,-1.751700680272109,-1.751700680272109,-1.751700680272109,-1.751700680272109,-1.751700680272109,-1.751700680272109,-1.751700680272109,-1.751700680272109,-1.751700680272109,-1.751700680272109,-1.751700680272109,-1.751700680272109,-1.751700680272109,-1.751700680272109,-1.751700680272109,-1.751700680272109,-1.751700680272109,-1.751700680272109,-1.751700680272109,-1.751700680272109,-1.751700680272109,-1.751700680272109,-1.751700680272109,-1.751700680272109,-1.751700680272109,-1.751700680272109,-1.751700680272109,-1.751700680272109,-1.751700680272109,-1.751700680272109,-1.751700680272109,-1.751700680272109,-1.751700680272109,-1.751700680272109,-1.751700680272109,-1.751700680272109,-1.751700680272109,-1.751700680272109,-1.751700680272109,-1.751700680272109,-1.751700680272109,-1.751700680272109,-1.751700680272109,-1.751700680272109,-1.751700680272109,-1.751700680272109,-1.751700680272109,-1.751700680272109,-1.751700680272109,-1.751700680272109,-1.751700680272109,-1.751700680272109,-1.751700680272109,-1.751700680272109,-1.751700680272109,-1.751700680272109,-1.751700680272109,0.013605442176870748,0.017006802721088437,0.02040816326530612,0.023809523809523808,0.030612244897959183,0.03741496598639456,0.04081632653061224,0.047619047619047616,0.047619047619047616,0.05442176870748299,0.061224489795918366,0.06802721088435375,0.07142857142857142,0.0782312925170068,0.08503401360544217,0.09183673469387756,0.09863945578231292,0.10204081632653061,0.11564625850340136,0.1292517006802721,0.14625850340136054,0.16326530612244897,0.17346938775510204,0.19047619047619047,0.21428571428571427,0.22789115646258504,0.23809523809523808,0.24829931972789115,0.2585034013605442,0.272108843537415,0.2789115646258503,0.2857142857142857,0.2857142857142857,0.2857142857142857,0.2857142857142857,0.2857142857142857,0.2857142857142857,0.2857142857142857,0.2857142857142857,0.2857142857142857,0.2857142857142857,0.2857142857142857,0.2857142857142857,0.2857142857142857,0.2857142857142857,0.2857142857142857,0.2857142857142857,0.2857142857142857,0.2857142857142857,0.2857142857142857,0.2857142857142857,0.2857142857142857,0.2857142857142857,0.2857142857142857,0.2857142857142857,0.2857142857142857,0.2857142857142857,0.2857142857142857,0.2857142857142857,0.2857142857142857,0.2857142857142857,0.2857142857142857,0.2857142857142857,0.2857142857142857,0.2857142857142857,0.2857142857142857,0.2857142857142857,0.2857142857142857,0.2857142857142857,0.2857142857142857,0.2857142857142857,0.2857142857142857,0.2857142857142857,0.2857142857142857,0.2857142857142857,0.2857142857142857,0.2857142857142857,0.2857142857142857,0.2857142857142857,0.2857142857142857,0.2857142857142857,0.2857142857142857,0.2857142857142857,0.2857142857142857,0.2857142857142857,0.2857142857142857,0.2857142857142857,0.2857142857142857,0.2857142857142857,0.2857142857142857,0.2857142857142857,0.2857142857142857,0.2857142857142857,0.2857142857142857,0.2857142857142857,0.2857142857142857,0.2857142857142857,0.2857142857142857,0.2857142857142857,0.2857142857142857,0.2857142857142857,0.2857142857142857,0.2857142857142857,0.2857142857142857,0.2857142857142857,0.2857142857142857,0.2857142857142857,0.2857142857142857,0.2857142857142857,0.2857142857142857,0.2857142857142857,0.2857142857142857,0.2857142857142857,0.2857142857142857,0.2857142857142857,0.2857142857142857,0.2857142857142857,0.2857142857142857,0.2857142857142857,0.2857142857142857,0.2857142857142857,0.2857142857142857,0.2857142857142857,0.2857142857142857,0.2857142857142857,0.2857142857142857,0.2857142857142857,0.2857142857142857,0.2857142857142857,0.2857142857142857,0.2857142857142857,0.2857142857142857,0.2857142857142857,0.2857142857142857,0.2857142857142857,0.2857142857142857,0.2857142857142857,0.2857142857142857,0.2857142857142857,0.2857142857142857,0.2857142857142857,0.2857142857142857,0.2857142857142857,0.2857142857142857,0.2857142857142857,0.2857142857142857,0.2857142857142857,0.2857142857142857,0.2857142857142857,0.2857142857142857,0.2857142857142857,0.2857142857142857,0.2857142857142857,0.2857142857142857,0.2857142857142857,0.2857142857142857,0.2857142857142857,0.2857142857142857,0.2857142857142857,0.2857142857142857,0.2857142857142857,0.2857142857142857,0.2857142857142857,0.2857142857142857,0.2857142857142857,0.2857142857142857,0.2857142857142857,0.2857142857142857,0.2857142857142857,0.2857142857142857,0.2857142857142857,0.2857142857142857,0.2857142857142857,0.2857142857142857,0.2857142857142857,0.2857142857142857,0.2857142857142857,0.2857142857142857,0.2857142857142857,0.2857142857142857,0.2857142857142857,0.2857142857142857,0.2857142857142857,0.2857142857142857,0.2857142857142857,0.2857142857142857,0.2857142857142857,0.2857142857142857,0.2857142857142857,0.2857142857142857,0.2857142857142857,0.2857142857142857,0.2857142857142857,0.2857142857142857,0.2857142857142857,0.2857142857142857,0.2857142857142857,0.2857142857142857,0.2857142857142857,0.2857142857142857,0.2857142857142857,0.2857142857142857,0.2857142857142857,0.2857142857142857,0.2857142857142857,0.2857142857142857,0.2857142857142857,0.2857142857142857,0.2857142857142857,0.2857142857142857,0.2857142857142857,0.2857142857142857,0.2857142857142857,0.2857142857142857,0.2857142857142857,0.2857142857142857,0.2857142857142857,0.2857142857142857,0.2857142857142857,0.2857142857142857,0.2857142857142857,0.2857142857142857,0.2857142857142857,0.2857142857142857,0.2857142857142857,0.2857142857142857,0.2857142857142857,0.2857142857142857,0.2857142857142857,0.2857142857142857,0.2857142857142857,0.2857142857142857,0.2857142857142857,0.2857142857142857,0.2857142857142857,0.2857142857142857,0.2857142857142857,0.2857142857142857,0.2857142857142857,0.2857142857142857,0.2857142857142857,0.2857142857142857,0.2857142857142857,0.2857142857142857,0.2857142857142857,0.2857142857142857,0.2857142857142857,0.2857142857142857,0.2857142857142857,0.2857142857142857,0.2857142857142857,0.2857142857142857,0.2857142857142857,0.2857142857142857,0.2857142857142857,0.2857142857142857,0.2857142857142857,0.2857142857142857,0.2857142857142857,0.2857142857142857,0.2857142857142857,0.2857142857142857,0.2857142857142857,0.2857142857142857,0.2857142857142857,0.2857142857142857,0.2857142857142857,0.2857142857142857,0.2857142857142857,0.2857142857142857,0.2857142857142857,0.2857142857142857,0.2857142857142857,0.2857142857142857,0.2857142857142857,0.2857142857142857,0.2857142857142857,0.2857142857142857,0.2857142857142857,0.2857142857142857,0.2857142857142857,0.2857142857142857,0.2857142857142857,0.2857142857142857,0.2857142857142857,0.2857142857142857,0.2857142857142857,0.2857142857142857,0.2857142857142857,0.2857142857142857,0.2857142857142857,0.2857142857142857,0.2857142857142857,0.2857142857142857,0.2857142857142857,0.2857142857142857,0.2857142857142857,0.2857142857142857,0.2857142857142857,0.2857142857142857,0.2857142857142857,0.2857142857142857,0.2857142857142857,0.2857142857142857,0.2857142857142857,0.2857142857142857,0.2857142857142857,0.2857142857142857,0.2857142857142857,0.2857142857142857,0.2857142857142857,0.2857142857142857,0.2857142857142857,0.2857142857142857,0.2857142857142857,0.2857142857142857,0.2857142857142857,0.2857142857142857,0.2857142857142857,0.2857142857142857,0.2857142857142857,0.2857142857142857,0.2857142857142857,0.2857142857142857,0.2857142857142857,0.2857142857142857,0.2857142857142857,0.2857142857142857,0.2857142857142857,0.2857142857142857,0.2857142857142857,0.2857142857142857,0.2857142857142857,0.2857142857142857,0.2857142857142857,0.2857142857142857,0.2857142857142857,0.2857142857142857,0.2857142857142857,0.2857142857142857,0.2857142857142857,0.2857142857142857,0.2857142857142857,0.2857142857142857,0.2857142857142857,0.2857142857142857,0.2925170068027211,0.29931972789115646,0.30612244897959184,0.3163265306122449,0.3231292517006803,0.3333333333333333,0.3401360544217687,0.3401360544217687,0.3469387755102041,0.35374149659863946,0.35714285714285715,0.36394557823129253,0.36394557823129253,0.3673469387755102,0.3707482993197279,0.3741496598639456,0.3741496598639456,0.37755102040816324,0.38095238095238093,0.38095238095238093,0.3843537414965986,0.3843537414965986,0.3877551020408163,0.3877551020408163,0.3877551020408163,0.3877551020408163,0.3877551020408163,0.3877551020408163,0.3843537414965986,0.37755102040816324,0.37755102040816324,0.3707482993197279,0.36054421768707484,0.35374149659863946,0.3435374149659864,0.3333333333333333,0.3231292517006803,0.30612244897959184,0.29591836734693877,0.282312925170068,0.272108843537415,0.2619047619047619,0.25170068027210885,0.24149659863945577,0.23809523809523808,0.23469387755102042,0.22789115646258504,0.22448979591836735,0.22108843537414966,0.22108843537414966,0.21768707482993196,0.21768707482993196,0.21428571428571427,0.21428571428571427,0.21428571428571427,0.21428571428571427,0.21428571428571427,0.21428571428571427,0.21428571428571427,0.21428571428571427,0.21428571428571427,0.21428571428571427,0.21428571428571427,0.21428571428571427,0.21428571428571427,0.21428571428571427,0.21428571428571427,0.21428571428571427,0.21428571428571427,0.21428571428571427,0.21428571428571427,0.21428571428571427,0.21428571428571427,0.21428571428571427,0.21428571428571427,0.21428571428571427,0.21428571428571427,0.21428571428571427,0.21428571428571427,0.21428571428571427,0.21428571428571427,0.21428571428571427,0.21428571428571427,0.21428571428571427,0.21428571428571427,0.21428571428571427,0.21428571428571427,0.21428571428571427,0.21428571428571427,0.21428571428571427,0.21428571428571427,0.21428571428571427,0.21768707482993196,0.22448979591836735,0.23129251700680273,0.23469387755102042,0.24149659863945577,0.24829931972789115,0.2619047619047619,0.2619047619047619,0.2687074829931973,0.2789115646258503,0.282312925170068,0.2857142857142857,0.2857142857142857,0.2891156462585034,0.2891156462585034,0.2925170068027211,0.2925170068027211,0.2925170068027211,0.29591836734693877,0.29591836734693877,0.29591836734693877,0.29591836734693877,0.29591836734693877,0.282312925170068,0.272108843537415,0.2687074829931973,0.2687074829931973,0.2653061224489796,0.2585034013605442,0.2585034013605442,0.2585034013605442,0.25510204081632654,0.25510204081632654,0.25510204081632654,0.25510204081632654,0.25510204081632654,0.25510204081632654,0.25510204081632654,0.25510204081632654,0.25510204081632654,0.25510204081632654,0.25510204081632654,0.25510204081632654,0.25510204081632654,0.25510204081632654,0.25510204081632654,0.25510204081632654,0.25510204081632654,0.25510204081632654,0.25510204081632654,0.25510204081632654,0.25510204081632654,0.25510204081632654,0.25510204081632654,0.25510204081632654,0.25510204081632654,0.25510204081632654,0.25510204081632654,0.25510204081632654,0.2619047619047619,0.272108843537415,0.2857142857142857,0.2891156462585034,0.29931972789115646,0.30952380952380953,0.3197278911564626,0.3333333333333333,0.3401360544217687,0.35034013605442177,0.35714285714285715,0.36394557823129253,0.3707482993197279,0.3741496598639456,0.37755102040816324,0.3843537414965986,0.3877551020408163,0.391156462585034,0.3945578231292517,0.3979591836734694,0.3979591836734694,0.4013605442176871,0.4013605442176871,0.40476190476190477,0.40816326530612246,0.41156462585034015,0.42517006802721086,0.43197278911564624,0.4523809523809524,0.47278911564625853,0.4897959183673469,0.5034013605442177,0.5068027210884354,0.5204081632653061,0.5272108843537415,0.5340136054421769,0.5374149659863946,0.5408163265306123,0.54421768707483,0.5476190476190477,0.5476190476190477,0.5510204081632653,0.5544217687074829,0.5578231292517006,0.5680272108843537,0.5748299319727891,0.5986394557823129,0.6224489795918368,0.6496598639455783,0.6768707482993197,0.6836734693877551,0.7074829931972789,0.7346938775510204,0.7653061224489796,0.7721088435374149,0.7721088435374149,0.7721088435374149,0.7721088435374149,0.7721088435374149,0.7721088435374149,0.7721088435374149,0.7721088435374149,0.7687074829931972,0.7687074829931972,0.7687074829931972,0.7687074829931972,0.7687074829931972,0.7687074829931972,0.7687074829931972,0.7687074829931972,0.7687074829931972,0.7687074829931972,0.7687074829931972,0.7687074829931972,0.7687074829931972,0.7687074829931972,0.7687074829931972,0.7687074829931972,0.7687074829931972,0.7687074829931972,0.7687074829931972,0.7687074829931972,0.7687074829931972,0.7380952380952381,0.6428571428571429,0.5340136054421769,0.5,0.4489795918367347,0.4217687074829932,0.3945578231292517,0.3673469387755102,0.36054421768707484,0.3435374149659864,0.3299319727891156,0.3163265306122449,0.30612244897959184,0.30272108843537415,0.29591836734693877,0.2891156462585034,0.2857142857142857,0.282312925170068,0.2789115646258503,0.2755102040816326,0.272108843537415,0.2687074829931973,0.2687074829931973,0.2653061224489796,0.2653061224489796,0.2619047619047619,0.2619047619047619,0.2619047619047619,0.2619047619047619,0.2619047619047619,0.2619047619047619,0.2619047619047619,0.2619047619047619,0.2619047619047619,0.2619047619047619,0.2619047619047619,0.2619047619047619,0.2619047619047619,0.2619047619047619,0.2619047619047619,0.2619047619047619,0.2619047619047619,0.2619047619047619,0.2619047619047619,0.2619047619047619,0.2619047619047619,0.2619047619047619,0.2619047619047619,0.2619047619047619,0.2619047619047619,0.2619047619047619,0.2619047619047619,0.2619047619047619,0.2619047619047619,0.2619047619047619,0.2619047619047619,0.2619047619047619,0.2619047619047619,0.2619047619047619,0.2619047619047619,0.282312925170068,0.3129251700680272,0.3401360544217687,0.3707482993197279,0.3877551020408163,0.4217687074829932,0.47959183673469385,0.54421768707483,0.5714285714285714,0.608843537414966,0.6258503401360545,0.6428571428571429,0.6496598639455783,0.6530612244897959,0.6564625850340136,0.6632653061224489,0.6666666666666666,0.6700680272108843,0.6700680272108843,0.673469387755102,0.673469387755102,0.6768707482993197,0.6802721088435374,0.6870748299319728,0.6972789115646258,0.7142857142857143,0.7244897959183674,0.7278911564625851,0.7380952380952381,0.7448979591836735,0.7517006802721088,0.7551020408163265,0.7653061224489796,0.7687074829931972,0.7789115646258503,0.7891156462585034,0.7925170068027211,0.8027210884353742,0.8197278911564626,0.8299319727891157,0.8401360544217688,0.8571428571428571,0.8707482993197279,0.8843537414965986,0.891156462585034,0.8945578231292517,0.9047619047619048,0.9115646258503401,0.9183673469387755,0.9217687074829932,0.9251700680272109,0.9319727891156463,0.9387755102040817,0.9421768707482994,0.9489795918367347,0.9523809523809523,0.9625850340136054,0.9693877551020408,0.9795918367346939,0.9829931972789115,0.9897959183673469,0.9965986394557823,1.0068027210884354,1.0136054421768708,1.0170068027210883,1.0238095238095237,1.0272108843537415,1.034013605442177,1.0374149659863945,1.0374149659863945,1.0408163265306123,1.0442176870748299,1.0476190476190477,1.0476190476190477,1.0510204081632653,1.0510204081632653,1.0578231292517006,1.0578231292517006,1.0578231292517006,1.0612244897959184,1.0612244897959184,1.064625850340136,1.064625850340136,1.0680272108843538,1.0714285714285714,1.0714285714285714,1.0748299319727892,1.0782312925170068,1.0816326530612246,1.0850340136054422,1.08843537414966,1.0918367346938775,1.0952380952380953,1.098639455782313,1.1020408163265305,1.1054421768707483,1.1088435374149659,1.1088435374149659,1.1122448979591837,1.1156462585034013,1.119047619047619,1.119047619047619,1.1224489795918366,1.1258503401360545,1.1258503401360545,1.1258503401360545,1.1258503401360545,1.1258503401360545,1.1258503401360545,1.1258503401360545,1.1258503401360545,1.1258503401360545,1.1258503401360545,1.1258503401360545,1.1258503401360545,1.1258503401360545,1.1258503401360545,1.1258503401360545,1.1258503401360545,1.1258503401360545,1.1258503401360545,1.1258503401360545,1.1258503401360545,1.1258503401360545,1.1258503401360545,1.1258503401360545,1.1258503401360545,1.1258503401360545,1.1258503401360545,1.1258503401360545,1.1258503401360545,1.1258503401360545,1.1258503401360545,1.1258503401360545,1.1258503401360545,1.1258503401360545,1.1258503401360545,1.1258503401360545,1.1258503401360545,1.1258503401360545,1.1258503401360545,1.1258503401360545,1.1258503401360545,1.1258503401360545,1.1258503401360545,1.1258503401360545,1.1258503401360545,1.1258503401360545,1.1258503401360545,1.1258503401360545,1.1258503401360545,1.1258503401360545,1.1258503401360545,1.1258503401360545,1.1258503401360545,1.1258503401360545,1.1258503401360545,1.1258503401360545,1.1258503401360545,1.1258503401360545,1.1258503401360545,1.1258503401360545,1.1258503401360545,1.1258503401360545,1.1258503401360545,1.1258503401360545,1.1258503401360545,1.1258503401360545,1.1258503401360545,1.1258503401360545,1.1258503401360545,1.1258503401360545,1.1258503401360545,1.1258503401360545,1.1258503401360545,1.1258503401360545,1.1258503401360545,1.1258503401360545,1.1258503401360545,1.1258503401360545,1.1258503401360545,1.1258503401360545,1.1258503401360545,1.1258503401360545,1.1258503401360545,1.1258503401360545,1.1258503401360545,1.1258503401360545,1.1258503401360545,1.1258503401360545,1.1258503401360545,1.1258503401360545,1.1258503401360545,1.1258503401360545,1.1258503401360545,1.1258503401360545,1.1258503401360545,1.1258503401360545,1.1258503401360545,1.1258503401360545,1.1258503401360545,1.1258503401360545,1.1258503401360545,1.1258503401360545,1.1258503401360545,1.1258503401360545,1.1258503401360545,1.1258503401360545,1.1258503401360545,1.1258503401360545,1.1258503401360545,1.1258503401360545,1.1258503401360545,1.1258503401360545,1.1258503401360545,1.1258503401360545,1.1258503401360545,1.1258503401360545,1.1258503401360545,1.1258503401360545,1.1258503401360545,1.1258503401360545,1.1258503401360545,1.1258503401360545,1.1258503401360545,1.1258503401360545,1.1258503401360545,1.0952380952380953,1.0374149659863945,0.9693877551020408,0.935374149659864,0.8775510204081632,0.826530612244898,0.7959183673469388,0.782312925170068,0.7585034013605442,0.7346938775510204,0.7142857142857143,0.6904761904761905,0.6802721088435374,0.6598639455782312,0.6394557823129252,0.6190476190476191,0.608843537414966,0.5952380952380952,0.5782312925170068,0.5680272108843537,0.5612244897959183,0.5578231292517006,0.5510204081632653,0.5476190476190477,0.54421768707483,0.54421768707483,0.5408163265306123,0.5408163265306123,0.5374149659863946,0.5374149659863946,0.5374149659863946,0.5374149659863946,0.5374149659863946,0.5374149659863946,0.5408163265306123,0.54421768707483,0.5476190476190477,0.5510204081632653,0.5510204081632653,0.5544217687074829,0.5578231292517006,0.5612244897959183,0.564625850340136,0.564625850340136,0.564625850340136,0.5680272108843537,0.5680272108843537,0.5714285714285714,0.5714285714285714,0.5714285714285714,0.5748299319727891,0.5748299319727891,0.5748299319727891,0.5748299319727891,0.5748299319727891,0.5782312925170068,0.5782312925170068,0.5782312925170068,0.5782312925170068,0.5782312925170068,0.5782312925170068,0.5782312925170068,0.5782312925170068,0.5782312925170068,0.5782312925170068,0.5782312925170068,0.5782312925170068,0.5782312925170068,0.5782312925170068,0.5782312925170068,0.5782312925170068,0.5782312925170068,0.5782312925170068,0.5782312925170068,0.5782312925170068,0.5782312925170068,0.5782312925170068,0.5782312925170068,0.5782312925170068,0.5782312925170068,0.5782312925170068,0.5782312925170068,0.5782312925170068,0.5782312925170068,0.5782312925170068,0.5782312925170068,0.5782312925170068,0.5782312925170068,0.5816326530612245,0.5816326530612245,0.5850340136054422,0.5850340136054422,0.5850340136054422,0.5884353741496599,0.5918367346938775,0.5952380952380952,0.5986394557823129,0.6020408163265306,0.6054421768707483,0.608843537414966,0.6156462585034014,0.6190476190476191,0.6224489795918368,0.6292517006802721,0.6326530612244898,0.6360544217687075,0.6394557823129252,0.6428571428571429,0.6462585034013606,0.6496598639455783,0.6530612244897959,0.6564625850340136,0.6564625850340136,0.6598639455782312,0.6632653061224489,0.6632653061224489,0.6700680272108843,0.6700680272108843,0.673469387755102,0.673469387755102,0.673469387755102,0.6768707482993197,0.6768707482993197,0.6802721088435374,0.6802721088435374,0.6802721088435374,0.6836734693877551,0.6836734693877551,0.6870748299319728,0.6870748299319728,0.6870748299319728,0.6870748299319728,0.6904761904761905,0.6904761904761905,0.6904761904761905,0.6904761904761905,0.6904761904761905,0.6904761904761905,0.6904761904761905,0.6904761904761905,0.6938775510204082,0.6938775510204082,0.6938775510204082,0.6938775510204082,0.6938775510204082,0.6938775510204082,0.6938775510204082,0.6972789115646258,0.6972789115646258,0.6972789115646258,0.6972789115646258,0.6972789115646258,0.6972789115646258,0.6972789115646258,0.6972789115646258,0.6972789115646258,0.6972789115646258,0.6972789115646258,0.6972789115646258,0.6972789115646258,0.6972789115646258,0.6972789115646258,0.7006802721088435,0.7006802721088435,0.7006802721088435,0.7006802721088435,0.7006802721088435,0.7006802721088435,0.7006802721088435,0.7006802721088435,0.7006802721088435,0.7006802721088435,0.7006802721088435,0.7006802721088435,0.7006802721088435,0.7006802721088435,0.7006802721088435,0.7006802721088435,0.7006802721088435,0.7006802721088435,0.7006802721088435,0.7006802721088435,0.7006802721088435,0.7006802721088435,0.7006802721088435,0.7006802721088435,0.7006802721088435,0.7006802721088435,0.7006802721088435,0.7006802721088435,0.7006802721088435,0.7006802721088435,0.7006802721088435,0.7006802721088435,0.7006802721088435,0.7006802721088435,0.7006802721088435,0.7006802721088435,0.7006802721088435,0.7006802721088435,0.7006802721088435,0.7006802721088435,0.7006802721088435,0.7006802721088435,0.7006802721088435,0.7006802721088435,0.7006802721088435,0.7006802721088435,0.7006802721088435,0.7006802721088435,0.7006802721088435,0.7006802721088435,0.7006802721088435,0.7006802721088435,0.7006802721088435,0.7006802721088435,0.7006802721088435,0.7006802721088435,0.7006802721088435,0.7006802721088435,0.7006802721088435,0.7006802721088435,0.7006802721088435,0.7006802721088435,0.7006802721088435,0.7006802721088435,0.7006802721088435,0.7006802721088435,0.7006802721088435,0.7006802721088435,0.7006802721088435,0.7006802721088435,0.7006802721088435,0.7006802721088435,0.7006802721088435,0.7006802721088435,0.7006802721088435,0.7006802721088435,0.7006802721088435,0.7006802721088435,0.7006802721088435,0.7006802721088435,0.7006802721088435,0.7006802721088435,0.7006802721088435,0.7006802721088435,0.7006802721088435,0.7006802721088435,0.6938775510204082,0.6768707482993197,0.6666666666666666,0.6428571428571429,0.6360544217687075,0.608843537414966,0.5816326530612245,0.5510204081632653,0.5306122448979592,0.5068027210884354,0.48299319727891155,0.46598639455782315,0.4523809523809524,0.4489795918367347,0.43197278911564624,0.4217687074829932,0.41156462585034015,0.40476190476190477,0.4013605442176871,0.3979591836734694,0.391156462585034,0.3877551020408163,0.3877551020408163,0.3843537414965986,0.38095238095238093,0.37755102040816324,0.37755102040816324,0.37755102040816324,0.3707482993197279,0.3707482993197279,0.3707482993197279,0.3707482993197279,0.3707482993197279,0.3707482993197279,0.3707482993197279,0.3707482993197279,0.3707482993197279,0.3707482993197279,0.3707482993197279,0.3707482993197279,0.3707482993197279,0.3707482993197279,0.3707482993197279,0.3707482993197279,0.3707482993197279,0.3707482993197279,0.3707482993197279,0.3707482993197279,0.3707482993197279,0.3707482993197279,0.3707482993197279,0.3707482993197279,0.3707482993197279,0.3707482993197279,0.3707482993197279,0.3707482993197279,0.3707482993197279,0.3707482993197279,0.3707482993197279,0.3707482993197279,0.3707482993197279,0.3707482993197279,0.3741496598639456,0.3741496598639456,0.3741496598639456,0.37755102040816324,0.37755102040816324,0.37755102040816324,0.37755102040816324,0.38095238095238093,0.38095238095238093,0.38095238095238093,0.3843537414965986,0.3843537414965986,0.3843537414965986,0.3877551020408163,0.3877551020408163,0.391156462585034,0.391156462585034,0.391156462585034,0.391156462585034,0.3945578231292517,0.3945578231292517,0.3945578231292517,0.3945578231292517,0.3945578231292517,0.3945578231292517,0.3945578231292517,0.3945578231292517,0.3979591836734694,0.3979591836734694,0.3979591836734694,0.3979591836734694,0.3979591836734694,0.3979591836734694,0.3979591836734694,0.3979591836734694,0.3979591836734694,0.3979591836734694,0.3979591836734694,0.3979591836734694,0.3979591836734694,0.3979591836734694,0.3979591836734694,0.3979591836734694,0.3979591836734694,0.3979591836734694,0.3979591836734694,0.3979591836734694,0.3979591836734694,0.3979591836734694,0.3979591836734694,0.3979591836734694,0.3979591836734694,0.3979591836734694,0.3979591836734694,0.3979591836734694,0.3979591836734694,0.3979591836734694,0.3979591836734694,0.3979591836734694,0.3979591836734694,0.3979591836734694,0.3979591836734694,0.3979591836734694,0.3979591836734694,0.3979591836734694,0.3979591836734694,0.3979591836734694,0.3979591836734694,0.3979591836734694,0.3979591836734694,0.3979591836734694,0.3979591836734694,0.3979591836734694,0.3979591836734694,0.3979591836734694,0.3979591836734694,0.3979591836734694,0.3979591836734694,0.3979591836734694,0.3979591836734694,0.3979591836734694,0.3979591836734694,0.3979591836734694,0.3979591836734694,0.3979591836734694,0.3979591836734694,0.3979591836734694,0.3979591836734694,0.3979591836734694,0.3979591836734694,0.3979591836734694,0.3979591836734694,0.3979591836734694,0.3979591836734694,0.3979591836734694,0.3979591836734694,0.3979591836734694,0.3979591836734694,0.3979591836734694,0.3979591836734694,0.3979591836734694,0.3979591836734694,0.3979591836734694,0.3979591836734694,0.3979591836734694,0.3979591836734694,0.3979591836734694,0.3979591836734694,0.3979591836734694,0.3979591836734694,0.3979591836734694,0.3979591836734694,0.3979591836734694,0.3979591836734694,0.3979591836734694,0.3979591836734694,0.3979591836734694,0.4013605442176871,0.4013605442176871,0.40476190476190477,0.40816326530612246,0.41156462585034015,0.41836734693877553,0.42517006802721086,0.43197278911564624,0.4387755102040816,0.4421768707482993,0.4523809523809524,0.46938775510204084,0.48639455782312924,0.5068027210884354,0.5204081632653061,0.5374149659863946,0.5544217687074829,0.564625850340136,0.5680272108843537,0.5748299319727891,0.5782312925170068,0.5850340136054422,0.5884353741496599,0.5884353741496599,0.5918367346938775,0.5952380952380952,0.5952380952380952,0.5952380952380952,0.5986394557823129,0.5986394557823129,0.5986394557823129,0.5986394557823129,0.5986394557823129,0.5986394557823129,0.5986394557823129,0.5986394557823129,0.5986394557823129,0.5986394557823129,0.5986394557823129,0.5986394557823129,0.5918367346938775,0.5884353741496599,0.5714285714285714,0.5578231292517006,0.5408163265306123,0.5238095238095238,0.5170068027210885,0.5,0.47959183673469385,0.4557823129251701,0.4489795918367347,0.42857142857142855,0.41156462585034015,0.391156462585034,0.3707482993197279,0.35714285714285715,0.336734693877551,0.3197278911564626,0.29591836734693877,0.2755102040816326,0.2687074829931973,0.24829931972789115,0.23129251700680273,0.21768707482993196,0.2108843537414966,0.20068027210884354,0.1836734693877551,0.17006802721088435,0.1564625850340136,0.15306122448979592,0.1360544217687075,0.1292517006802721,0.12244897959183673,0.11904761904761904,0.11564625850340136,0.10884353741496598,0.1054421768707483,0.1054421768707483,0.10204081632653061,0.10204081632653061,0.09863945578231292,0.09863945578231292,0.09863945578231292,0.09863945578231292,0.09863945578231292,0.09863945578231292,0.09863945578231292,0.09863945578231292,0.09863945578231292,0.09863945578231292,0.09863945578231292,0.09863945578231292,0.09863945578231292,0.09863945578231292,0.09863945578231292,0.09863945578231292,0.09863945578231292,0.09863945578231292,0.09863945578231292,0.09863945578231292,0.09863945578231292,0.09863945578231292,0.09863945578231292,0.09863945578231292,0.09863945578231292,0.09863945578231292,0.09863945578231292,0.09863945578231292,0.09863945578231292,0.09863945578231292,0.09863945578231292,0.09863945578231292,0.09863945578231292,0.09863945578231292,0.09863945578231292,0.09863945578231292,0.09863945578231292,0.09863945578231292,0.09863945578231292,0.09863945578231292,0.09863945578231292,0.09863945578231292,0.09863945578231292,0.09863945578231292,0.09863945578231292,0.09863945578231292,0.09863945578231292,0.09863945578231292,0.09863945578231292,0.09863945578231292,0.09863945578231292,0.09863945578231292,0.09863945578231292,0.09863945578231292,0.10204081632653061,0.10204081632653061,0.1054421768707483,0.1054421768707483,0.1054421768707483,0.11224489795918367,0.11224489795918367,0.11564625850340136,0.11564625850340136,0.11564625850340136,0.11904761904761904,0.11904761904761904,0.12244897959183673,0.12244897959183673,0.12244897959183673,0.12585034013605442,0.12585034013605442,0.12585034013605442,0.1292517006802721,0.1292517006802721,0.1326530612244898,0.1326530612244898,0.1326530612244898,0.1360544217687075,0.1360544217687075,0.13945578231292516,0.13945578231292516,0.13945578231292516,0.14285714285714285,0.14625850340136054,0.14965986394557823,0.14965986394557823,0.1598639455782313,0.17346938775510204,0.17687074829931973,0.1836734693877551,0.1836734693877551,0.1870748299319728,0.1870748299319728,0.19047619047619047,0.19047619047619047,0.19387755102040816,0.19387755102040816,0.19387755102040816,0.19387755102040816,0.19387755102040816,0.19387755102040816,0.19387755102040816,0.19387755102040816,0.19387755102040816,0.19387755102040816,0.19387755102040816,0.19387755102040816,0.19387755102040816,0.19387755102040816,0.19387755102040816,0.19387755102040816,0.19387755102040816,0.19387755102040816,0.19387755102040816,0.19387755102040816,0.19387755102040816,0.19387755102040816,0.19387755102040816,0.19387755102040816,0.19387755102040816,0.19387755102040816,0.19387755102040816,0.20748299319727892,0.22789115646258504,0.24829931972789115,0.272108843537415,0.2925170068027211,0.29931972789115646,0.3129251700680272,0.3231292517006803,0.3333333333333333,0.3401360544217687,0.35374149659863946,0.36394557823129253,0.3741496598639456,0.38095238095238093,0.3843537414965986,0.391156462585034,0.4013605442176871,0.40816326530612246,0.40816326530612246,0.41156462585034015,0.41496598639455784,0.41836734693877553,0.41836734693877553,0.41836734693877553,0.4217687074829932,0.4217687074829932,0.42517006802721086,0.42857142857142855,0.42857142857142855,0.43537414965986393,0.4421768707482993,0.4523809523809524,0.46938775510204084,0.47278911564625853,0.48639455782312924,0.4965986394557823,0.5034013605442177,0.5136054421768708,0.5204081632653061,0.5306122448979592,0.5340136054421769,0.5408163265306123,0.54421768707483,0.5476190476190477,0.5510204081632653,0.5510204081632653,0.5544217687074829,0.5544217687074829,0.5578231292517006,0.5612244897959183,0.5680272108843537,0.5714285714285714,0.5816326530612245,0.5952380952380952,0.6054421768707483,0.6122448979591837,0.6190476190476191,0.6258503401360545,0.6326530612244898,0.6360544217687075,0.6394557823129252,0.6428571428571429,0.6462585034013606,0.6496598639455783,0.6598639455782312,0.6632653061224489,0.673469387755102,0.6938775510204082,0.7210884353741497,0.7312925170068028,0.7585034013605442,0.7789115646258503,0.7959183673469388,0.8027210884353742,0.8095238095238095,0.8163265306122449,0.8197278911564626,0.8231292517006803,0.826530612244898,0.826530612244898,0.826530612244898,0.826530612244898,0.826530612244898,0.8231292517006803,0.8129251700680272,0.7993197278911565,0.7857142857142857,0.7789115646258503,0.7755102040816326,0.7721088435374149,0.7687074829931972,0.7619047619047619,0.7585034013605442,0.7585034013605442,0.7551020408163265,0.7517006802721088,0.7482993197278912,0.7482993197278912,0.7482993197278912,0.7448979591836735,0.7414965986394558,0.7312925170068028,0.7210884353741497,0.7006802721088435,0.6632653061224489,0.6190476190476191,0.6020408163265306,0.5680272108843537,0.5306122448979592,0.5068027210884354,0.4897959183673469,0.48639455782312924,0.47959183673469385,0.47619047619047616,0.46938775510204084,0.46598639455782315,0.46258503401360546,0.46258503401360546,0.46258503401360546,0.46258503401360546,0.46258503401360546,0.46258503401360546,0.46258503401360546,0.46258503401360546,0.46258503401360546,0.46258503401360546,0.46258503401360546,0.46258503401360546,0.46258503401360546,0.46258503401360546,0.46258503401360546,0.46258503401360546,0.46258503401360546,0.46258503401360546,0.46258503401360546,0.46258503401360546,0.46258503401360546,0.46258503401360546,0.46258503401360546,0.46258503401360546,0.46258503401360546,0.46258503401360546,0.46258503401360546,0.46258503401360546,0.46258503401360546,0.46258503401360546,0.46258503401360546,0.46258503401360546,0.46258503401360546,0.46258503401360546,0.46258503401360546,0.46258503401360546,0.46258503401360546,0.46258503401360546,0.46258503401360546,0.46258503401360546,0.46258503401360546,0.46258503401360546,0.46258503401360546,0.46258503401360546,0.46258503401360546,0.46258503401360546,0.46258503401360546,0.46258503401360546,0.46258503401360546,0.46258503401360546,0.46258503401360546,0.46258503401360546,0.46258503401360546,0.46258503401360546,0.46258503401360546,0.46258503401360546,0.46258503401360546,0.46258503401360546,0.46258503401360546,0.46258503401360546,0.46258503401360546,0.46258503401360546,0.46258503401360546,0.46258503401360546,0.46258503401360546,0.46258503401360546,0.46258503401360546,0.46258503401360546,0.46258503401360546,0.46258503401360546,0.46598639455782315,0.46938775510204084,0.46938775510204084,0.47278911564625853,0.47619047619047616,0.48299319727891155,0.4897959183673469,0.4931972789115646,0.5,0.5136054421768708,0.5238095238095238,0.5340136054421769,0.5476190476190477,0.5544217687074829,0.5714285714285714,0.5850340136054422,0.5986394557823129,0.6054421768707483,0.6156462585034014,0.6326530612244898,0.6394557823129252,0.6496598639455783,0.6530612244897959,0.6598639455782312,0.6666666666666666,0.673469387755102,0.6768707482993197,0.6802721088435374,0.6870748299319728,0.6904761904761905,0.7006802721088435,0.7006802721088435,0.7074829931972789,0.7108843537414966,0.7142857142857143,0.717687074829932,0.717687074829932,0.7210884353741497,0.7210884353741497,0.7244897959183674,0.7244897959183674,0.7244897959183674,0.7244897959183674,0.7244897959183674,0.7244897959183674,0.7244897959183674,0.7244897959183674,0.7244897959183674,0.7244897959183674,0.7244897959183674,0.7244897959183674,0.7244897959183674,0.7244897959183674,0.7244897959183674,0.7244897959183674,0.7244897959183674,0.7244897959183674,0.7244897959183674,0.7244897959183674,0.7244897959183674,0.7244897959183674,0.7244897959183674,0.7244897959183674,0.7244897959183674,0.7244897959183674,0.7244897959183674,0.7244897959183674,0.7244897959183674,0.7244897959183674,0.7244897959183674,0.7244897959183674,0.7244897959183674,0.7244897959183674,0.7244897959183674,0.7244897959183674,0.7244897959183674,0.7244897959183674,0.7244897959183674,0.7244897959183674,0.7244897959183674,0.7244897959183674,0.7244897959183674,0.7244897959183674,0.7244897959183674,0.7244897959183674,0.7244897959183674,0.7244897959183674,0.7244897959183674,0.7244897959183674,0.7244897959183674,0.7244897959183674,0.7244897959183674,0.7244897959183674,0.7244897959183674,0.7244897959183674,0.7244897959183674,0.7244897959183674,0.7244897959183674,0.7244897959183674,0.7244897959183674,0.7244897959183674,0.7244897959183674,0.7244897959183674,0.7244897959183674,0.7244897959183674,0.7244897959183674,0.7244897959183674,0.7244897959183674,0.7244897959183674,0.7244897959183674,0.7244897959183674,0.7244897959183674,0.7244897959183674,0.7244897959183674,0.7244897959183674,0.7244897959183674,0.7244897959183674,0.7244897959183674,0.7244897959183674,0.7244897959183674,0.7244897959183674,0.7244897959183674,0.7244897959183674,0.7244897959183674,0.7244897959183674,0.7244897959183674,0.7244897959183674,0.7244897959183674,0.7244897959183674,0.7244897959183674,0.7244897959183674,0.7244897959183674,0.7244897959183674,0.7244897959183674,0.7244897959183674,0.7244897959183674,0.7244897959183674,0.7244897959183674,0.7244897959183674,0.7244897959183674,0.7244897959183674,0.7244897959183674,0.7244897959183674,0.7244897959183674,0.7244897959183674,0.7244897959183674,0.7244897959183674,0.7244897959183674,0.7244897959183674,0.7244897959183674,0.7244897959183674,0.7244897959183674,0.7244897959183674,0.7244897959183674,0.7244897959183674,0.7244897959183674,0.7244897959183674,0.7244897959183674,0.7244897959183674,0.7244897959183674,0.7244897959183674,0.7244897959183674,0.7244897959183674,0.7244897959183674,0.7244897959183674,0.7244897959183674,0.7244897959183674,0.7244897959183674,0.7244897959183674,0.7244897959183674,0.7244897959183674,0.7244897959183674,0.7244897959183674,0.7244897959183674,0.7244897959183674,0.7244897959183674,0.7244897959183674,0.7244897959183674,0.7244897959183674,0.7244897959183674,0.7244897959183674,0.7244897959183674,0.7244897959183674,0.7244897959183674,0.7244897959183674,0.7244897959183674,0.7244897959183674,0.7244897959183674,0.7244897959183674,0.7244897959183674,0.7244897959183674,0.7244897959183674,0.7244897959183674,0.7244897959183674,0.7244897959183674,0.7244897959183674,0.7244897959183674,0.7244897959183674,0.7244897959183674,0.7244897959183674,0.7244897959183674,0.7244897959183674,0.7244897959183674,0.7244897959183674,0.7244897959183674,0.7244897959183674,0.7244897959183674,0.7244897959183674,0.7244897959183674,0.7244897959183674,0.7244897959183674,0.7244897959183674,0.7244897959183674,0.7244897959183674,0.7244897959183674,0.7244897959183674,0.7244897959183674,0.7244897959183674,0.7244897959183674,0.7244897959183674,0.7244897959183674,0.7244897959183674,0.7244897959183674,0.7244897959183674,0.7244897959183674,0.7244897959183674,0.7244897959183674,0.7244897959183674,0.7244897959183674,0.7244897959183674,0.7244897959183674,0.7244897959183674,0.7244897959183674,0.7244897959183674,0.7244897959183674,0.7244897959183674,0.7244897959183674,0.7244897959183674,0.7244897959183674,0.7244897959183674,0.7244897959183674,0.7244897959183674,0.7244897959183674,0.7244897959183674,0.7244897959183674,0.7244897959183674,0.7244897959183674,0.7244897959183674,0.7244897959183674,0.7244897959183674,0.7244897959183674,0.7244897959183674,0.7244897959183674,0.7244897959183674,0.7244897959183674,0.7244897959183674,0.7244897959183674,0.7244897959183674,0.7244897959183674,0.7244897959183674,0.7244897959183674,0.717687074829932,0.7108843537414966,0.6938775510204082,0.6768707482993197,0.6598639455782312,0.6496598639455783,0.6462585034013606,0.6360544217687075,0.6224489795918368,0.6156462585034014,0.608843537414966,0.6054421768707483,0.5986394557823129,0.5952380952380952,0.5884353741496599,0.5850340136054422,0.5782312925170068,0.5714285714285714,0.564625850340136,0.5612244897959183,0.5544217687074829,0.54421768707483,0.5306122448979592,0.5102040816326531,0.5,0.47619047619047616,0.4557823129251701,0.42517006802721086,0.41156462585034015,0.3741496598639456,0.3333333333333333,0.29931972789115646,0.2755102040816326,0.2619047619047619,0.24489795918367346,0.23469387755102042,0.22789115646258504,0.22108843537414966,0.21768707482993196,0.21428571428571427,0.2108843537414966,0.20748299319727892,0.20748299319727892,0.20408163265306123,0.20068027210884354,0.20068027210884354,0.20068027210884354,0.20068027210884354,0.20068027210884354,0.2108843537414966,0.23469387755102042,0.2619047619047619,0.2755102040816326,0.29591836734693877,0.3197278911564626,0.336734693877551,0.3435374149659864,0.36054421768707484,0.3741496598639456,0.3843537414965986,0.3945578231292517,0.4013605442176871,0.40816326530612246,0.41836734693877553,0.42517006802721086,0.42857142857142855,0.4387755102040816,0.445578231292517,0.4523809523809524,0.45918367346938777,0.46258503401360546,0.46938775510204084,0.47619047619047616,0.48299319727891155,0.4897959183673469,0.4931972789115646,0.5,0.506802721088435