[{"success":true,"trial_type":"fullscreen","trial_index":0,"time_elapsed":5259,"internal_node_id":"0.0-0.0","protocol_sum":"","subject_identifier":21,"subject_sum":[74,68,220,21,54,66,4,168,15,232,14,144,57,69,92,193,96,130,129,130,15,226,178,79,30,82,51,173,230,175,29,213],"subject_pair":10,"STUDY_ID":"669a58f4f17d67c0aba4c4d3","PROLIFIC_PID":"5589565cfdf99b6bd06016dc","SESSION_ID":"669a5eba8f75d5d46fa21d4a","practice_instructions":1,"leaderboard_instructions":0,"bonus":0,"reveal_word":true,"self_rating":"4","confidence":"18"},{"view_history":"[{\"page_index\":0,\"viewing_time\":4237.100000008941}]","rt":4237.5,"trial_type":"instructions","trial_index":1,"time_elapsed":9497,"internal_node_id":"0.0-1.0","protocol_sum":"","subject_identifier":21,"subject_sum":[74,68,220,21,54,66,4,168,15,232,14,144,57,69,92,193,96,130,129,130,15,226,178,79,30,82,51,173,230,175,29,213],"subject_pair":10,"STUDY_ID":"669a58f4f17d67c0aba4c4d3","PROLIFIC_PID":"5589565cfdf99b6bd06016dc","SESSION_ID":"669a5eba8f75d5d46fa21d4a","practice_instructions":1,"leaderboard_instructions":0,"bonus":0,"reveal_word":true,"self_rating":"4","confidence":"18"},{"view_history":"[{\"page_index\":0,\"viewing_time\":27391}]","rt":27391.29999999702,"trial_type":"instructions","trial_index":2,"time_elapsed":36889,"internal_node_id":"0.0-2.0-0.0","protocol_sum":"","subject_identifier":21,"subject_sum":[74,68,220,21,54,66,4,168,15,232,14,144,57,69,92,193,96,130,129,130,15,226,178,79,30,82,51,173,230,175,29,213],"subject_pair":10,"STUDY_ID":"669a58f4f17d67c0aba4c4d3","PROLIFIC_PID":"5589565cfdf99b6bd06016dc","SESSION_ID":"669a5eba8f75d5d46fa21d4a","practice_instructions":1,"leaderboard_instructions":0,"bonus":0,"reveal_word":true,"self_rating":"4","confidence":"18"},{"rt":7463.5,"responses":"{\"Q0\":\"... reveal the word with as <b>few letter guesses</b> as possible\"}","question_order":"[0]","trial_type":"survey-multi-choice","trial_index":3,"time_elapsed":44353,"internal_node_id":"0.0-2.0-1.0","protocol_sum":"","subject_identifier":21,"subject_sum":[74,68,220,21,54,66,4,168,15,232,14,144,57,69,92,193,96,130,129,130,15,226,178,79,30,82,51,173,230,175,29,213],"subject_pair":10,"correct":true,"test_part":"multichoice_nonpretend","STUDY_ID":"669a58f4f17d67c0aba4c4d3","PROLIFIC_PID":"5589565cfdf99b6bd06016dc","SESSION_ID":"669a5eba8f75d5d46fa21d4a","practice_instructions":1,"leaderboard_instructions":0,"bonus":0,"reveal_word":true,"self_rating":"4","confidence":"18"},{"view_history":"[{\"page_index\":0,\"viewing_time\":1878.5999999940395}]","rt":1878.7999999970198,"trial_type":"instructions","trial_index":4,"time_elapsed":46233,"internal_node_id":"0.0-3.0","protocol_sum":"","subject_identifier":21,"subject_sum":[74,68,220,21,54,66,4,168,15,232,14,144,57,69,92,193,96,130,129,130,15,226,178,79,30,82,51,173,230,175,29,213],"subject_pair":10,"STUDY_ID":"669a58f4f17d67c0aba4c4d3","PROLIFIC_PID":"5589565cfdf99b6bd06016dc","SESSION_ID":"669a5eba8f75d5d46fa21d4a","practice_instructions":1,"leaderboard_instructions":0,"bonus":0,"reveal_word":true,"self_rating":"4","confidence":"18"},{"word":"ZEBRA","click_log":{"letter":["","A","E","H","N","S","T","C","O","R","P","L","F","W","J","B","Z"],"t":[0,5883.79999999702,11011.40000000596,13571.29999999702,19853.10000000894,27355.5,28923.20000000298,31267.20000000298,32939.40000000596,34659.29999999702,38475.29999999702,40803.10000000894,42619.40000000596,45419.40000000596,47643.29999999702,49459.40000000596,51307.20000000298],"hit":[null,1,1,0,0,0,0,0,0,1,0,0,0,0,0,1,1],"asked":["","A","AE","AEH","AEHN","AEHNS","AEHNST","AEHNSTC","AEHNSTCO","AEHNSTCOR","AEHNSTCORP","AEHNSTCORPL","AEHNSTCORPLF","AEHNSTCORPLFW","AEHNSTCORPLFWJ","AEHNSTCORPLFWJB","AEHNSTCORPLFWJBZ"],"word_state":["_____","____A","_E__A","_E__A","_E__A","_E__A","_E__A","_E__A","_E__A","_E_RA","_E_RA","_E_RA","_E_RA","_E_RA","_E_RA","_EBRA","ZEBRA"]},"hover_log":{"letter":["?","?","?","?","?","?","?","?","?","?","?","?","?","?","?","S","S","S","?","?","?","T","T","T","T","?","U","?","V","?","?","?","?","?","?","?","?","?","?","?","?","?","?","?","?","?","?","?","?","?","?","?","?","?","?","?","?","?","O","F","?","?","?","?","?","?","?","?","?","?","?","?","?","?","?","?","?","?","?","?","?","?","?","?","?","?","?","?","?","?","?","?","?","?","?","?","?","?","?","?","?","?","?","?","?","?","?","?","?","?","?","?","?","?","?","?","?","?","?","?","?","?","?","?","?","?","?","?","?","?","?","?","H","H","?","?","?","?","?","?","?","?","?","?","?","?","?","?","?","P","P","P","P","P","P","P","P","?","?","?","?","?","?","?","?","?","?","?","?","?","?","?","?","?","?","?","?","?","?","?","?","?","?","?","?","?","?","?","?","?","?","?","?","?","?","?","?","?","M","M","M","M","M","M","M","M","M","M","M","M","M","M","M","M","M","M","M","M","M","M","?","?","?","?","L","L","L","L","L","L","L","L","L","L","L","L","L","L","?","?","?","?","?","?","?","?","?","?","?","?","?","?","?","?","?","?","?","?","?","?","?","?","?","?","?","?","?","?","A","A","A","A","A","A","A","A","A","A","A","A","A","A","A","A","A","A","A","A","A","A","A","A","A","A","A","A","A","A","A","A","A","A","A","A","A","A","A","A","A","A","A","A","A","A","A","A","A","A","A","A","A","A","A","A","A","A","A","A","A","A","A","A","A","A","A","A","A","A","A","A","A","A","A","A","A","A","A","A","A","A","A","A","A","A","A","A","A","A","A","A","A","A","A","A","A","A","A","A","A","A","A","A","A","A","A","A","A","A","A","A","A","A","A","A","A","A","A","A","A","A","A","A","A","A","A","A","A","A","A","A","A","A","A","A","A","A","A","A","A","?","?","?","?","K","K","K","K","?","?","L","L","L","?","?","?","V","V","V","V","?","W","W","W","W","W","W","W","W","W","W","W","W","W","W","W","W","W","W","W","W","W","W","W","W","W","W","W","W","W","W","W","W","W","W","W","W","W","W","W","W","W","W","W","W","W","W","W","W","W","W","W","W","W","W","W","W","W","W","W","W","W","W","W","W","W","W","W","W","W","W","W","W","W","W","W","W","W","W","W","W","W","W","W","W","W","W","W","W","W","W","W","W","W","W","W","W","W","W","W","W","W","W","W","W","W","W","W","W","W","W","W","W","W","W","W","W","W","W","W","W","W","W","W","W","W","W","W","W","W","W","W","W","W","W","W","W","W","W","W","W","W","W","W","W","W","W","W","W","W","W","W","W","W","W","W","W","W","W","W","W","W","W","W","W","W","W","W","W","W","W","W","W","W","W","W","W","W","W","W","W","W","W","W","W","W","W","W","W","W","W","W","?","?","N","N","N","N","N","N","N","?","?","?","?","?","?","E","E","E","E","E","E","E","E","E","E","E","E","E","E","E","E","E","E","E","E","E","E","E","E","E","E","E","E","E","E","E","E","E","E","E","E","E","E","E","E","E","E","E","E","E","E","E","E","E","?","?","N","N","N","N","N","N","N","N","N","N","N","N","N","N","N","N","N","N","N","N","N","N","N","N","N","N","N","N","?","?","?","?","?","?","?","?","?","?","W","W","W","W","W","W","W","W","W","?","?","?","?","?","?","?","?","?","?","?","?","?","?","?","?","?","?","?","?","?","?","?","?","?","?","?","?","?","?","?","N","N","N","N","N","N","N","N","O","O","O","?","P","?","?","?","?","?","?","?","?","H","H","H","H","H","H","H","H","H","H","H","H","H","H","H","H","H","H","H","H","H","H","H","H","H","H","H","H","H","H","H","H","H","H","H","H","H","H","H","H","H","H","H","H","H","H","H","H","H","H","H","H","H","H","H","H","H","H","H","H","H","H","H","H","H","H","H","H","H","H","H","H","H","H","H","H","H","H","H","H","H","H","H","H","H","H","H","H","H","H","H","H","H","H","H","H","H","H","H","H","H","H","H","H","H","H","H","H","H","H","H","H","H","H","H","H","H","H","?","?","Q","Q","Q","Q","?","?","?","?","Z","Z","Z","Z","Z","Z","Z","Z","Z","Z","Z","Z","Z","Z","Z","Z","Z","Z","Z","Z","Z","Z","Z","Z","Z","Z","Z","Z","Z","Z","Z","Z","Z","Z","Z","Z","Z","Z","Z","Z","Z","Z","Z","Z","Z","Z","Z","Z","Z","Z","Z","Z","Z","Z","Z","Z","Z","Z","Z","Z","Z","Z","Z","Z","Z","Z","Z","Z","Z","Z","Z","Z","Z","Z","Z","Z","Z","Z","Z","Z","Z","Z","Z","Z","Z","Z","Z","Z","Z","Z","Z","Z","Z","Z","Z","Z","Z","Z","Z","Z","Z","Z","Z","Z","Z","Z","Z","Z","Z","Z","Z","Z","Z","Z","Z","Z","Z","Z","Z","Z","Z","Z","Z","Z","Z","Z","Z","Z","Z","Z","Z","Z","Z","Z","Z","Z","Z","Z","Z","Z","Z","Z","Z","Z","Z","Z","Z","Z","Z","Z","Z","Z","Z","Z","Z","Z","Z","Z","Z","Z","Z","Z","Z","Z","Z","Z","Z","Z","Z","Z","Z","Z","Z","Z","Z","Z","?","?","?","?","?","?","Y","Y","Y","?","?","?","X","X","X","X","X","X","X","X","X","X","X","X","X","X","X","X","X","X","X","X","X","X","X","X","X","X","X","X","X","X","X","X","X","X","X","X","X","X","X","X","X","X","X","X","X","X","X","X","X","X","X","X","X","X","X","X","X","?","?","?","?","?","?","?","?","?","N","N","N","N","N","N","N","N","N","N","N","N","N","N","N","N","N","N","N","N","N","N","N","N","N","N","N","N","N","N","N","N","N","N","N","N","N","N","N","N","N","N","N","N","N","N","N","N","N","N","N","N","N","N","N","N","N","N","N","N","N","N","N","N","N","N","N","N","N","N","N","N","N","N","N","N","N","N","?","?","?","?","?","?","X","?","?","?","?","?","?","?","?","?","?","?","?","?","?","?","?","?","?","?","?","?","?","?","?","?","?","?","?","?","?","?","?","?","?","?","?","?","?","?","?","?","?","?","?","?","?","?","?","?","?","?","?","?","?","?","?","?","?","?","?","?","?","?","?","?","?","?","?","?","?","?","?","?","?","?","?","?","?","?","?","?","?","?","?","?","?","?","?","?","?","?","?","?","?","?","?","?","?","?","?","?","?","?","?","?","?","?","?","?","?","?","?","?","?","?","?","?","?","?","?","?","?","?","?","?","?","?","?","?","?","?","?","?","?","?","?","?","?","?","?","?","?","?","?","?","?","?","?","?","?","?","?","?","?","?","?","?","?","?","?","?","?","?","?","?","?","?","?","?","?","?","?","?","?","?","?","?","?","?","?","?","?","?","?","?","?","?","?","?","?","?","?","?","?","?","?","?","?","?","?","?","?","?","?","?","?","?","?","?","?","?","?","?","?","?","?","?","?","?","?","?","?","?","?","?","?","?","?","?","?","?","?","?","?","?","?","?","?","?","?","?","?","?","?","?","?","?","?","?","?","?","?","?","?","?","?","?","?","?","?","?","?","?","?","?","?","?","?","?","?","?","?","?","?","?","?","?","?","?","?","?","?","?","?","?","?","?","?","?","?","?","?","?","?","?","?","?","?","?","?","?","?","?","?","?","?","?","?","?","?","?","?","?","?","?","?","?","?","?","?","?","?","U","U","U","?","?","?","?","T","T","T","T","T","T","T","T","T","T","T","T","T","T","T","T","T","T","?","?","?","?","?","?","S","S","S","S","S","S","S","S","S","S","S","S","S","S","S","S","S","S","S","S","S","S","S","S","S","S","S","S","S","S","S","S","S","S","S","S","S","S","S","S","S","S","S","S","S","S","S","S","S","S","S","S","S","S","S","S","S","S","S","S","S","S","S","S","S","S","S","S","S","S","S","S","S","S","S","S","S","S","S","S","S","S","S","S","S","S","S","S","S","S","S","S","S","S","S","S","?","?","T","T","T","T","T","T","T","T","T","T","T","T","T","T","T","T","T","T","T","T","T","T","T","T","T","T","T","T","T","T","T","T","T","T","T","T","T","T","T","T","T","T","T","T","T","T","T","T","T","T","T","T","T","T","T","T","T","T","T","T","T","T","T","T","T","T","T","T","T","T","T","T","T","T","T","T","T","T","T","T","T","T","T","T","T","T","T","T","T","T","?","?","?","K","K","K","K","K","K","K","K","K","K","K","K","?","?","?","?","?","?","?","?","?","?","?","?","C","C","C","C","C","C","C","C","C","C","C","C","C","C","C","C","C","C","C","C","C","C","C","C","C","C","C","C","C","C","C","C","C","C","C","C","C","C","C","C","C","C","C","C","C","C","C","C","C","C","C","C","C","C","C","C","C","C","C","C","C","C","C","C","C","C","C","C","C","C","C","C","C","C","C","C","C","C","C","C","C","C","C","C","C","C","C","C","C","?","D","?","?","?","?","?","?","P","P","?","Q","Q","Q","Q","Q","Q","Q","Q","Q","Q","Q","Q","Q","Q","Q","Q","Q","Q","Q","Q","Q","?","P","P","P","P","P","P","P","P","?","O","O","O","O","O","O","O","O","O","O","O","O","O","O","O","O","O","O","O","O","O","O","O","O","O","O","O","O","O","O","O","O","O","O","O","O","O","O","O","O","O","O","O","O","O","?","P","P","P","P","P","P","?","?","?","?","?","?","Q","Q","Q","Q","Q","Q","Q","Q","Q","Q","Q","Q","Q","Q","Q","Q","Q","Q","Q","Q","Q","Q","Q","Q","Q","Q","Q","Q","Q","Q","Q","Q","Q","Q","Q","Q","Q","Q","?","?","?","?","?","R","R","R","R","R","R","R","R","R","R","R","R","R","R","R","R","R","R","R","R","R","R","R","R","R","R","R","R","R","R","R","R","R","R","R","R","R","R","R","R","R","R","R","?","?","?","?","?","?","?","?","?","?","?","?","?","?","?","?","?","?","?","?","?","?","?","?","?","?","?","?","?","?","?","?","?","?","?","?","?","?","?","?","?","?","?","?","?","?","?","?","?","?","?","?","?","?","?","?","?","?","?","?","?","?","?","?","?","?","?","?","?","?","?","?","?","?","?","?","?","?","?","?","?","?","?","?","?","?","?","?","?","?","?","?","?","?","?","?","?","?","?","?","?","?","?","?","?","?","?","?","?","?","?","?","?","?","?","?","?","?","?","?","?","?","?","?","?","?","?","?","?","?","?","?","?","?","?","?","?","?","?","?","?","?","?","?","?","Q","Q","Q","Q","Q","Q","Q","Q","Q","Q","Q","Q","Q","Q","Q","Q","Q","Q","?","?","?","P","P","P","P","P","P","P","P","P","P","P","P","P","P","P","P","P","P","P","P","P","P","P","P","P","P","P","P","P","P","P","P","P","P","P","P","P","P","P","P","P","P","P","P","P","P","P","P","P","P","P","P","P","P","P","P","P","P","P","P","P","P","P","P","P","P","P","P","P","P","P","P","P","P","P","P","P","P","P","P","P","P","P","P","P","P","P","P","P","P","P","P","P","P","P","P","P","P","P","P","P","P","P","P","P","P","?","O","?","N","?","M","M","M","M","M","?","?","L","L","L","L","L","L","L","L","L","L","L","L","L","L","L","L","L","L","L","L","?","?","?","?","?","?","?","?","?","?","?","?","?","?","?","?","?","?","?","?","?","?","?","?","L","L","L","L","L","L","L","L","L","L","L","L","L","L","L","L","L","L","L","L","L","L","L","L","L","L","L","L","L","L","L","L","L","L","L","L","L","L","L","L","L","L","L","?","?","?","?","?","?","?","?","?","?","?","?","?","?","?","?","?","?","?","?","?","?","?","?","?","?","?","N","N","N","?","?","O","O","O","O","O","O","O","O","O","O","O","O","O","?","?","?","?","F","F","F","F","F","F","F","F","F","F","F","F","F","F","F","F","F","F","F","F","F","F","F","F","F","F","F","F","F","F","F","F","F","F","F","F","F","F","F","F","F","F","F","F","F","F","F","F","F","F","F","F","F","F","F","F","F","F","?","?","?","?","?","?","?","?","?","?","?","?","?","?","?","?","?","?","?","?","?","?","?","?","?","?","?","?","?","?","?","?","?","?","?","?","?","?","?","?","?","?","?","?","?","?","?","Q","Q","?","?","?","?","?","?","?","?","?","Y","Y","Y","Y","Y","Y","Y","Y","Y","Y","Y","Y","Y","Y","Y","Y","Y","Y","Y","Y","Y","Y","Y","Y","?","X","X","X","X","X","X","X","X","X","X","X","X","X","X","X","X","?","?","?","W","W","W","W","W","W","W","W","W","W","W","W","W","W","W","W","W","W","W","W","W","W","W","W","W","W","W","W","W","W","W","W","W","W","W","W","W","W","W","W","W","W","W","W","W","W","W","W","W","W","W","W","W","W","W","W","W","W","W","W","W","W","W","W","W","W","W","W","W","W","W","W","W","W","W","W","W","W","W","W","W","W","W","W","W","W","W","W","W","W","W","W","W","W","W","W","W","W","W","W","W","W","W","W","W","W","W","W","W","W","W","W","W","W","W","W","W","W","W","W","W","W","?","?","?","?","V","V","V","V","V","?","?","?","?","U","U","U","U","U","U","?","?","?","?","?","?","?","?","?","?","?","?","?","K","K","K","?","?","?","J","J","J","J","J","J","J","J","J","J","J","J","J","J","J","J","J","J","J","J","J","J","J","J","J","J","J","J","J","J","J","?","K","?","?","?","?","?","U","U","?","?","V","V","V","V","V","V","V","V","?","?","?","W","W","W","W","W","W","W","W","W","?","?","?","?","?","?","?","?","?","?","?","?","?","?","?","?","?","?","?","?","?","?","?","?","?","?","W","?","?","L","L","L","L","L","L","L","?","?","?","?","?","C","C","C","C","?","B","B","B","B","B","B","B","B","B","B","B","B","B","B","B","B","B","B","B","B","B","B","B","B","B","B","B","B","B","?","?","C","?","?","?","?","M","N","N","N","N","?","?","?","?","?","?","O","O","O","O","O","O","O","O","O","O","O","O","O","O","O","O","O","O","O","O","O","O","O","O","O","O","O","O","O","O","?","?","?","?","?","?","?","?","?","?","X","X","X","X","X","X","X","X","X","X","X","?","Y","Y","Y","Y","Y","Y","?","?","?","Z","Z","Z","Z","Z","Z","Z","Z","Z","Z","Z","Z","Z","Z","Z","Z","Z","Z","Z","Z","Z","Z","Z","Z","Z","Z","Z","Z","Z","Z","Z","Z","Z","Z","Z","Z","?","?","?","?","?","?","?","?","?","?","?","?","?","?","?","?","?","?","?","?","?","?","?","?","?","?","?","?","?","?","?","?","?","?","?","?","?","?","?","?","?","?","?","?","?","?","?","?","?","?","?","?","?","?","?","?","?","?","?","?","?","?","?","?","?","?","?","?","?","?","?","?","?","?","?","?","?","?","?","?","?","?","?","?","?","?","?","?","?","?","?","?","?","?","?","?","?","?","?","?","?","?","?","?","?","?","?","?","?","?","?"],"t":[24,31,48,64,81,98,115,131,148,164,181,197,214,231,248,265,281,297,314,331,348,364,381,397,414,431,447,464,481,497,514,530,547,564,581,597,614,630,647,664,680,697,714,730,747,764,781,797,814,830,847,864,881,897,914,930,947,964,981,997,1014,1030,1047,1064,1081,1097,1114,1130,1147,1164,1181,1197,1214,1231,1247,1264,1281,1297,1314,1330,1347,1364,1381,1397,1414,1430,1448,1464,1480,1497,1514,1531,1547,1564,1580,1597,1614,1630,1647,1664,1681,1697,1714,1730,1747,1764,1781,1797,1814,1830,1847,1864,1880,1897,1914,1930,1947,1964,1980,1997,2014,2030,2047,2064,2080,2097,2114,2130,2147,2164,2181,2197,2214,2230,2247,2264,2281,2297,2314,2330,2347,2364,2380,2397,2414,2430,2447,2464,2480,2497,2514,2530,2547,2564,2580,2597,2614,2630,2647,2664,2680,2697,2714,2730,2747,2764,2780,2797,2814,2831,2847,2864,2880,2897,2914,2930,2947,2964,2981,2997,3014,3030,3047,3064,3081,3097,3114,3130,3147,3164,3181,3197,3214,3230,3247,3264,3281,3297,3314,3330,3347,3364,3380,3397,3415,3430,3447,3464,3480,3497,3514,3530,3547,3564,3581,3597,3614,3630,3647,3664,3680,3697,3714,3730,3748,3764,3781,3797,3814,3830,3847,3864,3881,3897,3914,3930,3947,3964,3981,3997,4014,4030,4047,4064,4081,4097,4114,4130,4147,4164,4181,4197,4214,4230,4247,4264,4281,4297,4314,4330,4347,4364,4380,4397,4414,4431,4447,4464,4481,4497,4514,4530,4547,4564,4581,4597,4614,4630,4647,4664,4680,4697,4714,4730,4747,4764,4780,4797,4814,4830,4847,4864,4880,4897,4914,4930,4947,4964,4981,4997,5014,5030,5047,5064,5081,5097,5114,5130,5147,5164,5180,5197,5214,5230,5247,5264,5280,5297,5314,5330,5347,5364,5381,5397,5414,5431,5447,5464,5480,5497,5514,5530,5547,5564,5581,5597,5614,5630,5647,5664,5680,5697,5714,5731,5747,5764,5781,5797,5814,5831,5847,5864,5881,5898,5914,5931,5947,5964,5981,5997,6014,6031,6047,6064,6081,6097,6114,6131,6147,6164,6181,6197,6214,6231,6247,6264,6281,6297,6314,6330,6347,6364,6381,6397,6414,6431,6447,6464,6481,6497,6514,6530,6547,6564,6581,6597,6614,6631,6647,6664,6681,6697,6714,6731,6747,6764,6781,6797,6814,6831,6847,6864,6881,6897,6914,6931,6947,6964,6981,6997,7014,7030,7047,7064,7081,7097,7114,7131,7147,7164,7181,7197,7214,7231,7247,7264,7281,7297,7314,7331,7347,7364,7381,7397,7414,7431,7447,7464,7480,7497,7514,7531,7547,7564,7581,7597,7614,7631,7647,7664,7681,7697,7714,7731,7747,7764,7781,7797,7814,7831,7847,7864,7881,7897,7914,7931,7947,7964,7981,7997,8014,8031,8047,8064,8081,8097,8114,8131,8147,8164,8181,8197,8214,8231,8247,8264,8281,8297,8314,8331,8347,8364,8381,8397,8414,8431,8447,8464,8481,8497,8514,8531,8547,8564,8581,8597,8614,8631,8647,8664,8681,8697,8714,8731,8747,8764,8781,8797,8814,8831,8847,8864,8881,8897,8914,8931,8947,8964,8980,8997,9014,9031,9047,9064,9081,9097,9114,9131,9147,9164,9181,9197,9214,9231,9247,9264,9280,9297,9314,9331,9347,9364,9380,9397,9414,9431,9447,9464,9480,9497,9514,9531,9547,9564,9580,9597,9614,9631,9647,9664,9680,9697,9714,9731,9747,9764,9780,9797,9814,9831,9847,9864,9881,9897,9914,9931,9947,9964,9980,9998,10014,10031,10047,10064,10081,10097,10114,10131,10147,10164,10180,10197,10214,10231,10247,10264,10280,10297,10314,10331,10347,10364,10381,10398,10414,10431,10447,10464,10481,10497,10514,10531,10547,10564,10581,10597,10614,10631,10647,10664,10681,10698,10714,10731,10747,10764,10780,10797,10814,10831,10847,10864,10881,10897,10914,10931,10947,10964,10980,10997,11014,11031,11047,11064,11080,11097,11114,11131,11147,11164,11180,11197,11214,11231,11247,11264,11280,11297,11314,11331,11347,11364,11381,11398,11414,11431,11447,11464,11481,11497,11514,11531,11547,11564,11581,11597,11614,11631,11647,11664,11681,11697,11714,11731,11747,11764,11781,11797,11814,11831,11847,11864,11881,11898,11914,11931,11947,11964,11981,11997,12014,12031,12047,12064,12081,12097,12114,12131,12147,12164,12181,12197,12214,12231,12247,12264,12281,12297,12314,12331,12347,12364,12381,12398,12414,12431,12447,12464,12481,12498,12514,12531,12547,12564,12581,12597,12614,12631,12647,12664,12681,12697,12714,12731,12747,12764,12781,12798,12814,12831,12847,12864,12881,12898,12914,12931,12947,12964,12981,12997,13014,13031,13047,13065,13081,13097,13114,13131,13147,13164,13181,13197,13214,13231,13247,13264,13281,13297,13314,13331,13347,13364,13381,13397,13414,13431,13447,13465,13481,13497,13514,13531,13547,13564,13583,13598,13614,13631,13647,13664,13681,13698,13714,13731,13747,13764,13781,13798,13814,13831,13847,13864,13881,13898,13914,13931,13947,13964,13981,13998,14014,14031,14047,14064,14081,14098,14114,14131,14147,14164,14181,14197,14214,14231,14247,14264,14281,14298,14314,14331,14347,14364,14381,14397,14414,14431,14447,14464,14481,14497,14514,14531,14547,14564,14581,14597,14614,14631,14647,14664,14681,14697,14714,14731,14747,14764,14781,14797,14814,14831,14847,14864,14881,14897,14914,14931,14947,14964,14981,14998,15014,15031,15047,15064,15081,15098,15114,15131,15147,15164,15181,15198,15214,15231,15248,15264,15281,15298,15314,15331,15348,15364,15381,15398,15414,15431,15447,15464,15481,15498,15514,15531,15547,15564,15581,15597,15614,15631,15647,15664,15681,15697,15714,15731,15747,15764,15781,15797,15814,15831,15847,15864,15881,15897,15914,15931,15947,15964,15981,15997,16014,16031,16047,16064,16081,16097,16114,16131,16147,16164,16181,16197,16214,16231,16247,16264,16281,16297,16314,16331,16347,16364,16381,16398,16414,16431,16447,16464,16481,16497,16514,16531,16547,16564,16581,16597,16614,16631,16647,16664,16681,16697,16714,16731,16747,16764,16781,16797,16814,16831,16847,16864,16881,16897,16914,16931,16947,16964,16981,16997,17014,17031,17047,17064,17081,17097,17114,17131,17147,17164,17181,17198,17214,17231,17247,17264,17281,17297,17314,17331,17347,17364,17381,17398,17414,17431,17447,17464,17481,17497,17514,17531,17547,17564,17581,17598,17614,17631,17647,17664,17681,17697,17714,17731,17748,17764,17781,17798,17814,17831,17847,17864,17881,17898,17914,17931,17947,17964,17981,17998,18014,18031,18048,18064,18081,18098,18114,18131,18148,18165,18181,18198,18214,18231,18248,18264,18281,18298,18314,18331,18348,18364,18381,18398,18414,18431,18447,18464,18481,18497,18514,18531,18547,18564,18581,18597,18614,18631,18647,18664,18681,18697,18714,18731,18747,18764,18781,18798,18814,18831,18847,18864,18881,18898,18914,18931,18947,18964,18981,18998,19014,19031,19047,19064,19081,19098,19114,19131,19147,19164,19181,19198,19214,19231,19248,19264,19281,19298,19314,19331,19348,19364,19381,19398,19414,19431,19448,19464,19481,19498,19514,19531,19548,19564,19581,19598,19614,19631,19647,19664,19681,19697,19714,19731,19748,19764,19781,19798,19814,19831,19847,19864,19881,19898,19914,19931,19948,19964,19981,19998,20014,20031,20048,20064,20081,20098,20114,20131,20147,20164,20181,20198,20214,20231,20247,20264,20281,20298,20314,20331,20347,20364,20381,20398,20414,20431,20448,20464,20481,20498,20514,20531,20547,20564,20581,20598,20614,20631,20647,20664,20681,20698,20714,20731,20748,20764,20781,20798,20814,20831,20848,20864,20881,20898,20914,20931,20948,20964,20981,20998,21014,21031,21048,21064,21081,21097,21114,21131,21147,21164,21181,21198,21214,21231,21248,21264,21281,21298,21314,21331,21348,21364,21381,21398,21414,21431,21448,21464,21481,21497,21514,21531,21548,21564,21581,21598,21614,21631,21647,21664,21681,21697,21714,21731,21748,21764,21781,21797,21814,21831,21848,21864,21881,21897,21914,21931,21947,21964,21981,21998,22014,22031,22048,22064,22081,22098,22114,22131,22148,22164,22181,22197,22214,22231,22248,22264,22281,22298,22314,22331,22348,22364,22381,22398,22414,22431,22448,22464,22481,22498,22514,22531,22548,22564,22581,22598,22614,22631,22647,22664,22681,22697,22714,22731,22748,22764,22781,22798,22814,22831,22847,22864,22881,22898,22914,22931,22948,22964,22981,22998,23014,23031,23048,23064,23081,23097,23114,23131,23148,23164,23181,23198,23214,23231,23248,23264,23281,23298,23314,23331,23348,23364,23381,23397,23414,23431,23448,23464,23481,23498,23514,23531,23548,23564,23581,23597,23614,23631,23648,23664,23681,23697,23714,23731,23748,23764,23781,23797,23814,23831,23848,23864,23881,23898,23914,23931,23948,23965,23981,23998,24014,24031,24048,24064,24081,24098,24114,24131,24148,24164,24181,24198,24214,24231,24248,24264,24281,24298,24314,24331,24348,24364,24381,24398,24414,24431,24448,24464,24481,24497,24514,24531,24548,24564,24581,24597,24614,24631,24648,24664,24681,24698,24714,24731,24748,24764,24781,24798,24814,24831,24848,24864,24881,24898,24914,24931,24948,24964,24981,24997,25014,25031,25048,25064,25081,25097,25114,25131,25148,25164,25181,25197,25214,25231,25248,25264,25281,25297,25314,25331,25348,25364,25381,25398,25414,25431,25448,25464,25481,25497,25514,25531,25548,25564,25581,25598,25614,25631,25648,25664,25681,25697,25714,25731,25748,25764,25781,25798,25814,25831,25848,25864,25881,25898,25914,25931,25948,25964,25981,25998,26014,26031,26048,26064,26081,26098,26114,26131,26148,26164,26181,26198,26214,26231,26248,26264,26281,26298,26314,26331,26348,26364,26381,26398,26414,26431,26448,26464,26481,26498,26514,26531,26548,26564,26581,26598,26614,26631,26648,26664,26681,26698,26714,26731,26748,26765,26781,26798,26814,26831,26848,26864,26881,26898,26914,26931,26948,26964,26981,26997,27014,27031,27048,27064,27081,27098,27114,27131,27148,27164,27181,27197,27214,27231,27248,27264,27281,27298,27314,27331,27348,27364,27381,27398,27414,27431,27448,27464,27481,27498,27514,27531,27548,27564,27581,27598,27614,27631,27648,27664,27681,27698,27714,27731,27748,27764,27781,27798,27814,27831,27848,27864,27881,27898,27914,27931,27948,27964,27981,27998,28014,28031,28048,28064,28081,28098,28114,28131,28148,28165,28181,28198,28214,28231,28248,28264,28281,28298,28314,28331,28348,28364,28381,28398,28414,28431,28448,28464,28481,28498,28514,28531,28548,28564,28581,28598,28614,28631,28648,28664,28681,28698,28714,28731,28748,28764,28781,28798,28814,28831,28848,28864,28881,28898,28914,28931,28948,28964,28981,28998,29014,29031,29048,29064,29081,29098,29114,29131,29148,29165,29181,29198,29214,29231,29248,29264,29281,29298,29314,29331,29348,29364,29381,29398,29414,29431,29448,29464,29482,29498,29514,29531,29548,29564,29581,29598,29614,29631,29648,29664,29681,29698,29714,29731,29748,29764,29781,29798,29814,29831,29848,29864,29881,29898,29915,29931,29948,29964,29981,29998,30015,30031,30048,30064,30081,30098,30115,30131,30148,30164,30181,30198,30215,30231,30248,30264,30281,30298,30315,30331,30348,30365,30381,30398,30415,30431,30448,30464,30481,30498,30515,30531,30548,30564,30581,30598,30614,30631,30648,30664,30681,30698,30714,30731,30748,30764,30781,30798,30814,30831,30848,30864,30881,30898,30914,30931,30948,30964,30982,30998,31014,31031,31048,31064,31081,31098,31114,31131,31148,31164,31181,31198,31214,31231,31248,31264,31281,31298,31315,31331,31348,31364,31381,31398,31414,31431,31448,31464,31481,31498,31515,31531,31548,31564,31581,31598,31615,31631,31648,31664,31681,31698,31715,31731,31748,31764,31781,31798,31815,31831,31848,31865,31881,31898,31915,31931,31948,31964,31981,31998,32015,32031,32048,32064,32081,32098,32115,32131,32148,32164,32181,32198,32214,32231,32248,32265,32281,32298,32315,32331,32348,32365,32381,32398,32415,32431,32448,32464,32481,32498,32515,32531,32548,32564,32581,32598,32615,32631,32648,32664,32681,32698,32715,32731,32748,32764,32781,32798,32815,32831,32848,32864,32881,32898,32915,32931,32948,32964,32981,32998,33015,33031,33048,33064,33081,33098,33115,33131,33148,33164,33181,33198,33215,33231,33248,33265,33281,33298,33315,33331,33348,33364,33381,33398,33415,33431,33448,33465,33481,33498,33515,33531,33548,33564,33581,33598,33615,33631,33648,33664,33681,33698,33715,33731,33748,33764,33781,33798,33815,33831,33848,33864,33881,33898,33915,33931,33948,33964,33981,33998,34015,34031,34048,34065,34081,34098,34115,34131,34148,34164,34181,34198,34214,34231,34248,34264,34281,34298,34315,34331,34348,34364,34381,34398,34415,34431,34448,34464,34481,34498,34515,34531,34548,34564,34581,34598,34615,34631,34648,34664,34681,34698,34715,34731,34748,34765,34781,34798,34815,34831,34848,34865,34882,34898,34915,34931,34948,34965,34981,34998,35015,35031,35048,35064,35081,35098,35115,35131,35148,35164,35181,35198,35215,35231,35248,35264,35281,35298,35315,35331,35348,35364,35381,35398,35415,35431,35448,35464,35481,35498,35515,35531,35548,35564,35582,35598,35615,35631,35648,35664,35681,35698,35715,35731,35748,35764,35781,35798,35815,35831,35848,35865,35882,35898,35915,35931,35948,35964,35981,35998,36015,36031,36048,36064,36081,36098,36115,36131,36148,36164,36181,36198,36215,36231,36248,36264,36281,36298,36315,36331,36348,36364,36381,36398,36415,36431,36448,36465,36481,36498,36515,36531,36548,36564,36581,36598,36615,36631,36648,36664,36681,36698,36715,36731,36748,36764,36781,36798,36815,36831,36848,36864,36881,36898,36915,36931,36948,36964,36981,36998,37015,37031,37048,37065,37081,37098,37115,37131,37148,37165,37181,37198,37215,37231,37248,37265,37281,37298,37315,37331,37348,37365,37381,37398,37415,37431,37448,37464,37481,37498,37515,37531,37548,37565,37581,37598,37615,37631,37648,37665,37681,37698,37715,37732,37748,37765,37781,37798,37815,37832,37848,37865,37881,37898,37915,37931,37948,37965,37981,37998,38015,38031,38048,38065,38081,38098,38115,38131,38148,38165,38181,38198,38215,38231,38248,38264,38281,38298,38315,38331,38348,38365,38381,38398,38415,38431,38448,38465,38482,38498,38515,38531,38548,38565,38581,38598,38615,38631,38648,38665,38681,38698,38715,38731,38748,38765,38781,38798,38815,38831,38848,38865,38881,38898,38915,38931,38948,38965,38981,38998,39015,39031,39048,39065,39081,39098,39115,39131,39148,39165,39181,39198,39215,39231,39248,39265,39281,39298,39315,39331,39348,39365,39381,39398,39415,39431,39448,39465,39481,39498,39515,39531,39548,39565,39581,39598,39615,39631,39648,39665,39681,39698,39715,39732,39748,39765,39781,39798,39815,39831,39848,39865,39881,39898,39915,39932,39948,39965,39981,39998,40015,40032,40048,40065,40081,40098,40115,40131,40148,40165,40181,40198,40215,40231,40248,40265,40281,40298,40315,40331,40348,40365,40381,40398,40415,40431,40448,40465,40481,40498,40515,40531,40548,40565,40581,40598,40615,40631,40648,40665,40681,40698,40715,40731,40748,40765,40781,40798,40815,40831,40848,40865,40881,40898,40915,40931,40948,40965,40981,40998,41015,41032,41048,41065,41081,41098,41115,41132,41148,41165,41181,41198,41215,41232,41248,41265,41281,41298,41315,41332,41348,41365,41381,41398,41415,41432,41448,41465,41482,41498,41515,41532,41548,41565,41581,41598,41615,41632,41648,41665,41681,41698,41715,41731,41748,41765,41781,41798,41815,41831,41848,41865,41881,41899,41915,41932,41948,41965,41981,41998,42015,42032,42048,42065,42081,42098,42115,42131,42148,42165,42181,42198,42215,42231,42248,42265,42281,42298,42315,42331,42348,42365,42381,42398,42415,42431,42448,42465,42481,42498,42515,42531,42548,42565,42581,42598,42615,42632,42648,42665,42681,42698,42715,42732,42748,42765,42781,42798,42815,42832,42848,42865,42882,42898,42915,42932,42948,42965,42981,42998,43015,43032,43048,43065,43081,43098,43115,43132,43148,43165,43181,43198,43215,43232,43248,43265,43281,43298,43315,43331,43348,43365,43382,43398,43415,43432,43448,43465,43481,43498,43515,43532,43548,43565,43581,43598,43615,43632,43648,43665,43681,43698,43715,43732,43748,43765,43781,43798,43815,43832,43848,43865,43882,43898,43915,43932,43948,43965,43981,43998,44015,44031,44048,44065,44081,44098,44115,44132,44148,44165,44181,44198,44215,44232,44248,44265,44281,44298,44315,44332,44348,44365,44381,44398,44415,44432,44448,44465,44481,44498,44515,44532,44548,44565,44582,44598,44615,44632,44648,44665,44681,44698,44715,44732,44748,44765,44782,44798,44815,44831,44848,44865,44881,44898,44915,44931,44948,44965,44981,44998,45015,45031,45048,45065,45081,45098,45115,45132,45148,45165,45181,45198,45215,45231,45248,45265,45281,45298,45315,45331,45348,45365,45381,45398,45415,45431,45448,45465,45481,45498,45515,45531,45548,45565,45581,45598,45615,45632,45648,45665,45681,45699,45715,45732,45748,45765,45781,45798,45815,45831,45848,45865,45881,45898,45915,45932,45948,45965,45981,45998,46015,46031,46048,46065,46081,46098,46115,46131,46148,46165,46181,46198,46215,46231,46248,46265,46281,46298,46315,46331,46348,46365,46381,46398,46415,46431,46448,46465,46482,46498,46515,46532,46548,46565,46582,46598,46615,46632,46648,46665,46681,46698,46715,46732,46748,46765,46782,46798,46815,46832,46848,46865,46882,46898,46915,46932,46948,46965,46982,46998,47015,47032,47048,47065,47081,47098,47115,47132,47148,47165,47181,47198,47215,47232,47248,47265,47282,47298,47315,47332,47348,47365,47381,47398,47415,47431,47448,47465,47481,47498,47515,47532,47548,47565,47581,47598,47615,47632,47648,47665,47681,47698,47715,47732,47748,47765,47782,47798,47815,47832,47848,47865,47882,47898,47915,47932,47948,47965,47982,47998,48015,48032,48048,48065,48082,48098,48115,48132,48148,48165,48182,48198,48215,48232,48248,48265,48282,48298,48315,48332,48348,48365,48381,48398,48415,48432,48448,48465,48481,48498,48515,48531,48548,48565,48581,48598,48615,48632,48648,48665,48681,48698,48715,48732,48748,48765,48782,48799,48815,48832,48848,48865,48882,48898,48915,48932,48948,48965,48982,48998,49015,49032,49048,49065,49082,49098,49115,49132,49148,49165,49181,49198,49215,49232,49248,49265,49282,49298,49315,49332,49348,49365,49381,49398,49415,49432,49448,49465,49481,49499,49515,49532,49548,49565,49582,49598,49615,49632,49648,49665,49682,49698,49715,49732,49748,49765,49782,49798,49815,49832,49848,49865,49881,49898,49915,49932,49948,49965,49981,49998,50015,50032,50048,50065,50081,50098,50115,50132,50148,50165,50181,50198,50215,50232,50248,50265,50281,50298,50315,50332,50348,50365,50382,50398,50415,50432,50448,50465,50482,50498,50515,50532,50548,50565,50581,50598,50615,50632,50648,50665,50682,50698,50715,50732,50748,50765,50782,50798,50815,50832,50848,50865,50882,50898,50915,50932,50948,50965,50981,50998,51015,51032,51048,51065,51081,51098,51115,51132,51148,51165,51181,51198,51215,51232,51248,51265,51282,51298,51317,51332,51349,51365,51382,51399,51415,51432,51448,51466,51482,51498,51515,51532,51548,51565,51582,51598,51615,51632,51648,51665,51681,51698,51715,51732,51748,51765,51782,51798,51815,51832,51848,51865,51882,51898,51915,51932,51948,51965,51982,51998,52015,52032,52048,52065,52082,52098,52115,52132,52148,52165,52182,52198,52215,52232,52248,52265,52282,52298,52315,52332,52348,52365,52382,52398,52415,52432,52448,52465,52482,52498,52515,52532,52548,52565,52582,52599,52615,52632,52648,52665,52682,52698,52715,52732,52748,52765,52782,52798,52815,52832,52848,52865,52882,52898,52915,52932,52948,52965,52982,52998,53015,53032,53048,53065,53082,53098,53115,53132,53148,53165,53182,53198,53215,53232,53248,53265,53281,53298,53316],"hit":[null],"x":[-2.693877551020408,-2.693877551020408,-2.693877551020408,-2.693877551020408,-0.7193877551020408,-0.70578231292517,-0.6751700680272109,-0.6343537414965986,-0.5731292517006803,-0.44727891156462585,-0.36904761904761907,-0.2976190476190476,-0.23299319727891157,-0.15816326530612246,-0.08673469387755102,-0.04591836734693878,0.00510204081632653,0.04251700680272109,0.0663265306122449,0.07653061224489796,0.0935374149659864,0.11054421768707483,0.11734693877551021,0.13095238095238096,0.15816326530612246,0.21258503401360543,0.27721088435374147,0.358843537414966,0.4370748299319728,0.5255102040816326,0.6105442176870748,0.6819727891156463,0.7363945578231292,0.814625850340136,0.8486394557823129,0.8690476190476191,0.8758503401360545,0.8622448979591837,0.8622448979591837,0.8622448979591837,0.8622448979591837,0.8622448979591837,0.8622448979591837,0.8622448979591837,0.8622448979591837,0.8622448979591837,0.8622448979591837,0.8622448979591837,0.8622448979591837,0.8622448979591837,0.8622448979591837,0.8486394557823129,0.8418367346938775,0.8214285714285714,0.8044217687074829,0.7976190476190477,0.7874149659863946,0.7602040816326531,0.7193877551020408,0.6717687074829932,0.6309523809523809,0.6037414965986394,0.5697278911564626,0.5391156462585034,0.5255102040816326,0.5051020408163265,0.49829931972789115,0.4846938775510204,0.4812925170068027,0.4710884353741497,0.4642857142857143,0.45408163265306123,0.44047619047619047,0.413265306122449,0.38605442176870747,0.34523809523809523,0.28401360544217685,0.2193877551020408,0.1649659863945578,0.12755102040816327,0.11734693877551021,0.11734693877551021,0.11734693877551021,0.11734693877551021,0.11734693877551021,0.11734693877551021,0.11734693877551021,0.11734693877551021,0.11734693877551021,0.11734693877551021,0.11734693877551021,0.11734693877551021,0.12074829931972789,0.1445578231292517,0.1683673469387755,0.195578231292517,0.2193877551020408,0.28061224489795916,0.33503401360544216,0.4098639455782313,0.5017006802721088,0.5935374149659864,0.6751700680272109,0.7670068027210885,0.8418367346938775,0.9200680272108843,0.9642857142857143,1.001700680272109,1.022108843537415,1.0289115646258504,1.0289115646258504,1.0289115646258504,1.0289115646258504,1.0289115646258504,1.0289115646258504,1.0289115646258504,1.0289115646258504,1.0289115646258504,1.0289115646258504,1.0289115646258504,1.032312925170068,1.032312925170068,1.032312925170068,1.032312925170068,1.0289115646258504,1.0187074829931972,1.0153061224489797,1.0085034013605443,1.0085034013605443,0.9982993197278912,0.9846938775510204,0.9744897959183674,0.967687074829932,0.9642857142857143,0.9574829931972789,0.9574829931972789,0.9540816326530612,0.9506802721088435,0.9506802721088435,0.9438775510204082,0.9404761904761905,0.9370748299319728,0.9370748299319728,0.9336734693877551,0.9302721088435374,0.9268707482993197,0.923469387755102,0.9200680272108843,0.9132653061224489,0.9064625850340136,0.9064625850340136,0.9030612244897959,0.8928571428571429,0.8792517006802721,0.8622448979591837,0.8486394557823129,0.8316326530612245,0.8214285714285714,0.8078231292517006,0.79421768707483,0.7840136054421769,0.7704081632653061,0.7534013605442177,0.7431972789115646,0.7363945578231292,0.7295918367346939,0.7295918367346939,0.7295918367346939,0.7295918367346939,0.7295918367346939,0.7295918367346939,0.7295918367346939,0.7295918367346939,0.7227891156462585,0.7159863945578231,0.7091836734693877,0.6989795918367347,0.6955782312925171,0.6887755102040817,0.6819727891156463,0.6785714285714286,0.6683673469387755,0.6615646258503401,0.6547619047619048,0.6479591836734694,0.641156462585034,0.6343537414965986,0.6241496598639455,0.6037414965986394,0.5731292517006803,0.5629251700680272,0.5391156462585034,0.5289115646258503,0.5119047619047619,0.5017006802721088,0.4914965986394558,0.4846938775510204,0.4744897959183674,0.4608843537414966,0.45408163265306123,0.44727891156462585,0.4370748299319728,0.4302721088435374,0.4268707482993197,0.42346938775510207,0.42346938775510207,0.4200680272108844,0.4200680272108844,0.4200680272108844,0.4166666666666667,0.413265306122449,0.4098639455782313,0.4064625850340136,0.4030612244897959,0.39965986394557823,0.39625850340136054,0.39285714285714285,0.38945578231292516,0.3792517006802721,0.37244897959183676,0.36904761904761907,0.3622448979591837,0.3554421768707483,0.3486394557823129,0.33843537414965985,0.3282312925170068,0.32142857142857145,0.3112244897959184,0.304421768707483,0.2942176870748299,0.28401360544217685,0.28401360544217685,0.27721088435374147,0.27721088435374147,0.27721088435374147,0.27040816326530615,0.27040816326530615,0.27040816326530615,0.26360544217687076,0.2568027210884354,0.25,0.24319727891156462,0.23639455782312926,0.22959183673469388,0.2193877551020408,0.20918367346938777,0.195578231292517,0.18877551020408162,0.17857142857142858,0.16156462585034015,0.15476190476190477,0.14795918367346939,0.141156462585034,0.13095238095238096,0.12414965986394558,0.11734693877551021,0.11394557823129252,0.11054421768707483,0.10714285714285714,0.10374149659863946,0.0935374149659864,0.08673469387755102,0.07993197278911565,0.07312925170068027,0.06972789115646258,0.0663265306122449,0.05952380952380952,0.05272108843537415,0.0391156462585034,0.03231292517006803,0.025510204081632654,0.01870748299319728,0.011904761904761904,0.011904761904761904,0.008503401360544218,0.00510204081632653,0.00510204081632653,0.00510204081632653,0.00510204081632653,0.00510204081632653,0.00510204081632653,0.00510204081632653,0.00510204081632653,0.00510204081632653,0.00510204081632653,0.00510204081632653,0.00510204081632653,0.00510204081632653,0.00510204081632653,0.00510204081632653,0.00510204081632653,0.00510204081632653,0.00510204081632653,0.00510204081632653,0.00510204081632653,0.00510204081632653,0.00510204081632653,0.00510204081632653,0.00510204081632653,0.00510204081632653,0.00510204081632653,0.00510204081632653,0.00510204081632653,0.00510204081632653,0.00510204081632653,0.00510204081632653,0.00510204081632653,0.00510204081632653,0.00510204081632653,0.00510204081632653,0.00510204081632653,0.00510204081632653,0.00510204081632653,0.00510204081632653,0.00510204081632653,0.00510204081632653,0.00510204081632653,0.00510204081632653,0.00510204081632653,0.00510204081632653,0.00510204081632653,0.00510204081632653,0.00510204081632653,0.00510204081632653,0.00510204081632653,0.00510204081632653,0.00510204081632653,0.00510204081632653,0.00510204081632653,0.00510204081632653,0.00510204081632653,0.00510204081632653,0.00510204081632653,0.00510204081632653,0.00510204081632653,0.00510204081632653,0.00510204081632653,0.00510204081632653,0.00510204081632653,0.00510204081632653,0.00510204081632653,0.00510204081632653,0.00510204081632653,0.00510204081632653,0.00510204081632653,0.00510204081632653,0.00510204081632653,0.00510204081632653,0.00510204081632653,0.00510204081632653,0.00510204081632653,0.00510204081632653,0.00510204081632653,0.00510204081632653,0.00510204081632653,0.00510204081632653,0.00510204081632653,0.00510204081632653,0.00510204081632653,0.00510204081632653,0.00510204081632653,0.00510204081632653,0.00510204081632653,0.00510204081632653,0.00510204081632653,0.00510204081632653,0.00510204081632653,0.00510204081632653,0.00510204081632653,0.00510204081632653,0.00510204081632653,0.00510204081632653,0.00510204081632653,0.00510204081632653,0.00510204081632653,0.00510204081632653,0.00510204081632653,0.00510204081632653,0.00510204081632653,0.00510204081632653,0.00510204081632653,0.00510204081632653,0.00510204081632653,0.00510204081632653,0.00510204081632653,0.00510204081632653,0.00510204081632653,0.00510204081632653,0.00510204081632653,0.00510204081632653,0.00510204081632653,0.00510204081632653,0.00510204081632653,0.00510204081632653,0.00510204081632653,0.00510204081632653,0.00510204081632653,0.00510204081632653,0.00510204081632653,0.00510204081632653,0.00510204081632653,0.00510204081632653,0.00510204081632653,0.00510204081632653,0.00510204081632653,0.00510204081632653,0.00510204081632653,0.011904761904761904,0.02891156462585034,0.04931972789115646,0.07653061224489796,0.09693877551020408,0.12074829931972789,0.1377551020408163,0.14795918367346939,0.1649659863945578,0.18197278911564627,0.20578231292517007,0.2261904761904762,0.24319727891156462,0.26700680272108845,0.28401360544217685,0.3282312925170068,0.3622448979591837,0.3826530612244898,0.413265306122449,0.4370748299319728,0.467687074829932,0.4846938775510204,0.5119047619047619,0.5255102040816326,0.532312925170068,0.5459183673469388,0.5561224489795918,0.5629251700680272,0.5697278911564626,0.576530612244898,0.5867346938775511,0.5901360544217688,0.5935374149659864,0.5969387755102041,0.5969387755102041,0.5969387755102041,0.5969387755102041,0.5969387755102041,0.5969387755102041,0.5969387755102041,0.5969387755102041,0.5969387755102041,0.5969387755102041,0.5969387755102041,0.5969387755102041,0.5969387755102041,0.5969387755102041,0.5969387755102041,0.5969387755102041,0.5969387755102041,0.5969387755102041,0.5969387755102041,0.5969387755102041,0.5969387755102041,0.5969387755102041,0.5969387755102041,0.5969387755102041,0.5969387755102041,0.5969387755102041,0.5969387755102041,0.5969387755102041,0.5969387755102041,0.5969387755102041,0.5969387755102041,0.5969387755102041,0.5969387755102041,0.5969387755102041,0.5969387755102041,0.5969387755102041,0.5969387755102041,0.5969387755102041,0.5969387755102041,0.5969387755102041,0.5969387755102041,0.5969387755102041,0.5969387755102041,0.5969387755102041,0.5969387755102041,0.5969387755102041,0.5969387755102041,0.5969387755102041,0.5969387755102041,0.5969387755102041,0.5969387755102041,0.5969387755102041,0.5969387755102041,0.5969387755102041,0.5969387755102041,0.5969387755102041,0.5969387755102041,0.5969387755102041,0.5969387755102041,0.5969387755102041,0.5969387755102041,0.5969387755102041,0.5969387755102041,0.5969387755102041,0.5969387755102041,0.5969387755102041,0.5969387755102041,0.5969387755102041,0.5969387755102041,0.5969387755102041,0.5969387755102041,0.5969387755102041,0.5969387755102041,0.5969387755102041,0.5969387755102041,0.5969387755102041,0.5969387755102041,0.5969387755102041,0.5969387755102041,0.5969387755102041,0.5969387755102041,0.5969387755102041,0.5969387755102041,0.5969387755102041,0.5969387755102041,0.5969387755102041,0.5969387755102041,0.5969387755102041,0.5969387755102041,0.5969387755102041,0.5969387755102041,0.5969387755102041,0.5969387755102041,0.5969387755102041,0.5969387755102041,0.5969387755102041,0.5969387755102041,0.5969387755102041,0.5969387755102041,0.5969387755102041,0.5969387755102041,0.5969387755102041,0.5969387755102041,0.5969387755102041,0.5969387755102041,0.5969387755102041,0.5969387755102041,0.5969387755102041,0.5969387755102041,0.5969387755102041,0.5969387755102041,0.5969387755102041,0.5969387755102041,0.5969387755102041,0.5969387755102041,0.5969387755102041,0.5969387755102041,0.5969387755102041,0.5969387755102041,0.5969387755102041,0.5969387755102041,0.5969387755102041,0.5969387755102041,0.5969387755102041,0.5969387755102041,0.5969387755102041,0.5969387755102041,0.5969387755102041,0.5969387755102041,0.5969387755102041,0.5969387755102041,0.5969387755102041,0.5969387755102041,0.5969387755102041,0.5969387755102041,0.5969387755102041,0.5969387755102041,0.5969387755102041,0.5969387755102041,0.5969387755102041,0.5969387755102041,0.5969387755102041,0.5969387755102041,0.5969387755102041,0.5969387755102041,0.5969387755102041,0.5969387755102041,0.5969387755102041,0.5969387755102041,0.5969387755102041,0.5969387755102041,0.5969387755102041,0.5969387755102041,0.5969387755102041,0.5969387755102041,0.5969387755102041,0.5969387755102041,0.5969387755102041,0.5969387755102041,0.5969387755102041,0.5969387755102041,0.5969387755102041,0.5969387755102041,0.5969387755102041,0.5969387755102041,0.5969387755102041,0.5969387755102041,0.5969387755102041,0.5969387755102041,0.5969387755102041,0.5969387755102041,0.5969387755102041,0.5969387755102041,0.5969387755102041,0.5969387755102041,0.5969387755102041,0.5969387755102041,0.5969387755102041,0.5969387755102041,0.5969387755102041,0.5901360544217688,0.5833333333333334,0.5833333333333334,0.576530612244898,0.576530612244898,0.576530612244898,0.576530612244898,0.576530612244898,0.576530612244898,0.576530612244898,0.576530612244898,0.576530612244898,0.576530612244898,0.576530612244898,0.5731292517006803,0.5697278911564626,0.5697278911564626,0.5663265306122449,0.5663265306122449,0.5663265306122449,0.5663265306122449,0.5629251700680272,0.5629251700680272,0.5629251700680272,0.5629251700680272,0.5629251700680272,0.5629251700680272,0.5629251700680272,0.5629251700680272,0.5629251700680272,0.5629251700680272,0.5629251700680272,0.5629251700680272,0.5629251700680272,0.5629251700680272,0.5629251700680272,0.5629251700680272,0.5629251700680272,0.5629251700680272,0.5629251700680272,0.5629251700680272,0.5629251700680272,0.5629251700680272,0.5629251700680272,0.5629251700680272,0.5629251700680272,0.5629251700680272,0.5629251700680272,0.5629251700680272,0.5629251700680272,0.5629251700680272,0.5629251700680272,0.5629251700680272,0.5629251700680272,0.5629251700680272,0.5629251700680272,0.5629251700680272,0.5629251700680272,0.5629251700680272,0.5629251700680272,0.5629251700680272,0.5629251700680272,0.5629251700680272,0.5629251700680272,0.5697278911564626,0.5731292517006803,0.5833333333333334,0.5867346938775511,0.5935374149659864,0.5969387755102041,0.6003401360544217,0.6037414965986394,0.6037414965986394,0.6037414965986394,0.6037414965986394,0.6037414965986394,0.6037414965986394,0.6037414965986394,0.6037414965986394,0.6037414965986394,0.6037414965986394,0.6037414965986394,0.6037414965986394,0.6037414965986394,0.6037414965986394,0.6037414965986394,0.6037414965986394,0.6037414965986394,0.6037414965986394,0.6037414965986394,0.6037414965986394,0.6037414965986394,0.6037414965986394,0.6037414965986394,0.6037414965986394,0.6037414965986394,0.6037414965986394,0.6003401360544217,0.5969387755102041,0.5969387755102041,0.5969387755102041,0.5969387755102041,0.5935374149659864,0.5901360544217688,0.5901360544217688,0.5901360544217688,0.5901360544217688,0.5901360544217688,0.5901360544217688,0.5799319727891157,0.5731292517006803,0.5595238095238095,0.5459183673469388,0.5255102040816326,0.5085034013605442,0.4914965986394558,0.4812925170068027,0.477891156462585,0.4744897959183674,0.4744897959183674,0.4710884353741497,0.467687074829932,0.4642857142857143,0.4642857142857143,0.4608843537414966,0.4608843537414966,0.4574829931972789,0.4574829931972789,0.4574829931972789,0.4574829931972789,0.4574829931972789,0.4574829931972789,0.4608843537414966,0.4642857142857143,0.4710884353741497,0.4710884353741497,0.477891156462585,0.4812925170068027,0.4880952380952381,0.4880952380952381,0.49489795918367346,0.49489795918367346,0.5017006802721088,0.5017006802721088,0.5085034013605442,0.5221088435374149,0.5357142857142857,0.5493197278911565,0.5629251700680272,0.5833333333333334,0.6003401360544217,0.6105442176870748,0.6275510204081632,0.6683673469387755,0.7125850340136054,0.7534013605442177,0.7976190476190477,0.8622448979591837,0.8826530612244898,0.9030612244897959,0.9166666666666666,0.923469387755102,0.9268707482993197,0.9370748299319728,0.9472789115646258,0.9574829931972789,0.9710884353741497,0.9778911564625851,0.9846938775510204,0.9914965986394558,0.9982993197278912,1.001700680272109,1.0051020408163265,1.0085034013605443,1.0085034013605443,1.0119047619047619,1.0153061224489797,1.0153061224489797,1.0153061224489797,1.0153061224489797,1.0153061224489797,1.0153061224489797,1.0153061224489797,1.0153061224489797,1.0153061224489797,1.0153061224489797,1.0153061224489797,1.0153061224489797,1.0153061224489797,1.0153061224489797,1.0153061224489797,1.0153061224489797,1.0153061224489797,1.0153061224489797,1.0153061224489797,1.0153061224489797,1.0153061224489797,1.0153061224489797,1.0153061224489797,1.0153061224489797,1.0153061224489797,1.0153061224489797,1.0153061224489797,1.0153061224489797,1.0153061224489797,1.0153061224489797,1.0153061224489797,1.0153061224489797,1.0153061224489797,1.0153061224489797,1.0153061224489797,1.0153061224489797,1.0153061224489797,1.0153061224489797,1.0153061224489797,1.0153061224489797,1.0153061224489797,1.0153061224489797,1.0153061224489797,1.0153061224489797,1.0153061224489797,1.0153061224489797,1.0153061224489797,1.0153061224489797,1.0153061224489797,1.0153061224489797,1.0153061224489797,1.0153061224489797,1.0153061224489797,1.0153061224489797,1.0153061224489797,1.0153061224489797,1.0153061224489797,1.0153061224489797,1.0153061224489797,1.0153061224489797,1.0153061224489797,1.0153061224489797,1.0153061224489797,1.0153061224489797,1.0153061224489797,1.0153061224489797,1.0153061224489797,1.0153061224489797,1.0153061224489797,1.0153061224489797,1.0153061224489797,1.0153061224489797,1.0153061224489797,1.0153061224489797,1.0153061224489797,1.0153061224489797,1.0153061224489797,1.0153061224489797,1.0153061224489797,1.0153061224489797,1.0153061224489797,1.0153061224489797,1.0153061224489797,1.0153061224489797,1.0153061224489797,1.0153061224489797,1.0153061224489797,1.0153061224489797,1.0153061224489797,1.0153061224489797,1.0153061224489797,1.0153061224489797,1.0153061224489797,1.0153061224489797,1.0153061224489797,1.0153061224489797,1.0153061224489797,1.0153061224489797,1.0153061224489797,1.0153061224489797,1.0153061224489797,1.0153061224489797,1.0153061224489797,1.0153061224489797,1.0153061224489797,1.0153061224489797,1.0153061224489797,1.0153061224489797,1.0153061224489797,1.0153061224489797,1.0119047619047619,1.0085034013605443,1.0085034013605443,1.0085034013605443,1.0085034013605443,1.0085034013605443,1.0085034013605443,1.0085034013605443,1.0085034013605443,1.0085034013605443,1.0085034013605443,1.0085034013605443,1.0085034013605443,1.0085034013605443,1.0085034013605443,1.0085034013605443,1.0085034013605443,1.0085034013605443,1.0119047619047619,1.0153061224489797,1.0153061224489797,1.0153061224489797,1.0153061224489797,1.0153061224489797,1.0187074829931972,1.0187074829931972,1.0187074829931972,1.0187074829931972,1.0187074829931972,1.0187074829931972,1.0187074829931972,1.0187074829931972,1.0187074829931972,1.0187074829931972,1.0187074829931972,1.0187074829931972,1.0187074829931972,1.0187074829931972,1.0187074829931972,1.0187074829931972,1.0187074829931972,1.0187074829931972,1.0187074829931972,1.0187074829931972,1.0187074829931972,1.0187074829931972,1.0187074829931972,1.0187074829931972,1.0187074829931972,1.0187074829931972,1.0187074829931972,1.0187074829931972,1.0187074829931972,1.0187074829931972,1.0187074829931972,1.0187074829931972,1.0187074829931972,1.0187074829931972,1.0187074829931972,1.0187074829931972,1.0187074829931972,1.0187074829931972,1.0187074829931972,1.0187074829931972,1.0187074829931972,1.0187074829931972,1.0187074829931972,1.0187074829931972,1.0187074829931972,1.0187074829931972,1.0187074829931972,1.0187074829931972,1.0187074829931972,1.0187074829931972,1.0187074829931972,1.0187074829931972,1.0187074829931972,1.0187074829931972,1.0187074829931972,1.0187074829931972,1.0187074829931972,1.0187074829931972,1.0187074829931972,1.0187074829931972,1.0187074829931972,1.0187074829931972,1.0187074829931972,1.0187074829931972,1.0187074829931972,1.0187074829931972,1.0187074829931972,1.0187074829931972,1.0187074829931972,1.0187074829931972,1.0187074829931972,1.0187074829931972,1.0187074829931972,1.0187074829931972,1.0187074829931972,1.0187074829931972,1.0187074829931972,1.0187074829931972,1.0187074829931972,1.0187074829931972,1.0187074829931972,1.0187074829931972,1.0187074829931972,1.0187074829931972,1.0187074829931972,1.0187074829931972,1.0187074829931972,1.0187074829931972,1.0187074829931972,1.0187074829931972,1.0187074829931972,1.0187074829931972,1.0187074829931972,1.0187074829931972,1.0187074829931972,1.0187074829931972,1.0187074829931972,1.0187074829931972,1.0187074829931972,1.0187074829931972,1.0187074829931972,1.0187074829931972,1.0187074829931972,1.0187074829931972,1.0187074829931972,1.0187074829931972,1.0187074829931972,1.0187074829931972,1.0187074829931972,1.0187074829931972,1.0187074829931972,1.0187074829931972,1.0187074829931972,1.0187074829931972,1.0187074829931972,1.0187074829931972,1.0187074829931972,1.0187074829931972,1.0187074829931972,1.0187074829931972,1.0187074829931972,1.0187074829931972,1.0187074829931972,1.0187074829931972,1.0187074829931972,1.0187074829931972,1.0187074829931972,1.0187074829931972,1.0187074829931972,1.0187074829931972,1.0187074829931972,1.0187074829931972,1.0187074829931972,1.0187074829931972,1.0187074829931972,1.0187074829931972,1.0187074829931972,1.0187074829931972,1.0187074829931972,1.0187074829931972,1.0187074829931972,1.0187074829931972,1.0187074829931972,1.0187074829931972,1.0187074829931972,1.0187074829931972,1.0187074829931972,1.0187074829931972,1.0187074829931972,1.0187074829931972,1.0187074829931972,1.0187074829931972,1.0187074829931972,1.0187074829931972,1.0187074829931972,1.0187074829931972,1.0187074829931972,1.0153061224489797,1.001700680272109,0.9778911564625851,0.9642857142857143,0.9472789115646258,0.9336734693877551,0.9166666666666666,0.9030612244897959,0.8928571428571429,0.8724489795918368,0.8554421768707483,0.8316326530612245,0.8112244897959183,0.8010204081632653,0.7738095238095238,0.7602040816326531,0.75,0.75,0.7465986394557823,0.7465986394557823,0.7431972789115646,0.7431972789115646,0.7431972789115646,0.7431972789115646,0.7431972789115646,0.7431972789115646,0.7431972789115646,0.7431972789115646,0.7431972789115646,0.7431972789115646,0.7431972789115646,0.7431972789115646,0.7431972789115646,0.7431972789115646,0.7431972789115646,0.7431972789115646,0.7431972789115646,0.7431972789115646,0.7431972789115646,0.7431972789115646,0.7431972789115646,0.7431972789115646,0.7431972789115646,0.7431972789115646,0.7431972789115646,0.7431972789115646,0.7431972789115646,0.7431972789115646,0.7431972789115646,0.7431972789115646,0.7431972789115646,0.7431972789115646,0.7431972789115646,0.7431972789115646,0.7431972789115646,0.7431972789115646,0.7431972789115646,0.7431972789115646,0.7431972789115646,0.7431972789115646,0.7431972789115646,0.7431972789115646,0.7363945578231292,0.7363945578231292,0.7295918367346939,0.7193877551020408,0.7159863945578231,0.7023809523809523,0.6989795918367347,0.6887755102040817,0.6819727891156463,0.6751700680272109,0.6649659863945578,0.6615646258503401,0.6513605442176871,0.641156462585034,0.6275510204081632,0.6173469387755102,0.6071428571428571,0.5969387755102041,0.5901360544217688,0.5867346938775511,0.5833333333333334,0.5697278911564626,0.5697278911564626,0.5663265306122449,0.5629251700680272,0.5629251700680272,0.5629251700680272,0.5629251700680272,0.5629251700680272,0.5629251700680272,0.5629251700680272,0.5629251700680272,0.5629251700680272,0.5629251700680272,0.5629251700680272,0.5629251700680272,0.5629251700680272,0.5629251700680272,0.5629251700680272,0.5629251700680272,0.5629251700680272,0.5629251700680272,0.5629251700680272,0.5629251700680272,0.5629251700680272,0.5629251700680272,0.5629251700680272,0.5629251700680272,0.5629251700680272,0.5629251700680272,0.5629251700680272,0.5629251700680272,0.5629251700680272,0.5629251700680272,0.5629251700680272,0.5629251700680272,0.5629251700680272,0.5629251700680272,0.5629251700680272,0.5629251700680272,0.5629251700680272,0.5629251700680272,0.5629251700680272,0.5629251700680272,0.5629251700680272,0.5629251700680272,0.5629251700680272,0.5629251700680272,0.5629251700680272,0.5629251700680272,0.5629251700680272,0.5629251700680272,0.5629251700680272,0.5629251700680272,0.5629251700680272,0.5629251700680272,0.5629251700680272,0.5629251700680272,0.5629251700680272,0.5629251700680272,0.5629251700680272,0.5629251700680272,0.5629251700680272,0.5629251700680272,0.5629251700680272,0.5629251700680272,0.5629251700680272,0.5629251700680272,0.5629251700680272,0.5629251700680272,0.5629251700680272,0.5629251700680272,0.5629251700680272,0.5663265306122449,0.5697278911564626,0.5833333333333334,0.5901360544217688,0.6003401360544217,0.6139455782312925,0.6173469387755102,0.6241496598639455,0.6309523809523809,0.641156462585034,0.6615646258503401,0.6683673469387755,0.6717687074829932,0.6819727891156463,0.6921768707482994,0.6989795918367347,0.7023809523809523,0.70578231292517,0.7125850340136054,0.7125850340136054,0.7193877551020408,0.7193877551020408,0.7193877551020408,0.7193877551020408,0.7193877551020408,0.7193877551020408,0.7193877551020408,0.7193877551020408,0.7193877551020408,0.7193877551020408,0.7193877551020408,0.7193877551020408,0.7193877551020408,0.7227891156462585,0.7363945578231292,0.75,0.7568027210884354,0.7636054421768708,0.7636054421768708,0.7670068027210885,0.7670068027210885,0.7670068027210885,0.7670068027210885,0.7670068027210885,0.7670068027210885,0.7670068027210885,0.7670068027210885,0.7670068027210885,0.7670068027210885,0.7670068027210885,0.7670068027210885,0.7670068027210885,0.7670068027210885,0.7670068027210885,0.7670068027210885,0.7670068027210885,0.7670068027210885,0.7670068027210885,0.7670068027210885,0.7670068027210885,0.7670068027210885,0.7670068027210885,0.7670068027210885,0.7670068027210885,0.7670068027210885,0.7670068027210885,0.7670068027210885,0.7670068027210885,0.7670068027210885,0.7670068027210885,0.7670068027210885,0.7670068027210885,0.7670068027210885,0.7670068027210885,0.7670068027210885,0.7670068027210885,0.7670068027210885,0.7670068027210885,0.7670068027210885,0.7670068027210885,0.7670068027210885,0.7670068027210885,0.7670068027210885,0.7670068027210885,0.7670068027210885,0.7670068027210885,0.7670068027210885,0.7670068027210885,0.7670068027210885,0.7670068027210885,0.7670068027210885,0.7670068027210885,0.7670068027210885,0.7670068027210885,0.7670068027210885,0.7670068027210885,0.7670068027210885,0.7670068027210885,0.7670068027210885,0.7670068027210885,0.7670068027210885,0.7670068027210885,0.7670068027210885,0.7670068027210885,0.7670068027210885,0.7670068027210885,0.7670068027210885,0.7670068027210885,0.7670068027210885,0.7670068027210885,0.7670068027210885,0.7670068027210885,0.7670068027210885,0.7670068027210885,0.7670068027210885,0.7670068027210885,0.7670068027210885,0.7670068027210885,0.7670068027210885,0.7670068027210885,0.7670068027210885,0.7670068027210885,0.7670068027210885,0.7670068027210885,0.7670068027210885,0.7670068027210885,0.7670068027210885,0.7670068027210885,0.7670068027210885,0.7670068027210885,0.7670068027210885,0.7670068027210885,0.7670068027210885,0.7670068027210885,0.7670068027210885,0.7670068027210885,0.7670068027210885,0.7670068027210885,0.7670068027210885,0.7670068027210885,0.7670068027210885,0.7670068027210885,0.7670068027210885,0.7670068027210885,0.7670068027210885,0.7670068027210885,0.7670068027210885,0.7670068027210885,0.7670068027210885,0.7670068027210885,0.7670068027210885,0.7670068027210885,0.7670068027210885,0.7670068027210885,0.7670068027210885,0.7670068027210885,0.7670068027210885,0.7670068027210885,0.7670068027210885,0.7670068027210885,0.7670068027210885,0.7670068027210885,0.7670068027210885,0.7670068027210885,0.7670068027210885,0.7670068027210885,0.7670068027210885,0.7670068027210885,0.7670068027210885,0.7670068027210885,0.7670068027210885,0.7670068027210885,0.7670068027210885,0.7670068027210885,0.7670068027210885,0.7670068027210885,0.7670068027210885,0.7670068027210885,0.7670068027210885,0.7670068027210885,0.7670068027210885,0.7670068027210885,0.7670068027210885,0.7670068027210885,0.7670068027210885,0.7670068027210885,0.7670068027210885,0.7670068027210885,0.7670068027210885,0.7670068027210885,0.7670068027210885,0.7670068027210885,0.7670068027210885,0.7670068027210885,0.7670068027210885,0.7670068027210885,0.7670068027210885,0.7670068027210885,0.7670068027210885,0.7670068027210885,0.7670068027210885,0.7670068027210885,0.7670068027210885,0.7670068027210885,0.7670068027210885,0.7670068027210885,0.7670068027210885,0.7670068027210885,0.7670068027210885,0.7670068027210885,0.7670068027210885,0.7670068027210885,0.7670068027210885,0.7670068027210885,0.7670068027210885,0.7670068027210885,0.7670068027210885,0.7670068027210885,0.7670068027210885,0.7670068027210885,0.7670068027210885,0.7670068027210885,0.7670068027210885,0.7670068027210885,0.7670068027210885,0.7670068027210885,0.7670068027210885,0.7670068027210885,0.7670068027210885,0.7670068027210885,0.7670068027210885,0.7670068027210885,0.7670068027210885,0.7670068027210885,0.7670068027210885,0.7670068027210885,0.7670068027210885,0.7670068027210885,0.7670068027210885,0.7670068027210885,0.7670068027210885,0.7670068027210885,0.7670068027210885,0.7670068027210885,0.7670068027210885,0.7670068027210885,0.7670068027210885,0.7670068027210885,0.7670068027210885,0.7670068027210885,0.7670068027210885,0.7670068027210885,0.7670068027210885,0.7670068027210885,0.7670068027210885,0.7670068027210885,0.7670068027210885,0.7670068027210885,0.7670068027210885,0.7670068027210885,0.7670068027210885,0.7670068027210885,0.7670068027210885,0.7670068027210885,0.7670068027210885,0.7670068027210885,0.7670068027210885,0.7670068027210885,0.7670068027210885,0.7670068027210885,0.7670068027210885,0.7670068027210885,0.7670068027210885,0.7670068027210885,0.7670068027210885,0.7670068027210885,0.7670068027210885,0.7670068027210885,0.7670068027210885,0.7670068027210885,0.7670068027210885,0.7670068027210885,0.7670068027210885,0.7670068027210885,0.7670068027210885,0.7670068027210885,0.7670068027210885,0.7670068027210885,0.7670068027210885,0.7670068027210885,0.7670068027210885,0.7670068027210885,0.7670068027210885,0.7670068027210885,0.7670068027210885,0.7670068027210885,0.7670068027210885,0.7670068027210885,0.7670068027210885,0.7670068027210885,0.7670068027210885,0.7670068027210885,0.7670068027210885,0.7670068027210885,0.7670068027210885,0.7670068027210885,0.7670068027210885,0.7670068027210885,0.7670068027210885,0.7670068027210885,0.7670068027210885,0.7670068027210885,0.7670068027210885,0.7670068027210885,0.7670068027210885,0.7670068027210885,0.7636054421768708,0.7431972789115646,0.7091836734693877,0.685374149659864,0.6479591836734694,0.6241496598639455,0.5969387755102041,0.5731292517006803,0.5561224489795918,0.5255102040816326,0.477891156462585,0.45068027210884354,0.4166666666666667,0.3792517006802721,0.3554421768707483,0.3282312925170068,0.304421768707483,0.28741496598639454,0.26700680272108845,0.2534013605442177,0.23979591836734693,0.22959183673469388,0.20918367346938777,0.1989795918367347,0.18877551020408162,0.18197278911564627,0.1717687074829932,0.16156462585034015,0.15476190476190477,0.15136054421768708,0.1445578231292517,0.1377551020408163,0.1377551020408163,0.1377551020408163,0.13435374149659865,0.13095238095238096,0.13095238095238096,0.12074829931972789,0.11734693877551021,0.11394557823129252,0.10374149659863946,0.0935374149659864,0.08333333333333333,0.08333333333333333,0.07993197278911565,0.07653061224489796,0.0663265306122449,0.05952380952380952,0.05612244897959184,0.0391156462585034,0.0391156462585034,0.03571428571428571,0.03571428571428571,0.02891156462585034,0.025510204081632654,0.025510204081632654,0.022108843537414966,0.022108843537414966,0.022108843537414966,0.022108843537414966,0.022108843537414966,0.022108843537414966,0.022108843537414966,0.022108843537414966,0.022108843537414966,0.022108843537414966,0.022108843537414966,0.022108843537414966,0.022108843537414966,0.022108843537414966,0.022108843537414966,0.022108843537414966,0.022108843537414966,0.022108843537414966,0.022108843537414966,0.022108843537414966,0.022108843537414966,0.022108843537414966,0.022108843537414966,0.022108843537414966,0.022108843537414966,0.022108843537414966,0.022108843537414966,0.022108843537414966,0.022108843537414966,0.022108843537414966,0.022108843537414966,0.022108843537414966,0.022108843537414966,0.022108843537414966,0.022108843537414966,0.022108843537414966,0.022108843537414966,0.022108843537414966,0.022108843537414966,0.022108843537414966,0.022108843537414966,0.022108843537414966,0.022108843537414966,0.022108843537414966,0.022108843537414966,0.022108843537414966,0.022108843537414966,0.022108843537414966,0.022108843537414966,0.022108843537414966,0.022108843537414966,0.022108843537414966,0.022108843537414966,0.022108843537414966,0.022108843537414966,0.022108843537414966,0.022108843537414966,0.022108843537414966,0.022108843537414966,0.022108843537414966,0.022108843537414966,0.022108843537414966,0.015306122448979591,0.015306122448979591,0.015306122448979591,0.015306122448979591,0.015306122448979591,0.015306122448979591,0.015306122448979591,0.015306122448979591,0.015306122448979591,0.015306122448979591,0.015306122448979591,0.015306122448979591,0.015306122448979591,0.015306122448979591,0.015306122448979591,0.015306122448979591,0.015306122448979591,0.015306122448979591,0.015306122448979591,0.015306122448979591,0.015306122448979591,0.01870748299319728,0.01870748299319728,0.025510204081632654,0.03571428571428571,0.04931972789115646,0.06292517006802721,0.08333333333333333,0.09013605442176871,0.10714285714285714,0.11054421768707483,0.11394557823129252,0.11734693877551021,0.11734693877551021,0.11734693877551021,0.11734693877551021,0.11734693877551021,0.11734693877551021,0.11734693877551021,0.11734693877551021,0.11734693877551021,0.11734693877551021,0.11734693877551021,0.11734693877551021,0.11734693877551021,0.11734693877551021,0.11734693877551021,0.11734693877551021,0.11734693877551021,0.11734693877551021,0.11734693877551021,0.11734693877551021,0.11734693877551021,0.11734693877551021,0.11734693877551021,0.11734693877551021,0.11734693877551021,0.11734693877551021,0.11734693877551021,0.11734693877551021,0.11734693877551021,0.11734693877551021,0.11734693877551021,0.11734693877551021,0.11734693877551021,0.11734693877551021,0.11734693877551021,0.11734693877551021,0.11734693877551021,0.11734693877551021,0.11734693877551021,0.11734693877551021,0.11734693877551021,0.11734693877551021,0.11734693877551021,0.11734693877551021,0.11734693877551021,0.11734693877551021,0.11734693877551021,0.11734693877551021,0.11734693877551021,0.11734693877551021,0.11734693877551021,0.11734693877551021,0.11734693877551021,0.11734693877551021,0.11734693877551021,0.11734693877551021,0.11734693877551021,0.11734693877551021,0.11734693877551021,0.11734693877551021,0.11734693877551021,0.11734693877551021,0.11734693877551021,0.11734693877551021,0.11734693877551021,0.11734693877551021,0.11734693877551021,0.11734693877551021,0.11734693877551021,0.11734693877551021,0.11734693877551021,0.11734693877551021,0.11734693877551021,0.11734693877551021,0.11734693877551021,0.11734693877551021,0.11734693877551021,0.11734693877551021,0.11734693877551021,0.11734693877551021,0.11734693877551021,0.11734693877551021,0.11734693877551021,0.12074829931972789,0.12755102040816327,0.13095238095238096,0.141156462585034,0.141156462585034,0.15816326530612246,0.16156462585034015,0.1649659863945578,0.1649659863945578,0.1717687074829932,0.1717687074829932,0.1717687074829932,0.1717687074829932,0.17517006802721088,0.18197278911564627,0.18537414965986396,0.18537414965986396,0.1921768707482993,0.195578231292517,0.195578231292517,0.1989795918367347,0.1989795918367347,0.20578231292517007,0.20918367346938777,0.21598639455782312,0.21598639455782312,0.2261904761904762,0.2261904761904762,0.22959183673469388,0.23299319727891157,0.23979591836734693,0.2465986394557823,0.2534013605442177,0.2602040816326531,0.26700680272108845,0.27040816326530615,0.27721088435374147,0.28061224489795916,0.28061224489795916,0.28401360544217685,0.28741496598639454,0.28741496598639454,0.28741496598639454,0.28741496598639454,0.28741496598639454,0.28741496598639454,0.28741496598639454,0.28741496598639454,0.2942176870748299,0.2942176870748299,0.2942176870748299,0.2942176870748299,0.2942176870748299,0.2942176870748299,0.2942176870748299,0.2942176870748299,0.2942176870748299,0.2942176870748299,0.2942176870748299,0.2942176870748299,0.2942176870748299,0.2942176870748299,0.2942176870748299,0.2942176870748299,0.2942176870748299,0.2942176870748299,0.2942176870748299,0.2942176870748299,0.2942176870748299,0.2942176870748299,0.2942176870748299,0.2942176870748299,0.2942176870748299,0.2942176870748299,0.2942176870748299,0.2942176870748299,0.2942176870748299,0.2942176870748299,0.2942176870748299,0.2942176870748299,0.2942176870748299,0.2942176870748299,0.2942176870748299,0.2942176870748299,0.2942176870748299,0.2942176870748299,0.2942176870748299,0.2942176870748299,0.2942176870748299,0.2942176870748299,0.2942176870748299,0.2942176870748299,0.2942176870748299,0.2942176870748299,0.2942176870748299,0.2942176870748299,0.2942176870748299,0.2942176870748299,0.2942176870748299,0.2942176870748299,0.2942176870748299,0.2942176870748299,0.2942176870748299,0.2942176870748299,0.2942176870748299,0.2942176870748299,0.2942176870748299,0.2942176870748299,0.2942176870748299,0.2942176870748299,0.2942176870748299,0.2942176870748299,0.2942176870748299,0.2942176870748299,0.2942176870748299,0.2942176870748299,0.2942176870748299,0.3010204081632653,0.32482993197278914,0.36904761904761907,0.413265306122449,0.4642857142857143,0.5255102040816326,0.5833333333333334,0.6309523809523809,0.7193877551020408,0.7840136054421769,0.8316326530612245,0.8928571428571429,0.9200680272108843,0.9438775510204082,0.9540816326530612,0.9574829931972789,0.9574829931972789,0.9574829931972789,0.9574829931972789,0.9574829931972789,0.9574829931972789,0.9574829931972789,0.9574829931972789,0.9574829931972789,0.9574829931972789,0.9574829931972789,0.9574829931972789,0.9574829931972789,0.9574829931972789,0.9574829931972789,0.9574829931972789,0.9574829931972789,0.9574829931972789,0.9540816326530612,0.9302721088435374,0.9132653061224489,0.8996598639455783,0.8860544217687075,0.8656462585034014,0.8554421768707483,0.8452380952380952,0.8282312925170068,0.8078231292517006,0.7908163265306123,0.7704081632653061,0.7568027210884354,0.75,0.7431972789115646,0.7397959183673469,0.7363945578231292,0.7329931972789115,0.7295918367346939,0.7295918367346939,0.7261904761904762,0.7261904761904762,0.7261904761904762,0.7261904761904762,0.7261904761904762,0.7261904761904762,0.7261904761904762,0.7261904761904762,0.7261904761904762,0.7261904761904762,0.7261904761904762,0.7261904761904762,0.7261904761904762,0.7261904761904762,0.7261904761904762,0.7261904761904762,0.7261904761904762,0.7261904761904762,0.7261904761904762,0.7261904761904762,0.7261904761904762,0.7261904761904762,0.7261904761904762,0.7261904761904762,0.7261904761904762,0.7261904761904762,0.7261904761904762,0.7261904761904762,0.7261904761904762,0.7261904761904762,0.7261904761904762,0.7261904761904762,0.7295918367346939,0.7329931972789115,0.7465986394557823,0.7670068027210885,0.79421768707483,0.814625850340136,0.8350340136054422,0.858843537414966,0.8758503401360545,0.8860544217687075,0.9030612244897959,0.9200680272108843,0.9302721088435374,0.9472789115646258,0.9506802721088435,0.9506802721088435,0.9506802721088435,0.9574829931972789,0.9574829931972789,0.9574829931972789,0.9574829931972789,0.9574829931972789,0.9574829931972789,0.9574829931972789,0.9574829931972789,0.9574829931972789,0.9574829931972789,0.9574829931972789,0.9574829931972789,0.9574829931972789,0.9574829931972789,0.9574829931972789,0.9574829931972789,0.9574829931972789,0.9574829931972789,0.9574829931972789,0.9574829931972789,0.9574829931972789,0.9574829931972789,0.9574829931972789,0.9574829931972789,0.9574829931972789,0.9608843537414966,0.9642857142857143,0.967687074829932,0.9710884353741497,0.9778911564625851,0.9846938775510204,0.9948979591836735,1.001700680272109,1.0119047619047619,1.022108843537415,1.032312925170068,1.0459183673469388,1.0561224489795917,1.066326530612245,1.0731292517006803,1.0765306122448979,1.0799319727891157,1.0799319727891157,1.086734693877551,1.086734693877551,1.0935374149659864,1.0935374149659864,1.1003401360544218,1.1003401360544218,1.1071428571428572,1.120748299319728,1.1275510204081634,1.1343537414965987,1.151360544217687,1.1581632653061225,1.16156462585034,1.16156462585034,1.16156462585034,1.16156462585034,1.16156462585034,1.16156462585034,1.16156462585034,1.16156462585034,1.16156462585034,1.16156462585034,1.16156462585034,1.16156462585034,1.16156462585034,1.16156462585034,1.16156462585034,1.16156462585034,1.16156462585034,1.1649659863945578,1.1649659863945578,1.1649659863945578,1.1649659863945578,1.1581632653061225,1.1547619047619047,1.151360544217687,1.1479591836734695,1.1411564625850341,1.1377551020408163,1.1343537414965987,1.1343537414965987,1.1343537414965987,1.1343537414965987,1.1343537414965987,1.1343537414965987,1.1343537414965987,1.1343537414965987,1.1343537414965987,1.1343537414965987,1.1343537414965987,1.1343537414965987,1.1343537414965987,1.1343537414965987,1.1343537414965987,1.1343537414965987,1.1343537414965987,1.1343537414965987,1.1343537414965987,1.1343537414965987,1.1343537414965987,1.1343537414965987,1.1343537414965987,1.1343537414965987,1.1343537414965987,1.1343537414965987,1.1343537414965987,1.1343537414965987,1.1343537414965987,1.1343537414965987,1.1343537414965987,1.1343537414965987,1.1343537414965987,1.1343537414965987,1.1343537414965987,1.1343537414965987,1.1343537414965987,1.1343537414965987,1.1343537414965987,1.1343537414965987,1.1343537414965987,1.1343537414965987,1.1343537414965987,1.1343537414965987,1.1343537414965987,1.1343537414965987,1.1343537414965987,1.1343537414965987,1.1343537414965987,1.1343537414965987,1.1343537414965987,1.1343537414965987,1.1343537414965987,1.1343537414965987,1.1343537414965987,1.1343537414965987,1.1343537414965987,1.1343537414965987,1.1343537414965987,1.1343537414965987,1.1343537414965987,1.1343537414965987,1.1343537414965987,1.1343537414965987,1.1343537414965987,1.1343537414965987,1.1343537414965987,1.1343537414965987,1.1343537414965987,1.1343537414965987,1.1343537414965987,1.1343537414965987,1.1343537414965987,1.1343537414965987,1.1343537414965987,1.1343537414965987,1.1343537414965987,1.1343537414965987,1.1343537414965987,1.1343537414965987,1.1343537414965987,1.1343537414965987,1.1343537414965987,1.1343537414965987,1.1343537414965987,1.1343537414965987,1.1343537414965987,1.1343537414965987,1.1343537414965987,1.1343537414965987,1.1343537414965987,1.1343537414965987,1.1343537414965987,1.1343537414965987,1.1343537414965987,1.1343537414965987,1.1343537414965987,1.1343537414965987,1.1343537414965987,1.1343537414965987,1.1343537414965987,1.1343537414965987,1.1343537414965987,1.1343537414965987,1.1343537414965987,1.1343537414965987,1.1343537414965987,1.1343537414965987,1.1343537414965987,1.1343537414965987,1.1343537414965987,1.1343537414965987,1.1343537414965987,1.1343537414965987,1.1343537414965987,1.1343537414965987,1.1343537414965987,1.1343537414965987,1.1343537414965987,1.1343537414965987,1.1343537414965987,1.1343537414965987,1.1343537414965987,1.1343537414965987,1.1343537414965987,1.1343537414965987,1.1343537414965987,1.1275510204081634,1.1275510204081634,1.120748299319728,1.1139455782312926,1.1071428571428572,1.1003401360544218,1.1003401360544218,1.0935374149659864,1.0935374149659864,1.086734693877551,1.0799319727891157,1.0799319727891157,1.0731292517006803,1.0731292517006803,1.066326530612245,1.066326530612245,1.0595238095238095,1.0595238095238095,1.0527210884353742,1.0459183673469388,1.0459183673469388,1.0391156462585034,1.0289115646258504,1.0255102040816326,1.0255102040816326,1.0187074829931972,1.0187074829931972,1.0119047619047619,1.0119047619047619,1.0051020408163265,1.0051020408163265,1.0051020408163265,1.0051020408163265,0.9982993197278912,0.9982993197278912,0.9914965986394558,0.9880952380952381,0.9778911564625851,0.9710884353741497,0.9540816326530612,0.9404761904761905,0.9268707482993197,0.9132653061224489,0.8962585034013606,0.8894557823129252,0.8758503401360545,0.8690476190476191,0.8690476190476191,0.8690476190476191,0.8690476190476191,0.8690476190476191,0.8690476190476191,0.8690476190476191,0.8690476190476191,0.8690476190476191,0.8690476190476191,0.8690476190476191,0.8690476190476191,0.8690476190476191,0.8690476190476191,0.8690476190476191,0.8690476190476191,0.8690476190476191,0.8690476190476191,0.8690476190476191,0.8656462585034014,0.8656462585034014,0.8656462585034014,0.8656462585034014,0.8656462585034014,0.8656462585034014,0.8656462585034014,0.8656462585034014,0.8656462585034014,0.8656462585034014,0.8656462585034014,0.8656462585034014,0.8656462585034014,0.8656462585034014,0.8656462585034014,0.8656462585034014,0.8656462585034014,0.8656462585034014,0.8656462585034014,0.8656462585034014,0.8656462585034014,0.8656462585034014,0.8656462585034014,0.8656462585034014,0.8656462585034014,0.8656462585034014,0.8656462585034014,0.8656462585034014,0.8656462585034014,0.8656462585034014,0.8656462585034014,0.8656462585034014,0.8656462585034014,0.8656462585034014,0.8656462585034014,0.8656462585034014,0.8656462585034014,0.8656462585034014,0.8656462585034014,0.8656462585034014,0.8656462585034014,0.8656462585034014,0.8656462585034014,0.8656462585034014,0.8656462585034014,0.8656462585034014,0.8656462585034014,0.8656462585034014,0.8656462585034014,0.8656462585034014,0.8656462585034014,0.8656462585034014,0.8656462585034014,0.8656462585034014,0.8656462585034014,0.8656462585034014,0.8656462585034014,0.8656462585034014,0.8656462585034014,0.8656462585034014,0.8656462585034014,0.8656462585034014,0.8656462585034014,0.8656462585034014,0.8656462585034014,0.8656462585034014,0.8656462585034014,0.8656462585034014,0.8656462585034014,0.8656462585034014,0.8656462585034014,0.8656462585034014,0.8656462585034014,0.8656462585034014,0.8656462585034014,0.8656462585034014,0.8656462585034014,0.8656462585034014,0.8656462585034014,0.8656462585034014,0.8656462585034014,0.8656462585034014,0.858843537414966,0.8214285714285714,0.7806122448979592,0.7193877551020408,0.6547619047619048,0.5935374149659864,0.5187074829931972,0.4710884353741497,0.44047619047619047,0.4166666666666667,0.39625850340136054,0.3758503401360544,0.3554421768707483,0.34523809523809523,0.33163265306122447,0.31802721088435376,0.3078231292517007,0.2942176870748299,0.29081632653061223,0.28741496598639454,0.28401360544217685,0.28061224489795916,0.28061224489795916,0.28061224489795916,0.28061224489795916,0.27721088435374147,0.27721088435374147,0.27721088435374147,0.27380952380952384,0.26700680272108845,0.2568027210884354,0.25,0.23979591836734693,0.22959183673469388,0.2227891156462585,0.2193877551020408,0.21258503401360543,0.20578231292517007,0.20578231292517007,0.20578231292517007,0.20578231292517007,0.20578231292517007,0.20578231292517007,0.20578231292517007,0.20578231292517007,0.20578231292517007,0.20578231292517007,0.20578231292517007,0.20578231292517007,0.20578231292517007,0.20578231292517007,0.20578231292517007,0.20578231292517007,0.20918367346938777,0.21258503401360543,0.21258503401360543,0.2193877551020408,0.2261904761904762,0.22959183673469388,0.23979591836734693,0.2465986394557823,0.25,0.2602040816326531,0.26360544217687076,0.26360544217687076,0.26360544217687076,0.26360544217687076,0.26360544217687076,0.26360544217687076,0.26360544217687076,0.26700680272108845,0.26700680272108845,0.26700680272108845,0.26700680272108845,0.26700680272108845,0.26700680272108845,0.26700680272108845,0.26700680272108845,0.26700680272108845,0.26700680272108845,0.26700680272108845,0.26700680272108845,0.26700680272108845,0.26700680272108845,0.26700680272108845,0.26700680272108845,0.26700680272108845,0.26700680272108845,0.26700680272108845,0.26700680272108845,0.27040816326530615,0.27040816326530615,0.27721088435374147,0.28741496598639454,0.2942176870748299,0.3078231292517007,0.31462585034013607,0.31462585034013607,0.31802721088435376,0.32142857142857145,0.3282312925170068,0.33163265306122447,0.33163265306122447,0.33503401360544216,0.33843537414965985,0.34523809523809523,0.34523809523809523,0.3520408163265306,0.358843537414966,0.3656462585034014,0.37244897959183676,0.3826530612244898,0.38605442176870747,0.39625850340136054,0.4030612244897959,0.4098639455782313,0.4098639455782313,0.4098639455782313,0.4166666666666667,0.42346938775510207,0.4302721088435374,0.4370748299319728,0.44387755102040816,0.4574829931972789,0.4744897959183674,0.4880952380952381,0.5119047619047619,0.5357142857142857,0.5561224489795918,0.5833333333333334,0.6139455782312925,0.6275510204081632,0.6445578231292517,0.6581632653061225,0.6717687074829932,0.6785714285714286,0.685374149659864,0.6921768707482994,0.6921768707482994,0.6989795918367347,0.6989795918367347,0.6989795918367347,0.7091836734693877,0.7091836734693877,0.7125850340136054,0.7159863945578231,0.7159863945578231,0.7159863945578231,0.7159863945578231,0.7159863945578231,0.7159863945578231,0.7125850340136054,0.7125850340136054,0.70578231292517,0.6989795918367347,0.6955782312925171,0.6887755102040817,0.6887755102040817,0.6887755102040817,0.6887755102040817,0.6887755102040817,0.6887755102040817,0.6887755102040817,0.6887755102040817,0.6887755102040817,0.6887755102040817,0.6887755102040817,0.6887755102040817,0.6887755102040817,0.6887755102040817,0.6887755102040817,0.6887755102040817,0.6887755102040817,0.6887755102040817,0.6887755102040817,0.6887755102040817,0.6887755102040817,0.6887755102040817,0.6887755102040817,0.6887755102040817,0.6887755102040817,0.6887755102040817,0.6887755102040817,0.6887755102040817,0.6887755102040817,0.6887755102040817,0.6887755102040817,0.6887755102040817,0.6887755102040817,0.6887755102040817,0.6887755102040817,0.6887755102040817,0.6887755102040817,0.6887755102040817,0.6887755102040817,0.6887755102040817,0.6887755102040817,0.6887755102040817,0.6989795918367347,0.7023809523809523,0.70578231292517,0.7125850340136054,0.7261904761904762,0.7363945578231292,0.7431972789115646,0.75,0.75,0.7568027210884354,0.7636054421768708,0.7704081632653061,0.7806122448979592,0.7840136054421769,0.7874149659863946,0.7908163265306123,0.8010204081632653,0.8078231292517006,0.8214285714285714,0.8384353741496599,0.8486394557823129,0.8724489795918368,0.8928571428571429,0.9064625850340136,0.9302721088435374,0.9404761904761905,0.9506802721088435,0.967687074829932,0.9812925170068028,0.9914965986394558,1.001700680272109,1.0119047619047619,1.0153061224489797,1.0187074829931972,1.022108843537415,1.022108843537415,1.0255102040816326,1.0255102040816326,1.032312925170068,1.032312925170068,1.0357142857142858,1.0391156462585034,1.0425170068027212,1.0493197278911566,1.0493197278911566,1.0561224489795917,1.0561224489795917,1.0595238095238095,1.0595238095238095,1.0595238095238095,1.0595238095238095,1.0629251700680271,1.0629251700680271,1.0629251700680271,1.0629251700680271,1.0527210884353742,1.0391156462585034,1.0119047619047619,0.9914965986394558,0.9846938775510204,0.9710884353741497,0.9608843537414966,0.9506802721088435,0.9370748299319728,0.9336734693877551,0.9268707482993197,0.9200680272108843,0.9166666666666666,0.9132653061224489,0.9132653061224489,0.9132653061224489,0.9064625850340136,0.9064625850340136,0.9030612244897959,0.8996598639455783,0.8996598639455783,0.8996598639455783,0.8996598639455783,0.8996598639455783,0.8996598639455783,0.8996598639455783,0.8962585034013606,0.8894557823129252,0.8826530612244898,0.8758503401360545,0.8690476190476191,0.858843537414966,0.8520408163265306,0.8452380952380952,0.8350340136054422,0.8180272108843537,0.8044217687074829,0.7840136054421769,0.7670068027210885,0.7534013605442177,0.7431972789115646,0.7295918367346939,0.7227891156462585,0.7159863945578231,0.7091836734693877,0.7023809523809523,0.6989795918367347,0.6921768707482994,0.685374149659864,0.6819727891156463,0.6751700680272109,0.6751700680272109,0.6717687074829932,0.6615646258503401,0.6547619047619048,0.641156462585034,0.6343537414965986,0.6241496598639455,0.6139455782312925,0.6071428571428571,0.5969387755102041,0.5901360544217688,0.5799319727891157,0.5697278911564626,0.5629251700680272,0.5493197278911565,0.5425170068027211,0.5357142857142857,0.5357142857142857,0.5357142857142857,0.5357142857142857,0.5357142857142857,0.5357142857142857,0.5357142857142857,0.5357142857142857,0.5357142857142857,0.5357142857142857,0.5357142857142857,0.5357142857142857,0.5357142857142857,0.5357142857142857,0.5357142857142857,0.5357142857142857,0.5357142857142857,0.5357142857142857,0.5425170068027211,0.5561224489795918,0.5663265306122449,0.5731292517006803,0.5833333333333334,0.5867346938775511,0.5867346938775511,0.5867346938775511,0.5867346938775511,0.5867346938775511,0.5867346938775511,0.5867346938775511,0.5867346938775511,0.5867346938775511,0.5867346938775511,0.5867346938775511,0.5867346938775511,0.5867346938775511,0.5867346938775511,0.5867346938775511,0.5867346938775511,0.5867346938775511,0.5867346938775511,0.5867346938775511,0.5867346938775511,0.5867346938775511,0.5867346938775511,0.5867346938775511,0.5867346938775511,0.5867346938775511,0.5867346938775511,0.5867346938775511,0.5901360544217688,0.5935374149659864,0.5969387755102041,0.5969387755102041,0.6037414965986394,0.6037414965986394,0.6071428571428571,0.6139455782312925,0.6139455782312925,0.6173469387755102,0.6173469387755102,0.6173469387755102,0.6173469387755102,0.6173469387755102,0.6173469387755102,0.6173469387755102,0.6173469387755102,0.6173469387755102,0.6173469387755102,0.6173469387755102,0.6173469387755102,0.6173469387755102,0.6173469387755102,0.6173469387755102,0.6173469387755102,0.6173469387755102,0.6173469387755102,0.6173469387755102,0.6173469387755102,0.6173469387755102,0.6173469387755102,0.6173469387755102,0.6173469387755102,0.6173469387755102,0.6173469387755102,0.6173469387755102,0.6173469387755102,0.6173469387755102,0.6173469387755102,0.6173469387755102,0.6173469387755102,0.6173469387755102,0.6173469387755102,0.6173469387755102,0.6173469387755102,0.6173469387755102,0.6173469387755102,0.6173469387755102,0.6173469387755102,0.6173469387755102,0.6173469387755102,0.6139455782312925,0.6071428571428571,0.6037414965986394,0.5935374149659864,0.5867346938775511,0.5731292517006803,0.5595238095238095,0.5493197278911565,0.5493197278911565,0.5391156462585034,0.5255102040816326,0.5153061224489796,0.5017006802721088,0.49489795918367346,0.4846938775510204,0.477891156462585,0.44727891156462585,0.4268707482993197,0.4098639455782313,0.39625850340136054,0.3758503401360544,0.358843537414966,0.3486394557823129,0.33163265306122447,0.31802721088435376,0.304421768707483,0.2942176870748299,0.28401360544217685,0.27040816326530615,0.2534013605442177,0.23979591836734693,0.22959183673469388,0.2193877551020408,0.21258503401360543,0.21258503401360543,0.20918367346938777,0.20238095238095238,0.1921768707482993,0.18537414965986396,0.1717687074829932,0.15476190476190477,0.13435374149659865,0.12074829931972789,0.11054421768707483,0.10374149659863946,0.09693877551020408,0.08333333333333333,0.07312925170068027,0.06292517006802721,0.05272108843537415,0.03571428571428571,0.022108843537414966,0.00510204081632653,-0.008503401360544218,-0.015306122448979591,-0.015306122448979591,-0.015306122448979591,-0.015306122448979591,-0.015306122448979591,-0.015306122448979591,-0.015306122448979591,-0.015306122448979591,-0.015306122448979591,-0.015306122448979591,-0.015306122448979591,-0.015306122448979591,-0.015306122448979591,-0.015306122448979591,-0.015306122448979591,-0.015306122448979591,-0.015306122448979591,-0.015306122448979591,-0.015306122448979591,-0.015306122448979591,-0.015306122448979591,-0.015306122448979591,-0.015306122448979591,-0.011904761904761904,0.015306122448979591,0.04251700680272109,0.07653061224489796,0.11394557823129252,0.1445578231292517,0.17517006802721088,0.20578231292517007,0.23299319727891157,0.2568027210884354,0.28741496598639454,0.3112244897959184,0.3486394557823129,0.36904761904761907,0.3826530612244898,0.4030612244897959,0.42346938775510207,0.44047619047619047,0.45068027210884354,0.4608843537414966,0.4710884353741497,0.477891156462585,0.4880952380952381,0.49489795918367346,0.5085034013605442,0.5153061224489796,0.5221088435374149,0.532312925170068,0.5391156462585034,0.5459183673469388,0.5561224489795918,0.5663265306122449,0.576530612244898,0.6139455782312925,0.6275510204081632,0.6275510204081632,0.6309523809523809,0.6309523809523809,0.6309523809523809,0.6309523809523809,0.6309523809523809,0.6309523809523809,0.6309523809523809,0.6309523809523809,0.6309523809523809,0.6309523809523809,0.6309523809523809,0.6309523809523809,0.6309523809523809,0.6309523809523809,0.6309523809523809,0.6309523809523809,0.6309523809523809,0.6309523809523809,0.6309523809523809,0.6309523809523809,0.6309523809523809,0.6309523809523809,0.6309523809523809,0.6309523809523809,0.5595238095238095,0.477891156462585,0.38605442176870747,0.33163265306122447,0.304421768707483,0.29081632653061223,0.28401360544217685,0.27721088435374147,0.27040816326530615,0.27040816326530615,0.26360544217687076,0.2568027210884354,0.2534013605442177,0.25,0.2465986394557823,0.24319727891156462,0.23639455782312926,0.23639455782312926,0.22959183673469388,0.2193877551020408,0.1989795918367347,0.18197278911564627,0.1683673469387755,0.15816326530612246,0.15136054421768708,0.15136054421768708,0.15136054421768708,0.15136054421768708,0.14795918367346939,0.14795918367346939,0.14795918367346939,0.14795918367346939,0.1445578231292517,0.1445578231292517,0.1445578231292517,0.1445578231292517,0.1445578231292517,0.1445578231292517,0.1445578231292517,0.1445578231292517,0.1445578231292517,0.1445578231292517,0.1445578231292517,0.1445578231292517,0.1445578231292517,0.1445578231292517,0.14795918367346939,0.1683673469387755,0.18537414965986396,0.20918367346938777,0.22959183673469388,0.2602040816326531,0.2976190476190476,0.33163265306122447,0.36904761904761907,0.4098639455782313,0.467687074829932,0.5187074829931972,0.5561224489795918,0.6037414965986394,0.6139455782312925,0.6309523809523809,0.641156462585034,0.6547619047619048,0.6649659863945578,0.6751700680272109,0.6785714285714286,0.685374149659864,0.685374149659864,0.685374149659864,0.685374149659864,0.685374149659864,0.685374149659864,0.685374149659864,0.685374149659864,0.685374149659864,0.685374149659864,0.685374149659864,0.685374149659864,0.685374149659864,0.685374149659864,0.685374149659864,0.685374149659864,0.685374149659864,0.685374149659864,0.685374149659864,0.685374149659864,0.685374149659864,0.685374149659864,0.685374149659864,0.685374149659864,0.685374149659864,0.685374149659864,0.685374149659864,0.685374149659864,0.685374149659864,0.685374149659864,0.685374149659864,0.685374149659864,0.6785714285714286,0.6785714285714286,0.6785714285714286,0.6751700680272109,0.6751700680272109,0.6751700680272109,0.6785714285714286,0.685374149659864,0.6989795918367347,0.70578231292517,0.7125850340136054,0.7125850340136054,0.7193877551020408,0.7261904761904762,0.7329931972789115,0.7397959183673469,0.7465986394557823,0.7568027210884354,0.7670068027210885,0.7840136054421769,0.8214285714285714,0.8418367346938775,0.8622448979591837,0.8894557823129252,0.9030612244897959,0.9132653061224489,0.9200680272108843,0.9268707482993197,0.9336734693877551,0.9438775510204082,0.9574829931972789,0.9710884353741497,0.9812925170068028,0.9846938775510204,0.9880952380952381,0.9880952380952381,0.9880952380952381,0.9880952380952381,0.9880952380952381,0.9880952380952381,0.9880952380952381,0.9880952380952381,0.9880952380952381,0.9880952380952381,0.9880952380952381,0.9880952380952381,0.9880952380952381,0.9880952380952381,0.9880952380952381,0.9880952380952381,0.9880952380952381,0.9880952380952381,0.9880952380952381,0.9880952380952381,0.9880952380952381,0.9880952380952381,0.9880952380952381,0.9914965986394558,0.9914965986394558,0.9914965986394558,0.9914965986394558,0.9914965986394558,0.9914965986394558,0.9846938775510204,0.9778911564625851,0.9710884353741497,0.9642857142857143,0.9574829931972789,0.9506802721088435,0.9438775510204082,0.9370748299319728,0.9336734693877551,0.9302721088435374,0.9302721088435374,0.9302721088435374,0.9268707482993197,0.9268707482993197,0.9268707482993197,0.9268707482993197,0.9268707482993197,0.9268707482993197,0.9268707482993197,0.9268707482993197,0.9268707482993197,0.9268707482993197,0.9268707482993197,0.9268707482993197,0.9268707482993197,0.9268707482993197,0.9268707482993197,0.9268707482993197,0.9268707482993197,0.9268707482993197,0.9268707482993197,0.9268707482993197,0.9268707482993197,0.9268707482993197,0.9268707482993197,0.9268707482993197,0.9268707482993197,0.9268707482993197,0.9268707482993197,0.9268707482993197,0.9268707482993197,0.9268707482993197,0.9268707482993197,0.9268707482993197,0.9268707482993197,0.9268707482993197,0.9268707482993197,0.9268707482993197,0.9268707482993197,0.9268707482993197,0.9268707482993197,0.9268707482993197,0.9268707482993197,0.9268707482993197,0.9268707482993197,0.9268707482993197,0.9268707482993197,0.9268707482993197,0.9268707482993197,0.9268707482993197,0.9268707482993197,0.9268707482993197,0.9268707482993197,0.9268707482993197,0.9268707482993197,0.9268707482993197,0.9268707482993197,0.9268707482993197,0.9268707482993197,0.9268707482993197,0.9268707482993197,0.9268707482993197,0.9268707482993197,0.9268707482993197,0.9268707482993197,0.9268707482993197,0.9268707482993197,0.9268707482993197,0.9268707482993197,0.9268707482993197,0.9268707482993197,0.9268707482993197,0.9268707482993197,0.9268707482993197,0.9268707482993197,0.9268707482993197,0.9268707482993197,0.9268707482993197,0.9268707482993197,0.9268707482993197,0.9268707482993197,0.9268707482993197,0.9268707482993197,0.9268707482993197,0.9268707482993197,0.9268707482993197,0.9268707482993197,0.9268707482993197,0.9268707482993197,0.9268707482993197,0.9268707482993197,0.9268707482993197,0.9268707482993197,0.9268707482993197,0.9268707482993197,0.9268707482993197,0.9268707482993197,0.9268707482993197,0.9268707482993197,0.9268707482993197,0.9268707482993197,0.9268707482993197,0.9268707482993197],"y":[-4.285714285714286,-4.285714285714286,-4.285714285714286,-4.285714285714286,0.580952380952381,0.580952380952381,0.6095238095238096,0.6476190476190476,0.6952380952380952,0.8095238095238095,0.8666666666666667,0.8952380952380953,0.9428571428571428,1,1.0285714285714285,1.0571428571428572,1.1047619047619048,1.1142857142857143,1.1238095238095238,1.1238095238095238,1.1333333333333333,1.1333333333333333,1.1333333333333333,1.1333333333333333,1.1333333333333333,1.1333333333333333,1.1333333333333333,1.1333333333333333,1.1333333333333333,1.1428571428571428,1.1428571428571428,1.1714285714285715,1.1714285714285715,1.1904761904761905,1.2190476190476192,1.2285714285714286,1.2285714285714286,1.2190476190476192,1.2190476190476192,1.2190476190476192,1.2190476190476192,1.2190476190476192,1.2190476190476192,1.2190476190476192,1.2190476190476192,1.2190476190476192,1.2190476190476192,1.2190476190476192,1.2190476190476192,1.2190476190476192,1.276190476190476,1.438095238095238,1.5238095238095237,1.5904761904761904,1.6095238095238096,1.5809523809523809,1.3428571428571427,0.8666666666666667,0.4380952380952381,0.05714285714285714,-0.26666666666666666,-0.5238095238095238,-0.7904761904761904,-0.9619047619047619,-1.0952380952380953,-1.2571428571428571,-1.361904761904762,-1.4761904761904763,-1.5047619047619047,-1.5238095238095237,-1.5333333333333334,-1.542857142857143,-1.5523809523809524,-1.5714285714285714,-1.6,-1.638095238095238,-1.6666666666666667,-1.7142857142857142,-1.7428571428571429,-1.7714285714285714,-1.7809523809523808,-1.7809523809523808,-1.7809523809523808,-1.7809523809523808,-1.7809523809523808,-1.7809523809523808,-1.7809523809523808,-1.7809523809523808,-1.7809523809523808,-1.7809523809523808,-1.7809523809523808,-1.7904761904761906,-1.7904761904761906,-1.7809523809523808,-1.7714285714285714,-1.7428571428571429,-1.7428571428571429,-1.723809523809524,-1.723809523809524,-1.723809523809524,-1.723809523809524,-1.723809523809524,-1.723809523809524,-1.723809523809524,-1.723809523809524,-1.7142857142857142,-1.7142857142857142,-1.7047619047619047,-1.6952380952380952,-1.6857142857142857,-1.6857142857142857,-1.6857142857142857,-1.6857142857142857,-1.6857142857142857,-1.6857142857142857,-1.6857142857142857,-1.6857142857142857,-1.6857142857142857,-1.6857142857142857,-1.6857142857142857,-1.6857142857142857,-1.6571428571428573,-1.619047619047619,-1.5142857142857142,-1.3904761904761904,-1.2380952380952381,-1.0666666666666667,-0.8666666666666667,-0.7047619047619048,-0.44761904761904764,-0.2857142857142857,-0.1523809523809524,-0.0380952380952381,0.06666666666666667,0.14285714285714285,0.2,0.22857142857142856,0.2571428571428571,0.2761904761904762,0.3047619047619048,0.34285714285714286,0.4095238095238095,0.4380952380952381,0.4666666666666667,0.4857142857142857,0.5047619047619047,0.5333333333333333,0.5523809523809524,0.5619047619047619,0.5714285714285714,0.5904761904761905,0.6,0.6095238095238096,0.6190476190476191,0.6285714285714286,0.638095238095238,0.6476190476190476,0.6571428571428571,0.6761904761904762,0.6761904761904762,0.6761904761904762,0.6857142857142857,0.6857142857142857,0.6857142857142857,0.6857142857142857,0.6857142857142857,0.6857142857142857,0.6857142857142857,0.6857142857142857,0.6857142857142857,0.6857142857142857,0.6857142857142857,0.6857142857142857,0.6857142857142857,0.6857142857142857,0.6857142857142857,0.6952380952380952,0.6952380952380952,0.6952380952380952,0.6952380952380952,0.7047619047619048,0.7047619047619048,0.7047619047619048,