[{"success":true,"trial_type":"fullscreen","trial_index":0,"time_elapsed":3736,"internal_node_id":"0.0-0.0","protocol_sum":"","subject_identifier":526,"subject_sum":[75,232,65,17,166,19,101,75,54,36,21,229,99,203,118,7,223,123,32,59,93,48,56,2,168,165,70,6,27,188,120,71],"subject_pair":263,"STUDY_ID":"66a3ed3c5d10d0e7d8a6b9da","PROLIFIC_PID":"669d682efab2137fa356f7ba","SESSION_ID":"66a45b72502a5cd3c95525ef","practice_instructions":1,"leaderboard_instructions":2,"bonus":0,"reveal_word":false,"self_rating":"2","confidence":"75"},{"view_history":"[{\"page_index\":0,\"viewing_time\":4790}]","rt":4790,"trial_type":"instructions","trial_index":1,"time_elapsed":8528,"internal_node_id":"0.0-1.0","protocol_sum":"","subject_identifier":526,"subject_sum":[75,232,65,17,166,19,101,75,54,36,21,229,99,203,118,7,223,123,32,59,93,48,56,2,168,165,70,6,27,188,120,71],"subject_pair":263,"STUDY_ID":"66a3ed3c5d10d0e7d8a6b9da","PROLIFIC_PID":"669d682efab2137fa356f7ba","SESSION_ID":"66a45b72502a5cd3c95525ef","practice_instructions":1,"leaderboard_instructions":2,"bonus":0,"reveal_word":false,"self_rating":"2","confidence":"75"},{"view_history":"[{\"page_index\":0,\"viewing_time\":15244}]","rt":15244,"trial_type":"instructions","trial_index":2,"time_elapsed":23773,"internal_node_id":"0.0-2.0-0.0","protocol_sum":"","subject_identifier":526,"subject_sum":[75,232,65,17,166,19,101,75,54,36,21,229,99,203,118,7,223,123,32,59,93,48,56,2,168,165,70,6,27,188,120,71],"subject_pair":263,"STUDY_ID":"66a3ed3c5d10d0e7d8a6b9da","PROLIFIC_PID":"669d682efab2137fa356f7ba","SESSION_ID":"66a45b72502a5cd3c95525ef","practice_instructions":1,"leaderboard_instructions":2,"bonus":0,"reveal_word":false,"self_rating":"2","confidence":"75"},{"rt":5903,"responses":"{\"Q0\":\"... reveal the word with as <b>few letter guesses</b> as possible\"}","question_order":"[0]","trial_type":"survey-multi-choice","trial_index":3,"time_elapsed":29677,"internal_node_id":"0.0-2.0-1.0","protocol_sum":"","subject_identifier":526,"subject_sum":[75,232,65,17,166,19,101,75,54,36,21,229,99,203,118,7,223,123,32,59,93,48,56,2,168,165,70,6,27,188,120,71],"subject_pair":263,"correct":true,"test_part":"multichoice_nonpretend","STUDY_ID":"66a3ed3c5d10d0e7d8a6b9da","PROLIFIC_PID":"669d682efab2137fa356f7ba","SESSION_ID":"66a45b72502a5cd3c95525ef","practice_instructions":1,"leaderboard_instructions":2,"bonus":0,"reveal_word":false,"self_rating":"2","confidence":"75"},{"view_history":"[{\"page_index\":0,\"viewing_time\":21299}]","rt":21299,"trial_type":"instructions","trial_index":4,"time_elapsed":50979,"internal_node_id":"0.0-3.0","protocol_sum":"","subject_identifier":526,"subject_sum":[75,232,65,17,166,19,101,75,54,36,21,229,99,203,118,7,223,123,32,59,93,48,56,2,168,165,70,6,27,188,120,71],"subject_pair":263,"STUDY_ID":"66a3ed3c5d10d0e7d8a6b9da","PROLIFIC_PID":"669d682efab2137fa356f7ba","SESSION_ID":"66a45b72502a5cd3c95525ef","practice_instructions":1,"leaderboard_instructions":2,"bonus":0,"reveal_word":false,"self_rating":"2","confidence":"75"},{"word":"ZEBRA","click_log":{"letter":["","E","A","P","S","B","Z","R"],"t":[0,8726,16634,23311,26594,29121,36564,38134],"hit":[null,1,1,0,0,1,1,1],"asked":["","E","EA","EAP","EAPS","EAPSB","EAPSBZ","EAPSBZR"],"word_state":["_____","_E___","_E__A","_E__A","_E__A","_EB_A","ZEB_A","ZEBRA"]},"hover_log":{"letter":["?","?","?","?","?","?","?","J","J","J","J","J","J","J","J","J","J","J","J","J","?","K","K","K","L","L","?","?","?","?","?","?","?","G","?","?","H","H","?","?","I","I","?","?","?","?","?","?","?","?","?","?","?","?","?","?","?","?","?","?","?","?","?","?","?","?","?","?","?","?","?","?","?","?","?","?","?","?","?","?","?","?","?","?","?","?","?","?","?","?","?","?","?","?","?","?","?","?","?","?","?","?","?","?","?","?","?","?","?","?","?","?","?","?","?","?","?","?","?","?","?","?","?","?","?","?","?","?","?","?","?","?","?","?","?","?","?","?","?","?","?","?","?","?","?","?","?","?","?","?","?","?","?","?","?","?","?","?","?","?","?","?","?","?","?","?","?","?","?","?","?","?","?","?","?","?","?","?","?","?","?","?","?","?","?","?","?","?","?","?","?","?","?","?","?","?","?","?","?","?","?","?","?","?","?","?","?","?","?","?","?","?","?","?","?","?","?","?","?","?","?","?","?","?","?","?","?","?","?","?","?","?","?","?","?","?","?","?","?","?","?","?","?","?","?","?","?","?","?","?","?","?","?","?","?","?","?","?","?","?","?","?","?","?","?","?","?","?","?","?","?","?","?","?","?","?","?","?","?","?","?","?","?","?","?","?","?","?","?","?","?","?","?","?","?","?","?","?","?","?","?","?","?","?","?","?","?","?","?","?","?","?","?","?","?","?","?","?","?","?","?","?","?","?","?","?","?","?","?","?","?","?","?","?","?","?","?","?","?","?","?","?","?","?","?","?","?","?","?","?","?","?","?","?","?","?","?","?","?","?","?","?","?","?","?","?","?","?","?","?","?","?","?","?","?","?","?","?","?","?","?","?","?","?","?","?","?","?","?","?","?","?","?","?","?","?","?","?","?","?","?","?","?","?","?","?","?","?","?","?","?","?","?","?","?","?","?","?","?","?","?","?","?","?","?","?","?","?","?","?","?","?","?","?","?","?","?","?","?","?","?","?","?","?","?","?","?","?","?","?","?","?","?","?","?","?","?","?","?","?","?","?","?","?","?","?","?","?","?","?","?","?","?","?","?","?","?","?","?","?","?","?","?","?","?","?","?","?","?","?","?","?","?","?","?","?","?","?","?","?","?","?","?","?","?","?","?","?","?","?","?","?","?","?","?","?","?","?","?","?","?","?","?","?","?","?","?","?","?","?","?","?","?","?","?","?","?","?","?","?","?","?","?","?","?","?","?","?","?","?","?","?","?","?","?","?","?","?","?","?","?","?","?","F","F","?","?","?","?","?","?","?","?","?","?","?","?","?","?","E","E","E","E","E","E","E","E","E","E","E","E","E","E","E","E","E","E","E","E","E","E","E","E","E","E","E","E","E","E","E","E","E","E","E","E","E","E","E","E","E","E","E","E","E","E","E","E","E","E","E","E","E","E","E","E","E","E","E","E","E","E","E","E","E","?","F","?","?","?","?","?","?","?","?","?","?","?","?","?","?","?","?","?","?","?","?","?","?","?","?","?","?","?","?","?","?","?","?","?","?","?","?","?","?","?","?","?","?","?","?","?","?","?","?","?","?","?","?","?","?","?","?","?","?","?","?","?","?","?","?","?","?","?","?","?","?","?","?","?","?","?","?","?","?","?","?","?","?","?","?","?","?","?","?","?","?","?","?","?","?","?","?","?","?","?","?","?","?","?","?","?","?","?","?","?","?","?","?","?","?","?","?","?","?","?","?","?","?","?","?","?","?","?","?","?","?","?","?","?","?","?","?","?","?","?","?","?","?","?","?","?","?","?","?","?","?","?","?","?","?","?","?","?","?","?","?","?","?","?","?","?","?","?","?","?","?","?","?","?","?","?","?","?","?","?","?","?","?","?","?","?","?","?","?","?","?","?","?","?","?","?","?","?","?","?","?","?","?","?","?","?","?","?","?","?","?","?","?","?","?","?","?","?","?","?","?","?","?","?","?","?","?","?","?","?","?","?","?","?","?","?","?","?","?","?","?","?","?","?","?","?","?","?","?","?","?","?","?","?","?","?","?","?","?","?","?","?","?","?","?","?","?","?","?","?","?","?","?","?","?","?","?","?","?","?","?","?","?","?","?","?","?","?","?","?","?","?","?","?","?","?","?","?","?","?","?","?","?","?","?","?","?","?","?","?","?","?","?","?","?","?","?","?","?","?","?","?","?","?","?","?","?","?","?","?","?","?","?","?","?","?","?","?","?","?","?","?","?","?","?","?","?","?","?","?","?","?","?","?","?","?","?","?","?","?","?","?","?","?","?","?","?","?","?","?","?","?","?","?","?","?","?","?","?","?","?","?","?","?","?","?","?","?","?","?","?","?","?","?","?","?","I","H","G","F","?","E","?","D","D","D","C","C","C","C","C","C","C","C","C","C","C","C","C","C","C","C","C","C","?","?","?","?","?","?","?","?","?","?","?","?","?","?","?","?","?","?","?","?","?","?","?","?","?","?","?","?","?","?","?","?","?","?","?","?","?","?","?","?","?","?","?","?","?","?","?","?","?","?","?","?","?","?","?","?","?","?","?","?","?","?","?","?","L","L","L","?","?","?","?","?","?","?","?","?","K","K","K","K","K","K","?","?","?","?","?","K","K","K","?","?","?","?","?","?","?","?","?","?","?","?","A","A","A","A","A","A","A","A","A","A","A","A","A","A","A","A","A","A","A","A","A","A","A","A","A","A","A","A","A","A","A","A","A","A","A","A","A","A","A","A","A","A","A","A","A","B","B","D","?","?","?","?","?","?","?","?","?","?","?","?","?","?","?","?","?","?","?","?","?","?","?","?","?","?","?","?","?","?","?","?","?","?","?","?","?","?","?","?","?","?","?","?","?","?","?","?","?","?","?","?","?","?","?","?","?","?","?","?","?","?","?","?","?","?","?","?","?","?","?","?","?","?","?","?","?","?","?","?","?","?","?","?","?","?","?","?","?","?","?","?","?","?","?","?","?","?","?","?","?","?","?","?","?","?","?","?","?","?","?","?","?","?","?","?","?","?","?","?","?","?","?","?","?","?","?","?","?","?","?","?","?","?","?","?","?","?","?","?","?","?","?","?","?","?","?","?","?","?","?","?","?","?","?","?","?","?","?","?","?","?","?","?","?","?","?","?","?","?","?","?","?","?","?","?","?","?","?","?","?","?","?","?","?","?","?","?","?","?","?","?","?","?","?","?","?","?","?","?","?","?","?","?","?","?","?","?","?","?","?","?","?","?","?","?","?","?","?","?","?","?","?","?","?","?","?","?","?","?","?","?","?","?","?","?","?","?","?","?","?","?","?","?","?","?","?","?","?","?","?","?","?","?","?","?","?","?","?","?","?","?","?","?","?","?","?","?","?","?","?","?","?","?","?","?","?","?","?","?","?","?","?","?","?","?","?","?","?","?","?","?","?","?","?","?","?","?","?","?","?","?","?","U","U","U","U","U","U","U","U","U","?","?","?","?","?","?","?","?","?","M","M","M","M","M","M","M","M","M","M","M","M","M","M","M","M","M","M","M","M","M","M","M","M","M","M","M","M","M","M","M","M","M","M","M","M","M","M","M","M","M","M","M","M","M","M","M","M","M","M","M","M","M","?","W","W","?","?","?","?","?","?","?","?","?","?","?","?","?","X","X","X","?","?","?","?","?","?","?","?","?","?","?","?","?","?","?","?","?","?","?","?","?","?","?","?","?","P","P","P","P","P","P","P","P","P","P","P","P","P","P","P","P","P","P","P","P","P","P","P","P","P","P","P","P","P","P","P","P","P","P","P","P","P","P","P","P","P","P","P","P","P","P","P","P","P","P","P","P","P","P","P","P","P","P","P","P","P","P","P","P","P","P","P","P","P","P","P","P","P","P","P","P","P","P","P","P","P","P","P","P","P","P","P","P","P","P","P","P","P","P","P","P","P","P","P","P","P","P","P","P","P","P","P","P","P","P","P","P","P","P","P","P","P","P","P","P","P","P","P","P","P","P","P","P","P","P","P","P","P","P","P","P","P","P","P","P","P","P","P","P","P","?","O","O","O","O","?","?","?","?","?","?","?","?","?","?","?","?","?","?","?","?","?","?","?","?","?","?","?","?","?","?","?","?","?","?","?","?","?","?","?","?","?","?","?","?","?","?","?","W","W","W","W","W","W","W","W","W","W","W","W","W","W","W","W","W","W","W","W","W","W","W","W","W","W","W","W","W","W","W","W","?","V","V","?","U","U","T","T","T","T","?","?","?","?","?","?","?","?","?","?","?","?","?","?","?","?","?","S","S","S","S","S","S","S","S","S","S","S","S","S","S","S","S","S","S","S","S","S","S","S","S","S","S","S","S","S","S","S","S","S","S","S","S","S","S","S","S","S","S","S","S","S","S","S","S","S","S","S","S","S","S","S","S","S","S","S","S","S","S","S","S","S","S","S","S","S","S","S","S","S","S","S","S","S","S","S","S","S","S","S","S","S","S","S","S","S","S","S","S","S","S","S","S","S","S","S","S","S","S","S","?","T","T","T","?","?","U","U","?","?","?","?","?","?","?","?","?","?","?","?","?","?","?","?","?","?","?","?","?","?","?","?","?","?","?","?","?","?","?","?","?","?","?","?","?","?","?","?","?","V","V","V","?","?","?","?","?","?","?","?","?","?","?","?","L","L","L","L","?","?","?","?","?","C","C","C","C","?","?","?","B","B","B","B","B","B","B","B","B","B","B","B","B","B","B","B","B","B","B","B","B","B","B","B","B","B","B","B","B","B","B","B","B","B","B","B","B","B","B","B","B","B","B","B","B","B","B","B","B","B","B","B","B","B","B","B","B","B","B","B","B","B","B","B","B","B","B","B","B","B","B","B","B","B","B","B","B","B","B","B","B","B","B","B","B","B","B","B","?","?","?","?","?","?","?","?","?","?","?","?","?","?","?","?","?","?","?","?","?","?","?","?","?","L","L","?","?","V","V","V","?","?","?","?","?","?","?","?","?","?","?","?","?","?","?","?","?","?","?","?","?","?","?","?","?","?","?","?","?","?","?","?","?","?","?","?","?","?","?","?","?","?","?","?","?","?","?","?","?","?","?","?","?","?","?","?","?","?","?","?","?","?","?","?","?","?","?","?","?","?","?","?","?","?","?","?","?","?","?","?","?","?","?","?","?","?","?","?","?","?","?","?","?","?","?","?","?","?","?","?","?","?","?","?","?","?","?","?","?","?","?","?","?","?","?","?","?","?","?","?","?","?","?","?","?","?","?","?","?","?","?","?","?","?","?","?","?","?","?","?","?","?","?","?","?","?","?","?","?","?","?","?","?","?","?","?","?","?","?","?","?","?","?","?","?","?","?","?","?","?","?","?","?","?","?","?","?","?","?","?","?","?","?","?","?","?","?","?","?","?","?","?","?","?","?","?","?","?","?","?","?","?","?","?","?","?","?","?","?","?","?","?","?","?","?","?","?","?","?","?","?","?","?","?","?","?","?","?","?","?","?","?","?","?","?","?","?","?","?","?","?","?","?","?","?","?","?","?","?","?","?","?","?","?","?","?","?","?","?","?","?","?","?","?","?","?","?","?","?","?","?","?","?","?","?","?","?","?","?","?","?","?","?","?","?","?","?","?","?","?","?","?","?","?","?","?","?","?","?","?","?","?","?","?","?","?","?","?","?","?","?","?","?","?","?","?","?","?","?","?","?","?","?","?","?","?","?","?","?","?","?","?","?","?","?","?","?","?","?","?","?","?","?","?","?","?","?","?","?","?","?","?","?","?","?","?","?","?","?","?","?","?","?","?","?","?","?","?","?","?","?","?","?","?","?","?","?","?","?","?","?","?","?","?","?","?","?","?","?","?","?","?","?","?","?","?","?","?","?","?","?","?","?","?","?","?","?","?","?","?","?","?","?","?","?","?","Z","Z","Z","Z","Z","Z","Z","Z","Z","Z","Z","Z","Z","Z","Z","Z","Z","Z","Z","Z","Z","Z","Z","Z","Z","Z","Z","Z","Z","Z","Z","Z","Z","Z","Z","Z","Z","Z","Z","Z","Z","Z","Z","Z","Z","Z","Z","?","Y","?","X","?","?","?","?","?","W","W","W","W","W","W","?","?","?","?","?","?","?","?","?","?","?","?","?","?","?","?","?","?","?","?","?","?","?","?","?","?","?","W","W","W","W","W","?","?","?","?","?","?","P","P","P","?","?","?","?","?","Q","Q","Q","Q","Q","Q","Q","Q","Q","?","R","R","R","R","R","R","R","R","R","R","R","R","R","R","R","R","R","R","R","R","R","R","R","R","R","R","R","R","R","R","R","R","R","R","R","R","?","?","?","?","?","?","?","?","?","?","?","?","?","?","?","?","?","?","?","?","?","?","?","?","?","?","?","?","?","?","?","?","?","?","?","?","?","?","?","?","?","?","?","?","?","?","?","?","?","?","?","?","?","?","?","?","?","?","?","?","?","?","?","?","?","?","?","?","?","?","?","?","?","?","?","?","?","?","?","?","?","?","?","?","?","?","?","?","?","?","?","?","?","?","?","?","?","?","?","?","?","?","?","?","?","?","?","?","?","?","?","?","?","?","?","?","?","?","?","?","?","?","?","?","?","?","?","?","?","?","?"],"t":[19,31,45,59,72,86,100,114,129,142,156,170,184,198,211,225,239,254,268,280,294,308,323,336,349,363,379,392,406,419,432,448,461,475,488,503,517,530,544,559,572,586,599,612,628,641,655,668,683,696,711,725,738,753,766,780,793,807,821,835,850,863,878,891,905,918,932,947,960,974,988,1001,1015,1030,1044,1057,1071,1086,1099,1113,1127,1141,1155,1169,1183,1196,1209,1224,1237,1251,1265,1281,1294,1306,1321,1334,1348,1363,1376,1392,1404,1418,1431,1446,1461,1474,1487,1500,1515,1529,1543,1556,1571,1584,1598,1611,1626,1640,1654,1668,1682,1695,1709,1723,1738,1750,1765,1778,1793,1806,1820,1834,1849,1862,1876,1890,1903,1918,1931,1945,1959,1973,1987,2001,2015,2029,2042,2056,2070,2084,2098,2111,2125,2139,2153,2167,2181,2195,2210,2222,2236,2250,2265,2278,2293,2306,2320,2334,2348,2361,2375,2389,2403,2417,2431,2445,2459,2472,2487,2500,2514,2527,2542,2556,2570,2583,2598,2611,2625,2638,2652,2667,2681,2695,2709,2722,2737,2751,2764,2777,2791,2805,2820,2833,2847,2861,2876,2889,2903,2916,2931,2944,2959,2972,2987,3000,3013,3027,3042,3056,3069,3083,3096,3112,3126,3138,3152,3166,3181,3195,3208,3222,3235,3250,3263,3277,3291,3305,3320,3334,3347,3361,3374,3388,3402,3416,3430,3444,3457,3472,3485,3499,3513,3527,3541,3555,3569,3582,3596,3610,3623,3638,3652,3666,3680,3694,3707,3721,3735,3749,3763,3776,3790,3804,3818,3831,3846,3860,3873,3887,3901,3915,3930,3943,3957,3971,3985,3998,4012,4027,4040,4054,4068,4082,4096,4110,4123,4137,4151,4166,4179,4194,4206,4222,4234,4249,4263,4276,4291,4304,4318,4333,4346,4360,4374,4388,4401,4415,4430,4443,4457,4470,4484,4498,4512,4526,4540,4554,4567,4582,4595,4609,4623,4638,4651,4664,4678,4693,4706,4720,4733,4749,4762,4776,4790,4803,4818,4831,4845,4859,4873,4887,4901,4915,4929,4942,4956,4970,4984,4998,5012,5026,5040,5053,5067,5082,5095,5109,5122,5137,5150,5165,5178,5192,5206,5219,5234,5248,5261,5275,5288,5303,5317,5331,5344,5358,5372,5386,5400,5413,5427,5441,5455,5469,5483,5497,5511,5525,5540,5553,5567,5580,5595,5608,5622,5636,5649,5663,5678,5692,5705,5718,5733,5747,5761,5774,5788,5802,5816,5831,5844,5859,5871,5886,5900,5914,5927,5941,5955,5970,5983,5996,6010,6024,6038,6053,6066,6080,6094,6108,6122,6135,6150,6164,6176,6191,6204,6218,6232,6247,6260,6274,6288,6302,6315,6330,6343,6357,6371,6386,6399,6414,6427,6441,6454,6468,6482,6497,6510,6525,6538,6552,6565,6580,6593,6607,6621,6634,6649,6662,6677,6690,6705,6719,6733,6746,6760,6773,6787,6801,6815,6829,6843,6857,6871,6885,6898,6913,6927,6941,6954,6968,6981,6996,7009,7024,7038,7052,7065,7080,7093,7106,7121,7135,7150,7162,7176,7190,7204,7218,7232,7246,7259,7273,7287,7301,7315,7329,7342,7356,7370,7384,7398,7412,7426,7439,7453,7467,7481,7495,7509,7524,7537,7551,7565,7579,7592,7606,7619,7633,7648,7662,7675,7690,7703,7717,7731,7745,7758,7772,7786,7800,7815,7828,7841,7855,7870,7884,7897,7912,7926,7940,7954,7968,7981,7995,8009,8023,8037,8050,8065,8079,8092,8105,8120,8134,8148,8161,8175,8189,8203,8216,8231,8244,8258,8271,8286,8299,8313,8327,8341,8356,8369,8383,8397,8410,8425,8439,8452,8466,8480,8494,8508,8522,8536,8550,8564,8577,8591,8606,8619,8632,8646,8660,8673,8688,8702,8715,8730,8743,8758,8771,8786,8799,8814,8827,8841,8854,8869,8882,8896,8911,8925,8938,8952,8965,8979,8993,9007,9021,9035,9049,9064,9077,9091,9106,9119,9133,9146,9160,9174,9188,9202,9216,9231,9243,9257,9271,9285,9299,9313,9326,9341,9354,9369,9382,9396,9410,9424,9438,9451,9465,9479,9493,9508,9521,9534,9549,9562,9576,9590,9604,9618,9632,9645,9660,9673,9687,9701,9715,9729,9743,9757,9770,9785,9798,9812,9826,9840,9854,9868,9882,9896,9910,9923,9937,9951,9965,9979,9992,10006,10021,10035,10048,10062,10076,10089,10104,10117,10132,10145,10159,10173,10188,10200,10214,10228,10242,10256,10271,10284,10298,10311,10325,10339,10354,10368,10381,10395,10409,10422,10436,10451,10464,10478,10493,10506,10520,10534,10548,10561,10574,10589,10603,10617,10630,10645,10659,10673,10687,10700,10714,10729,10742,10756,10770,10783,10797,10811,10824,10838,10852,10867,10880,10895,10908,10922,10936,10950,10964,10978,10991,11006,11020,11033,11046,11061,11075,11089,11102,11116,11130,11145,11158,11172,11186,11200,11213,11228,11242,11255,11269,11283,11297,11311,11325,11339,11352,11366,11380,11394,11407,11421,11435,11449,11463,11477,11490,11505,11518,11533,11546,11560,11573,11588,11601,11616,11629,11644,11657,11672,11685,11699,11713,11726,11741,11755,11768,11782,11796,11810,11824,11838,11851,11866,11879,11894,11907,11921,11935,11949,11962,11976,11990,12005,12018,12033,12046,12060,12073,12088,12101,12116,12129,12144,12157,12171,12185,12198,12213,12227,12240,12254,12268,12281,12295,12309,12324,12337,12351,12365,12379,12392,12406,12421,12434,12448,12462,12476,12490,12504,12518,12531,12545,12560,12573,12587,12601,12615,12628,12642,12657,12671,12684,12699,12712,12725,12740,12753,12767,12781,12795,12809,12823,12837,12850,12864,12878,12893,12906,12921,12935,12949,12962,12976,12990,13004,13017,13031,13045,13060,13072,13086,13101,13115,13129,13143,13156,13170,13184,13198,13211,13225,13239,13253,13266,13280,13294,13309,13323,13336,13350,13364,13378,13392,13406,13420,13434,13448,13461,13475,13489,13503,13517,13530,13545,13558,13572,13586,13600,13613,13627,13641,13656,13669,13683,13697,13711,13725,13739,13753,13766,13780,13793,13808,13822,13836,13850,13864,13877,13892,13905,13919,13933,13947,13961,13975,13988,14003,14017,14030,14045,14058,14072,14086,14100,14114,14127,14141,14155,14169,14183,14197,14210,14225,14238,14253,14265,14280,14294,14308,14321,14335,14349,14364,14377,14391,14405,14419,14432,14446,14459,14474,14488,14501,14515,14530,14543,14557,14571,14585,14599,14612,14626,14641,14654,14668,14682,14695,14709,14724,14738,14751,14765,14779,14793,14807,14820,14834,14848,14863,14876,14890,14904,14918,14932,14946,14960,14974,14988,15002,15015,15029,15044,15057,15071,15085,15099,15113,15126,15140,15154,15168,15181,15195,15209,15224,15237,15250,15265,15279,15293,15307,15320,15334,15348,15362,15376,15390,15404,15418,15432,15445,15459,15472,15486,15502,15515,15528,15542,15557,15570,15584,15597,15612,15626,15639,15653,15666,15680,15694,15708,15722,15736,15750,15763,15777,15792,15806,15819,15833,15848,15862,15875,15890,15903,15916,15931,15945,15959,15972,15986,16000,16014,16028,16042,16055,16069,16083,16098,16110,16125,16139,16153,16167,16180,16194,16208,16223,16237,16250,16264,16277,16291,16305,16319,16333,16348,16361,16375,16389,16403,16417,16431,16444,16458,16471,16486,16500,16513,16527,16541,16555,16569,16582,16596,16610,16624,16638,16652,16665,16680,16694,16708,16721,16736,16749,16764,16777,16791,16805,16819,16833,16847,16861,16874,16888,16903,16915,16929,16943,16958,16972,16984,16998,17014,17027,17041,17055,17069,17083,17096,17110,17124,17138,17152,17166,17180,17193,17208,17221,17235,17249,17263,17277,17291,17305,17319,17333,17347,17360,17374,17388,17402,17415,17429,17443,17457,17471,17484,17499,17513,17527,17541,17554,17568,17582,17596,17610,17623,17637,17652,17665,17679,17693,17707,17721,17734,17748,17762,17776,17789,17804,17819,17832,17845,17859,17873,17887,17901,17915,17928,17942,17956,17970,17984,17998,18012,18026,18039,18053,18067,18081,18096,18109,18123,18137,18151,18164,18179,18193,18206,18219,18234,18248,18262,18276,18289,18303,18317,18330,18345,18358,18373,18387,18400,18414,18428,18442,18456,18469,18483,18497,18512,18525,18540,18553,18567,18581,18595,18608,18622,18636,18650,18665,18679,18693,18706,18720,18733,18748,18761,18775,18789,18802,18817,18831,18845,18859,18873,18886,18900,18913,18928,18942,18956,18969,18984,18997,19011,19025,19039,19052,19067,19080,19095,19108,19123,19136,19150,19164,19178,19192,19205,19219,19233,19247,19261,19275,19289,19302,19316,19330,19345,19359,19372,19385,19400,19413,19428,19441,19455,19469,19483,19497,19511,19524,19539,19552,19567,19580,19593,19607,19621,19635,19650,19663,19677,19691,19705,19719,19733,19746,19760,19774,19788,19801,19816,19830,19843,19860,19871,19885,19898,19913,19927,19940,19954,19969,19983,19996,20010,20024,20038,20052,20066,20079,20093,20107,20122,20134,20148,20162,20176,20190,20205,20218,20232,20246,20260,20274,20287,20300,20315,20330,20343,20356,20370,20384,20398,20412,20426,20440,20454,20468,20482,20496,20509,20523,20538,20551,20565,20579,20593,20606,20620,20634,20648,20662,20676,20689,20703,20716,20731,20746,20759,20773,20786,20800,20814,20829,20842,20856,20870,20884,20898,20912,20926,20940,20953,20967,20981,20995,21009,21022,21036,21050,21064,21078,21091,21106,21121,21133,21147,21161,21175,21190,21203,21216,21230,21244,21258,21272,21286,21300,21315,21328,21341,21357,21370,21384,21397,21411,21425,21439,21453,21467,21480,21494,21508,21522,21536,21550,21564,21578,21593,21605,21619,21633,21647,21660,21674,21688,21704,21716,21731,21744,21758,21772,21787,21799,21813,21827,21841,21855,21869,21883,21897,21911,21925,21939,21952,21966,21980,21994,22008,22022,22036,22049,22064,22077,22091,22104,22118,22132,22147,22160,22173,22187,22202,22216,22230,22244,22257,22271,22287,22299,22313,22328,22341,22354,22368,22383,22396,22409,22424,22438,22452,22465,22479,22493,22508,22521,22535,22549,22563,22577,22592,22604,22618,22632,22646,22660,22674,22687,22702,22717,22729,22743,22756,22771,22785,22799,22812,22826,22840,22853,22868,22881,22896,22911,22924,22937,22951,22965,22979,22993,23007,23020,23035,23049,23063,23077,23090,23104,23118,23132,23147,23159,23174,23187,23202,23215,23229,23242,23256,23270,23284,23297,23317,23326,23340,23354,23368,23382,23396,23409,23423,23437,23451,23464,23478,23493,23506,23520,23534,23548,23562,23576,23589,23603,23616,23631,23644,23659,23672,23687,23701,23715,23728,23742,23755,23770,23783,23798,23811,23825,23839,23853,23867,23881,23894,23909,23923,23937,23951,23964,23979,23992,24007,24020,24033,24048,24061,24076,24089,24103,24117,24131,24145,24159,24172,24186,24200,24214,24227,24242,24255,24270,24283,24298,24311,24326,24339,24353,24367,24381,24395,24409,24422,24436,24450,24464,24477,24492,24505,24519,24534,24547,24561,24575,24589,24602,24616,24630,24644,24658,24672,24687,24699,24715,24727,24741,24755,24769,24782,24796,24810,24824,24838,24851,24866,24879,24894,24908,24922,24936,24949,24963,24977,24991,25004,25018,25033,25046,25060,25074,25088,25102,25116,25129,25144,25157,25171,25185,25199,25213,25227,25241,25255,25269,25282,25296,25310,25325,25338,25352,25365,25379,25392,25408,25421,25434,25448,25463,25476,25490,25504,25518,25532,25546,25560,25574,25587,25601,25615,25629,25643,25657,25671,25685,25699,25712,25726,25741,25753,25768,25781,25795,25810,25824,25838,25851,25864,25879,25892,25907,25921,25934,25948,25962,25975,25989,26003,26017,26032,26045,26059,26073,26088,26101,26115,26128,26142,26157,26171,26184,26198,26212,26226,26240,26254,26268,26282,26295,26308,26322,26337,26351,26365,26378,26392,26406,26419,26434,26447,26462,26475,26490,26503,26517,26531,26545,26559,26572,26587,26600,26614,26627,26643,26656,26670,26684,26698,26712,26726,26739,26752,26767,26780,26794,26809,26823,26836,26850,26864,26877,26891,26906,26919,26934,26947,26962,26975,26989,27003,27016,27031,27045,27059,27072,27086,27100,27115,27127,27142,27155,27169,27183,27197,27211,27224,27238,27253,27266,27281,27294,27308,27322,27336,27349,27363,27378,27392,27406,27419,27433,27446,27461,27475,27489,27502,27516,27529,27544,27558,27572,27586,27599,27613,27627,27641,27655,27668,27682,27697,27710,27724,27738,27752,27765,27779,27793,27807,27821,27835,27849,27863,27878,27892,27904,27919,27932,27947,27960,27974,27988,28002,28016,28030,28044,28057,28072,28086,28100,28114,28126,28141,28155,28169,28183,28196,28210,28224,28238,28251,28265,28279,28293,28306,28320,28334,28348,28363,28376,28389,28403,28417,28432,28445,28459,28473,28487,28501,28517,28528,28543,28556,28571,28584,28598,28611,28626,28639,28654,28667,28681,28695,28709,28724,28737,28750,28765,28778,28792,28806,28820,28834,28848,28863,28876,28889,28903,28918,28931,28944,28959,28972,28987,29000,29014,29028,29042,29056,29069,29085,29098,29112,29125,29139,29153,29167,29181,29195,29210,29223,29237,29250,29265,29278,29292,29306,29320,29334,29348,29362,29376,29389,29404,29417,29431,29444,29458,29472,29486,29500,29515,29528,29542,29556,29569,29584,29598,29611,29626,29638,29652,29667,29681,29694,29708,29722,29736,29750,29764,29777,29791,29805,29820,29833,29847,29861,29875,29888,29903,29916,29931,29944,29958,29971,29986,29999,30013,30028,30041,30056,30068,30083,30097,30111,30124,30138,30153,30166,30180,30194,30208,30222,30235,30249,30264,30277,30292,30305,30318,30333,30347,30360,30374,30388,30402,30416,30429,30443,30458,30470,30484,30498,30512,30527,30541,30554,30569,30582,30596,30609,30623,30637,30652,30666,30679,30693,30707,30720,30735,30750,30764,30777,30790,30804,30818,30832,30846,30860,30874,30889,30902,30915,30929,30944,30957,30971,30984,30998,31012,31026,31040,31053,31068,31082,31096,31110,31123,31137,31152,31165,31179,31193,31207,31221,31235,31249,31262,31276,31290,31305,31318,31332,31346,31358,31373,31386,31401,31414,31429,31442,31457,31470,31484,31498,31512,31525,31540,31553,31568,31581,31595,31608,31623,31636,31651,31664,31679,31692,31706,31720,31734,31749,31762,31775,31789,31803,31817,31831,31845,31859,31873,31887,31900,31914,31928,31941,31956,31971,31983,31997,32011,32025,32039,32053,32067,32081,32095,32108,32123,32136,32150,32163,32178,32191,32206,32219,32234,32247,32261,32275,32289,32303,32317,32331,32344,32359,32372,32386,32400,32413,32428,32442,32455,32469,32483,32497,32511,32525,32538,32553,32566,32580,32593,32607,32621,32636,32650,32663,32677,32691,32705,32719,32733,32746,32761,32774,32788,32802,32816,32830,32844,32858,32872,32886,32899,32914,32927,32941,32955,32969,32983,32997,33011,33025,33040,33054,33067,33080,33094,33108,33122,33137,33149,33163,33178,33191,33205,33219,33232,33246,33261,33273,33287,33301,33315,33330,33343,33358,33371,33385,33399,33413,33427,33440,33453,33468,33482,33496,33509,33523,33537,33552,33565,33579,33593,33607,33621,33635,33648,33663,33677,33691,33704,33719,33732,33746,33759,33774,33787,33801,33815,33828,33843,33857,33871,33885,33899,33913,33926,33940,33954,33968,33983,33996,34009,34024,34037,34051,34065,34079,34093,34107,34120,34135,34148,34162,34176,34189,34204,34218,34231,34246,34259,34273,34287,34300,34315,34328,34342,34356,34370,34384,34398,34412,34426,34439,34453,34467,34481,34496,34509,34523,34537,34551,34564,34578,34592,34606,34620,34634,34647,34662,34675,34689,34703,34717,34731,34744,34759,34772,34786,34800,34814,34827,34842,34856,34869,34883,34897,34910,34926,34940,34953,34967,34981,34995,35008,35023,35037,35050,35063,35077,35091,35106,35119,35133,35147,35161,35174,35188,35203,35216,35230,35244,35257,35272,35286,35299,35313,35327,35341,35355,35368,35382,35396,35410,35424,35438,35452,35466,35480,35493,35507,35522,35535,35549,35563,35577,35591,35605,35618,35632,35645,35660,35674,35688,35701,35715,35729,35743,35756,35771,35784,35799,35812,35827,35841,35854,35867,35881,35895,35910,35924,35938,35951,35965,35979,35993,36006,36021,36035,36049,36063,36076,36090,36104,36117,36131,36145,36160,36173,36187,36201,36215,36229,36243,36257,36271,36284,36298,36311,36326,36339,36354,36367,36382,36395,36409,36423,36437,36451,36464,36478,36492,36507,36520,36534,36548,36562,36576,36590,36604,36617,36631,36645,36659,36673,36687,36701,36715,36728,36742,36756,36770,36783,36798,36811,36825,36839,36853,36867,36881,36895,36910,36923,36937,36950,36965,36978,36992,37006,37020,37033,37047,37061,37076,37089,37104,37117,37131,37144,37159,37172,37186,37200,37214,37227,37242,37256,37270,37284,37298,37311,37325,37339,37355,37368,37383,37395,37408,37423,37436,37450,37463,37478,37492,37505,37519,37533,37548,37561,37574,37588,37603,37616,37630,37644,37658,37672,37686,37700,37713,37727,37741,37755,37769,37782,37796,37811,37826,37838,37852,37867,37881,37895,37908,37921,37936,37949,37963,37978,37991,38006,38019,38033,38047,38061,38075,38089,38103,38116,38130,38144,38158,38172,38186,38200,38214,38227,38241,38254,38269,38283,38296,38311,38324,38337,38352,38365,38379,38393,38407,38421,38435,38448,38462,38476,38490,38504,38518,38532,38546,38559,38574,38588,38601,38616,38629,38643,38656,38671,38684,38699,38712,38727,38740,38755,38768,38782,38796,38809,38823,38838,38851,38866,38879,38892,38907,38920,38934,38948,38962,38976,38990,39004,39018,39031,39046,39059,39073,39087,39101,39115,39129,39143,39156,39171,39184,39199,39212,39227,39239,39253,39268,39281,39295,39308,39323,39337,39351,39364,39378,39392,39406,39420,39434,39447,39462,39475,39490,39503,39517,39531,39546,39559,39573,39586,39600,39614,39628,39642,39656,39670,39684,39698,39712,39726,39740,39753,39767,39781,39794,39808,39823,39836,39850,39864,39878,39892,39906,39920,39933,39947,39961,39975,39990,40003,40016,40030,40045,40059,40072,40086,40100,40114,40127,40142],"hit":[null],"x":[-2.0408163265306123,-2.0408163265306123,0.06802721088435375,0.061224489795918366,0.05442176870748299,0.04081632653061224,0.034013605442176874,0.030612244897959183,0.027210884353741496,0.023809523809523808,0.02040816326530612,0.02040816326530612,0.02040816326530612,0.02040816326530612,0.02040816326530612,0.02040816326530612,0.02040816326530612,0.02040816326530612,0.02040816326530612,0.02040816326530612,0.06462585034013606,0.1054421768707483,0.1292517006802721,0.1836734693877551,0.24149659863945577,0.30612244897959184,0.3469387755102041,0.41836734693877553,0.5170068027210885,0.608843537414966,0.6666666666666666,0.7551020408163265,0.826530612244898,0.8809523809523809,0.9251700680272109,0.9387755102040817,0.9761904761904762,1.0136054421768708,1.054421768707483,1.0782312925170068,1.1224489795918366,1.1768707482993197,1.2414965986394557,1.3197278911564625,1.3673469387755102,1.4557823129251701,1.5272108843537415,1.5442176870748299,1.564625850340136,1.5714285714285714,1.5714285714285714,1.5714285714285714,1.5714285714285714,1.5714285714285714,1.5714285714285714,1.5714285714285714,1.5714285714285714,1.5714285714285714,1.5714285714285714,1.5714285714285714,1.5714285714285714,1.5748299319727892,1.5748299319727892,1.5748299319727892,1.5748299319727892,1.5680272108843538,1.4387755102040816,1.3435374149659864,1.1088435374149659,0.7857142857142857,0.54421768707483,0.48299319727891155,0.48299319727891155,0.48299319727891155,0.48299319727891155,0.4897959183673469,0.4965986394557823,0.5,0.5,0.5,0.5,0.5,0.5,0.5,0.5,0.4931972789115646,0.46938775510204084,0.4523809523809524,0.4013605442176871,0.3469387755102041,0.2925170068027211,0.2619047619047619,0.19727891156462585,0.15306122448979592,0.14625850340136054,0.14625850340136054,0.14625850340136054,0.14625850340136054,0.14625850340136054,0.14625850340136054,0.14625850340136054,0.1598639455782313,0.19727891156462585,0.23129251700680273,0.25170068027210885,0.2925170068027211,0.3129251700680272,0.3197278911564626,0.3231292517006803,0.3333333333333333,0.3333333333333333,0.336734693877551,0.336734693877551,0.336734693877551,0.336734693877551,0.336734693877551,0.336734693877551,0.336734693877551,0.336734693877551,0.336734693877551,0.336734693877551,0.336734693877551,0.3401360544217687,0.38095238095238093,0.40476190476190477,0.445578231292517,0.48299319727891155,0.5306122448979592,0.5510204081632653,0.6020408163265306,0.6360544217687075,0.6598639455782312,0.6666666666666666,0.673469387755102,0.673469387755102,0.673469387755102,0.673469387755102,0.673469387755102,0.673469387755102,0.673469387755102,0.673469387755102,0.673469387755102,0.673469387755102,0.673469387755102,0.673469387755102,0.673469387755102,0.7006802721088435,0.7517006802721088,0.8027210884353742,0.8299319727891157,0.8775510204081632,0.9285714285714286,0.9795918367346939,1.0068027210884354,1.054421768707483,1.0952380952380953,1.1224489795918366,1.1394557823129252,1.1700680272108843,1.2074829931972788,1.248299319727891,1.2619047619047619,1.2687074829931972,1.2687074829931972,1.2687074829931972,1.2687074829931972,1.2687074829931972,1.2687074829931972,1.2687074829931972,1.2687074829931972,1.2687074829931972,1.2687074829931972,1.2687074829931972,1.2687074829931972,1.2687074829931972,1.2687074829931972,1.2687074829931972,1.2687074829931972,1.2687074829931972,1.2687074829931972,1.2687074829931972,1.2687074829931972,1.2687074829931972,1.2687074829931972,1.2687074829931972,1.2687074829931972,1.2687074829931972,1.2687074829931972,1.2687074829931972,1.2687074829931972,1.2687074829931972,1.2687074829931972,1.2687074829931972,1.2687074829931972,1.2687074829931972,1.2687074829931972,1.2687074829931972,1.2687074829931972,1.2687074829931972,1.2687074829931972,1.2687074829931972,1.2687074829931972,1.2687074829931972,1.2687074829931972,1.2687074829931972,1.2687074829931972,1.2687074829931972,1.2687074829931972,1.2687074829931972,1.2687074829931972,1.2687074829931972,1.2687074829931972,1.2687074829931972,1.2687074829931972,1.2687074829931972,1.2687074829931972,1.2687074829931972,1.2687074829931972,1.2687074829931972,1.2687074829931972,1.2687074829931972,1.2687074829931972,1.2687074829931972,1.2687074829931972,1.2687074829931972,1.2687074829931972,1.2687074829931972,1.2687074829931972,1.2687074829931972,1.2687074829931972,1.2687074829931972,1.2687074829931972,1.2687074829931972,1.2687074829931972,1.2687074829931972,1.2687074829931972,1.2687074829931972,1.2687074829931972,1.2687074829931972,1.2687074829931972,1.2687074829931972,1.2687074829931972,1.2687074829931972,1.2687074829931972,1.2687074829931972,1.2687074829931972,1.2687074829931972,1.2687074829931972,1.2687074829931972,1.2687074829931972,1.2687074829931972,1.2687074829931972,1.2687074829931972,1.2687074829931972,1.2687074829931972,1.2687074829931972,1.2687074829931972,1.2687074829931972,1.2687074829931972,1.2687074829931972,1.2687074829931972,1.2687074829931972,1.2687074829931972,1.2687074829931972,1.2687074829931972,1.2687074829931972,1.2687074829931972,1.2687074829931972,1.2687074829931972,1.2687074829931972,1.2687074829931972,1.2687074829931972,1.2687074829931972,1.2687074829931972,1.2687074829931972,1.2687074829931972,1.2687074829931972,1.2687074829931972,1.2687074829931972,1.2687074829931972,1.2687074829931972,1.2687074829931972,1.2687074829931972,1.2687074829931972,1.2687074829931972,1.2687074829931972,1.2687074829931972,1.2687074829931972,1.2687074829931972,1.2687074829931972,1.2687074829931972,1.2687074829931972,1.2687074829931972,1.2687074829931972,1.2687074829931972,1.2687074829931972,1.2687074829931972,1.2687074829931972,1.2687074829931972,1.2687074829931972,1.2687074829931972,1.2687074829931972,1.2687074829931972,1.2687074829931972,1.2687074829931972,1.2687074829931972,1.2687074829931972,1.2687074829931972,1.2687074829931972,1.2687074829931972,1.2687074829931972,1.2687074829931972,1.2687074829931972,1.2687074829931972,1.2687074829931972,1.2687074829931972,1.2687074829931972,1.2687074829931972,1.2687074829931972,1.2687074829931972,1.2687074829931972,1.2687074829931972,1.2687074829931972,1.2687074829931972,1.2687074829931972,1.2687074829931972,1.2687074829931972,1.2687074829931972,1.2687074829931972,1.2687074829931972,1.2687074829931972,1.2687074829931972,1.2687074829931972,1.2687074829931972,1.2687074829931972,1.2687074829931972,1.2687074829931972,1.2687074829931972,1.2687074829931972,1.2687074829931972,1.2687074829931972,1.2687074829931972,1.2687074829931972,1.2687074829931972,1.2687074829931972,1.2687074829931972,1.2687074829931972,1.2687074829931972,1.2687074829931972,1.2687074829931972,1.2687074829931972,1.2687074829931972,1.2687074829931972,1.2687074829931972,1.2687074829931972,1.2687074829931972,1.2687074829931972,1.2687074829931972,1.2687074829931972,1.2687074829931972,1.2687074829931972,1.2687074829931972,1.2687074829931972,1.2687074829931972,1.2687074829931972,1.2687074829931972,1.2687074829931972,1.2687074829931972,1.2687074829931972,1.2687074829931972,1.2687074829931972,1.2687074829931972,1.2687074829931972,1.2687074829931972,1.2687074829931972,1.2687074829931972,1.2687074829931972,1.2687074829931972,1.2687074829931972,1.2687074829931972,1.2687074829931972,1.2687074829931972,1.2687074829931972,1.2687074829931972,1.2687074829931972,1.2687074829931972,1.2687074829931972,1.2687074829931972,1.2687074829931972,1.2687074829931972,1.2687074829931972,1.2687074829931972,1.2687074829931972,1.2687074829931972,1.2687074829931972,1.2687074829931972,1.2687074829931972,1.2687074829931972,1.2687074829931972,1.2687074829931972,1.2687074829931972,1.2687074829931972,1.2687074829931972,1.2687074829931972,1.2687074829931972,1.2687074829931972,1.2687074829931972,1.2687074829931972,1.2687074829931972,1.2687074829931972,1.2687074829931972,1.2687074829931972,1.2687074829931972,1.2687074829931972,1.2687074829931972,1.2687074829931972,1.2687074829931972,1.2687074829931972,1.2687074829931972,1.2687074829931972,1.2687074829931972,1.2687074829931972,1.2687074829931972,1.2687074829931972,1.2687074829931972,1.2687074829931972,1.2687074829931972,1.2687074829931972,1.2687074829931972,1.2687074829931972,1.2687074829931972,1.2687074829931972,1.2687074829931972,1.2687074829931972,1.2687074829931972,1.2687074829931972,1.2687074829931972,1.2687074829931972,1.2687074829931972,1.2687074829931972,1.2687074829931972,1.2687074829931972,1.2687074829931972,1.2687074829931972,1.2687074829931972,1.2687074829931972,1.2687074829931972,1.2687074829931972,1.2687074829931972,1.2687074829931972,1.2687074829931972,1.2687074829931972,1.2687074829931972,1.2687074829931972,1.2687074829931972,1.2687074829931972,1.2687074829931972,1.2687074829931972,1.2687074829931972,1.2687074829931972,1.2687074829931972,1.2687074829931972,1.2687074829931972,1.2687074829931972,1.2687074829931972,1.2687074829931972,1.2687074829931972,1.2687074829931972,1.2687074829931972,1.2687074829931972,1.2687074829931972,1.2687074829931972,1.2687074829931972,1.2687074829931972,1.2687074829931972,1.2687074829931972,1.2687074829931972,1.2687074829931972,1.2687074829931972,1.2687074829931972,1.2687074829931972,1.2687074829931972,1.2687074829931972,1.2687074829931972,1.2687074829931972,1.2687074829931972,1.2687074829931972,1.2687074829931972,1.2687074829931972,1.2687074829931972,1.2687074829931972,1.2687074829931972,1.2687074829931972,1.2687074829931972,1.2687074829931972,1.2687074829931972,1.2687074829931972,1.2687074829931972,1.2687074829931972,1.2687074829931972,1.2687074829931972,1.2687074829931972,1.2687074829931972,1.2687074829931972,1.2687074829931972,1.2687074829931972,1.2687074829931972,1.2687074829931972,1.2687074829931972,1.2687074829931972,1.2687074829931972,1.2687074829931972,1.2687074829931972,1.2687074829931972,1.2687074829931972,1.2687074829931972,1.2687074829931972,1.2687074829931972,1.2687074829931972,1.2687074829931972,1.2687074829931972,1.2687074829931972,1.2687074829931972,1.2687074829931972,1.2687074829931972,1.2687074829931972,1.2687074829931972,1.2687074829931972,1.2687074829931972,1.2687074829931972,1.2687074829931972,1.2687074829931972,1.2687074829931972,1.2687074829931972,1.2687074829931972,1.2585034013605443,1.2108843537414966,1.1972789115646258,1.1904761904761905,1.1904761904761905,1.1904761904761905,1.1904761904761905,1.1904761904761905,1.1904761904761905,1.1904761904761905,1.1904761904761905,1.1870748299319729,1.1496598639455782,1.1088435374149659,1.0816326530612246,1.0408163265306123,1,0.9761904761904762,0.95578231292517,0.9387755102040817,0.9217687074829932,0.9047619047619048,0.8979591836734694,0.8809523809523809,0.8605442176870748,0.8231292517006803,0.8027210884353742,0.7619047619047619,0.7244897959183674,0.6870748299319728,0.6700680272108843,0.6700680272108843,0.6700680272108843,0.6700680272108843,0.6700680272108843,0.6700680272108843,0.6700680272108843,0.6700680272108843,0.6700680272108843,0.6700680272108843,0.6700680272108843,0.6496598639455783,0.6360544217687075,0.6292517006802721,0.6224489795918368,0.6190476190476191,0.6156462585034014,0.608843537414966,0.608843537414966,0.608843537414966,0.608843537414966,0.6054421768707483,0.6054421768707483,0.6054421768707483,0.6054421768707483,0.6054421768707483,0.6054421768707483,0.5850340136054422,0.5612244897959183,0.5544217687074829,0.5476190476190477,0.5408163265306123,0.5408163265306123,0.5408163265306123,0.5408163265306123,0.5408163265306123,0.5510204081632653,0.5612244897959183,0.564625850340136,0.564625850340136,0.564625850340136,0.564625850340136,0.564625850340136,0.564625850340136,0.564625850340136,0.564625850340136,0.564625850340136,0.564625850340136,0.564625850340136,0.564625850340136,0.564625850340136,0.564625850340136,0.564625850340136,0.564625850340136,0.564625850340136,0.564625850340136,0.564625850340136,0.564625850340136,0.564625850340136,0.564625850340136,0.564625850340136,0.564625850340136,0.564625850340136,0.564625850340136,0.564625850340136,0.564625850340136,0.564625850340136,0.564625850340136,0.564625850340136,0.564625850340136,0.564625850340136,0.564625850340136,0.564625850340136,0.564625850340136,0.564625850340136,0.564625850340136,0.564625850340136,0.564625850340136,0.5748299319727891,0.6360544217687075,0.7278911564625851,0.7789115646258503,0.9251700680272109,1.0816326530612246,1.2653061224489797,1.3673469387755102,1.6122448979591837,1.870748299319728,1.9761904761904763,2.0850340136054424,2.129251700680272,2.139455782312925,2.139455782312925,2.139455782312925,2.139455782312925,2.139455782312925,2.142857142857143,2.142857142857143,2.142857142857143,2.142857142857143,2.142857142857143,2.142857142857143,2.142857142857143,2.142857142857143,2.142857142857143,2.1496598639455784,2.1564625850340136,2.1598639455782314,2.163265306122449,2.163265306122449,2.163265306122449,2.163265306122449,2.163265306122449,2.163265306122449,2.163265306122449,2.163265306122449,2.163265306122449,2.163265306122449,2.163265306122449,2.163265306122449,2.163265306122449,2.163265306122449,2.163265306122449,2.163265306122449,2.163265306122449,2.163265306122449,2.163265306122449,2.163265306122449,2.163265306122449,2.163265306122449,2.163265306122449,2.163265306122449,2.163265306122449,2.163265306122449,2.163265306122449,2.163265306122449,2.163265306122449,2.163265306122449,2.163265306122449,2.163265306122449,2.163265306122449,2.163265306122449,2.163265306122449,2.163265306122449,2.163265306122449,2.163265306122449,2.163265306122449,2.163265306122449,2.163265306122449,2.163265306122449,2.163265306122449,2.163265306122449,2.163265306122449,2.163265306122449,2.163265306122449,2.163265306122449,2.163265306122449,2.163265306122449,2.163265306122449,2.163265306122449,2.163265306122449,2.163265306122449,2.163265306122449,2.163265306122449,2.163265306122449,2.163265306122449,2.173469387755102,2.183673469387755,2.193877551020408,2.2006802721088436,2.2210884353741496,2.2312925170068025,2.238095238095238,2.238095238095238,2.238095238095238,2.238095238095238,2.238095238095238,2.238095238095238,2.238095238095238,2.238095238095238,2.238095238095238,2.238095238095238,2.238095238095238,2.238095238095238,2.238095238095238,2.238095238095238,2.238095238095238,2.238095238095238,2.238095238095238,2.238095238095238,2.238095238095238,2.238095238095238,2.238095238095238,2.238095238095238,2.238095238095238,2.238095238095238,2.238095238095238,2.238095238095238,2.238095238095238,2.238095238095238,2.238095238095238,2.238095238095238,2.238095238095238,2.238095238095238,2.238095238095238,2.238095238095238,2.238095238095238,2.238095238095238,2.238095238095238,2.238095238095238,2.238095238095238,2.238095238095238,2.238095238095238,2.238095238095238,2.238095238095238,2.238095238095238,2.238095238095238,2.238095238095238,2.238095238095238,2.238095238095238,2.238095238095238,2.238095238095238,2.238095238095238,2.238095238095238,2.238095238095238,2.238095238095238,2.238095238095238,2.238095238095238,2.238095238095238,2.238095238095238,2.238095238095238,2.238095238095238,2.238095238095238,2.238095238095238,2.238095238095238,2.238095238095238,2.238095238095238,2.238095238095238,2.238095238095238,2.238095238095238,2.238095238095238,2.238095238095238,2.238095238095238,2.238095238095238,2.238095238095238,2.238095238095238,2.238095238095238,2.238095238095238,2.238095238095238,2.238095238095238,2.238095238095238,2.238095238095238,2.238095238095238,2.238095238095238,2.238095238095238,2.238095238095238,2.238095238095238,2.238095238095238,2.238095238095238,2.238095238095238,2.238095238095238,2.238095238095238,2.238095238095238,2.238095238095238,2.238095238095238,2.238095238095238,2.238095238095238,2.238095238095238,2.238095238095238,2.238095238095238,2.238095238095238,2.238095238095238,2.238095238095238,2.238095238095238,2.238095238095238,2.238095238095238,2.238095238095238,2.238095238095238,2.238095238095238,2.238095238095238,2.238095238095238,2.238095238095238,2.238095238095238,2.238095238095238,2.238095238095238,2.238095238095238,2.238095238095238,2.238095238095238,2.238095238095238,2.238095238095238,2.238095238095238,2.238095238095238,2.238095238095238,2.238095238095238,2.238095238095238,2.238095238095238,2.238095238095238,2.238095238095238,2.238095238095238,2.238095238095238,2.238095238095238,2.238095238095238,2.238095238095238,2.238095238095238,2.238095238095238,2.238095238095238,2.238095238095238,2.238095238095238,2.238095238095238,2.238095238095238,2.238095238095238,2.238095238095238,2.238095238095238,2.238095238095238,2.238095238095238,2.238095238095238,2.238095238095238,2.238095238095238,2.238095238095238,2.238095238095238,2.238095238095238,2.238095238095238,2.238095238095238,2.238095238095238,2.238095238095238,2.238095238095238,2.238095238095238,2.238095238095238,2.238095238095238,2.238095238095238,2.238095238095238,2.238095238095238,2.238095238095238,2.238095238095238,2.238095238095238,2.238095238095238,2.238095238095238,2.238095238095238,2.238095238095238,2.238095238095238,2.238095238095238,2.238095238095238,2.238095238095238,2.238095238095238,2.238095238095238,2.238095238095238,2.238095238095238,2.238095238095238,2.238095238095238,2.238095238095238,2.238095238095238,2.238095238095238,2.238095238095238,2.238095238095238,2.238095238095238,2.238095238095238,2.238095238095238,2.238095238095238,2.238095238095238,2.238095238095238,2.238095238095238,2.238095238095238,2.238095238095238,2.238095238095238,2.238095238095238,2.238095238095238,2.238095238095238,2.238095238095238,2.238095238095238,2.238095238095238,2.238095238095238,2.238095238095238,2.238095238095238,2.238095238095238,2.238095238095238,2.238095238095238,2.238095238095238,2.238095238095238,2.238095238095238,2.238095238095238,2.238095238095238,2.238095238095238,2.238095238095238,2.238095238095238,2.238095238095238,2.238095238095238,2.238095238095238,2.238095238095238,2.238095238095238,2.238095238095238,2.238095238095238,2.238095238095238,2.238095238095238,2.238095238095238,2.238095238095238,2.238095238095238,2.238095238095238,2.238095238095238,2.238095238095238,2.238095238095238,2.238095238095238,2.238095238095238,2.238095238095238,2.238095238095238,2.238095238095238,2.238095238095238,2.238095238095238,2.238095238095238,2.238095238095238,2.238095238095238,2.238095238095238,2.238095238095238,2.238095238095238,2.238095238095238,2.238095238095238,2.238095238095238,2.238095238095238,2.238095238095238,2.238095238095238,2.238095238095238,2.238095238095238,2.238095238095238,2.238095238095238,2.238095238095238,2.238095238095238,2.238095238095238,2.238095238095238,2.238095238095238,2.238095238095238,2.238095238095238,2.238095238095238,2.238095238095238,2.238095238095238,2.238095238095238,2.238095238095238,2.238095238095238,2.238095238095238,2.238095238095238,2.238095238095238,2.238095238095238,2.238095238095238,2.238095238095238,2.238095238095238,2.238095238095238,2.238095238095238,2.238095238095238,2.238095238095238,2.238095238095238,2.238095238095238,2.238095238095238,2.238095238095238,2.238095238095238,2.238095238095238,2.238095238095238,2.238095238095238,2.238095238095238,2.238095238095238,2.238095238095238,2.238095238095238,2.238095238095238,2.238095238095238,2.1904761904761907,2.1020408163265305,2.0272108843537415,1.9965986394557824,1.9421768707482994,1.8979591836734695,1.880952380952381,1.870748299319728,1.8605442176870748,1.8333333333333333,1.7755102040816326,1.748299319727891,1.6666666666666667,1.5680272108843538,1.3911564625850341,1.153061224489796,1.0408163265306123,0.8503401360544217,0.7380952380952381,0.6462585034013606,0.6020408163265306,0.5102040816326531,0.4421768707482993,0.3877551020408163,0.3707482993197279,0.3435374149659864,0.336734693877551,0.336734693877551,0.336734693877551,0.336734693877551,0.336734693877551,0.336734693877551,0.336734693877551,0.336734693877551,0.336734693877551,0.336734693877551,0.336734693877551,0.336734693877551,0.336734693877551,0.336734693877551,0.32653061224489793,0.3231292517006803,0.3197278911564626,0.3333333333333333,0.3333333333333333,0.3333333333333333,0.3333333333333333,0.3333333333333333,0.3333333333333333,0.3333333333333333,0.3333333333333333,0.3333333333333333,0.3333333333333333,0.3333333333333333,0.3333333333333333,0.3333333333333333,0.3333333333333333,0.3333333333333333,0.3333333333333333,0.3333333333333333,0.3333333333333333,0.3333333333333333,0.3333333333333333,0.3333333333333333,0.3333333333333333,0.3333333333333333,0.3333333333333333,0.3333333333333333,0.3469387755102041,0.35374149659863946,0.36054421768707484,0.3673469387755102,0.3741496598639456,0.3741496598639456,0.3741496598639456,0.3741496598639456,0.3741496598639456,0.3741496598639456,0.3741496598639456,0.3741496598639456,0.3741496598639456,0.3741496598639456,0.3741496598639456,0.3741496598639456,0.3741496598639456,0.3707482993197279,0.3707482993197279,0.36394557823129253,0.36054421768707484,0.36054421768707484,0.35714285714285715,0.35374149659863946,0.35034013605442177,0.35034013605442177,0.35034013605442177,0.35034013605442177,0.35034013605442177,0.35034013605442177,0.35374149659863946,0.35374149659863946,0.35374149659863946,0.35374149659863946,0.35374149659863946,0.35374149659863946,0.35374149659863946,0.35034013605442177,0.3469387755102041,0.336734693877551,0.3299319727891156,0.3197278911564626,0.30612244897959184,0.29931972789115646,0.2789115646258503,0.25510204081632654,0.24149659863945577,0.23809523809523808,0.23469387755102042,0.22789115646258504,0.20748299319727892,0.18027210884353742,0.17006802721088435,0.17006802721088435,0.16666666666666666,0.14625850340136054,0.12244897959183673,0.1054421768707483,0.1054421768707483,0.1054421768707483,0.1054421768707483,0.1054421768707483,0.10204081632653061,0.09523809523809523,0.08843537414965986,0.08163265306122448,0.07482993197278912,0.06802721088435375,0.06462585034013606,0.06462585034013606,0.05782312925170068,0.05782312925170068,0.05782312925170068,0.05782312925170068,0.05782312925170068,0.05782312925170068,0.05782312925170068,0.034013605442176874,0.027210884353741496,0.023809523809523808,0.023809523809523808,0.023809523809523808,0.023809523809523808,0.023809523809523808,0.023809523809523808,0.023809523809523808,0.023809523809523808,0.023809523809523808,0.023809523809523808,0.023809523809523808,0.023809523809523808,0.023809523809523808,0.023809523809523808,0.023809523809523808,0.023809523809523808,0.023809523809523808,0.02040816326530612,0.02040816326530612,0.013605442176870748,0.013605442176870748,0.01020408163265306,0.01020408163265306,0.01020408163265306,0.01020408163265306,0.01020408163265306,0.01020408163265306,0.01020408163265306,0.01020408163265306,0.01020408163265306,0.01020408163265306,0.01020408163265306,0.01020408163265306,0.01020408163265306,0.01020408163265306,0.01020408163265306,0.01020408163265306,0.01020408163265306,0.01020408163265306,0.01020408163265306,0.01020408163265306,0.01020408163265306,0.030612244897959183,0.1054421768707483,0.17006802721088435,0.391156462585034,0.7517006802721088,1.1870748299319729,1.4183673469387754,1.8061224489795917,2.068027210884354,2.2108843537414966,2.2312925170068025,2.238095238095238,2.238095238095238,2.238095238095238,2.238095238095238,2.238095238095238,2.238095238095238,2.238095238095238,2.238095238095238,2.238095238095238,2.238095238095238,2.238095238095238,2.238095238095238,2.238095238095238,2.238095238095238,2.238095238095238,2.238095238095238,2.238095238095238,2.238095238095238,2.238095238095238,2.238095238095238,2.238095238095238,2.238095238095238,2.238095238095238,2.238095238095238,2.238095238095238,2.238095238095238,2.238095238095238,2.238095238095238,2.238095238095238,2.238095238095238,2.238095238095238,2.238095238095238,2.238095238095238,2.238095238095238,2.238095238095238,2.238095238095238,2.238095238095238,2.238095238095238,2.238095238095238,2.238095238095238,2.238095238095238,2.238095238095238,2.238095238095238,2.238095238095238,2.238095238095238,2.238095238095238,2.238095238095238,2.238095238095238,2.238095238095238,2.238095238095238,2.238095238095238,2.238095238095238,2.238095238095238,2.238095238095238,2.238095238095238,2.238095238095238,2.238095238095238,2.238095238095238,2.238095238095238,2.238095238095238,2.238095238095238,2.238095238095238,2.238095238095238,2.238095238095238,2.238095238095238,2.238095238095238,2.238095238095238,2.238095238095238,2.238095238095238,2.238095238095238,2.238095238095238,2.238095238095238,2.238095238095238,2.238095238095238,2.238095238095238,2.238095238095238,2.238095238095238,2.238095238095238,2.238095238095238,2.238095238095238,2.238095238095238,2.238095238095238,2.238095238095238,2.238095238095238,2.238095238095238,2.238095238095238,2.238095238095238,2.238095238095238,2.238095238095238,2.238095238095238,2.238095238095238,2.238095238095238,2.238095238095238,2.238095238095238,2.238095238095238,2.238095238095238,2.238095238095238,2.238095238095238,2.238095238095238,2.238095238095238,2.238095238095238,2.238095238095238,2.238095238095238,2.238095238095238,2.238095238095238,2.238095238095238,2.238095238095238,2.238095238095238,2.238095238095238,2.238095238095238,2.238095238095238,2.238095238095238,2.238095238095238,2.238095238095238,2.238095238095238,2.238095238095238,2.238095238095238,2.238095238095238,2.238095238095238,2.238095238095238,2.238095238095238,2.238095238095238,2.238095238095238,2.238095238095238,2.238095238095238,2.238095238095238,2.238095238095238,2.238095238095238,2.238095238095238,2.238095238095238,2.238095238095238,2.238095238095238,2.238095238095238,2.238095238095238,2.238095238095238,2.238095238095238,2.238095238095238,2.238095238095238,2.238095238095238,2.238095238095238,2.238095238095238,2.238095238095238,2.238095238095238,2.238095238095238,2.238095238095238,2.238095238095238,2.238095238095238,2.238095238095238,2.238095238095238,2.238095238095238,2.238095238095238,2.238095238095238,2.238095238095238,2.238095238095238,2.238095238095238,2.238095238095238,2.238095238095238,2.238095238095238,2.238095238095238,2.238095238095238,2.238095238095238,2.238095238095238,2.238095238095238,2.238095238095238,2.238095238095238,2.238095238095238,2.238095238095238,2.238095238095238,2.238095238095238,2.238095238095238,2.238095238095238,2.238095238095238,2.238095238095238,2.238095238095238,2.238095238095238,2.238095238095238,2.238095238095238,2.238095238095238,2.238095238095238,2.238095238095238,2.238095238095238,2.238095238095238,2.238095238095238,2.238095238095238,2.238095238095238,2.238095238095238,2.238095238095238,2.238095238095238,2.238095238095238,2.238095238095238,2.238095238095238,2.238095238095238,2.238095238095238,2.238095238095238,2.238095238095238,2.238095238095238,2.238095238095238,2.238095238095238,2.238095238095238,2.238095238095238,2.238095238095238,2.238095238095238,2.238095238095238,2.238095238095238,2.238095238095238,2.238095238095238,2.238095238095238,2.238095238095238,2.238095238095238,2.238095238095238,2.238095238095238,2.238095238095238,2.238095238095238,2.238095238095238,2.238095238095238,2.238095238095238,2.238095238095238,2.238095238095238,2.238095238095238,2.238095238095238,2.238095238095238,2.238095238095238,2.238095238095238,2.238095238095238,2.238095238095238,2.238095238095238,2.238095238095238,2.238095238095238,2.238095238095238,2.238095238095238,2.238095238095238,2.238095238095238,2.238095238095238,2.238095238095238,2.238095238095238,2.163265306122449,2.054421768707483,2,1.8299319727891157,1.6122448979591837,1.3095238095238095,1.1666666666666667,0.9047619047619048,0.7721088435374149,0.7414965986394558,0.7346938775510204,0.7346938775510204,0.7346938775510204,0.7346938775510204,0.7346938775510204,0.7346938775510204,0.7346938775510204,0.7346938775510204,0.7346938775510204,0.7346938775510204,0.7346938775510204,0.7346938775510204,0.7346938775510204,0.7346938775510204,0.7346938775510204,0.7346938775510204,0.7346938775510204,0.7346938775510204,0.7346938775510204,0.7346938775510204,0.7551020408163265,0.7755102040816326,0.7857142857142857,0.7925170068027211,0.8027210884353742,0.8061224489795918,0.8061224489795918,0.8061224489795918,0.8061224489795918,0.8061224489795918,0.8061224489795918,0.8061224489795918,0.8061224489795918,0.8061224489795918,0.8061224489795918,0.8061224489795918,0.8061224489795918,0.8061224489795918,0.8061224489795918,0.7687074829931972,0.7108843537414966,0.6564625850340136,0.6190476190476191,0.5510204081632653,0.4897959183673469,0.46598639455782315,0.43537414965986393,0.4217687074829932,0.4013605442176871,0.36394557823129253,0.3469387755102041,0.3299319727891156,0.3197278911564626,0.3129251700680272,0.30952380952380953,0.30952380952380953,0.30952380952380953,0.3163265306122449,0.3197278911564626,0.32653061224489793,0.3333333333333333,0.336734693877551,0.3435374149659864,0.3469387755102041,0.35034013605442177,0.36054421768707484,0.3741496598639456,0.37755102040816324,0.3877551020408163,0.3979591836734694,0.40476190476190477,0.41156462585034015,0.41156462585034015,0.41156462585034015,0.41156462585034015,0.41156462585034015,0.41156462585034015,0.41156462585034015,0.41496598639455784,0.41496598639455784,0.41496598639455784,0.41496598639455784,0.41496598639455784,0.41496598639455784,0.41496598639455784,0.41496598639455784,0.41496598639455784,0.41496598639455784,0.41496598639455784,0.41496598639455784,0.41496598639455784,0.41496598639455784,0.41496598639455784,0.41496598639455784,0.41496598639455784,0.41496598639455784,0.41496598639455784,0.41496598639455784,0.41496598639455784,0.41496598639455784,0.41496598639455784,0.41496598639455784,0.41496598639455784,0.41496598639455784,0.41496598639455784,0.41496598639455784,0.41496598639455784,0.41496598639455784,0.41496598639455784,0.41496598639455784,0.41496598639455784,0.41496598639455784,0.41496598639455784,0.41496598639455784,0.41496598639455784,0.41496598639455784,0.41496598639455784,0.41496598639455784,0.41496598639455784,0.41496598639455784,0.41496598639455784,0.43197278911564624,0.4897959183673469,0.5272108843537415,0.5782312925170068,0.6258503401360545,0.6598639455782312,0.673469387755102,0.673469387755102,0.673469387755102,0.673469387755102,0.673469387755102,0.673469387755102,0.673469387755102,0.673469387755102,0.6768707482993197,0.7006802721088435,0.7142857142857143,0.7346938775510204,0.7551020408163265,0.7653061224489796,0.7721088435374149,0.782312925170068,0.782312925170068,0.782312925170068,0.782312925170068,0.782312925170068,0.782312925170068,0.7789115646258503,0.7789115646258503,0.7789115646258503,0.7789115646258503,0.7789115646258503,0.7789115646258503,0.7789115646258503,0.7789115646258503,0.7789115646258503,0.7789115646258503,0.7789115646258503,0.7789115646258503,0.7789115646258503,0.7789115646258503,0.7789115646258503,0.7789115646258503,0.782312925170068,0.7993197278911565,0.8299319727891157,0.8537414965986394,0.8673469387755102,0.8741496598639455,0.8775510204081632,0.8775510204081632,0.8775510204081632,0.8775510204081632,0.8775510204081632,0.8775510204081632,0.8775510204081632,0.8775510204081632,0.8775510204081632,0.8775510204081632,0.8775510204081632,0.8775510204081632,0.8775510204081632,0.8775510204081632,0.8775510204081632,0.8775510204081632,0.8775510204081632,0.8775510204081632,0.8775510204081632,0.8775510204081632,0.8741496598639455,0.8741496598639455,0.8741496598639455,0.8741496598639455,0.8741496598639455,0.8741496598639455,0.8741496598639455,0.8741496598639455,0.8741496598639455,0.8741496598639455,0.8741496598639455,0.8741496598639455,0.8741496598639455,0.8741496598639455,0.8741496598639455,0.8741496598639455,0.8741496598639455,0.8741496598639455,0.8741496598639455,0.8741496598639455,0.8741496598639455,0.8741496598639455,0.8741496598639455,0.8741496598639455,0.8741496598639455,0.8741496598639455,0.8741496598639455,0.8741496598639455,0.8741496598639455,0.8741496598639455,0.8741496598639455,0.8741496598639455,0.8741496598639455,0.8741496598639455,0.8741496598639455,0.8741496598639455,0.8741496598639455,0.8741496598639455,0.8741496598639455,0.8741496598639455,0.8741496598639455,0.8741496598639455,0.8741496598639455,0.8741496598639455,0.8741496598639455,0.8741496598639455,0.8741496598639455,0.8741496598639455,0.8741496598639455,0.8741496598639455,0.8741496598639455,0.8741496598639455,0.8741496598639455,0.8741496598639455,0.8741496598639455,0.8741496598639455,0.8741496598639455,0.8741496598639455,0.8741496598639455,0.8741496598639455,0.8741496598639455,0.8741496598639455,0.8741496598639455,0.8741496598639455,0.8741496598639455,0.8741496598639455,0.8741496598639455,0.8741496598639455,0.8741496598639455,0.8741496598639455,0.8741496598639455,0.8741496598639455,0.8741496598639455,0.8741496598639455,0.8673469387755102,0.8673469387755102,0.8673469387755102,0.8673469387755102,0.8673469387755102,0.8673469387755102,0.8673469387755102,0.8673469387755102,0.8673469387755102,0.8673469387755102,0.8673469387755102,0.8673469387755102,0.8673469387755102,0.8673469387755102,0.8673469387755102,0.8673469387755102,0.8673469387755102,0.8673469387755102,0.8673469387755102,0.8673469387755102,0.8673469387755102,0.8673469387755102,0.8673469387755102,0.8673469387755102,0.8673469387755102,0.8673469387755102,0.8673469387755102,0.8673469387755102,0.8673469387755102,0.8673469387755102,0.8673469387755102,0.8673469387755102,0.8673469387755102,0.8673469387755102,0.8673469387755102,0.8673469387755102,0.8673469387755102,0.8673469387755102,0.8673469387755102,0.8673469387755102,0.8673469387755102,0.8673469387755102,0.8673469387755102,0.8673469387755102,0.8605442176870748,0.8503401360544217,0.8333333333333334,0.7959183673469388,0.7551020408163265,0.717687074829932,0.7040816326530612,0.6836734693877551,0.6326530612244898,0.6122448979591837,0.5476190476190477,0.4897959183673469,0.46258503401360546,0.45918367346938777,0.45918367346938777,0.45918367346938777,0.45918367346938777,0.45918367346938777,0.45918367346938777,0.45918367346938777,0.45918367346938777,0.45918367346938777,0.45918367346938777,0.45918367346938777,0.45918367346938777,0.45918367346938777,0.45918367346938777,0.45918367346938777,0.45918367346938777,0.45918367346938777,0.45918367346938777,0.45918367346938777,0.45918367346938777,0.45918367346938777,0.45918367346938777,0.45918367346938777,0.45918367346938777,0.45918367346938777,0.45918367346938777,0.45918367346938777,0.45918367346938777,0.45918367346938777,0.45918367346938777,0.45918367346938777,0.45918367346938777,0.45918367346938777,0.45918367346938777,0.45918367346938777,0.47278911564625853,0.4965986394557823,0.5102040816326531,0.5170068027210885,0.5408163265306123,0.5680272108843537,0.5884353741496599,0.5918367346938775,0.6020408163265306,0.6054421768707483,0.608843537414966,0.608843537414966,0.608843537414966,0.608843537414966,0.608843537414966,0.608843537414966,0.608843537414966,0.608843537414966,0.608843537414966,0.608843537414966,0.608843537414966,0.608843537414966,0.608843537414966,0.608843537414966,0.608843537414966,0.608843537414966,0.608843537414966,0.608843537414966,0.608843537414966,0.608843537414966,0.608843537414966,0.608843537414966,0.608843537414966,0.5748299319727891,0.5408163265306123,0.5,0.4421768707482993,0.41496598639455784,0.35714285714285715,0.30272108843537415,0.25170068027210885,0.19387755102040816,0.16666666666666666,0.11904761904761904,0.08843537414965986,0.0782312925170068,0.07482993197278912,0.07482993197278912,0.07482993197278912,0.07482993197278912,0.07482993197278912,0.07482993197278912,0.07482993197278912,0.07482993197278912,0.07142857142857142,0.06462585034013606,0.061224489795918366,0.061224489795918366,0.061224489795918366,0.061224489795918366,0.061224489795918366,0.061224489795918366,0.05102040816326531,0.047619047619047616,0.047619047619047616,0.047619047619047616,0.047619047619047616,0.047619047619047616,0.047619047619047616,0.047619047619047616,0.047619047619047616,0.047619047619047616,0.047619047619047616,0.03741496598639456,0.034013605442176874,0.027210884353741496,0.027210884353741496,0.027210884353741496,0.027210884353741496,0.027210884353741496,0.027210884353741496,0.027210884353741496,0.027210884353741496,0.027210884353741496,0.027210884353741496,0.027210884353741496,0.027210884353741496,0.027210884353741496,0.027210884353741496,0.027210884353741496,0.027210884353741496,0.027210884353741496,0.027210884353741496,0.027210884353741496,0.027210884353741496,0.027210884353741496,0.027210884353741496,0.027210884353741496,0.027210884353741496,0.027210884353741496,0.027210884353741496,0.027210884353741496,0.027210884353741496,0.027210884353741496,0.027210884353741496,0.027210884353741496,0.027210884353741496,0.027210884353741496,0.027210884353741496,0.027210884353741496,0.027210884353741496,0.027210884353741496,0.027210884353741496,0.027210884353741496,0.027210884353741496,0.027210884353741496,0.027210884353741496,0.027210884353741496,0.027210884353741496,0.027210884353741496,0.027210884353741496,0.027210884353741496,0.027210884353741496,0.027210884353741496,0.027210884353741496,0.027210884353741496,0.027210884353741496,0.027210884353741496,0.027210884353741496,0.027210884353741496,0.027210884353741496,0.027210884353741496,0.027210884353741496,0.027210884353741496,0.027210884353741496,0.027210884353741496,0.034013605442176874,0.034013605442176874,0.034013605442176874,0.034013605442176874,0.034013605442176874,0.034013605442176874,0.034013605442176874,0.034013605442176874,0.034013605442176874,0.034013605442176874,0.034013605442176874,0.034013605442176874,0.034013605442176874,0.034013605442176874,0.034013605442176874,0.034013605442176874,0.034013605442176874,0.034013605442176874,0.034013605442176874,0.034013605442176874,0.034013605442176874,0.034013605442176874,0.034013605442176874,0.04081632653061224,0.047619047619047616,0.047619047619047616,0.05102040816326531,0.05442176870748299,0.05782312925170068,0.06802721088435375,0.1054421768707483,0.14285714285714285,0.16326530612244897,0.20068027210884354,0.23129251700680273,0.2653061224489796,0.2857142857142857,0.3299319727891156,0.3843537414965986,0.43537414965986393,0.45918367346938777,0.4965986394557823,0.5170068027210885,0.5544217687074829,0.6054421768707483,0.6326530612244898,0.6360544217687075,0.6360544217687075,0.6360544217687075,0.6360544217687075,0.6360544217687075,0.6360544217687075,0.6360544217687075,0.6360544217687075,0.6360544217687075,0.6360544217687075,0.6360544217687075,0.6360544217687075,0.6360544217687075,0.6360544217687075,0.6360544217687075,0.6360544217687075,0.6360544217687075,0.6360544217687075,0.6360544217687075,0.6360544217687075,0.6360544217687075,0.6360544217687075,0.6360544217687075,0.6326530612244898,0.6020408163265306,0.5918367346938775,0.5850340136054422,0.5782312925170068,0.5782312925170068,0.5714285714285714,0.5612244897959183,0.5272108843537415,0.46938775510204084,0.4387755102040816,0.3877551020408163,0.36054421768707484,0.3469387755102041,0.3333333333333333,0.3299319727891156,0.32653061224489793,0.32653061224489793,0.32653061224489793,0.32653061224489793,0.32653061224489793,0.32653061224489793,0.3197278911564626,0.30952380952380953,0.29591836734693877,0.2857142857142857,0.2789115646258503,0.2653061224489796,0.25510204081632654,0.25510204081632654,0.25510204081632654,0.2653061224489796,0.2653061224489796,0.2653061224489796,0.2653061224489796,0.2653061224489796,0.24829931972789115,0.22448979591836735,0.18027210884353742,0.16666666666666666,0.1598639455782313,0.1598639455782313,0.1598639455782313,0.1598639455782313,0.1598639455782313,0.1598639455782313,0.1598639455782313,0.1598639455782313,0.1564625850340136,0.1564625850340136,0.14625850340136054,0.14285714285714285,0.14285714285714285,0.14285714285714285,0.14285714285714285,0.14285714285714285,0.14285714285714285,0.14285714285714285,0.14285714285714285,0.14285714285714285,0.14285714285714285,0.14285714285714285,0.14285714285714285,0.14285714285714285,0.14285714285714285,0.14285714285714285,0.14285714285714285,0.14285714285714285,0.14285714285714285,0.14285714285714285,0.14285714285714285,0.14285714285714285,0.14285714285714285,0.14285714285714285,0.14285714285714285,0.14285714285714285,0.14285714285714285,0.14285714285714285,0.14285714285714285,0.14285714285714285,0.14285714285714285,0.14285714285714285,0.14285714285714285,0.14285714285714285,0.14285714285714285,0.14285714285714285,0.14285714285714285,0.14625850340136054,0.15306122448979592,0.1564625850340136,0.1564625850340136,0.1564625850340136,0.1564625850340136,0.1564625850340136,0.1564625850340136,0.1564625850340136,0.1564625850340136,0.1564625850340136,0.1564625850340136,0.1564625850340136,0.1564625850340136,0.1564625850340136,0.1564625850340136,0.1564625850340136,0.1564625850340136,0.1564625850340136,0.1564625850340136,0.1564625850340136,0.1564625850340136,0.1564625850340136,0.1564625850340136,0.1598639455782313,0.16326530612244897,0.16326530612244897,0.16326530612244897,0.16326530612244897,0.16326530612244897,0.16326530612244897,0.16326530612244897,0.16326530612244897,0.16326530612244897,0.16326530612244897,0.16326530612244897,0.16326530612244897,0.16326530612244897,0.16326530612244897,0.17006802721088435,0.17346938775510204,0.17687074829931973,0.17687074829931973,0.18027210884353742,0.18027210884353742,0.18027210884353742,0.1836734693877551,0.1836734693877551,0.1836734693877551,0.1836734693877551,0.1836734693877551,0.1836734693877551,0.1836734693877551,0.1836734693877551,0.1836734693877551,0.1836734693877551,0.1836734693877551,0.1836734693877551,0.1836734693877551,0.1836734693877551,0.1836734693877551,0.1836734693877551,0.1836734693877551,0.1836734693877551,0.1836734693877551,0.21428571428571427,0.2585034013605442,0.2789115646258503,0.3231292517006803,0.36394557823129253,0.40476190476190477,0.42517006802721086,0.46258503401360546,0.48299319727891155,0.4897959183673469,0.4931972789115646,0.4931972789115646,0.5,0.5136054421768708,0.5238095238095238,0.5238095238095238,0.5238095238095238,0.5238095238095238,0.5238095238095238,0.5238095238095238,0.5238095238095238,0.5238095238095238,0.5238095238095238,0.5238095238095238,0.5238095238095238,0.5238095238095238,0.5238095238095238,0.5238095238095238,0.5306122448979592,0.5306122448979592,0.5306122448979592,0.5306122448979592,0.5306122448979592,0.5306122448979592,0.5306122448979592,0.5306122448979592,0.5306122448979592,0.5306122448979592,0.5306122448979592,0.5306122448979592,0.5306122448979592,0.5306122448979592,0.5374149659863946,0.5476190476190477,0.5544217687074829,0.5612244897959183,0.5680272108843537,0.5680272108843537,0.5680272108843537,0.5680272108843537,0.5680272108843537,0.5680272108843537,0.5680272108843537,0.5680272108843537,0.5680272108843537,0.5680272108843537,0.5680272108843537,0.5782312925170068,0.5816326530612245,0.5918367346938775,0.5918367346938775,0.5918367346938775,0.5952380952380952,0.5952380952380952,0.5952380952380952,0.5986394557823129,0.5986394557823129,0.6054421768707483,0.6122448979591837,0.6122448979591837,0.6122448979591837,0.6122448979591837,0.6122448979591837,0.6122448979591837,0.6122448979591837,0.6122448979591837,0.6122448979591837,0.6122448979591837,0.6122448979591837,0.6122448979591837,0.6122448979591837,0.6122448979591837,0.6122448979591837,0.6122448979591837,0.6122448979591837,0.6122448979591837,0.6122448979591837,0.6122448979591837,0.6122448979591837,0.6122448979591837,0.6122448979591837,0.6122448979591837,0.6122448979591837,0.6122448979591837,0.6122448979591837,0.6122448979591837,0.6122448979591837,0.6122448979591837,0.6122448979591837,0.6122448979591837,0.6122448979591837,0.6122448979591837,0.6122448979591837,0.6122448979591837,0.6122448979591837,0.6122448979591837,0.6122448979591837,0.6122448979591837,0.6122448979591837,0.6122448979591837,0.6122448979591837,0.6122448979591837,0.6122448979591837,0.6122448979591837,0.6122448979591837,0.6122448979591837,0.6122448979591837,0.6122448979591837,0.6122448979591837,0.6122448979591837,0.6122448979591837,0.6122448979591837,0.6122448979591837,0.6122448979591837,0.6122448979591837,0.6122448979591837,0.6122448979591837,0.6122448979591837,0.6122448979591837,0.6122448979591837,0.6122448979591837,0.6122448979591837,0.6122448979591837,0.6122448979591837,0.6122448979591837,0.6122448979591837,0.6122448979591837,0.6122448979591837,0.6122448979591837,0.6122448979591837,0.6122448979591837,0.6122448979591837,0.6122448979591837,0.6122448979591837,0.6122448979591837,0.6122448979591837,0.6122448979591837,0.6122448979591837,0.6122448979591837,0.6122448979591837,0.6122448979591837,0.6122448979591837,0.6122448979591837,0.6122448979591837,0.6122448979591837,0.6122448979591837,0.6122448979591837,0.6122448979591837,0.6122448979591837,0.6122448979591837,0.6122448979591837,0.6122448979591837,0.6122448979591837,0.6122448979591837,0.6122448979591837,0.6122448979591837,0.6122448979591837,0.6122448979591837,0.6122448979591837,0.6122448979591837,0.6122448979591837,0.6122448979591837,0.6122448979591837,0.6122448979591837,0.6122448979591837,0.6122448979591837,0.6122448979591837,0.6122448979591837,0.6122448979591837,0.6122448979591837,0.6122448979591837,0.6122448979591837,0.6122448979591837,0.6122448979591837,0.6122448979591837,0.6122448979591837,0.6122448979591837,0.6122448979591837,0.608843537414966,0.608843537414966,0.608843537414966,0.608843537414966,0.608843537414966,0.608843537414966,0.608843537414966,0.6054421768707483,0.6054421768707483,0.6020408163265306,0.6020408163265306,0.6020408163265306,0.6020408163265306,0.6020408163265306,0.6020408163265306,0.6020408163265306,0.6020408163265306,0.6020408163265306,0.6020408163265306,0.6020408163265306,0.6020408163265306,0.6020408163265306,0.6020408163265306,0.6020408163265306,0.6020408163265306,0.6020408163265306,0.6020408163265306,0.6020408163265306,0.6020408163265306,0.6020408163265306,0.6020408163265306,0.6020408163265306,0.6020408163265306,0.6020408163265306,0.6020408163265306,0.6020408163265306,0.6020408163265306,0.6020408163265306,0.6020408163265306,0.6020408163265306,0.6020408163265306,0.6020408163265306,0.6020408163265306,0.6020408163265306,0.6020408163265306,0.6020408163265306,0.6020408163265306,0.6020408163265306,0.6020408163265306,0.6020408163265306,0.6020408163265306,0.6020408163265306,0.6020408163265306,0.6020408163265306,0.6020408163265306,0.6020408163265306,0.6020408163265306,0.6020408163265306,0.6020408163265306,0.6020408163265306,0.6020408163265306,0.6020408163265306,0.6020408163265306,0.6020408163265306,0.6020408163265306,0.6020408163265306,0.6020408163265306,0.6020408163265306,0.6020408163265306,0.6020408163265306,0.6020408163265306,0.6020408163265306,0.6020408163265306,0.6020408163265306,0.6020408163265306,0.6020408163265306,0.6020408163265306,0.6020408163265306,0.6020408163265306,0.6020408163265306,0.6020408163265306,0.6020408163265306,0.6020408163265306,0.6020408163265306,0.6020408163265306,0.6020408163265306,0.6020408163265306,0.6020408163265306,0.6020408163265306,0.6020408163265306,0.6020408163265306,0.6020408163265306,0.6020408163265306,0.6020408163265306,0.6020408163265306,0.6020408163265306,0.6020408163265306,0.6020408163265306,0.6020408163265306,0.6020408163265306,0.6020408163265306,0.6020408163265306,0.6020408163265306,0.6020408163265306,0.6020408163265306,0.6020408163265306,0.6020408163265306,0.6020408163265306,0.6020408163265306,0.6020408163265306,0.6020408163265306,0.6020408163265306,0.6020408163265306,0.6020408163265306,0.6020408163265306,0.6020408163265306,0.6020408163265306,0.6020408163265306,0.6020408163265306,0.6020408163265306,0.6020408163265306,0.6020408163265306,0.6020408163265306,0.6020408163265306,0.6020408163265306,0.6020408163265306,0.6020408163265306,0.6020408163265306,0.6020408163265306,0.6020408163265306,0.6020408163265306,0.6020408163265306,0.6020408163265306,0.6020408163265306,0.6020408163265306,0.6020408163265306,0.6224489795918368,0.6326530612244898,0.6326530612244898,0.6326530612244898,0.6326530612244898,0.6326530612244898,0.6326530612244898,0.6326530612244898,0.6326530612244898,0.6326530612244898,0.6326530612244898,0.6326530612244898,0.6326530612244898,0.6326530612244898,0.6326530612244898,0.6326530612244898,0.6326530612244898,0.6326530612244898,0.6326530612244898,0.6326530612244898,0.6326530612244898,0.6326530612244898,0.6326530612244898,0.6326530612244898,0.6326530612244898,0.6326530612244898,0.6326530612244898,0.6326530612244898,0.6326530612244898,0.6326530612244898,0.6326530612244898,0.6326530612244898,0.5816326530612245,0.4965986394557823,0.4489795918367347,0.3673469387755102,0.3163265306122449,0.2857142857142857,0.2789115646258503,0.2755102040816326,0.2653061224489796,0.25170068027210885,0.24829931972789115,0.23809523809523808,0.22789115646258504,0.22108843537414966,0.20408163265306123,0.19727891156462585,0.1836734693877551,0.17687074829931973,0.17687074829931973,0.17687074829931973,0.17687074829931973,0.17687074829931973,0.17687074829931973,0.17687074829931973,0.17687074829931973,0.17687074829931973,0.1836734693877551,0.19047619047619047,0.19047619047619047,0.19387755102040816,0.2108843537414966,0.21768707482993196,0.22448979591836735,0.22789115646258504,0.23809523809523808,0.25170068027210885,0.2755102040816326,0.2857142857142857,0.3299319727891156,0.38095238095238093,0.40816326530612246,0.46938775510204084,0.54421768707483,0.6326530612244898,0.7006802721088435,0.717687074829932,0.7312925170068028,0.7482993197278912,0.782312925170068,0.8231292517006803,0.8435374149659864,0.891156462585034,0.9489795918367347,1.010204081632653,1.0272108843537415,1.0476190476190477,1.0578231292517006,1.0680272108843538,1.0714285714285714,1.0816326530612246,1.0850340136054422,1.0918367346938775,1.0952380952380953,1.0952380952380953,1.0952380952380953,1.0850340136054422,1.0714285714285714,1.064625850340136,1.0578231292517006,1.0510204081632653,1.0408163265306123,1.0408163265306123,1.0408163265306123,1.0408163265306123,1.0408163265306123,1.0272108843537415,1.0136054421768708,1.0068027210884354,1.0068027210884354,1.0068027210884354,1.0068027210884354,1.0068027210884354,1.0068027210884354,1.0068027210884354,1.0068027210884354,1.0068027210884354,1.0068027210884354,1.0136054421768708,1.0170068027210883,1.0170068027210883,1.0170068027210883,1.0170068027210883,1.0170068027210883,1.0170068027210883,1.0170068027210883,1.0170068027210883,1.0170068027210883,1.0170068027210883,1.0170068027210883,1.0170068027210883,1.0170068027210883,1.0170068027210883,1.0170068027210883,1.0170068027210883,1.0170068027210883,1.0170068027210883,1.0170068027210883,1.0170068027210883,1.0170068027210883,1.0170068027210883,1.0170068027210883,1.0170068027210883,1.0170068027210883,1.010204081632653,0.9931972789115646,0.9421768707482994,0.8707482993197279,0.782312925170068,0.7346938775510204,0.673469387755102,0.6394557823129252,0.6292517006802721,0.6224489795918368,0.6156462585034014,0.6054421768707483,0.5952380952380952,0.5850340136054422,0.5782312925170068,0.5680272108843537,0.5544217687074829,0.5408163265306123,0.5374149659863946,0.5204081632653061,0.5102040816326531,0.5034013605442177,0.5034013605442177,0.5,0.4965986394557823,0.4965986394557823,0.4965986394557823,0.4965986394557823,0.4965986394557823,0.4965986394557823,0.4965986394557823,0.4965986394557823,0.4965986394557823,0.4965986394557823,0.4965986394557823,0.4931972789115646,0.48299319727891155,0.47959183673469385,0.47959183673469385,0.48639455782312924,0.4965986394557823,0.5,0.5102040816326531,0.5238095238095238,0.5374149659863946,0.5510204081632653,0.5578231292517006,0.564625850340136,0.5850340136054422,0.6224489795918368,0.6700680272108843,0.7074829931972789,0.7278911564625851,0.7653061224489796,0.8027210884353742,0.826530612244898,0.8673469387755102,0.8945578231292517,0.9047619047619048,0.9149659863945578,0.9183673469387755,0.9285714285714286,0.9387755102040817,0.9455782312925171,0.9489795918367347,0.9591836734693877,0.9625850340136054,0.9659863945578231,0.9727891156462585,0.9931972789115646,1.0272108843537415,1.0442176870748299,1.0816326530612246,1.1088435374149659,1.129251700680272,1.1360544217687074,1.1428571428571428,1.1462585034013606,1.1462585034013606,1.1462585034013606,1.1462585034013606,1.1462585034013606,1.1462585034013606,1.1496598639455782,1.1496598639455782,1.1496598639455782,1.1496598639455782,1.1496598639455782,1.1496598639455782,1.1496598639455782,1.1496598639455782,1.1496598639455782,1.1496598639455782,1.1496598639455782,1.1496598639455782,1.1496598639455782,1.1496598639455782,1.1496598639455782,1.1496598639455782,1.1496598639455782,1.1496598639455782,1.1496598639455782,1.1496598639455782,1.1496598639455782,1.1496598639455782,1.1496598639455782,1.1496598639455782,1.1462585034013606,1.1258503401360545,1.0816326530612246,1.0442176870748299,0.9387755102040817,0.7891156462585034,0.6190476190476191,0.48639455782312924,0.41496598639455784,0.2585034013605442,0.0782312925170068,-0.030612244897959183,-0.10204081632653061,-0.14285714285714285,-0.1836734693877551,-0.1836734693877551,-0.1836734693877551,-0.1836734693877551,-0.1836734693877551,-0.1836734693877551,-0.1836734693877551,-0.1836734693877551,-0.1836734693877551,-0.1836734693877551,-0.1836734693877551,-0.1836734693877551,-0.1836734693877551,-0.1836734693877551,-0.1836734693877551,-0.1836734693877551,-0.1836734693877551,-0.1836734693877551,-0.17346938775510204,-0.16666666666666666,-0.1564625850340136,-0.1564625850340136,-0.1564625850340136,-0.1564625850340136,-0.1564625850340136,-0.15306122448979592,-0.11564625850340136,-0.05442176870748299,0.027210884353741496,0.07142857142857142,0.17687074829931973,0.2857142857142857,0.41496598639455784,0.5,0.6462585034013606,0.7857142857142857,0.9149659863945578,0.95578231292517,1.0034013605442176,1.0272108843537415,1.030612244897959,1.030612244897959,1.030612244897959,1.030612244897959,1.030612244897959,1.030612244897959,1.030612244897959,1.030612244897959,1.030612244897959,1.030612244897959,1.030612244897959,1.030612244897959,1.030612244897959,1.030612244897959,1.030612244897959,1.030612244897959,1.030612244897959,1.030612244897959,1.030612244897959,1.030612244897959,1.030612244897959,1.030612244897959,1.030612244897959,1.030612244897959,1.030612244897959,1.030612244897959,1.030612244897959,1.030612244897959,1.030612244897959,1.030612244897959,1.030612244897959,1.030612244897959,1.030612244897959,1.030612244897959,1.030612244897959,1.030612244897959,1.030612244897959,1.030612244897959,1.030612244897959,1.030612244897959,1.030612244897959,1.030612244897959,1.030612244897959,1.030612244897959,1.030612244897959,1.030612244897959,1.030612244897959,1.030612244897959,1.030612244897959,1.030612244897959,1.030612244897959,1.030612244897959,1.030612244897959,1.030612244897959,1.030612244897959,1.030612244897959,1.030612244897959,1.030612244897959,1.030612244897959,1.030612244897959,1.030612244897959,1.0272108843537415,1.0238095238095237,1.0238095238095237,1.0238095238095237,1.0238095238095237,1.0238095238095237,1.0238095238095237,1.0238095238095237,1.0238095238095237,1.0238095238095237,1.0238095238095237,1.0238095238095237,1.0238095238095237,1.0238095238095237,1.0238095238095237,1.0272108843537415,1.0272108843537415,1.0272108843537415],"y":[-3.4285714285714284,-3.4285714285714284,0.6619047619047619,0.6619047619047619,0.6619047619047619,0.6619047619047619,0.6523809523809524,0.6428571428571429,0.6428571428571429,0.6238095238095238,0.6047619047619047,0.6047619047619047,0.5952380952380952,0.5952380952380952,0.5952380952380952,0.5952380952380952,0.5952380952380952,0.5952380952380952,0.5952380952380952,0.5952380952380952,0.5761904761904761,0.5476190476190477,0.5285714285714286,0.49047619047619045,0.44285714285714284,0.3761904761904762,0.35714285714285715,0.3,0.2619047619047619,0.2523809523809524,0.22380952380952382,0.18571428571428572,0.14761904761904762,0.10952380952380952,0.1,0.09047619047619047,0.09047619047619047,0.08095238095238096,0.08095238095238096,0.08095238095238096,0.09047619047619047,0.10952380952380952,0.14761904761904762,0.18571428571428572,0.21428571428571427,0.2619047619047619,0.2904761904761905,0.2904761904761905,0.2904761904761905,0.2904761904761905,0.2904761904761905,0.2904761904761905,0.2904761904761905,0.2904761904761905,0.2904761904761905,0.2904761904761905,0.2904761904761905,0.2904761904761905,0.2904761904761905,0.2904761904761905,0.2904761904761905,0.2904761904761905,0.2904761904761905,0.2904761904761905,0.2904761904761905,0.28095238095238095,0.12857142857142856,0.014285714285714285,-0.2523809523809524,-0.6238095238095238,-0.8714285714285714,-0.9285714285714286,-0.9285714285714286,-0.9285714285714286,-0.9285714285714286,-0.9285714285714286,-0.9285714285714286,-0.9285714285714286,-0.9285714285714286,-0.9285714285714286,-0.9285714285714286,-0.9285714285714286,-0.9285714285714286,-0.9285714285714286,-0.9476190476190476,-0.9666666666666667,-0.9952380952380953,-1.0238095238095237,-1.061904761904762,-1.1,-1.138095238095238,-1.1571428571428573,-1.1761904761904762,-1.1761904761904762,-1.1761904761904762,-1.1761904761904762,-1.1761904761904762,-1.1761904761904762,-1.1761904761904762,-1.1761904761904762,-1.1761904761904762,-1.1857142857142857,-1.223809523809524,-1.2333333333333334,-1.2428571428571429,-1.2714285714285714,-1.2714285714285714,-1.2809523809523808,-1.2809523809523808,-1.2809523809523808,-1.2904761904761906,-1.2904761904761906,-1.2904761904761906,-1.2904761904761906,-1.2904761904761906,-1.2904761904761906,-1.2904761904761906,-1.2904761904761906,-1.2904761904761906,-1.2904761904761906,-1.2904761904761906,-1.2904761904761906,-1.2904761904761906,-1.3,-1.3,-1.3,-1.3,-1.2809523809523808,-1.2714285714285714,-1.2333333333333334,-1.1952380952380952,-1.1857142857142857,-1.1761904761904762,-1.1761904761904762,-1.1761904761904762,-1.1761904761904762,-1.1761904761904762,-1.1761904761904762,-1.1761904761904762,-1.1761904761904762,-1.1761904761904762,-1.1761904761904762,-1.1761904761904762,-1.1761904761904762,-1.1761904761904762,-1.1761904761904762,-1.1761904761904762,-1.1952380952380952,-1.223809523809524,-1.2523809523809524,-1.2619047619047619,-1.2619047619047619,-1.223809523809524,-1.1952380952380952,-1.1571428571428573,-1.119047619047619,-1.1,-1.0904761904761904,-1.061904761904762,-1.0333333333333334,-0.9952380952380953,-0.9857142857142858,-0.9761904761904762,-0.9761904761904762,-0.9761904761904762,-0.9761904761904762,-0.9761904761904762,-0.9761904761904762,-0.9761904761904762,-0.9761904761904762,-0.9761904761904762,-0.9761904761904762,-0.9761904761904762,-0.9761904761904762,-0.9761904761904762,-0.9761904761904762,-0.9761904761904762,-0.9761904761904762,-0.9761904761904762,-0.9761904761904762,-0.9761904761904762,-0.9761904761904762,-0.9761904761904762,-0.9761904761904762,-0.9761904761904762,-0.9761904761904762,-0.9761904761904762,-0.9761904761904762,-0.9761904761904762,-0.9761904761904762,-0.9761904761904762,-0.9761904761904762,-0.9761904761904762,-0.9761904761904762,-0.9761904761904762,-0.9761904761904762,-0.9761904761904762,-0.9761904761904762,-0.9761904761904762,-0.9761904761904762,-0.9761904761904762,-0.9761904761904762,-0.9761904761904762,-0.9761904761904762,-0.9761904761904762,-0.9761904761904762,-0.9761904761904762,-0.9761904761904762,-0.9761904761904762,-0.9761904761904762,-0.9761904761904762,-0.9761904761904762,-0.9761904761904762,-0.9761904761904762,-0.9761904761904762,-0.9761904761904762,-0.9761904761904762,-0.9761904761904762,-0.9761904761904762,-0.9761904761904762,-0.9761904761904762,-0.9761904761904762,-0.9761904761904762,-0.9761904761904762,-0.9761904761904762,-0.9761904761904762,-0.9761904761904762,-0.9761904761904762,-0.9761904761904762,-0.9761904761904762,-0.9761904761904762,-0.9761904761904762,-0.9761904761904762,-0.9761904761904762,-0.9761904761904762,-0.9761904761904762,-0.9761904761904762,-0.9761904761904762,-0.9761904761904762,-0.9761904761904762,-0.9761904761904762,-0.9761904761904762,-0.9761904761904762,-0.9761904761904762,-0.9761904761904762,-0.9761904761904762,-0.9761904761904762,-0.9761904761904762,-0.9761904761904762,-0.9761904761904762,-0.9761904761904762,-0.9761904761904762,-0.9761904761904762,-0.9761904761904762,-0.9761904761904762,-0.9761904761904762,-0.9761904761904762,-0.9761904761904762,-0.9761904761904762,-0.9761904761904762,-0.9761904761904762,-0.9761904761904762,-0.9761904761904762,-0.9761904761904762,-0.9761904761904762,-0.9761904761904762,-0.9761904761904762,-0.9761904761904762,-0.9761904761904762,-0.9761904761904762,-0.9761904761904762,-0.9761904761904762,-0.9761904761904762,-0.9761904761904762,-0.9761904761904762,-0.9761904761904762,-0.9761904761904762,-0.9761904761904762,-0.9761904761904762,-0.9761904761904762,-0.9761904761904762,-0.9761904761904762,-0.9761904761904762,-0.9761904761904762,-0.9761904761904762,-0.9761904761904762,-0.9761904761904762,-0.9761904761904762,-0.9761904761904762,-0.9761904761904762,-0.9761904761904762,-0.9761904761904762,-0.9761904761904762,-0.9761904761904762,-0.9761904761904762,-0.9761904761904762,-0.9761904761904762,-0.9761904761904762,-0.9761904761904762,-0.9761904761904762,-0.9761904761904762,-0.9761904761904762,-0.9761904761904762,-0.9761904761904762,-0.9761904761904762,-0.9761904761904762,-0.9761904761904762,-0.9761904761904762,-0.9761904761904762,-0.9761904761904762,-0.9761904761904762,-0.9761904761904762,-0.9761904761904762,-0.9761904761904762,-0.9761904761904762,-0.9761904761904762,-0.9761904761904762,-0.9761904761904762,-0.9761904761904762,-0.9761904761904762,-0.9761904761904762,-0.9761904761904762,-0.9761904761904762,-0.9761904761904762,-0.9761904761904762,-0.9761904761904762,-0.9761904761904762,-0.9761904761904762,-0.9761904761904762,-0.9761904761904762,-0.9761904761904762,-0.9761904761904762,-0.9761904761904762,-0.9761904761904762,-0.9761904761904762,-0.9761904761904762,-0.9761904761904762,-0.9761904761904762,-0.9761904761904762,-0.9761904761904762,-0.9761904761904762,-0.9761904761904762,-0.9761904761904762,-0.9761904761904762,-0.9761904761904762,-0.9761904761904762,-0.9761904761904762,-0.9761904761904762,-0.9761904761904762,-0.9761904761904762,-0.9761904761904762,-0.9761904761904762,-0.9761904761904762,-0.9761904761904762,-0.9761904761904762,-0.9761904761904762,-0.9761904761904762,-0.9761904761904762,-0.9761904761904762,-0.9761904761904762,-0.9761904761904762,-0.9761904761904762,-0.9761904761904762,-0.9761904761904762,-0.9761904761904762,-0.9761904761904762,-0.9761904761904762,-0.9761904761904762,-0.9761904761904762,-0.9761904761904762,-0.9761904761904762,-0.9761904761904762,-0.9761904761904762,-0.9761904761904762,-0.9761904761904762,-0.9761904761904762,-0.9761904761904762,-0.9761904761904762,-0.9761904761904762,-0.9761904761904762,-0.9761904761904762,-0.9761904761904762,-0.9761904761904762,-0.9761904761904762,-0.9761904761904762,-0.9761904761904762,-0.9761904761904762,-0.9761904761904762,-0.9761904761904762,-0.9761904761904762,-0.9761904761904762,-0.9761904761904762,-0.9761904761904762,-0.9761904761904762,-0.9761904761904762,-0.9761904761904762,-0.9761904761904762,-0.9761904761904762,-0.9761904761904762,-0.9761904761904762,-0.9761904761904762,-0.9761904761904762,-0.9761904761904762,-0.9761904761904762,-0.9761904761904762,-0.9761904761904762,-0.9761904761904762,-0.9761904761904762,-0.9761904761904762,-0.9761904761904762,-0.9761904761904762,-0.9761904761904762,-0.9761904761904762,-0.9761904761904762,-0.9761904761904762,-0.9761904761904762,-0.9761904761904762,-0.9761904761904762,-0.9761904761904762,-0.9761904761904762,-0.9761904761904762,-0.9761904761904762,-0.9761904761904762,-0.9761904761904762,-0.9761904761904762,-0.9761904761904762,-0.9761904761904762,-0.9761904761904762,-0.9761904761904762,-0.9761904761904762,-0.9761904761904762,-0.9761904761904762,-0.9761904761904762,-0.9761904761904762,-0.9761904761904762,-0.9761904761904762,-0.9761904761904762,-0.9761904761904762,-0.9761904761904762,-0.9761904761904762,-0.9761904761904762,-0.9761904761904762,-0.9761904761904762,-0.9761904761904762,-0.9761904761904762,-0.9761904761904762,-0.9761904761904762,-0.9761904761904762,-0.9761904761904762,-0.9761904761904762,-0.9761904761904762,-0.9761904761904762,-0.9761904761904762,-0.9761904761904762,-0.9761904761904762,-0.9761904761904762,-0.9761904761904762,-0.9761904761904762,-0.9761904761904762,-0.9761904761904762,-0.9761904761904762,-0.9761904761904762,-0.9761904761904762,-0.9761904761904762,-0.9761904761904762,-0.9761904761904762,-0.9761904761904762,-0.9761904761904762,-0.9761904761904762,-0.9761904761904762,-0.9761904761904762,-0.9761904761904762,-0.9761904761904762,-0.9761904761904762,-0.9761904761904762,-0.9761904761904762,-0.9761904761904762,-0.9761904761904762,-0.9761904761904762,-0.9761904761904762,-0.9761904761904762,-0.9761904761904762,-0.9761904761904762,-0.9761904761904762,-0.9761904761904762,-0.9761904761904762,-0.9761904761904762,-0.9761904761904762,-0.9761904761904762,-0.9761904761904762,-0.9761904761904762,-0.9761904761904762,-0.9761904761904762,-0.9761904761904762,-0.9761904761904762,-0.9761904761904762,-0.9761904761904762,-0.9761904761904762,-0.9761904761904762,-0.9761904761904762,-0.9761904761904762,-0.9761904761904762,-0.9761904761904762,-0.9761904761904762,-0.9761904761904762,-0.9761904761904762,-0.9761904761904762,-0.9761904761904762,-0.9761904761904762,-0.9761904761904762,-0.9761904761904762,-0.9761904761904762,-0.9761904761904762,-0.9761904761904762,-0.9761904761904762,-0.9761904761904762,-0.9761904761904762,-0.9761904761904762,-0.9761904761904762,-0.9761904761904762,-0.9761904761904762,-0.9761904761904762,-0.9761904761904762,-0.9761904761904762,-0.9761904761904762,-0.9761904761904762,-0.9761904761904762,-0.9761904761904762,-0.9761904761904762,-0.9761904761904762,-0.9761904761904762,-0.9761904761904762,-0.9761904761904762,-0.9761904761904762,-0.9761904761904762,-0.9761904761904762,-0.9476190476190476,-0.9380952380952381,-0.9380952380952381,-0.9380952380952381,-0.9380952380952381,-0.9380952380952381,-0.9380952380952381,-0.9380952380952381,-0.9380952380952381,-0.9380952380952381,-0.919047619047619,-0.7761904761904762,-0.6428571428571429,-0.5761904761904761,-0.4523809523809524,-0.3476190476190476,-0.30952380952380953,-0.2619047619047619,-0.24285714285714285,-0.23333333333333334,-0.22380952380952382,-0.22380952380952382,-0.21428571428571427,-0.20476190476190476,-0.19523809523809524,-0.18571428571428572,-0.16666666666666666,-0.15714285714285714,-0.11904761904761904,-0.11904761904761904,-0.11904761904761904,-0.11904761904761904,-0.11904761904761904,-0.11904761904761904,-0.11904761904761904,-0.11904761904761904,-0.11904761904761904,-0.11904761904761904,-0.11904761904761904,-0.11904761904761904,-0.09047619047619047,-0.06190476190476191,-0.04285714285714286,-0.04285714285714286,-0.03333333333333333,-0.03333333333333333,-0.023809523809523808,-0.023809523809523808,-0.023809523809523808,-0.023809523809523808,-0.023809523809523808,-0.023809523809523808,-0.023809523809523808,-0.023809523809523808,-0.023809523809523808,-0.023809523809523808,-0.004761904761904762,-0.004761904761904762,0.004761904761904762,0.004761904761904762,0.004761904761904762,0.014285714285714285,0.014285714285714285,0.014285714285714285,0.014285714285714285,0.014285714285714285,0.004761904761904762,0.004761904761904762,0.004761904761904762,0.004761904761904762,0.004761904761904762,0.004761904761904762,0.004761904761904762,0.004761904761904762,0.004761904761904762,0.004761904761904762,0.004761904761904762,0.004761904761904762,0.004761904761904762,0.004761904761904762,0.004761904761904762,0.004761904761904762,0.004761904761904762,0.004761904761904762,0.004761904761904762,0.004761904761904762,0.004761904761904762,0.004761904761904762,0.004761904761904762,0.004761904761904762,0.004761904761904762,0.004761904761904762,0.004761904761904762,0.004761904761904762,0.004761904761904762,0.004761904761904762,0.004761904761904762,0.004761904761904762,0.004761904761904762,0.004761904761904762,0.004761904761904762,0.004761904761904762,0.004761904761904762,0.004761904761904762,0.004761904761904762,0.004761904761904762,0.004761904761904762,0.004761904761904762,-0.03333333333333333,-0.08095238095238096,-0.1,-0.15714285714285714,-0.20476190476190476,-0.32857142857142857,-0.40476190476190477,-0.5190476190476191,-0.48095238095238096,-0.48095238095238096,-0.48095238095238096,-0.48095238095238096,-0.48095238095238096,-0.48095238095238096,-0.48095238095238096,-0.48095238095238096,-0.48095238095238096,-0.48095238095238096,-0.48095238095238096,-0.48095238095238096,-0.48095238095238096,-0.48095238095238096,-0.48095238095238096,-0.48095238095238096,-0.48095238095238096,-0.48095238095238096,-0.49047619047619045,-0.49047619047619045,-0.49047619047619045,-0.49047619047619045,-0.49047619047619045,-0.49047619047619045,-0.49047619047619045,-0.49047619047619045,-0.49047619047619045,-0.49047619047619045,-0.49047619047619045,-0.49047619047619045,-0.49047619047619045,-0.49047619047619045,-0.49047619047619045,-0.49047619047619045,-0.49047619047619045,-0.49047619047619045,-0.49047619047619045,-0.49047619047619045,-0.49047619047619045,-0.49047619047619045,-0.49047619047619045,-0.49047619047619045,-0.49047619047619045,-0.49047619047619045,-0.49047619047619045,-0.49047619047619045,-