"","success","trial_type","trial_index","time_elapsed","internal_node_id","protocol_sum","subject_identifier","subject_sum","subject_pair","STUDY_ID","PROLIFIC_PID","SESSION_ID","practice_instructions","leaderboard_instructions","bonus","reveal_word","self_rating","confidence","view_history","rt","responses","question_order","correct","test_part","word","final_keyboard_state","num_clicks","points","cheat","position_RT","position","player","i_game","true_position","distance","last_word","response","stimulus","confidence_slider_self_response"
"1","true","fullscreen",0,3105,"0.0-0.0",NA,20,"74,68,220,21,54,66,4,168,15,232,14,144,57,69,92,193,96,130,129,130,15,226,178,79,30,82,51,173,230,175,29,213",10,"669a58f4f17d67c0aba4c4d3","5d4c78071b920f00198e8533","669a5c6f777f0ecd9e7b0369",1,0,0,"false",3,0,"",NA,"","","","","","",NA,NA,"",NA,NA,NA,NA,NA,NA,"",NA,"",NA
"2","","instructions",1,11527,"0.0-1.0",NA,20,"74,68,220,21,54,66,4,168,15,232,14,144,57,69,92,193,96,130,129,130,15,226,178,79,30,82,51,173,230,175,29,213",10,"669a58f4f17d67c0aba4c4d3","5d4c78071b920f00198e8533","669a5c6f777f0ecd9e7b0369",1,0,0,"false",3,0,"[{""page_index"":0,""viewing_time"":8420}]",8420.5,"","","","","","",NA,NA,"",NA,NA,NA,NA,NA,NA,"",NA,"",NA
"3","","instructions",2,25898,"0.0-2.0-0.0",NA,20,"74,68,220,21,54,66,4,168,15,232,14,144,57,69,92,193,96,130,129,130,15,226,178,79,30,82,51,173,230,175,29,213",10,"669a58f4f17d67c0aba4c4d3","5d4c78071b920f00198e8533","669a5c6f777f0ecd9e7b0369",1,0,0,"false",3,0,"[{""page_index"":0,""viewing_time"":14369.600000000093}]",14369.8999999999,"","","","","","",NA,NA,"",NA,NA,NA,NA,NA,NA,"",NA,"",NA
"4","","survey-multi-choice",3,36846,"0.0-2.0-1.0",NA,20,"74,68,220,21,54,66,4,168,15,232,14,144,57,69,92,193,96,130,129,130,15,226,178,79,30,82,51,173,230,175,29,213",10,"669a58f4f17d67c0aba4c4d3","5d4c78071b920f00198e8533","669a5c6f777f0ecd9e7b0369",1,0,0,"false",3,0,"",10945.3999999999,"{""Q0"":""... reveal the word with as <b>few letter guesses</b> as possible""}","[0]","true","multichoice_nonpretend","","",NA,NA,"",NA,NA,NA,NA,NA,NA,"",NA,"",NA
"5","","instructions",4,39074,"0.0-3.0",NA,20,"74,68,220,21,54,66,4,168,15,232,14,144,57,69,92,193,96,130,129,130,15,226,178,79,30,82,51,173,230,175,29,213",10,"669a58f4f17d67c0aba4c4d3","5d4c78071b920f00198e8533","669a5c6f777f0ecd9e7b0369",1,0,0,"false",3,0,"[{""page_index"":0,""viewing_time"":2227}]",2227.29999999981,"","","","","","",NA,NA,"",NA,NA,NA,NA,NA,NA,"",NA,"",NA
"6","","Hangman",5,84034,"0.0-4.0",NA,20,"74,68,220,21,54,66,4,168,15,232,14,144,57,69,92,193,96,130,129,130,15,226,178,79,30,82,51,173,230,175,29,213",10,"669a58f4f17d67c0aba4c4d3","5d4c78071b920f00198e8533","669a5c6f777f0ecd9e7b0369",1,0,0,"false",3,0,"",NA,"","","","","ZEBRA","E,M,D,H,B,Z,R,A",8,12,"false",NA,NA,NA,NA,NA,NA,"",NA,"",NA
"7","","instructions",6,96709,"0.0-5.0",NA,20,"74,68,220,21,54,66,4,168,15,232,14,144,57,69,92,193,96,130,129,130,15,226,178,79,30,82,51,173,230,175,29,213",10,"669a58f4f17d67c0aba4c4d3","5d4c78071b920f00198e8533","669a5c6f777f0ecd9e7b0369",1,0,0,"false",3,0,"[{""page_index"":0,""viewing_time"":1995.6000000000931},{""page_index"":1,""viewing_time"":10677}]",12673.3999999999,"","","","","","",NA,NA,"",NA,NA,NA,NA,NA,NA,"",NA,"",NA
"8","","survey-multi-choice",7,103211,"0.0-6.0",NA,20,"74,68,220,21,54,66,4,168,15,232,14,144,57,69,92,193,96,130,129,130,15,226,178,79,30,82,51,173,230,175,29,213",10,"669a58f4f17d67c0aba4c4d3","5d4c78071b920f00198e8533","669a5c6f777f0ecd9e7b0369",1,0,0,"false",3,0,"",6500,"{""Q0"":""...from <b>a previous session</b> that is part of the upcoming tournament.""}","[0]","false","multichoice_leaderboard","","",NA,NA,"",NA,NA,NA,NA,NA,NA,"",NA,"",NA
"9","","instructions",8,105328,"0.0-7.0-0.0",NA,20,"74,68,220,21,54,66,4,168,15,232,14,144,57,69,92,193,96,130,129,130,15,226,178,79,30,82,51,173,230,175,29,213",10,"669a58f4f17d67c0aba4c4d3","5d4c78071b920f00198e8533","669a5c6f777f0ecd9e7b0369",1,0,0,"false",3,0,"[{""page_index"":0,""viewing_time"":2116}]",2116.20000000019,"","","","","","",NA,NA,"",NA,NA,NA,NA,NA,NA,"",NA,"",NA
"10","","survey-multi-choice",9,111361,"0.0-7.0-1.0",NA,20,"74,68,220,21,54,66,4,168,15,232,14,144,57,69,92,193,96,130,129,130,15,226,178,79,30,82,51,173,230,175,29,213",10,"669a58f4f17d67c0aba4c4d3","5d4c78071b920f00198e8533","669a5c6f777f0ecd9e7b0369",1,0,0,"false",3,0,"",6031.40000000037,"{""Q0"":""...from <b>a previous session</b> that is part of the upcoming tournament.""}","[0]","false","multichoice_leaderboard","","",NA,NA,"",NA,NA,NA,NA,NA,NA,"",NA,"",NA
"11","","instructions",10,113209,"0.0-7.1-0.1",NA,20,"74,68,220,21,54,66,4,168,15,232,14,144,57,69,92,193,96,130,129,130,15,226,178,79,30,82,51,173,230,175,29,213",10,"669a58f4f17d67c0aba4c4d3","5d4c78071b920f00198e8533","669a5c6f777f0ecd9e7b0369",1,0,0,"false",3,0,"[{""page_index"":0,""viewing_time"":1845.2000000001863}]",1845.60000000009,"","","","","","",NA,NA,"",NA,NA,NA,NA,NA,NA,"",NA,"",NA
"12","","survey-multi-choice",11,117223,"0.0-7.1-1.1",NA,20,"74,68,220,21,54,66,4,168,15,232,14,144,57,69,92,193,96,130,129,130,15,226,178,79,30,82,51,173,230,175,29,213",10,"669a58f4f17d67c0aba4c4d3","5d4c78071b920f00198e8533","669a5c6f777f0ecd9e7b0369",1,0,0,"false",3,0,"",4012.60000000009,"{""Q0"":""...from the <b>upcoming tournament</b>.""}","[0]","false","multichoice_leaderboard","","",NA,NA,"",NA,NA,NA,NA,NA,NA,"",NA,"",NA
"13","","instructions",12,118752,"0.0-7.2-0.2",NA,20,"74,68,220,21,54,66,4,168,15,232,14,144,57,69,92,193,96,130,129,130,15,226,178,79,30,82,51,173,230,175,29,213",10,"669a58f4f17d67c0aba4c4d3","5d4c78071b920f00198e8533","669a5c6f777f0ecd9e7b0369",1,0,0,"false",3,0,"[{""page_index"":0,""viewing_time"":1527.5}]",1527.79999999981,"","","","","","",NA,NA,"",NA,NA,NA,NA,NA,NA,"",NA,"",NA
"14","","survey-multi-choice",13,121364,"0.0-7.2-1.2",NA,20,"74,68,220,21,54,66,4,168,15,232,14,144,57,69,92,193,96,130,129,130,15,226,178,79,30,82,51,173,230,175,29,213",10,"669a58f4f17d67c0aba4c4d3","5d4c78071b920f00198e8533","669a5c6f777f0ecd9e7b0369",1,0,0,"false",3,0,"",2610.20000000019,"{""Q0"":""...from <b>a previous session</b> that is not part of the upcoming tournament.""}","[0]","true","multichoice_leaderboard","","",NA,NA,"",NA,NA,NA,NA,NA,NA,"",NA,"",NA
"15","","instructions",14,131543,"0.0-8.0",NA,20,"74,68,220,21,54,66,4,168,15,232,14,144,57,69,92,193,96,130,129,130,15,226,178,79,30,82,51,173,230,175,29,213",10,"669a58f4f17d67c0aba4c4d3","5d4c78071b920f00198e8533","669a5c6f777f0ecd9e7b0369",1,0,0,"false",3,0,"[{""page_index"":0,""viewing_time"":10177.799999999814}]",10178.1000000001,"","","","","","",NA,NA,"",NA,NA,NA,NA,NA,NA,"",NA,"",NA
"16","","survey-multi-choice",15,135710,"0.0-9.0",NA,20,"74,68,220,21,54,66,4,168,15,232,14,144,57,69,92,193,96,130,129,130,15,226,178,79,30,82,51,173,230,175,29,213",10,"669a58f4f17d67c0aba4c4d3","5d4c78071b920f00198e8533","669a5c6f777f0ecd9e7b0369",1,0,0,"false",3,0,"",4165.20000000019,"{""Q0"":""...players' leaderboard position (in terms of <b>points</b>) in an <b>upcoming tournament.</b>""}","[0]","true","multichoice_tournament","","",NA,NA,"",NA,NA,NA,NA,NA,NA,"",NA,"",NA
"17","","instructions",16,156615,"0.0-11.0",NA,20,"74,68,220,21,54,66,4,168,15,232,14,144,57,69,92,193,96,130,129,130,15,226,178,79,30,82,51,173,230,175,29,213",10,"669a58f4f17d67c0aba4c4d3","5d4c78071b920f00198e8533","669a5c6f777f0ecd9e7b0369",1,0,0,"false",3,0,"[{""page_index"":0,""viewing_time"":20902.399999999907}]",20902.7999999998,"","","","","","",NA,NA,"",NA,NA,NA,NA,NA,NA,"",NA,"",NA
"18","","instructions",17,168294,"0.0-12.0-0.0",NA,20,"74,68,220,21,54,66,4,168,15,232,14,144,57,69,92,193,96,130,129,130,15,226,178,79,30,82,51,173,230,175,29,213",10,"669a58f4f17d67c0aba4c4d3","5d4c78071b920f00198e8533","669a5c6f777f0ecd9e7b0369",1,0,0,"false",3,0,"[{""page_index"":0,""viewing_time"":11677.200000000186}]",11677.5,"","","","","","",NA,NA,"",NA,NA,NA,NA,NA,NA,"",NA,"",NA
"19","","Hangman_replay",18,226537,"0.0-12.0-1.0",NA,20,"74,68,220,21,54,66,4,168,15,232,14,144,57,69,92,193,96,130,129,130,15,226,178,79,30,82,51,173,230,175,29,213",10,"669a58f4f17d67c0aba4c4d3","5d4c78071b920f00198e8533","669a5c6f777f0ecd9e7b0369",1,0,0,"false",3,0,"",NA,"","","","","KENTUCKY","A,I,E,K,N,T,U,C,Y",9,13,"false",NA,NA,NA,NA,NA,NA,"",NA,"",NA
"20","","instructions",19,230072,"0.0-12.0-2.0",NA,20,"74,68,220,21,54,66,4,168,15,232,14,144,57,69,92,193,96,130,129,130,15,226,178,79,30,82,51,173,230,175,29,213",10,"669a58f4f17d67c0aba4c4d3","5d4c78071b920f00198e8533","669a5c6f777f0ecd9e7b0369",1,0,0,"false",3,0,"[{""page_index"":0,""viewing_time"":3532.7999999998137}]",3533.90000000037,"","","","","","",NA,NA,"",NA,NA,NA,NA,NA,NA,"",NA,"",NA
"21","","Guess_leaderboard",20,242400,"0.0-12.0-3.0",NA,20,"74,68,220,21,54,66,4,168,15,232,14,144,57,69,92,193,96,130,129,130,15,226,178,79,30,82,51,173,230,175,29,213",10,"669a58f4f17d67c0aba4c4d3","5d4c78071b920f00198e8533","669a5c6f777f0ecd9e7b0369",1,0,0,"false",3,0,"",NA,"","","","","KENTUCKY","",NA,NA,"",11562.0999999996,15,5,0,8,7,"",NA,"",NA
"22","","instructions",21,247283,"0.0-12.0-0.1",NA,20,"74,68,220,21,54,66,4,168,15,232,14,144,57,69,92,193,96,130,129,130,15,226,178,79,30,82,51,173,230,175,29,213",10,"669a58f4f17d67c0aba4c4d3","5d4c78071b920f00198e8533","669a5c6f777f0ecd9e7b0369",1,0,0,"false",3,0,"[{""page_index"":0,""viewing_time"":4880.899999999441}]",4881.09999999963,"","","","","","",NA,NA,"",NA,NA,NA,NA,NA,NA,"",NA,"",NA
"23","","Hangman_replay",22,280335,"0.0-12.0-1.1",NA,20,"74,68,220,21,54,66,4,168,15,232,14,144,57,69,92,193,96,130,129,130,15,226,178,79,30,82,51,173,230,175,29,213",10,"669a58f4f17d67c0aba4c4d3","5d4c78071b920f00198e8533","669a5c6f777f0ecd9e7b0369",1,0,0,"false",3,0,"",NA,"","","","","SHAKIRA","E,A,S,H,K,I,R",7,14,"false",NA,NA,NA,NA,NA,NA,"",NA,"",NA
"24","","instructions",23,281671,"0.0-12.0-2.1",NA,20,"74,68,220,21,54,66,4,168,15,232,14,144,57,69,92,193,96,130,129,130,15,226,178,79,30,82,51,173,230,175,29,213",10,"669a58f4f17d67c0aba4c4d3","5d4c78071b920f00198e8533","669a5c6f777f0ecd9e7b0369",1,0,0,"false",3,0,"[{""page_index"":0,""viewing_time"":1334.3999999994412}]",1334.79999999981,"","","","","","",NA,NA,"",NA,NA,NA,NA,NA,NA,"",NA,"",NA
"25","","Guess_leaderboard",24,285567,"0.0-12.0-3.1",NA,20,"74,68,220,21,54,66,4,168,15,232,14,144,57,69,92,193,96,130,129,130,15,226,178,79,30,82,51,173,230,175,29,213",10,"669a58f4f17d67c0aba4c4d3","5d4c78071b920f00198e8533","669a5c6f777f0ecd9e7b0369",1,0,0,"false",3,0,"",NA,"","","","","SHAKIRA","",NA,NA,"",3140.79999999981,12,11,1,19,7,"",NA,"",NA
"26","","instructions",25,290136,"0.0-12.0-0.2",NA,20,"74,68,220,21,54,66,4,168,15,232,14,144,57,69,92,193,96,130,129,130,15,226,178,79,30,82,51,173,230,175,29,213",10,"669a58f4f17d67c0aba4c4d3","5d4c78071b920f00198e8533","669a5c6f777f0ecd9e7b0369",1,0,0,"false",3,0,"[{""page_index"":0,""viewing_time"":4566.600000000559}]",4566.90000000037,"","","","","","",NA,NA,"",NA,NA,NA,NA,NA,NA,"",NA,"",NA
"27","","Hangman_replay",26,333684,"0.0-12.0-1.2",NA,20,"74,68,220,21,54,66,4,168,15,232,14,144,57,69,92,193,96,130,129,130,15,226,178,79,30,82,51,173,230,175,29,213",10,"669a58f4f17d67c0aba4c4d3","5d4c78071b920f00198e8533","669a5c6f777f0ecd9e7b0369",1,0,0,"false",3,0,"",NA,"","","","","THIRTY FOUR","E,A,S,N,I,R,T,H,Y,F,O,U",12,11,"false",NA,NA,NA,NA,NA,NA,"",NA,"",NA
"28","","instructions",27,334691,"0.0-12.0-2.2",NA,20,"74,68,220,21,54,66,4,168,15,232,14,144,57,69,92,193,96,130,129,130,15,226,178,79,30,82,51,173,230,175,29,213",10,"669a58f4f17d67c0aba4c4d3","5d4c78071b920f00198e8533","669a5c6f777f0ecd9e7b0369",1,0,0,"false",3,0,"[{""page_index"":0,""viewing_time"":1005.4000000003725}]",1005.90000000037,"","","","","","",NA,NA,"",NA,NA,NA,NA,NA,NA,"",NA,"",NA
"29","","Guess_leaderboard",28,337201,"0.0-12.0-3.2",NA,20,"74,68,220,21,54,66,4,168,15,232,14,144,57,69,92,193,96,130,129,130,15,226,178,79,30,82,51,173,230,175,29,213",10,"669a58f4f17d67c0aba4c4d3","5d4c78071b920f00198e8533","669a5c6f777f0ecd9e7b0369",1,0,0,"false",3,0,"",NA,"","","","","THIRTY FOUR","",NA,NA,"",1754.79999999981,30,81,2,65,35,"",NA,"",NA
"30","","instructions",29,338418,"0.0-12.0-0.3",NA,20,"74,68,220,21,54,66,4,168,15,232,14,144,57,69,92,193,96,130,129,130,15,226,178,79,30,82,51,173,230,175,29,213",10,"669a58f4f17d67c0aba4c4d3","5d4c78071b920f00198e8533","669a5c6f777f0ecd9e7b0369",1,0,0,"false",3,0,"[{""page_index"":0,""viewing_time"":1215.699999999255}]",1216.09999999963,"","","","","","",NA,NA,"",NA,NA,NA,NA,NA,NA,"",NA,"",NA
"31","","Hangman_replay",30,358338,"0.0-12.0-1.3",NA,20,"74,68,220,21,54,66,4,168,15,232,14,144,57,69,92,193,96,130,129,130,15,226,178,79,30,82,51,173,230,175,29,213",10,"669a58f4f17d67c0aba4c4d3","5d4c78071b920f00198e8533","669a5c6f777f0ecd9e7b0369",1,0,0,"false",3,0,"",NA,"","","","","NECTARINE","B,A,N,R,S,T,L,E,C,I",10,12,"false",NA,NA,NA,NA,NA,NA,"",NA,"",NA
"32","","instructions",31,359334,"0.0-12.0-2.3",NA,20,"74,68,220,21,54,66,4,168,15,232,14,144,57,69,92,193,96,130,129,130,15,226,178,79,30,82,51,173,230,175,29,213",10,"669a58f4f17d67c0aba4c4d3","5d4c78071b920f00198e8533","669a5c6f777f0ecd9e7b0369",1,0,0,"false",3,0,"[{""page_index"":0,""viewing_time"":993.7999999998137}]",994.200000000186,"","","","","","",NA,NA,"",NA,NA,NA,NA,NA,NA,"",NA,"",NA
"33","","Guess_leaderboard",32,364068,"0.0-12.0-3.3",NA,20,"74,68,220,21,54,66,4,168,15,232,14,144,57,69,92,193,96,130,129,130,15,226,178,79,30,82,51,173,230,175,29,213",10,"669a58f4f17d67c0aba4c4d3","5d4c78071b920f00198e8533","669a5c6f777f0ecd9e7b0369",1,0,0,"false",3,0,"",NA,"","","","","NECTARINE","",NA,NA,"",3974.20000000019,19,33,3,72,53,"",NA,"",NA
"34","","instructions",33,365601,"0.0-12.0-0.4",NA,20,"74,68,220,21,54,66,4,168,15,232,14,144,57,69,92,193,96,130,129,130,15,226,178,79,30,82,51,173,230,175,29,213",10,"669a58f4f17d67c0aba4c4d3","5d4c78071b920f00198e8533","669a5c6f777f0ecd9e7b0369",1,0,0,"false",3,0,"[{""page_index"":0,""viewing_time"":1530.7999999998137}]",1531.09999999963,"","","","","","",NA,NA,"",NA,NA,NA,NA,NA,NA,"",NA,"",NA
"35","","Hangman_replay",34,417471,"0.0-12.0-1.4",NA,20,"74,68,220,21,54,66,4,168,15,232,14,144,57,69,92,193,96,130,129,130,15,226,178,79,30,82,51,173,230,175,29,213",10,"669a58f4f17d67c0aba4c4d3","5d4c78071b920f00198e8533","669a5c6f777f0ecd9e7b0369",1,0,0,"false",3,0,"",NA,"","","","","THUMB","A,I,E,O,U,T,R,H,M,B",10,10,"false",NA,NA,NA,NA,NA,NA,"",NA,"",NA
"36","","instructions",35,419301,"0.0-12.0-2.4",NA,20,"74,68,220,21,54,66,4,168,15,232,14,144,57,69,92,193,96,130,129,130,15,226,178,79,30,82,51,173,230,175,29,213",10,"669a58f4f17d67c0aba4c4d3","5d4c78071b920f00198e8533","669a5c6f777f0ecd9e7b0369",1,0,0,"false",3,0,"[{""page_index"":0,""viewing_time"":1828.0999999996275}]",1828.59999999963,"","","","","","",NA,NA,"",NA,NA,NA,NA,NA,NA,"",NA,"",NA
"37","","Guess_leaderboard",36,421552,"0.0-12.0-3.4",NA,20,"74,68,220,21,54,66,4,168,15,232,14,144,57,69,92,193,96,130,129,130,15,226,178,79,30,82,51,173,230,175,29,213",10,"669a58f4f17d67c0aba4c4d3","5d4c78071b920f00198e8533","669a5c6f777f0ecd9e7b0369",1,0,0,"false",3,0,"",NA,"","","","","THUMB","",NA,NA,"",1486.5,43,84,4,28,15,"",NA,"",NA
"38","","survey-text",37,428257,"0.0-13.0",NA,20,"74,68,220,21,54,66,4,168,15,232,14,144,57,69,92,193,96,130,129,130,15,226,178,79,30,82,51,173,230,175,29,213",10,"669a58f4f17d67c0aba4c4d3","5d4c78071b920f00198e8533","669a5c6f777f0ecd9e7b0369",1,0,0,"false",3,0,"",6701.20000000019,"{""Q0"":""thumb""}","","","","","",NA,NA,"",NA,NA,NA,NA,NA,NA,"thumb",NA,"",NA
"39","","survey-multi-choice",38,436827,"0.0-14.0",NA,20,"74,68,220,21,54,66,4,168,15,232,14,144,57,69,92,193,96,130,129,130,15,226,178,79,30,82,51,173,230,175,29,213",10,"669a58f4f17d67c0aba4c4d3","5d4c78071b920f00198e8533","669a5c6f777f0ecd9e7b0369",1,0,0,"false",3,0,"",8567.89999999944,"{""Q0"":""3. I would be <b>third</b> out of the six of us.""}","[0]","","self-rating","","",NA,NA,"",NA,3,NA,NA,NA,NA,"",NA,"",NA
"40","","html-slider-response",39,440881,"0.0-15.0",NA,20,"74,68,220,21,54,66,4,168,15,232,14,144,57,69,92,193,96,130,129,130,15,226,178,79,30,82,51,173,230,175,29,213",10,"669a58f4f17d67c0aba4c4d3","5d4c78071b920f00198e8533","669a5c6f777f0ecd9e7b0369",1,0,0,"false",3,0,"",4050.5,"","","","","","",NA,NA,"",NA,NA,NA,NA,NA,NA,"","0","<p>Overall, how confident were you in your answer to this last question?</p>",0
"41","","survey-text",40,455174,"0.0-16.0",NA,20,"74,68,220,21,54,66,4,168,15,232,14,144,57,69,92,193,96,130,129,130,15,226,178,79,30,82,51,173,230,175,29,213",10,"669a58f4f17d67c0aba4c4d3","5d4c78071b920f00198e8533","669a5c6f777f0ecd9e7b0369",1,0,0,"false",3,0,"",14289.1999999993,"{""Q0"":""how smart these players are ""}","","","","","",NA,NA,"",NA,NA,NA,NA,NA,NA,"",NA,"",NA
"42","","survey-text",41,460576,"0.0-17.0",NA,20,"74,68,220,21,54,66,4,168,15,232,14,144,57,69,92,193,96,130,129,130,15,226,178,79,30,82,51,173,230,175,29,213",10,"669a58f4f17d67c0aba4c4d3","5d4c78071b920f00198e8533","669a5c6f777f0ecd9e7b0369",1,0,0,"false",3,0,"",5400.20000000019,"{""Q0"":""no""}","","","","","",NA,NA,"",NA,NA,NA,NA,NA,NA,"",NA,"",NA
"43","","instructions",42,490071,"0.0-18.0",NA,20,"74,68,220,21,54,66,4,168,15,232,14,144,57,69,92,193,96,130,129,130,15,226,178,79,30,82,51,173,230,175,29,213",10,"669a58f4f17d67c0aba4c4d3","5d4c78071b920f00198e8533","669a5c6f777f0ecd9e7b0369",1,0,0,"false",3,0,"[{""page_index"":0,""viewing_time"":29493.700000000186}]",29494.1000000006,"","","","","","",NA,NA,"",NA,NA,NA,NA,NA,NA,"",NA,"",NA
"44","true","fullscreen",0,5259,"0.0-0.0",NA,21,"74,68,220,21,54,66,4,168,15,232,14,144,57,69,92,193,96,130,129,130,15,226,178,79,30,82,51,173,230,175,29,213",10,"669a58f4f17d67c0aba4c4d3","5589565cfdf99b6bd06016dc","669a5eba8f75d5d46fa21d4a",1,0,0,"true",4,18,"",NA,"","","","","","",NA,NA,"",NA,NA,NA,NA,NA,NA,"","","",NA
"45","","instructions",1,9497,"0.0-1.0",NA,21,"74,68,220,21,54,66,4,168,15,232,14,144,57,69,92,193,96,130,129,130,15,226,178,79,30,82,51,173,230,175,29,213",10,"669a58f4f17d67c0aba4c4d3","5589565cfdf99b6bd06016dc","669a5eba8f75d5d46fa21d4a",1,0,0,"true",4,18,"[{""page_index"":0,""viewing_time"":4237.100000008941}]",4237.5,"","","","","","",NA,NA,"",NA,NA,NA,NA,NA,NA,"","","",NA
"46","","instructions",2,36889,"0.0-2.0-0.0",NA,21,"74,68,220,21,54,66,4,168,15,232,14,144,57,69,92,193,96,130,129,130,15,226,178,79,30,82,51,173,230,175,29,213",10,"669a58f4f17d67c0aba4c4d3","5589565cfdf99b6bd06016dc","669a5eba8f75d5d46fa21d4a",1,0,0,"true",4,18,"[{""page_index"":0,""viewing_time"":27391}]",27391.299999997,"","","","","","",NA,NA,"",NA,NA,NA,NA,NA,NA,"","","",NA
"47","","survey-multi-choice",3,44353,"0.0-2.0-1.0",NA,21,"74,68,220,21,54,66,4,168,15,232,14,144,57,69,92,193,96,130,129,130,15,226,178,79,30,82,51,173,230,175,29,213",10,"669a58f4f17d67c0aba4c4d3","5589565cfdf99b6bd06016dc","669a5eba8f75d5d46fa21d4a",1,0,0,"true",4,18,"",7463.5,"{""Q0"":""... reveal the word with as <b>few letter guesses</b> as possible""}","[0]","true","multichoice_nonpretend","","",NA,NA,"",NA,NA,NA,NA,NA,NA,"","","",NA
"48","","instructions",4,46233,"0.0-3.0",NA,21,"74,68,220,21,54,66,4,168,15,232,14,144,57,69,92,193,96,130,129,130,15,226,178,79,30,82,51,173,230,175,29,213",10,"669a58f4f17d67c0aba4c4d3","5589565cfdf99b6bd06016dc","669a5eba8f75d5d46fa21d4a",1,0,0,"true",4,18,"[{""page_index"":0,""viewing_time"":1878.5999999940395}]",1878.79999999702,"","","","","","",NA,NA,"",NA,NA,NA,NA,NA,NA,"","","",NA
"49","","Hangman",5,99552,"0.0-4.0",NA,21,"74,68,220,21,54,66,4,168,15,232,14,144,57,69,92,193,96,130,129,130,15,226,178,79,30,82,51,173,230,175,29,213",10,"669a58f4f17d67c0aba4c4d3","5589565cfdf99b6bd06016dc","669a5eba8f75d5d46fa21d4a",1,0,0,"true",4,18,"",NA,"","","","","ZEBRA","A,E,H,N,S,T,C,O,R,P,L,F,W,J,B,Z",16,4,"false",NA,NA,NA,NA,NA,NA,"","","",NA
"50","","instructions",6,119697,"0.0-5.0",NA,21,"74,68,220,21,54,66,4,168,15,232,14,144,57,69,92,193,96,130,129,130,15,226,178,79,30,82,51,173,230,175,29,213",10,"669a58f4f17d67c0aba4c4d3","5589565cfdf99b6bd06016dc","669a5eba8f75d5d46fa21d4a",1,0,0,"true",4,18,"[{""page_index"":0,""viewing_time"":2543.5},{""page_index"":1,""viewing_time"":17599.90000000596}]",20143.900000006,"","","","","","",NA,NA,"",NA,NA,NA,NA,NA,NA,"","","",NA
"51","","survey-multi-choice",7,132857,"0.0-6.0",NA,21,"74,68,220,21,54,66,4,168,15,232,14,144,57,69,92,193,96,130,129,130,15,226,178,79,30,82,51,173,230,175,29,213",10,"669a58f4f17d67c0aba4c4d3","5589565cfdf99b6bd06016dc","669a5eba8f75d5d46fa21d4a",1,0,0,"true",4,18,"",13159.200000003,"{""Q0"":""...from <b>a previous session</b> that is part of the upcoming tournament.""}","[0]","false","multichoice_leaderboard","","",NA,NA,"",NA,NA,NA,NA,NA,NA,"","","",NA
"52","","instructions",8,135201,"0.0-7.0-0.0",NA,21,"74,68,220,21,54,66,4,168,15,232,14,144,57,69,92,193,96,130,129,130,15,226,178,79,30,82,51,173,230,175,29,213",10,"669a58f4f17d67c0aba4c4d3","5589565cfdf99b6bd06016dc","669a5eba8f75d5d46fa21d4a",1,0,0,"true",4,18,"[{""page_index"":0,""viewing_time"":2343.1000000089407}]",2343.20000000298,"","","","","","",NA,NA,"",NA,NA,NA,NA,NA,NA,"","","",NA
"53","","survey-multi-choice",9,150817,"0.0-7.0-1.0",NA,21,"74,68,220,21,54,66,4,168,15,232,14,144,57,69,92,193,96,130,129,130,15,226,178,79,30,82,51,173,230,175,29,213",10,"669a58f4f17d67c0aba4c4d3","5589565cfdf99b6bd06016dc","669a5eba8f75d5d46fa21d4a",1,0,0,"true",4,18,"",15615.5,"{""Q0"":""...from <b>a previous session</b> that is not part of the upcoming tournament.""}","[0]","true","multichoice_leaderboard","","",NA,NA,"",NA,NA,NA,NA,NA,NA,"","","",NA
"54","","instructions",10,164897,"0.0-8.0",NA,21,"74,68,220,21,54,66,4,168,15,232,14,144,57,69,92,193,96,130,129,130,15,226,178,79,30,82,51,173,230,175,29,213",10,"669a58f4f17d67c0aba4c4d3","5589565cfdf99b6bd06016dc","669a5eba8f75d5d46fa21d4a",1,0,0,"true",4,18,"[{""page_index"":0,""viewing_time"":14078.59999999404}]",14078.799999997,"","","","","","",NA,NA,"",NA,NA,NA,NA,NA,NA,"","","",NA
"55","","survey-multi-choice",11,179858,"0.0-9.0",NA,21,"74,68,220,21,54,66,4,168,15,232,14,144,57,69,92,193,96,130,129,130,15,226,178,79,30,82,51,173,230,175,29,213",10,"669a58f4f17d67c0aba4c4d3","5589565cfdf99b6bd06016dc","669a5eba8f75d5d46fa21d4a",1,0,0,"true",4,18,"",14959.700000003,"{""Q0"":""...players' leaderboard position (in terms of <b>points</b>) in an <b>upcoming tournament.</b>""}","[0]","true","multichoice_tournament","","",NA,NA,"",NA,NA,NA,NA,NA,NA,"","","",NA
"56","","instructions",12,194929,"0.0-11.0",NA,21,"74,68,220,21,54,66,4,168,15,232,14,144,57,69,92,193,96,130,129,130,15,226,178,79,30,82,51,173,230,175,29,213",10,"669a58f4f17d67c0aba4c4d3","5589565cfdf99b6bd06016dc","669a5eba8f75d5d46fa21d4a",1,0,0,"true",4,18,"[{""page_index"":0,""viewing_time"":15070.60000000894}]",15070.700000003,"","","","","","",NA,NA,"",NA,NA,NA,NA,NA,NA,"","","",NA
"57","","instructions",13,224193,"0.0-12.0-0.0",NA,21,"74,68,220,21,54,66,4,168,15,232,14,144,57,69,92,193,96,130,129,130,15,226,178,79,30,82,51,173,230,175,29,213",10,"669a58f4f17d67c0aba4c4d3","5589565cfdf99b6bd06016dc","669a5eba8f75d5d46fa21d4a",1,0,0,"true",4,18,"[{""page_index"":0,""viewing_time"":29263.29999999702}]",29263.5,"","","","","","",NA,NA,"",NA,NA,NA,NA,NA,NA,"","","",NA
"58","","type-this",14,232911,"0.0-12.0-1.0",NA,21,"74,68,220,21,54,66,4,168,15,232,14,144,57,69,92,193,96,130,129,130,15,226,178,79,30,82,51,173,230,175,29,213",10,"669a58f4f17d67c0aba4c4d3","5589565cfdf99b6bd06016dc","669a5eba8f75d5d46fa21d4a",1,0,0,"true",4,18,"",8214.90000000596,"KENTUCKY","","","","","",NA,NA,"",NA,NA,NA,NA,NA,NA,"","KENTUCKY","",NA
"59","","Hangman_replay",15,291142,"0.0-12.0-2.0",NA,21,"74,68,220,21,54,66,4,168,15,232,14,144,57,69,92,193,96,130,129,130,15,226,178,79,30,82,51,173,230,175,29,213",10,"669a58f4f17d67c0aba4c4d3","5589565cfdf99b6bd06016dc","669a5eba8f75d5d46fa21d4a",1,0,0,"true",4,18,"",NA,"","","","","KENTUCKY","A,I,E,K,N,T,U,C,Y",9,13,"false",NA,NA,NA,NA,NA,NA,"","","",NA
"60","","instructions",16,294825,"0.0-12.0-3.0",NA,21,"74,68,220,21,54,66,4,168,15,232,14,144,57,69,92,193,96,130,129,130,15,226,178,79,30,82,51,173,230,175,29,213",10,"669a58f4f17d67c0aba4c4d3","5589565cfdf99b6bd06016dc","669a5eba8f75d5d46fa21d4a",1,0,0,"true",4,18,"[{""page_index"":0,""viewing_time"":3682.4000000059605}]",3682.70000000298,"","","","","","",NA,NA,"",NA,NA,NA,NA,NA,NA,"","","",NA
"61","","Guess_leaderboard",17,307157,"0.0-12.0-4.0",NA,21,"74,68,220,21,54,66,4,168,15,232,14,144,57,69,92,193,96,130,129,130,15,226,178,79,30,82,51,173,230,175,29,213",10,"669a58f4f17d67c0aba4c4d3","5589565cfdf99b6bd06016dc","669a5eba8f75d5d46fa21d4a",1,0,0,"true",4,18,"",NA,"","","","","KENTUCKY","",NA,NA,"",11564.599999994,35,5,0,8,27,"","","",NA
"62","","instructions",18,317576,"0.0-12.0-0.1",NA,21,"74,68,220,21,54,66,4,168,15,232,14,144,57,69,92,193,96,130,129,130,15,226,178,79,30,82,51,173,230,175,29,213",10,"669a58f4f17d67c0aba4c4d3","5589565cfdf99b6bd06016dc","669a5eba8f75d5d46fa21d4a",1,0,0,"true",4,18,"[{""page_index"":0,""viewing_time"":10418.09999999404}]",10418.200000003,"","","","","","",NA,NA,"",NA,NA,NA,NA,NA,NA,"","","",NA
"63","","type-this",19,322933,"0.0-12.0-1.1",NA,21,"74,68,220,21,54,66,4,168,15,232,14,144,57,69,92,193,96,130,129,130,15,226,178,79,30,82,51,173,230,175,29,213",10,"669a58f4f17d67c0aba4c4d3","5589565cfdf99b6bd06016dc","669a5eba8f75d5d46fa21d4a",1,0,0,"true",4,18,"",4855.19999998808,"SHAKIRA","","","","","",NA,NA,"",NA,NA,NA,NA,NA,NA,"","SHAKIRA","",NA
"64","","Hangman_replay",20,355994,"0.0-12.0-2.1",NA,21,"74,68,220,21,54,66,4,168,15,232,14,144,57,69,92,193,96,130,129,130,15,226,178,79,30,82,51,173,230,175,29,213",10,"669a58f4f17d67c0aba4c4d3","5589565cfdf99b6bd06016dc","669a5eba8f75d5d46fa21d4a",1,0,0,"true",4,18,"",NA,"","","","","SHAKIRA","E,A,S,H,K,I,R",7,14,"false",NA,NA,NA,NA,NA,NA,"","","",NA
"65","","instructions",21,357769,"0.0-12.0-3.1",NA,21,"74,68,220,21,54,66,4,168,15,232,14,144,57,69,92,193,96,130,129,130,15,226,178,79,30,82,51,173,230,175,29,213",10,"669a58f4f17d67c0aba4c4d3","5589565cfdf99b6bd06016dc","669a5eba8f75d5d46fa21d4a",1,0,0,"true",4,18,"[{""page_index"":0,""viewing_time"":1774.5999999940395}]",1774.89999999106,"","","","","","",NA,NA,"",NA,NA,NA,NA,NA,NA,"","","",NA
"66","","Guess_leaderboard",22,361409,"0.0-12.0-4.1",NA,21,"74,68,220,21,54,66,4,168,15,232,14,144,57,69,92,193,96,130,129,130,15,226,178,79,30,82,51,173,230,175,29,213",10,"669a58f4f17d67c0aba4c4d3","5589565cfdf99b6bd06016dc","669a5eba8f75d5d46fa21d4a",1,0,0,"true",4,18,"",NA,"","","","","SHAKIRA","",NA,NA,"",2886.40000000596,15,11,1,19,4,"","","",NA
"67","","instructions",23,383049,"0.0-12.0-0.2",NA,21,"74,68,220,21,54,66,4,168,15,232,14,144,57,69,92,193,96,130,129,130,15,226,178,79,30,82,51,173,230,175,29,213",10,"669a58f4f17d67c0aba4c4d3","5589565cfdf99b6bd06016dc","669a5eba8f75d5d46fa21d4a",1,0,0,"true",4,18,"[{""page_index"":0,""viewing_time"":21639}]",21639.200000003,"","","","","","",NA,NA,"",NA,NA,NA,NA,NA,NA,"","","",NA
"68","","type-this",24,389110,"0.0-12.0-1.2",NA,21,"74,68,220,21,54,66,4,168,15,232,14,144,57,69,92,193,96,130,129,130,15,226,178,79,30,82,51,173,230,175,29,213",10,"669a58f4f17d67c0aba4c4d3","5589565cfdf99b6bd06016dc","669a5eba8f75d5d46fa21d4a",1,0,0,"true",4,18,"",5559.5,"THIRTY FOUR","","","","","",NA,NA,"",NA,NA,NA,NA,NA,NA,"","THIRTY FOUR","",NA
"69","","Hangman_replay",25,432646,"0.0-12.0-2.2",NA,21,"74,68,220,21,54,66,4,168,15,232,14,144,57,69,92,193,96,130,129,130,15,226,178,79,30,82,51,173,230,175,29,213",10,"669a58f4f17d67c0aba4c4d3","5589565cfdf99b6bd06016dc","669a5eba8f75d5d46fa21d4a",1,0,0,"true",4,18,"",NA,"","","","","THIRTY FOUR","E,A,S,N,I,R,T,H,Y,F,O,U",12,11,"false",NA,NA,NA,NA,NA,NA,"","","",NA
"70","","instructions",26,436177,"0.0-12.0-3.2",NA,21,"74,68,220,21,54,66,4,168,15,232,14,144,57,69,92,193,96,130,129,130,15,226,178,79,30,82,51,173,230,175,29,213",10,"669a58f4f17d67c0aba4c4d3","5589565cfdf99b6bd06016dc","669a5eba8f75d5d46fa21d4a",1,0,0,"true",4,18,"[{""page_index"":0,""viewing_time"":3530.2000000029802}]",3530.5,"","","","","","",NA,NA,"",NA,NA,NA,NA,NA,NA,"","","",NA
"71","","Guess_leaderboard",27,441727,"0.0-12.0-4.2",NA,21,"74,68,220,21,54,66,4,168,15,232,14,144,57,69,92,193,96,130,129,130,15,226,178,79,30,82,51,173,230,175,29,213",10,"669a58f4f17d67c0aba4c4d3","5589565cfdf99b6bd06016dc","669a5eba8f75d5d46fa21d4a",1,0,0,"true",4,18,"",NA,"","","","","THIRTY FOUR","",NA,NA,"",4781,81,81,2,65,16,"","","",NA
"72","","instructions",28,454497,"0.0-12.0-0.3",NA,21,"74,68,220,21,54,66,4,168,15,232,14,144,57,69,92,193,96,130,129,130,15,226,178,79,30,82,51,173,230,175,29,213",10,"669a58f4f17d67c0aba4c4d3","5589565cfdf99b6bd06016dc","669a5eba8f75d5d46fa21d4a",1,0,0,"true",4,18,"[{""page_index"":0,""viewing_time"":12768.20000000298}]",12768.3000000119,"","","","","","",NA,NA,"",NA,NA,NA,NA,NA,NA,"","","",NA
"73","","type-this",29,460853,"0.0-12.0-1.3",NA,21,"74,68,220,21,54,66,4,168,15,232,14,144,57,69,92,193,96,130,129,130,15,226,178,79,30,82,51,173,230,175,29,213",10,"669a58f4f17d67c0aba4c4d3","5589565cfdf99b6bd06016dc","669a5eba8f75d5d46fa21d4a",1,0,0,"true",4,18,"",5855,"NECTARINE","","","","","",NA,NA,"",NA,NA,NA,NA,NA,NA,"","NECTARINE","",NA
"74","","Hangman_replay",30,480746,"0.0-12.0-2.3",NA,21,"74,68,220,21,54,66,4,168,15,232,14,144,57,69,92,193,96,130,129,130,15,226,178,79,30,82,51,173,230,175,29,213",10,"669a58f4f17d67c0aba4c4d3","5589565cfdf99b6bd06016dc","669a5eba8f75d5d46fa21d4a",1,0,0,"true",4,18,"",NA,"","","","","NECTARINE","B,A,N,R,S,T,L,E,C,I",10,12,"false",NA,NA,NA,NA,NA,NA,"","","",NA
"75","","instructions",31,482457,"0.0-12.0-3.3",NA,21,"74,68,220,21,54,66,4,168,15,232,14,144,57,69,92,193,96,130,129,130,15,226,178,79,30,82,51,173,230,175,29,213",10,"669a58f4f17d67c0aba4c4d3","5589565cfdf99b6bd06016dc","669a5eba8f75d5d46fa21d4a",1,0,0,"true",4,18,"[{""page_index"":0,""viewing_time"":1709.5999999940395}]",1709.79999999702,"","","","","","",NA,NA,"",NA,NA,NA,NA,NA,NA,"","","",NA
"76","","Guess_leaderboard",32,489978,"0.0-12.0-4.3",NA,21,"74,68,220,21,54,66,4,168,15,232,14,144,57,69,92,193,96,130,129,130,15,226,178,79,30,82,51,173,230,175,29,213",10,"669a58f4f17d67c0aba4c4d3","5589565cfdf99b6bd06016dc","669a5eba8f75d5d46fa21d4a",1,0,0,"true",4,18,"",NA,"","","","","NECTARINE","",NA,NA,"",6758.70000000298,33,33,3,72,39,"","","",NA
"77","","instructions",33,496448,"0.0-12.0-0.4",NA,21,"74,68,220,21,54,66,4,168,15,232,14,144,57,69,92,193,96,130,129,130,15,226,178,79,30,82,51,173,230,175,29,213",10,"669a58f4f17d67c0aba4c4d3","5589565cfdf99b6bd06016dc","669a5eba8f75d5d46fa21d4a",1,0,0,"true",4,18,"[{""page_index"":0,""viewing_time"":6469.20000000298}]",6469.40000000596,"","","","","","",NA,NA,"",NA,NA,NA,NA,NA,NA,"","","",NA
"78","","type-this",34,501127,"0.0-12.0-1.4",NA,21,"74,68,220,21,54,66,4,168,15,232,14,144,57,69,92,193,96,130,129,130,15,226,178,79,30,82,51,173,230,175,29,213",10,"669a58f4f17d67c0aba4c4d3","5589565cfdf99b6bd06016dc","669a5eba8f75d5d46fa21d4a",1,0,0,"true",4,18,"",4175.20000000298,"THUMB","","","","","",NA,NA,"",NA,NA,NA,NA,NA,NA,"","THUMB","",NA
"79","","Hangman_replay",35,552982,"0.0-12.0-2.4",NA,21,"74,68,220,21,54,66,4,168,15,232,14,144,57,69,92,193,96,130,129,130,15,226,178,79,30,82,51,173,230,175,29,213",10,"669a58f4f17d67c0aba4c4d3","5589565cfdf99b6bd06016dc","669a5eba8f75d5d46fa21d4a",1,0,0,"true",4,18,"",NA,"","","","","THUMB","A,I,E,O,U,T,R,H,M,B",10,10,"false",NA,NA,NA,NA,NA,NA,"","","",NA
"80","","instructions",36,560249,"0.0-12.0-3.4",NA,21,"74,68,220,21,54,66,4,168,15,232,14,144,57,69,92,193,96,130,129,130,15,226,178,79,30,82,51,173,230,175,29,213",10,"669a58f4f17d67c0aba4c4d3","5589565cfdf99b6bd06016dc","669a5eba8f75d5d46fa21d4a",1,0,0,"true",4,18,"[{""page_index"":0,""viewing_time"":7265.9000000059605}]",7266.29999999702,"","","","","","",NA,NA,"",NA,NA,NA,NA,NA,NA,"","","",NA
"81","","Guess_leaderboard",37,568897,"0.0-12.0-4.4",NA,21,"74,68,220,21,54,66,4,168,15,232,14,144,57,69,92,193,96,130,129,130,15,226,178,79,30,82,51,173,230,175,29,213",10,"669a58f4f17d67c0aba4c4d3","5589565cfdf99b6bd06016dc","669a5eba8f75d5d46fa21d4a",1,0,0,"true",4,18,"",NA,"","","","","THUMB","",NA,NA,"",7892.79999999702,81,84,4,28,53,"","","",NA
"82","","survey-text",38,574953,"0.0-13.0",NA,21,"74,68,220,21,54,66,4,168,15,232,14,144,57,69,92,193,96,130,129,130,15,226,178,79,30,82,51,173,230,175,29,213",10,"669a58f4f17d67c0aba4c4d3","5589565cfdf99b6bd06016dc","669a5eba8f75d5d46fa21d4a",1,0,0,"true",4,18,"",6054.80000001192,"{""Q0"":""THUMB""}","","","","","",NA,NA,"",NA,NA,NA,NA,NA,NA,"thumb","","",NA
"83","","survey-multi-choice",39,590393,"0.0-14.0",NA,21,"74,68,220,21,54,66,4,168,15,232,14,144,57,69,92,193,96,130,129,130,15,226,178,79,30,82,51,173,230,175,29,213",10,"669a58f4f17d67c0aba4c4d3","5589565cfdf99b6bd06016dc","669a5eba8f75d5d46fa21d4a",1,0,0,"true",4,18,"",15438.900000006,"{""Q0"":""4. I would be <b>fourth</b> out of the six of us.""}","[0]","","self-rating","","",NA,NA,"",NA,4,NA,NA,NA,NA,"","","",NA
"84","","html-slider-response",40,595833,"0.0-15.0",NA,21,"74,68,220,21,54,66,4,168,15,232,14,144,57,69,92,193,96,130,129,130,15,226,178,79,30,82,51,173,230,175,29,213",10,"669a58f4f17d67c0aba4c4d3","5589565cfdf99b6bd06016dc","669a5eba8f75d5d46fa21d4a",1,0,0,"true",4,18,"",5438.29999999702,"","","","","","",NA,NA,"",NA,NA,NA,NA,NA,NA,"","18","<p>Overall, how confident were you in your answer to this last question?</p>",18
"85","","survey-text",41,619793,"0.0-16.0",NA,21,"74,68,220,21,54,66,4,168,15,232,14,144,57,69,92,193,96,130,129,130,15,226,178,79,30,82,51,173,230,175,29,213",10,"669a58f4f17d67c0aba4c4d3","5589565cfdf99b6bd06016dc","669a5eba8f75d5d46fa21d4a",1,0,0,"true",4,18,"",23958.5,"{""Q0"":""I think to evaluate my performance compared to others?""}","","","","","",NA,NA,"",NA,NA,NA,NA,NA,NA,"","","",NA
"86","","survey-text",42,635760,"0.0-17.0",NA,21,"74,68,220,21,54,66,4,168,15,232,14,144,57,69,92,193,96,130,129,130,15,226,178,79,30,82,51,173,230,175,29,213",10,"669a58f4f17d67c0aba4c4d3","5589565cfdf99b6bd06016dc","669a5eba8f75d5d46fa21d4a",1,0,0,"true",4,18,"",15966.700000003,"{""Q0"":""I wish I could have played.  I enjoyed this task.  Thank you. ""}","","","","","",NA,NA,"",NA,NA,NA,NA,NA,NA,"","","",NA
"87","","instructions",43,645712,"0.0-18.0",NA,21,"74,68,220,21,54,66,4,168,15,232,14,144,57,69,92,193,96,130,129,130,15,226,178,79,30,82,51,173,230,175,29,213",10,"669a58f4f17d67c0aba4c4d3","5589565cfdf99b6bd06016dc","669a5eba8f75d5d46fa21d4a",1,0,0,"true",4,18,"[{""page_index"":0,""viewing_time"":9951.29999999702}]",9951.39999999106,"","","","","","",NA,NA,"",NA,NA,NA,NA,NA,NA,"","","",NA
"88","true","fullscreen",0,5082,"0.0-0.0",NA,22,"79,200,43,38,174,203,71,210,134,140,78,251,227,88,23,50,163,231,203,204,108,46,251,50,6,44,8,23,10,5,238,184",11,"669a58f4f17d67c0aba4c4d3","66743dc61dc3fc51cbb8fefd","669a62d962ae11699be55bf5",2,0,0,"false",3,63,"",NA,"","","","","","",NA,NA,"",NA,NA,NA,NA,NA,NA,"",NA,"",NA
"89","","instructions",1,6613,"0.0-1.0",NA,22,"79,200,43,38,174,203,71,210,134,140,78,251,227,88,23,50,163,231,203,204,108,46,251,50,6,44,8,23,10,5,238,184",11,"669a58f4f17d67c0aba4c4d3","66743dc61dc3fc51cbb8fefd","669a62d962ae11699be55bf5",2,0,0,"false",3,63,"[{""page_index"":0,""viewing_time"":1529.7000000029802}]",1529.90000000596,"","","","","","",NA,NA,"",NA,NA,NA,NA,NA,NA,"",NA,"",NA
"90","","instructions",2,7573,"0.0-2.0-0.0",NA,22,"79,200,43,38,174,203,71,210,134,140,78,251,227,88,23,50,163,231,203,204,108,46,251,50,6,44,8,23,10,5,238,184",11,"669a58f4f17d67c0aba4c4d3","66743dc61dc3fc51cbb8fefd","669a62d962ae11699be55bf5",2,0,0,"false",3,63,"[{""page_index"":0,""viewing_time"":959.1999999880791}]",959.5,"","","","","","",NA,NA,"",NA,NA,NA,NA,NA,NA,"",NA,"",NA
"91","","survey-multi-choice",3,23005,"0.0-2.0-1.0",NA,22,"79,200,43,38,174,203,71,210,134,140,78,251,227,88,23,50,163,231,203,204,108,46,251,50,6,44,8,23,10,5,238,184",11,"669a58f4f17d67c0aba4c4d3","66743dc61dc3fc51cbb8fefd","669a62d962ae11699be55bf5",2,0,0,"false",3,63,"",15431.1999999881,"{""Q0"":""... go <b>really fast</b> and finish the game as quickly as possible""}","[0]","false","multichoice_nonpretend","","",NA,NA,"",NA,NA,NA,NA,NA,NA,"",NA,"",NA
"92","","instructions",4,32949,"0.0-2.1-0.1",NA,22,"79,200,43,38,174,203,71,210,134,140,78,251,227,88,23,50,163,231,203,204,108,46,251,50,6,44,8,23,10,5,238,184",11,"669a58f4f17d67c0aba4c4d3","66743dc61dc3fc51cbb8fefd","669a62d962ae11699be55bf5",2,0,0,"false",3,63,"[{""page_index"":0,""viewing_time"":9942.800000011921}]",9943,"","","","","","",NA,NA,"",NA,NA,NA,NA,NA,NA,"",NA,"",NA
"93","","survey-multi-choice",5,37726,"0.0-2.1-1.1",NA,22,"79,200,43,38,174,203,71,210,134,140,78,251,227,88,23,50,163,231,203,204,108,46,251,50,6,44,8,23,10,5,238,184",11,"669a58f4f17d67c0aba4c4d3","66743dc61dc3fc51cbb8fefd","669a62d962ae11699be55bf5",2,0,0,"false",3,63,"",4775.70000000298,"{""Q0"":""... reveal the word with as <b>few letter guesses</b> as possible""}","[0]","true","multichoice_nonpretend","","",NA,NA,"",NA,NA,NA,NA,NA,NA,"",NA,"",NA
"94","","instructions",6,38909,"0.0-3.0",NA,22,"79,200,43,38,174,203,71,210,134,140,78,251,227,88,23,50,163,231,203,204,108,46,251,50,6,44,8,23,10,5,238,184",11,"669a58f4f17d67c0aba4c4d3","66743dc61dc3fc51cbb8fefd","669a62d962ae11699be55bf5",2,0,0,"false",3,63,"[{""page_index"":0,""viewing_time"":1182.7000000029802}]",1182.90000000596,"","","","","","",NA,NA,"",NA,NA,NA,NA,NA,NA,"",NA,"",NA
"95","","Hangman",7,88712,"0.0-4.0",NA,22,"79,200,43,38,174,203,71,210,134,140,78,251,227,88,23,50,163,231,203,204,108,46,251,50,6,44,8,23,10,5,238,184",11,"669a58f4f17d67c0aba4c4d3","66743dc61dc3fc51cbb8fefd","669a62d962ae11699be55bf5",2,0,0,"false",3,63,"",NA,"","","","","ZEBRA","F,R,N,A,I,S,O,B,Z,E",10,10,"false",NA,NA,NA,NA,NA,NA,"",NA,"",NA
"96","","instructions",8,97374,"0.0-5.0",NA,22,"79,200,43,38,174,203,71,210,134,140,78,251,227,88,23,50,163,231,203,204,108,46,251,50,6,44,8,23,10,5,238,184",11,"669a58f4f17d67c0aba4c4d3","66743dc61dc3fc51cbb8fefd","669a62d962ae11699be55bf5",2,0,0,"false",3,63,"[{""page_index"":0,""viewing_time"":2037.2000000029802},{""page_index"":1,""viewing_time"":6623.79999999702}]",8661.59999999404,"","","","","","",NA,NA,"",NA,NA,NA,NA,NA,NA,"",NA,"",NA
"97","","survey-multi-choice",9,102638,"0.0-6.0",NA,22,"79,200,43,38,174,203,71,210,134,140,78,251,227,88,23,50,163,231,203,204,108,46,251,50,6,44,8,23,10,5,238,184",11,"669a58f4f17d67c0aba4c4d3","66743dc61dc3fc51cbb8fefd","669a62d962ae11699be55bf5",2,0,0,"false",3,63,"",5263.29999999702,"{""Q0"":""...from <b>a previous session</b> that is not part of the upcoming tournament.""}","[0]","true","multichoice_leaderboard","","",NA,NA,"",NA,NA,NA,NA,NA,NA,"",NA,"",NA
"98","","instructions",10,106405,"0.0-8.0",NA,22,"79,200,43,38,174,203,71,210,134,140,78,251,227,88,23,50,163,231,203,204,108,46,251,50,6,44,8,23,10,5,238,184",11,"669a58f4f17d67c0aba4c4d3","66743dc61dc3fc51cbb8fefd","669a62d962ae11699be55bf5",2,0,0,"false",3,63,"[{""page_index"":0,""viewing_time"":3767.1000000089407}]",3767.20000000298,"","","","","","",NA,NA,"",NA,NA,NA,NA,NA,NA,"",NA,"",NA
"99","","survey-multi-choice",11,117990,"0.0-9.0",NA,22,"79,200,43,38,174,203,71,210,134,140,78,251,227,88,23,50,163,231,203,204,108,46,251,50,6,44,8,23,10,5,238,184",11,"669a58f4f17d67c0aba4c4d3","66743dc61dc3fc51cbb8fefd","669a62d962ae11699be55bf5",2,0,0,"false",3,63,"",11583.599999994,"{""Q0"":""...players' leaderboard position (in terms of <b>points</b>) in an <b>upcoming tournament.</b>""}","[0]","true","multichoice_tournament","","",NA,NA,"",NA,NA,NA,NA,NA,NA,"",NA,"",NA
"100","","instructions",12,121821,"0.0-11.0",NA,22,"79,200,43,38,174,203,71,210,134,140,78,251,227,88,23,50,163,231,203,204,108,46,251,50,6,44,8,23,10,5,238,184",11,"669a58f4f17d67c0aba4c4d3","66743dc61dc3fc51cbb8fefd","669a62d962ae11699be55bf5",2,0,0,"false",3,63,"[{""page_index"":0,""viewing_time"":3831.2000000029802}]",3831.40000000596,"","","","","","",NA,NA,"",NA,NA,NA,NA,NA,NA,"",NA,"",NA
"101","","instructions",13,125045,"0.0-12.0-0.0",NA,22,"79,200,43,38,174,203,71,210,134,140,78,251,227,88,23,50,163,231,203,204,108,46,251,50,6,44,8,23,10,5,238,184",11,"669a58f4f17d67c0aba4c4d3","66743dc61dc3fc51cbb8fefd","669a62d962ae11699be55bf5",2,0,0,"false",3,63,"[{""page_index"":0,""viewing_time"":3223.4000000059605}]",3223.60000000894,"","","","","","",NA,NA,"",NA,NA,NA,NA,NA,NA,"",NA,"",NA
"102","","Hangman_replay",14,175281,"0.0-12.0-1.0",NA,22,"79,200,43,38,174,203,71,210,134,140,78,251,227,88,23,50,163,231,203,204,108,46,251,50,6,44,8,23,10,5,238,184",11,"669a58f4f17d67c0aba4c4d3","66743dc61dc3fc51cbb8fefd","669a62d962ae11699be55bf5",2,0,0,"false",3,63,"",NA,"","","","","USAIN BOLT","A,E,I,O,R,P,T,S,U,N,B,L",12,12,"false",NA,NA,NA,NA,NA,NA,"",NA,"",NA
"103","","instructions",15,179670,"0.0-12.0-2.0",NA,22,"79,200,43,38,174,203,71,210,134,140,78,251,227,88,23,50,163,231,203,204,108,46,251,50,6,44,8,23,10,5,238,184",11,"669a58f4f17d67c0aba4c4d3","66743dc61dc3fc51cbb8fefd","669a62d962ae11699be55bf5",2,0,0,"false",3,63,"[{""page_index"":0,""viewing_time"":4388.5}]",4388.89999999106,"","","","","","",NA,NA,"",NA,NA,NA,NA,NA,NA,"",NA,"",NA
"104","","Guess_leaderboard",16,189995,"0.0-12.0-3.0",NA,22,"79,200,43,38,174,203,71,210,134,140,78,251,227,88,23,50,163,231,203,204,108,46,251,50,6,44,8,23,10,5,238,184",11,"669a58f4f17d67c0aba4c4d3","66743dc61dc3fc51cbb8fefd","669a62d962ae11699be55bf5",2,0,0,"false",3,63,"",NA,"","","","","USAIN BOLT","",NA,NA,"",9563.79999999702,13,22,0,16,3,"",NA,"",NA
"105","","instructions",17,193647,"0.0-12.0-0.1",NA,22,"79,200,43,38,174,203,71,210,134,140,78,251,227,88,23,50,163,231,203,204,108,46,251,50,6,44,8,23,10,5,238,184",11,"669a58f4f17d67c0aba4c4d3","66743dc61dc3fc51cbb8fefd","669a62d962ae11699be55bf5",2,0,0,"false",3,63,"[{""page_index"":0,""viewing_time"":3650.9000000059605}]",3651.10000000894,"","","","","","",NA,NA,"",NA,NA,NA,NA,NA,NA,"",NA,"",NA
"106","","Hangman_replay",18,224063,"0.0-12.0-1.1",NA,22,"79,200,43,38,174,203,71,210,134,140,78,251,227,88,23,50,163,231,203,204,108,46,251,50,6,44,8,23,10,5,238,184",11,"669a58f4f17d67c0aba4c4d3","66743dc61dc3fc51cbb8fefd","669a62d962ae11699be55bf5",2,0,0,"false",3,63,"",NA,"","","","","HAWAII","O,H,A,W,I",5,14,"false",NA,NA,NA,NA,NA,NA,"",NA,"",NA
"107","","instructions",19,225591,"0.0-12.0-2.1",NA,22,"79,200,43,38,174,203,71,210,134,140,78,251,227,88,23,50,163,231,203,204,108,46,251,50,6,44,8,23,10,5,238,184",11,"669a58f4f17d67c0aba4c4d3","66743dc61dc3fc51cbb8fefd","669a62d962ae11699be55bf5",2,0,0,"false",3,63,"[{""page_index"":0,""viewing_time"":1526.699999988079}]",1526.89999999106,"","","","","","",NA,NA,"",NA,NA,NA,NA,NA,NA,"",NA,"",NA
"108","","Guess_leaderboard",20,229329,"0.0-12.0-3.1",NA,22,"79,200,43,38,174,203,71,210,134,140,78,251,227,88,23,50,163,231,203,204,108,46,251,50,6,44,8,23,10,5,238,184",11,"669a58f4f17d67c0aba4c4d3","66743dc61dc3fc51cbb8fefd","669a62d962ae11699be55bf5",2,0,0,"false",3,63,"",NA,"","","","","HAWAII","",NA,NA,"",2972.90000000596,3,9,1,56,53,"",NA,"",NA
"109","","instructions",21,230630,"0.0-12.0-0.2",NA,22,"79,200,43,38,174,203,71,210,134,140,78,251,227,88,23,50,163,231,203,204,108,46,251,50,6,44,8,23,10,5,238,184",11,"669a58f4f17d67c0aba4c4d3","66743dc61dc3fc51cbb8fefd","669a62d962ae11699be55bf5",2,0,0,"false",3,63,"[{""page_index"":0,""viewing_time"":1300.6000000089407}]",1300.80000001192,"","","","","","",NA,NA,"",NA,NA,NA,NA,NA,NA,"",NA,"",NA
"110","","Hangman_replay",22,286664,"0.0-12.0-1.2",NA,22,"79,200,43,38,174,203,71,210,134,140,78,251,227,88,23,50,163,231,203,204,108,46,251,50,6,44,8,23,10,5,238,184",11,"669a58f4f17d67c0aba4c4d3","66743dc61dc3fc51cbb8fefd","669a62d962ae11699be55bf5",2,0,0,"false",3,63,"",NA,"","","","","WRIST","T,O,A,E,S,I,W,R",8,12,"false",NA,NA,NA,NA,NA,NA,"",NA,"",NA
"111","","instructions",23,288199,"0.0-12.0-2.2",NA,22,"79,200,43,38,174,203,71,210,134,140,78,251,227,88,23,50,163,231,203,204,108,46,251,50,6,44,8,23,10,5,238,184",11,"669a58f4f17d67c0aba4c4d3","66743dc61dc3fc51cbb8fefd","669a62d962ae11699be55bf5",2,0,0,"false",3,63,"[{""page_index"":0,""viewing_time"":1533.5999999940395}]",1533.79999999702,"","","","","","",NA,NA,"",NA,NA,NA,NA,NA,NA,"",NA,"",NA
"112","","Guess_leaderboard",24,290912,"0.0-12.0-3.2",NA,22,"79,200,43,38,174,203,71,210,134,140,78,251,227,88,23,50,163,231,203,204,108,46,251,50,6,44,8,23,10,5,238,184",11,"669a58f4f17d67c0aba4c4d3","66743dc61dc3fc51cbb8fefd","669a62d962ae11699be55bf5",2,0,0,"false",3,63,"",NA,"","","","","WRIST","",NA,NA,"",1948.69999998808,51,36,2,87,36,"",NA,"",NA
"113","","instructions",25,291775,"0.0-12.0-0.3",NA,22,"79,200,43,38,174,203,71,210,134,140,78,251,227,88,23,50,163,231,203,204,108,46,251,50,6,44,8,23,10,5,238,184",11,"669a58f4f17d67c0aba4c4d3","66743dc61dc3fc51cbb8fefd","669a62d962ae11699be55bf5",2,0,0,"false",3,63,"[{""page_index"":0,""viewing_time"":862.1000000089407}]",862.300000011921,"","","","","","",NA,NA,"",NA,NA,NA,NA,NA,NA,"",NA,"",NA
"114","","Hangman_replay",26,333549,"0.0-12.0-1.3",NA,22,"79,200,43,38,174,203,71,210,134,140,78,251,227,88,23,50,163,231,203,204,108,46,251,50,6,44,8,23,10,5,238,184",11,"669a58f4f17d67c0aba4c4d3","66743dc61dc3fc51cbb8fefd","669a62d962ae11699be55bf5",2,0,0,"false",3,63,"",NA,"","","","","NECTARINE","A,W,E,L,M,N,G,H,C,T,R,I",12,10,"false",NA,NA,NA,NA,NA,NA,"",NA,"",NA
"115","","instructions",27,335447,"0.0-12.0-2.3",NA,22,"79,200,43,38,174,203,71,210,134,140,78,251,227,88,23,50,163,231,203,204,108,46,251,50,6,44,8,23,10,5,238,184",11,"669a58f4f17d67c0aba4c4d3","66743dc61dc3fc51cbb8fefd","669a62d962ae11699be55bf5",2,0,0,"false",3,63,"[{""page_index"":0,""viewing_time"":1897}]",1897.20000000298,"","","","","","",NA,NA,"",NA,NA,NA,NA,NA,NA,"",NA,"",NA
"116","","Guess_leaderboard",28,338697,"0.0-12.0-3.3",NA,22,"79,200,43,38,174,203,71,210,134,140,78,251,227,88,23,50,163,231,203,204,108,46,251,50,6,44,8,23,10,5,238,184",11,"669a58f4f17d67c0aba4c4d3","66743dc61dc3fc51cbb8fefd","669a62d962ae11699be55bf5",2,0,0,"false",3,63,"",NA,"","","","","NECTARINE","",NA,NA,"",2491.5,24,95,3,65,41,"",NA,"",NA
"117","","instructions",29,344679,"0.0-12.0-0.4",NA,22,"79,200,43,38,174,203,71,210,134,140,78,251,227,88,23,50,163,231,203,204,108,46,251,50,6,44,8,23,10,5,238,184",11,"669a58f4f17d67c0aba4c4d3","66743dc61dc3fc51cbb8fefd","669a62d962ae11699be55bf5",2,0,0,"false",3,63,"[{""page_index"":0,""viewing_time"":5981.899999991059}]",5982.09999999404,"","","","","","",NA,NA,"",NA,NA,NA,NA,NA,NA,"",NA,"",NA
"118","","Hangman_replay",30,383381,"0.0-12.0-1.4",NA,22,"79,200,43,38,174,203,71,210,134,140,78,251,227,88,23,50,163,231,203,204,108,46,251,50,6,44,8,23,10,5,238,184",11,"669a58f4f17d67c0aba4c4d3","66743dc61dc3fc51cbb8fefd","669a62d962ae11699be55bf5",2,0,0,"false",3,63,"",NA,"","","","","THIRTY FOUR","E,A,I,T,H,R,Y,F,O,U",10,13,"false",NA,NA,NA,NA,NA,NA,"",NA,"",NA
"119","","instructions",31,384399,"0.0-12.0-2.4",NA,22,"79,200,43,38,174,203,71,210,134,140,78,251,227,88,23,50,163,231,203,204,108,46,251,50,6,44,8,23,10,5,238,184",11,"669a58f4f17d67c0aba4c4d3","66743dc61dc3fc51cbb8fefd","669a62d962ae11699be55bf5",2,0,0,"false",3,63,"[{""page_index"":0,""viewing_time"":1017.4000000059605}]",1017.59999999404,"","","","","","",NA,NA,"",NA,NA,NA,NA,NA,NA,"",NA,"",NA
"120","","Guess_leaderboard",32,387612,"0.0-12.0-3.4",NA,22,"79,200,43,38,174,203,71,210,134,140,78,251,227,88,23,50,163,231,203,204,108,46,251,50,6,44,8,23,10,5,238,184",11,"669a58f4f17d67c0aba4c4d3","66743dc61dc3fc51cbb8fefd","669a62d962ae11699be55bf5",2,0,0,"false",3,63,"",NA,"","","","","THIRTY FOUR","",NA,NA,"",2452,9,29,4,11,2,"",NA,"",NA
"121","","survey-text",33,398120,"0.0-13.0",NA,22,"79,200,43,38,174,203,71,210,134,140,78,251,227,88,23,50,163,231,203,204,108,46,251,50,6,44,8,23,10,5,238,184",11,"669a58f4f17d67c0aba4c4d3","66743dc61dc3fc51cbb8fefd","669a62d962ae11699be55bf5",2,0,0,"false",3,63,"",10505.700000003,"{""Q0"":""thrity four""}","","","","","",NA,NA,"",NA,NA,NA,NA,NA,NA,"thirty four",NA,"",NA
"122","","survey-multi-choice",34,405240,"0.0-14.0",NA,22,"79,200,43,38,174,203,71,210,134,140,78,251,227,88,23,50,163,231,203,204,108,46,251,50,6,44,8,23,10,5,238,184",11,"669a58f4f17d67c0aba4c4d3","66743dc61dc3fc51cbb8fefd","669a62d962ae11699be55bf5",2,0,0,"false",3,63,"",7118.89999999106,"{""Q0"":""3. I would be <b>third</b> out of the six of us.""}","[0]","","self-rating","","",NA,NA,"",NA,3,NA,NA,NA,NA,"",NA,"",NA
"123","","html-slider-response",35,408504,"0.0-15.0",NA,22,"79,200,43,38,174,203,71,210,134,140,78,251,227,88,23,50,163,231,203,204,108,46,251,50,6,44,8,23,10,5,238,184",11,"669a58f4f17d67c0aba4c4d3","66743dc61dc3fc51cbb8fefd","669a62d962ae11699be55bf5",2,0,0,"false",3,63,"",3262.70000000298,"","","","","","",NA,NA,"",NA,NA,NA,NA,NA,NA,"","63","<p>Overall, how confident were you in your answer to this last question?</p>",63
"124","","survey-text",36,438632,"0.0-16.0",NA,22,"79,200,43,38,174,203,71,210,134,140,78,251,227,88,23,50,163,231,203,204,108,46,251,50,6,44,8,23,10,5,238,184",11,"669a58f4f17d67c0aba4c4d3","66743dc61dc3fc51cbb8fefd","669a62d962ae11699be55bf5",2,0,0,"false",3,63,"",30126.900000006,"{""Q0"":""very interesting to play and fun""}","","","","","",NA,NA,"",NA,NA,NA,NA,NA,NA,"",NA,"",NA
"125","","survey-text",37,461488,"0.0-17.0",NA,22,"79,200,43,38,174,203,71,210,134,140,78,251,227,88,23,50,163,231,203,204,108,46,251,50,6,44,8,23,10,5,238,184",11,"669a58f4f17d67c0aba4c4d3","66743dc61dc3fc51cbb8fefd","669a62d962ae11699be55bf5",2,0,0,"false",3,63,"",22854.400000006,"{""Q0"":""nothing more""}","","","","","",NA,NA,"",NA,NA,NA,NA,NA,NA,"",NA,"",NA
"126","","instructions",38,462672,"0.0-18.0",NA,22,"79,200,43,38,174,203,71,210,134,140,78,251,227,88,23,50,163,231,203,204,108,46,251,50,6,44,8,23,10,5,238,184",11,"669a58f4f17d67c0aba4c4d3","66743dc61dc3fc51cbb8fefd","669a62d962ae11699be55bf5",2,0,0,"false",3,63,"[{""page_index"":0,""viewing_time"":1183.1000000089407}]",1183.30000001192,"","","","","","",NA,NA,"",NA,NA,NA,NA,NA,NA,"",NA,"",NA
"127","true","fullscreen",0,19494,"0.0-0.0",NA,23,"79,200,43,38,174,203,71,210,134,140,78,251,227,88,23,50,163,231,203,204,108,46,251,50,6,44,8,23,10,5,238,184",11,"669a58f4f17d67c0aba4c4d3","5e79340b6d9a624e3f39586d","669a64f4b494202208f297f3",1,0,0,"true",3,70,"",NA,"","","","","","",NA,NA,"",NA,NA,NA,NA,NA,NA,"","","",NA
"128","","instructions",1,34868,"0.0-1.0",NA,23,"79,200,43,38,174,203,71,210,134,140,78,251,227,88,23,50,163,231,203,204,108,46,251,50,6,44,8,23,10,5,238,184",11,"669a58f4f17d67c0aba4c4d3","5e79340b6d9a624e3f39586d","669a64f4b494202208f297f3",1,0,0,"true",3,70,"[{""page_index"":0,""viewing_time"":15371.899999976158}]",15372.3999999762,"","","","","","",NA,NA,"",NA,NA,NA,NA,NA,NA,"","","",NA
"129","","instructions",2,40588,"0.0-2.0-0.0",NA,23,"79,200,43,38,174,203,71,210,134,140,78,251,227,88,23,50,163,231,203,204,108,46,251,50,6,44,8,23,10,5,238,184",11,"669a58f4f17d67c0aba4c4d3","5e79340b6d9a624e3f39586d","669a64f4b494202208f297f3",1,0,0,"true",3,70,"[{""page_index"":0,""viewing_time"":5718.600000023842}]",5719,"","","","","","",NA,NA,"",NA,NA,NA,NA,NA,NA,"","","",NA
"130","","survey-multi-choice",3,47945,"0.0-2.0-1.0",NA,23,"79,200,43,38,174,203,71,210,134,140,78,251,227,88,23,50,163,231,203,204,108,46,251,50,6,44,8,23,10,5,238,184",11,"669a58f4f17d67c0aba4c4d3","5e79340b6d9a624e3f39586d","669a64f4b494202208f297f3",1,0,0,"true",3,70,"",7353.90000009537,"{""Q0"":""... reveal the word with as <b>few letter guesses</b> as possible""}","[0]","true","multichoice_nonpretend","","",NA,NA,"",NA,NA,NA,NA,NA,NA,"","","",NA
"131","","instructions",4,49814,"0.0-3.0",NA,23,"79,200,43,38,174,203,71,210,134,140,78,251,227,88,23,50,163,231,203,204,108,46,251,50,6,44,8,23,10,5,238,184",11,"669a58f4f17d67c0aba4c4d3","5e79340b6d9a624e3f39586d","669a64f4b494202208f297f3",1,0,0,"true",3,70,"[{""page_index"":0,""viewing_time"":1868.2999999523163}]",1868.5,"","","","","","",NA,NA,"",NA,NA,NA,NA,NA,NA,"","","",NA
"132","","Hangman",5,73075,"0.0-4.0",NA,23,"79,200,43,38,174,203,71,210,134,140,78,251,227,88,23,50,163,231,203,204,108,46,251,50,6,44,8,23,10,5,238,184",11,"669a58f4f17d67c0aba4c4d3","5e79340b6d9a624e3f39586d","669a64f4b494202208f297f3",1,0,0,"true",3,70,"",NA,"","","","","ZEBRA","M,R,T,B,Z,E,A",7,13,"false",NA,NA,NA,NA,NA,NA,"","","",NA
"133","","instructions",6,84896,"0.0-5.0",NA,23,"79,200,43,38,174,203,71,210,134,140,78,251,227,88,23,50,163,231,203,204,108,46,251,50,6,44,8,23,10,5,238,184",11,"669a58f4f17d67c0aba4c4d3","5e79340b6d9a624e3f39586d","669a64f4b494202208f297f3",1,0,0,"true",3,70,"[{""page_index"":0,""viewing_time"":3068.3000000715256},{""page_index"":1,""viewing_time"":8750.199999928474}]",11819.4000000954,"","","","","","",NA,NA,"",NA,NA,NA,NA,NA,NA,"","","",NA
"134","","survey-multi-choice",7,91942,"0.0-6.0",NA,23,"79,200,43,38,174,203,71,210,134,140,78,251,227,88,23,50,163,231,203,204,108,46,251,50,6,44,8,23,10,5,238,184",11,"669a58f4f17d67c0aba4c4d3","5e79340b6d9a624e3f39586d","669a64f4b494202208f297f3",1,0,0,"true",3,70,"",7044,"{""Q0"":""...from <b>a previous session</b> that is not part of the upcoming tournament.""}","[0]","true","multichoice_leaderboard","","",NA,NA,"",NA,NA,NA,NA,NA,NA,"","","",NA
"135","","instructions",8,99161,"0.0-8.0",NA,23,"79,200,43,38,174,203,71,210,134,140,78,251,227,88,23,50,163,231,203,204,108,46,251,50,6,44,8,23,10,5,238,184",11,"669a58f4f17d67c0aba4c4d3","5e79340b6d9a624e3f39586d","669a64f4b494202208f297f3",1,0,0,"true",3,70,"[{""page_index"":0,""viewing_time"":7218.599999904633}]",7218.89999997616,"","","","","","",NA,NA,"",NA,NA,NA,NA,NA,NA,"","","",NA
"136","","survey-multi-choice",9,111488,"0.0-9.0",NA,23,"79,200,43,38,174,203,71,210,134,140,78,251,227,88,23,50,163,231,203,204,108,46,251,50,6,44,8,23,10,5,238,184",11,"669a58f4f17d67c0aba4c4d3","5e79340b6d9a624e3f39586d","669a64f4b494202208f297f3",1,0,0,"true",3,70,"",12325.0999999046,"{""Q0"":""...players' leaderboard position (in terms of <b>points</b>) in an <b>upcoming tournament.</b>""}","[0]","true","multichoice_tournament","","",NA,NA,"",NA,NA,NA,NA,NA,NA,"","","",NA
"137","","instructions",10,117124,"0.0-11.0",NA,23,"79,200,43,38,174,203,71,210,134,140,78,251,227,88,23,50,163,231,203,204,108,46,251,50,6,44,8,23,10,5,238,184",11,"669a58f4f17d67c0aba4c4d3","5e79340b6d9a624e3f39586d","669a64f4b494202208f297f3",1,0,0,"true",3,70,"[{""page_index"":0,""viewing_time"":5634.300000071526}]",5634.5,"","","","","","",NA,NA,"",NA,NA,NA,NA,NA,NA,"","","",NA
"138","","instructions",11,139513,"0.0-12.0-0.0",NA,23,"79,200,43,38,174,203,71,210,134,140,78,251,227,88,23,50,163,231,203,204,108,46,251,50,6,44,8,23,10,5,238,184",11,"669a58f4f17d67c0aba4c4d3","5e79340b6d9a624e3f39586d","669a64f4b494202208f297f3",1,0,0,"true",3,70,"[{""page_index"":0,""viewing_time"":22388.600000023842}]",22388.9000000954,"","","","","","",NA,NA,"",NA,NA,NA,NA,NA,NA,"","","",NA
"139","","type-this",12,144529,"0.0-12.0-1.0",NA,23,"79,200,43,38,174,203,71,210,134,140,78,251,227,88,23,50,163,231,203,204,108,46,251,50,6,44,8,23,10,5,238,184",11,"669a58f4f17d67c0aba4c4d3","5e79340b6d9a624e3f39586d","669a64f4b494202208f297f3",1,0,0,"true",3,70,"",4510.80000007153,"usain bolt","","","","","",NA,NA,"",NA,NA,NA,NA,NA,NA,"","usain bolt","",NA
"140","","Hangman_replay",13,194794,"0.0-12.0-2.0",NA,23,"79,200,43,38,174,203,71,210,134,140,78,251,227,88,23,50,163,231,203,204,108,46,251,50,6,44,8,23,10,5,238,184",11,"669a58f4f17d67c0aba4c4d3","5e79340b6d9a624e3f39586d","669a64f4b494202208f297f3",1,0,0,"true",3,70,"",NA,"","","","","USAIN BOLT","A,E,I,O,R,P,T,S,U,N,B,L",12,12,"false",NA,NA,NA,NA,NA,NA,"","","",NA
"141","","instructions",14,198393,"0.0-12.0-3.0",NA,23,"79,200,43,38,174,203,71,210,134,140,78,251,227,88,23,50,163,231,203,204,108,46,251,50,6,44,8,23,10,5,238,184",11,"669a58f4f17d67c0aba4c4d3","5e79340b6d9a624e3f39586d","669a64f4b494202208f297f3",1,0,0,"true",3,70,"[{""page_index"":0,""viewing_time"":3596.600000023842}]",3597.39999997616,"","","","","","",NA,NA,"",NA,NA,NA,NA,NA,NA,"","","",NA
"142","","Guess_leaderboard",15,204457,"0.0-12.0-4.0",NA,23,"79,200,43,38,174,203,71,210,134,140,78,251,227,88,23,50,163,231,203,204,108,46,251,50,6,44,8,23,10,5,238,184",11,"669a58f4f17d67c0aba4c4d3","5e79340b6d9a624e3f39586d","669a64f4b494202208f297f3",1,0,0,"true",3,70,"",NA,"","","","","USAIN BOLT","",NA,NA,"",5297.20000004768,20,22,0,16,4,"","","",NA
"143","","instructions",16,208677,"0.0-12.0-0.1",NA,23,"79,200,43,38,174,203,71,210,134,140,78,251,227,88,23,50,163,231,203,204,108,46,251,50,6,44,8,23,10,5,238,184",11,"669a58f4f17d67c0aba4c4d3","5e79340b6d9a624e3f39586d","669a64f4b494202208f297f3",1,0,0,"true",3,70,"[{""page_index"":0,""viewing_time"":4217.899999976158}]",4218.19999992847,"","","","","","",NA,NA,"",NA,NA,NA,NA,NA,NA,"","","",NA
"144","","type-this",17,213787,"0.0-12.0-1.1",NA,23,"79,200,43,38,174,203,71,210,134,140,78,251,227,88,23,50,163,231,203,204,108,46,251,50,6,44,8,23,10,5,238,184",11,"669a58f4f17d67c0aba4c4d3","5e79340b6d9a624e3f39586d","669a64f4b494202208f297f3",1,0,0,"true",3,70,"",4605.29999995232,"hawaii","","","","","",NA,NA,"",NA,NA,NA,NA,NA,NA,"","hawaii","",NA
"145","","Hangman_replay",18,244195,"0.0-12.0-2.1",NA,23,"79,200,43,38,174,203,71,210,134,140,78,251,227,88,23,50,163,231,203,204,108,46,251,50,6,44,8,23,10,5,238,184",11,"669a58f4f17d67c0aba4c4d3","5e79340b6d9a624e3f39586d","669a64f4b494202208f297f3",1,0,0,"true",3,70,"",NA,"","","","","HAWAII","O,H,A,W,I",5,14,"false",NA,NA,NA,NA,NA,NA,"","","",NA
"146","","instructions",19,253446,"0.0-12.0-3.1",NA,23,"79,200,43,38,174,203,71,210,134,140,78,251,227,88,23,50,163,231,203,204,108,46,251,50,6,44,8,23,10,5,238,184",11,"669a58f4f17d67c0aba4c4d3","5e79340b6d9a624e3f39586d","669a64f4b494202208f297f3",1,0,0,"true",3,70,"[{""page_index"":0,""viewing_time"":9249.899999976158}]",9250.79999995232,"","","","","","",NA,NA,"",NA,NA,NA,NA,NA,NA,"","","",NA
"147","","Guess_leaderboard",20,259274,"0.0-12.0-4.1",NA,23,"79,200,43,38,174,203,71,210,134,140,78,251,227,88,23,50,163,231,203,204,108,46,251,50,6,44,8,23,10,5,238,184",11,"669a58f4f17d67c0aba4c4d3","5e79340b6d9a624e3f39586d","669a64f4b494202208f297f3",1,0,0,"true",3,70,"",NA,"","","","","HAWAII","",NA,NA,"",5057.20000004768,42,9,1,56,14,"","","",NA
"148","","instructions",21,260990,"0.0-12.0-0.2",NA,23,"79,200,43,38,174,203,71,210,134,140,78,251,227,88,23,50,163,231,203,204,108,46,251,50,6,44,8,23,10,5,238,184",11,"669a58f4f17d67c0aba4c4d3","5e79340b6d9a624e3f39586d","669a64f4b494202208f297f3",1,0,0,"true",3,70,"[{""page_index"":0,""viewing_time"":1714.2999999523163}]",1714.59999990463,"","","","","","",NA,NA,"",NA,NA,NA,NA,NA,NA,"","","",NA
"149","","type-this",22,265225,"0.0-12.0-1.2",NA,23,"79,200,43,38,174,203,71,210,134,140,78,251,227,88,23,50,163,231,203,204,108,46,251,50,6,44,8,23,10,5,238,184",11,"669a58f4f17d67c0aba4c4d3","5e79340b6d9a624e3f39586d","669a64f4b494202208f297f3",1,0,0,"true",3,70,"",3732.10000002384,"wrist","","","","","",NA,NA,"",NA,NA,NA,NA,NA,NA,"","wrist","",NA
"150","","Hangman_replay",23,321245,"0.0-12.0-2.2",NA,23,"79,200,43,38,174,203,71,210,134,140,78,251,227,88,23,50,163,231,203,204,108,46,251,50,6,44,8,23,10,5,238,184",11,"669a58f4f17d67c0aba4c4d3","5e79340b6d9a624e3f39586d","669a64f4b494202208f297f3",1,0,0,"true",3,70,"",NA,"","","","","WRIST","T,O,A,E,S,I,W,R",8,12,"false",NA,NA,NA,NA,NA,NA,"","","",NA
"151","","instructions",24,322727,"0.0-12.0-3.2",NA,23,"79,200,43,38,174,203,71,210,134,140,78,251,227,88,23,50,163,231,203,204,108,46,251,50,6,44,8,23,10,5,238,184",11,"669a58f4f17d67c0aba4c4d3","5e79340b6d9a624e3f39586d","669a64f4b494202208f297f3",1,0,0,"true",3,70,"[{""page_index"":0,""viewing_time"":1480.7000000476837}]",1481.10000002384,"","","","","","",NA,NA,"",NA,NA,NA,NA,NA,NA,"","","",NA
"152","","Guess_leaderboard",25,325157,"0.0-12.0-4.2",NA,23,"79,200,43,38,174,203,71,210,134,140,78,251,227,88,23,50,163,231,203,204,108,46,251,50,6,44,8,23,10,5,238,184",11,"669a58f4f17d67c0aba4c4d3","5e79340b6d9a624e3f39586d","669a64f4b494202208f297f3",1,0,0,"true",3,70,"",NA,"","","","","WRIST","",NA,NA,"",1666.60000002384,35,36,2,87,52,"","","",NA
"153","","instructions",26,326949,"0.0-12.0-0.3",NA,23,"79,200,43,38,174,203,71,210,134,140,78,251,227,88,23,50,163,231,203,204,108,46,251,50,6,44,8,23,10,5,238,184",11,"669a58f4f17d67c0aba4c4d3","5e79340b6d9a624e3f39586d","669a64f4b494202208f297f3",1,0,0,"true",3,70,"[{""page_index"":0,""viewing_time"":1789.5}]",1789.89999997616,"","","","","","",NA,NA,"",NA,NA,NA,NA,NA,NA,"","","",NA
"154","","type-this",27,335259,"0.0-12.0-1.3",NA,23,"79,200,43,38,174,203,71,210,134,140,78,251,227,88,23,50,163,231,203,204,108,46,251,50,6,44,8,23,10,5,238,184",11,"669a58f4f17d67c0aba4c4d3","5e79340b6d9a624e3f39586d","669a64f4b494202208f297f3",1,0,0,"true",3,70,"",7806.29999995232,"nectarine","","","","","",NA,NA,"",NA,NA,NA,NA,NA,NA,"","nectarine","",NA
"155","","Hangman_replay",28,377011,"0.0-12.0-2.3",NA,23,"79,200,43,38,174,203,71,210,134,140,78,251,227,88,23,50,163,231,203,204,108,46,251,50,6,44,8,23,10,5,238,184",11,"669a58f4f17d67c0aba4c4d3","5e79340b6d9a624e3f39586d","669a64f4b494202208f297f3",1,0,0,"true",3,70,"",NA,"","","","","NECTARINE","A,W,E,L,M,N,G,H,C,T,R,I",12,10,"false",NA,NA,NA,NA,NA,NA,"","","",NA
"156","","instructions",29,381860,"0.0-12.0-3.3",NA,23,"79,200,43,38,174,203,71,210,134,140,78,251,227,88,23,50,163,231,203,204,108,46,251,50,6,44,8,23,10,5,238,184",11,"669a58f4f17d67c0aba4c4d3","5e79340b6d9a624e3f39586d","669a64f4b494202208f297f3",1,0,0,"true",3,70,"[{""page_index"":0,""viewing_time"":4846.799999952316}]",4847.29999995232,"","","","","","",NA,NA,"",NA,NA,NA,NA,NA,NA,"","","",NA
"157","","Guess_leaderboard",30,385940,"0.0-12.0-4.3",NA,23,"79,200,43,38,174,203,71,210,134,140,78,251,227,88,23,50,163,231,203,204,108,46,251,50,6,44,8,23,10,5,238,184",11,"669a58f4f17d67c0aba4c4d3","5e79340b6d9a624e3f39586d","669a64f4b494202208f297f3",1,0,0,"true",3,70,"",NA,"","","","","NECTARINE","",NA,NA,"",3315.89999997616,51,95,3,65,14,"","","",NA
"158","","instructions",31,389972,"0.0-12.0-0.4",NA,23,"79,200,43,38,174,203,71,210,134,140,78,251,227,88,23,50,163,231,203,204,108,46,251,50,6,44,8,23,10,5,238,184",11,"669a58f4f17d67c0aba4c4d3","5e79340b6d9a624e3f39586d","669a64f4b494202208f297f3",1,0,0,"true",3,70,"[{""page_index"":0,""viewing_time"":4029.5}]",4029.79999995232,"","","","","","",NA,NA,"",NA,NA,NA,NA,NA,NA,"","","",NA
"159","","type-this",32,395249,"0.0-12.0-1.4",NA,23,"79,200,43,38,174,203,71,210,134,140,78,251,227,88,23,50,163,231,203,204,108,46,251,50,6,44,8,23,10,5,238,184",11,"669a58f4f17d67c0aba4c4d3","5e79340b6d9a624e3f39586d","669a64f4b494202208f297f3",1,0,0,"true",3,70,"",4772.5,"thirty four","","","","","",NA,NA,"",NA,NA,NA,NA,NA,NA,"","thirty four","",NA
"160","","Hangman_replay",33,433923,"0.0-12.0-2.4",NA,23,"79,200,43,38,174,203,71,210,134,140,78,251,227,88,23,50,163,231,203,204,108,46,251,50,6,44,8,23,10,5,238,184",11,"669a58f4f17d67c0aba4c4d3","5e79340b6d9a624e3f39586d","669a64f4b494202208f297f3",1,0,0,"true",3,70,"",NA,"","","","","THIRTY FOUR","E,A,I,T,H,R,Y,F,O,U",10,13,"false",NA,NA,NA,NA,NA,NA,"","","",NA
"161","","instructions",34,437295,"0.0-12.0-3.4",NA,23,"79,200,43,38,174,203,71,210,134,140,78,251,227,88,23,50,163,231,203,204,108,46,251,50,6,44,8,23,10,5,238,184",11,"669a58f4f17d67c0aba4c4d3","5e79340b6d9a624e3f39586d","669a64f4b494202208f297f3",1,0,0,"true",3,70,"[{""page_index"":0,""viewing_time"":3372.3000000715256}]",3373.10000002384,"","","","","","",NA,NA,"",NA,NA,NA,NA,NA,NA,"","","",NA
"162","","Guess_leaderboard",35,441652,"0.0-12.0-4.4",NA,23,"79,200,43,38,174,203,71,210,134,140,78,251,227,88,23,50,163,231,203,204,108,46,251,50,6,44,8,23,10,5,238,184",11,"669a58f4f17d67c0aba4c4d3","5e79340b6d9a624e3f39586d","669a64f4b494202208f297f3",1,0,0,"true",3,70,"",NA,"","","","","THIRTY FOUR","",NA,NA,"",3601.69999992847,15,29,4,11,4,"","","",NA
"163","","survey-text",36,453390,"0.0-13.0",NA,23,"79,200,43,38,174,203,71,210,134,140,78,251,227,88,23,50,163,231,203,204,108,46,251,50,6,44,8,23,10,5,238,184",11,"669a58f4f17d67c0aba4c4d3","5e79340b6d9a624e3f39586d","669a64f4b494202208f297f3",1,0,0,"true",3,70,"",11736,"{""Q0"":""thirty four""}","","","","","",NA,NA,"",NA,NA,NA,NA,NA,NA,"thirty four","","",NA
"164","","survey-multi-choice",37,460811,"0.0-14.0",NA,23,"79,200,43,38,174,203,71,210,134,140,78,251,227,88,23,50,163,231,203,204,108,46,251,50,6,44,8,23,10,5,238,184",11,"669a58f4f17d67c0aba4c4d3","5e79340b6d9a624e3f39586d","669a64f4b494202208f297f3",1,0,0,"true",3,70,"",7419.40000009537,"{""Q0"":""3. I would be <b>third</b> out of the six of us.""}","[0]","","self-rating","","",NA,NA,"",NA,3,NA,NA,NA,NA,"","","",NA
"165","","html-slider-response",38,466463,"0.0-15.0",NA,23,"79,200,43,38,174,203,71,210,134,140,78,251,227,88,23,50,163,231,203,204,108,46,251,50,6,44,8,23,10,5,238,184",11,"669a58f4f17d67c0aba4c4d3","5e79340b6d9a624e3f39586d","669a64f4b494202208f297f3",1,0,0,"true",3,70,"",5649.10000002384,"","","","","","",NA,NA,"",NA,NA,NA,NA,NA,NA,"","70","<p>Overall, how confident were you in your answer to this last question?</p>",70
"166","","survey-text",39,488152,"0.0-16.0",NA,23,"79,200,43,38,174,203,71,210,134,140,78,251,227,88,23,50,163,231,203,204,108,46,251,50,6,44,8,23,10,5,238,184",11,"669a58f4f17d67c0aba4c4d3","5e79340b6d9a624e3f39586d","669a64f4b494202208f297f3",1,0,0,"true",3,70,"",21686.3000000715,"{""Q0"":""where I think I stand (average wise) in relation to others""}","","","","","",NA,NA,"",NA,NA,NA,NA,NA,NA,"","","",NA
"167","","survey-text",40,494071,"0.0-17.0",NA,23,"79,200,43,38,174,203,71,210,134,140,78,251,227,88,23,50,163,231,203,204,108,46,251,50,6,44,8,23,10,5,238,184",11,"669a58f4f17d67c0aba4c4d3","5e79340b6d9a624e3f39586d","669a64f4b494202208f297f3",1,0,0,"true",3,70,"",5916.60000002384,"{""Q0"":""no ""}","","","","","",NA,NA,"",NA,NA,NA,NA,NA,NA,"","","",NA
"168","","instructions",41,496125,"0.0-18.0",NA,23,"79,200,43,38,174,203,71,210,134,140,78,251,227,88,23,50,163,231,203,204,108,46,251,50,6,44,8,23,10,5,238,184",11,"669a58f4f17d67c0aba4c4d3","5e79340b6d9a624e3f39586d","669a64f4b494202208f297f3",1,0,0,"true",3,70,"[{""page_index"":0,""viewing_time"":2052.7000000476837}]",2053,"","","","","","",NA,NA,"",NA,NA,NA,NA,NA,NA,"","","",NA
"169","true","fullscreen",0,2929,"0.0-0.0",NA,24,"107,81,212,49,223,93,127,20,28,190,206,204,247,158,223,61,216,97,195,180,6,159,11,17,102,26,62,239,172,187,169,24",12,"669a58f4f17d67c0aba4c4d3","667ff3711e30726d16f919c7","669a67461a84556efb35c34e",1,2,0,"false",6,100,"",NA,"","","","","","",NA,NA,"",NA,NA,NA,NA,NA,NA,"",NA,"",NA
"170","","instructions",1,4395,"0.0-1.0",NA,24,"107,81,212,49,223,93,127,20,28,190,206,204,247,158,223,61,216,97,195,180,6,159,11,17,102,26,62,239,172,187,169,24",12,"669a58f4f17d67c0aba4c4d3","667ff3711e30726d16f919c7","669a67461a84556efb35c34e",1,2,0,"false",6,100,"[{""page_index"":0,""viewing_time"":1465.2999999821186}]",1465.5,"","","","","","",NA,NA,"",NA,NA,NA,NA,NA,NA,"",NA,"",NA
"171","","instructions",2,23453,"0.0-2.0-0.0",NA,24,"107,81,212,49,223,93,127,20,28,190,206,204,247,158,223,61,216,97,195,180,6,159,11,17,102,26,62,239,172,187,169,24",12,"669a58f4f17d67c0aba4c4d3","667ff3711e30726d16f919c7","669a67461a84556efb35c34e",1,2,0,"false",6,100,"[{""page_index"":0,""viewing_time"":19057.09999999404}]",19057.1999999881,"","","","","","",NA,NA,"",NA,NA,NA,NA,NA,NA,"",NA,"",NA
"172","","survey-multi-choice",3,37469,"0.0-2.0-1.0",NA,24,"107,81,212,49,223,93,127,20,28,190,206,204,247,158,223,61,216,97,195,180,6,159,11,17,102,26,62,239,172,187,169,24",12,"669a58f4f17d67c0aba4c4d3","667ff3711e30726d16f919c7","669a67461a84556efb35c34e",1,2,0,"false",6,100,"",14014,"{""Q0"":""... reveal the word with as <b>few letter guesses</b> as possible""}","[0]","true","multichoice_nonpretend","","",NA,NA,"",NA,NA,NA,NA,NA,NA,"",NA,"",NA
"173","","instructions",4,39076,"0.0-3.0",NA,24,"107,81,212,49,223,93,127,20,28,190,206,204,247,158,223,61,216,97,195,180,6,159,11,17,102,26,62,239,172,187,169,24",12,"669a58f4f17d67c0aba4c4d3","667ff3711e30726d16f919c7","669a67461a84556efb35c34e",1,2,0,"false",6,100,"[{""page_index"":0,""viewing_time"":1606.0999999940395}]",1606.19999998808,"","","","","","",NA,NA,"",NA,NA,NA,NA,NA,NA,"",NA,"",NA
"174","","Hangman",5,92395,"0.0-4.0",NA,24,"107,81,212,49,223,93,127,20,28,190,206,204,247,158,223,61,216,97,195,180,6,159,11,17,102,26,62,239,172,187,169,24",12,"669a58f4f17d67c0aba4c4d3","667ff3711e30726d16f919c7","669a67461a84556efb35c34e",1,2,0,"false",6,100,"",NA,"","","","","ZEBRA","H,O,R,S,B,L,Y,D,K,F,M,N,T,W,Z,E,A",17,3,"false",NA,NA,NA,NA,NA,NA,"",NA,"",NA
"175","","instructions",6,116546,"0.0-5.0",NA,24,"107,81,212,49,223,93,127,20,28,190,206,204,247,158,223,61,216,97,195,180,6,159,11,17,102,26,62,239,172,187,169,24",12,"669a58f4f17d67c0aba4c4d3","667ff3711e30726d16f919c7","669a67461a84556efb35c34e",1,2,0,"false",6,100,"[{""page_index"":0,""viewing_time"":6480.799999982119},{""page_index"":1,""viewing_time"":17668.100000023842}]",24149.599999994,"","","","","","",NA,NA,"",NA,NA,NA,NA,NA,NA,"",NA,"",NA
"176","","survey-multi-choice",7,128493,"0.0-6.0",NA,24,"107,81,212,49,223,93,127,20,28,190,206,204,247,158,223,61,216,97,195,180,6,159,11,17,102,26,62,239,172,187,169,24",12,"669a58f4f17d67c0aba4c4d3","667ff3711e30726d16f919c7","669a67461a84556efb35c34e",1,2,0,"false",6,100,"",11945.900000006,"{""Q0"":""...from <b>a previous session</b> that is part of the upcoming tournament.""}","[0]","false","multichoice_leaderboard","","",NA,NA,"",NA,NA,NA,NA,NA,NA,"",NA,"",NA
"177","","instructions",8,130300,"0.0-7.0-0.0",NA,24,"107,81,212,49,223,93,127,20,28,190,206,204,247,158,223,61,216,97,195,180,6,159,11,17,102,26,62,239,172,187,169,24",12,"669a58f4f17d67c0aba4c4d3","667ff3711e30726d16f919c7","669a67461a84556efb35c34e",1,2,0,"false",6,100,"[{""page_index"":0,""viewing_time"":1806.5999999940395}]",1806.79999998212,"","","","","","",NA,NA,"",NA,NA,NA,NA,NA,NA,"",NA,"",NA
"178","","survey-multi-choice",9,138991,"0.0-7.0-1.0",NA,24,"107,81,212,49,223,93,127,20,28,190,206,204,247,158,223,61,216,97,195,180,6,159,11,17,102,26,62,239,172,187,169,24",12,"669a58f4f17d67c0aba4c4d3","667ff3711e30726d16f919c7","669a67461a84556efb35c34e",1,2,0,"false",6,100,"",8689.39999997616,"{""Q0"":""...from <b>a previous session</b> that is part of the upcoming tournament.""}","[0]","false","multichoice_leaderboard","","",NA,NA,"",NA,NA,NA,NA,NA,NA,"",NA,"",NA
"179","","instructions",10,141880,"0.0-7.1-0.1",NA,24,"107,81,212,49,223,93,127,20,28,190,206,204,247,158,223,61,216,97,195,180,6,159,11,17,102,26,62,239,172,187,169,24",12,"669a58f4f17d67c0aba4c4d3","667ff3711e30726d16f919c7","669a67461a84556efb35c34e",1,2,0,"false",6,100,"[{""page_index"":0,""viewing_time"":2888.0999999940395}]",2888.30000001192,"","","","","","",NA,NA,"",NA,NA,NA,NA,NA,NA,"",NA,"",NA
"180","","survey-multi-choice",11,163660,"0.0-7.1-1.1",NA,24,"107,81,212,49,223,93,127,20,28,190,206,204,247,158,223,61,216,97,195,180,6,159,11,17,102,26,62,239,172,187,169,24",12,"669a58f4f17d67c0aba4c4d3","667ff3711e30726d16f919c7","669a67461a84556efb35c34e",1,2,0,"false",6,100,"",21778.6999999881,"{""Q0"":""...from <b>a previous session</b> that is part of the upcoming tournament.""}","[0]","false","multichoice_leaderboard","","",NA,NA,"",NA,NA,NA,NA,NA,NA,"",NA,"",NA
"181","","instructions",12,165656,"0.0-7.2-0.2",NA,24,"107,81,212,49,223,93,127,20,28,190,206,204,247,158,223,61,216,97,195,180,6,159,11,17,102,26,62,239,172,187,169,24",12,"669a58f4f17d67c0aba4c4d3","667ff3711e30726d16f919c7","669a67461a84556efb35c34e",1,2,0,"false",6,100,"[{""page_index"":0,""viewing_time"":1995.9000000059605}]",1996.09999999404,"","","","","","",NA,NA,"",NA,NA,NA,NA,NA,NA,"",NA,"",NA
"182","","survey-multi-choice",13,169460,"0.0-7.2-1.2",NA,24,"107,81,212,49,223,93,127,20,28,190,206,204,247,158,223,61,216,97,195,180,6,159,11,17,102,26,62,239,172,187,169,24",12,"669a58f4f17d67c0aba4c4d3","667ff3711e30726d16f919c7","669a67461a84556efb35c34e",1,2,0,"false",6,100,"",3802.69999998808,"{""Q0"":""...from the <b>upcoming tournament</b>.""}","[0]","false","multichoice_leaderboard","","",NA,NA,"",NA,NA,NA,NA,NA,NA,"",NA,"",NA
"183","","instructions",14,170840,"0.0-7.3-0.3",NA,24,"107,81,212,49,223,93,127,20,28,190,206,204,247,158,223,61,216,97,195,180,6,159,11,17,102,26,62,239,172,187,169,24",12,"669a58f4f17d67c0aba4c4d3","667ff3711e30726d16f919c7","669a67461a84556efb35c34e",1,2,0,"false",6,100,"[{""page_index"":0,""viewing_time"":1379.5999999940395}]",1379.79999998212,"","","","","","",NA,NA,"",NA,NA,NA,NA,NA,NA,"",NA,"",NA
"184","","survey-multi-choice",15,173412,"0.0-7.3-1.3",NA,24,"107,81,212,49,223,93,127,20,28,190,206,204,247,158,223,61,216,97,195,180,6,159,11,17,102,26,62,239,172,187,169,24",12,"669a58f4f17d67c0aba4c4d3","667ff3711e30726d16f919c7","669a67461a84556efb35c34e",1,2,0,"false",6,100,"",2570.90000000596,"{""Q0"":""...from <b>a previous session</b> that is not part of the upcoming tournament.""}","[0]","true","multichoice_leaderboard","","",NA,NA,"",NA,NA,NA,NA,NA,NA,"",NA,"",NA
"185","","instructions",16,181576,"0.0-8.0",NA,24,"107,81,212,49,223,93,127,20,28,190,206,204,247,158,223,61,216,97,195,180,6,159,11,17,102,26,62,239,172,187,169,24",12,"669a58f4f17d67c0aba4c4d3","667ff3711e30726d16f919c7","669a67461a84556efb35c34e",1,2,0,"false",6,100,"[{""page_index"":0,""viewing_time"":8163.4000000059605}]",8163.5,"","","","","","",NA,NA,"",NA,NA,NA,NA,NA,NA,"",NA,"",NA
"186","","survey-multi-choice",17,187723,"0.0-9.0",NA,24,"107,81,212,49,223,93,127,20,28,190,206,204,247,158,223,61,216,97,195,180,6,159,11,17,102,26,62,239,172,187,169,24",12,"669a58f4f17d67c0aba4c4d3","667ff3711e30726d16f919c7","669a67461a84556efb35c34e",1,2,0,"false",6,100,"",6146.29999998212,"{""Q0"":""...players' leaderboard position (in terms of <b>speed</b>) in an <b>upcoming tournament.</b>""}","[0]","false","multichoice_tournament","","",NA,NA,"",NA,NA,NA,NA,NA,NA,"",NA,"",NA
"187","","instructions",18,189283,"0.0-10.0-0.0",NA,24,"107,81,212,49,223,93,127,20,28,190,206,204,247,158,223,61,216,97,195,180,6,159,11,17,102,26,62,239,172,187,169,24",12,"669a58f4f17d67c0aba4c4d3","667ff3711e30726d16f919c7","669a67461a84556efb35c34e",1,2,0,"false",6,100,"[{""page_index"":0,""viewing_time"":1558.4000000059605}]",1558.59999999404,"","","","","","",NA,NA,"",NA,NA,NA,NA,NA,NA,"",NA,"",NA
"188","","survey-multi-choice",19,190554,"0.0-10.0-1.0",NA,24,"107,81,212,49,223,93,127,20,28,190,206,204,247,158,223,61,216,97,195,180,6,159,11,17,102,26,62,239,172,187,169,24",12,"669a58f4f17d67c0aba4c4d3","667ff3711e30726d16f919c7","669a67461a84556efb35c34e",1,2,0,"false",6,100,"",1270.90000000596,"{""Q0"":""...how well players did (in terms of <b>points</b>) in <b>previous games.</b>""}","[0]","false","multichoice_tournament","","",NA,NA,"",NA,NA,NA,NA,NA,NA,"",NA,"",NA
"189","","instructions",20,191547,"0.0-10.1-0.1",NA,24,"107,81,212,49,223,93,127,20,28,190,206,204,247,158,223,61,216,97,195,180,6,159,11,17,102,26,62,239,172,187,169,24",12,"669a58f4f17d67c0aba4c4d3","667ff3711e30726d16f919c7","669a67461a84556efb35c34e",1,2,0,"false",6,100,"[{""page_index"":0,""viewing_time"":991.4000000059605}]",991.59999999404,"","","","","","",NA,NA,"",NA,NA,NA,NA,NA,NA,"",NA,"",NA
"190","","survey-multi-choice",21,192660,"0.0-10.1-1.1",NA,24,"107,81,212,49,223,93,127,20,28,190,206,204,247,158,223,61,216,97,195,180,6,159,11,17,102,26,62,239,172,187,169,24",12,"669a58f4f17d67c0aba4c4d3","667ff3711e30726d16f919c7","669a67461a84556efb35c34e",1,2,0,"false",6,100,"",1112.29999998212,"{""Q0"":""...players' leaderboard position (in terms of <b>points</b>) in an <b>upcoming tournament.</b>""}","[0]","true","multichoice_tournament","","",NA,NA,"",NA,NA,NA,NA,NA,NA,"",NA,"",NA
"191","","instructions",22,195490,"0.0-11.0",NA,24,"107,81,212,49,223,93,127,20,28,190,206,204,247,158,223,61,216,97,195,180,6,159,11,17,102,26,62,239,172,187,169,24",12,"669a58f4f17d67c0aba4c4d3","667ff3711e30726d16f919c7","669a67461a84556efb35c34e",1,2,0,"false",6,100,"[{""page_index"":0,""viewing_time"":2829.7000000178814}]",2829.80000001192,"","","","","","",NA,NA,"",NA,NA,NA,NA,NA,NA,"",NA,"",NA
"192","","instructions",23,202451,"0.0-12.0-0.0",NA,24,"107,81,212,49,223,93,127,20,28,190,206,204,247,158,223,61,216,97,195,180,6,159,11,17,102,26,62,239,172,187,169,24",12,"669a58f4f17d67c0aba4c4d3","667ff3711e30726d16f919c7","669a67461a84556efb35c34e",1,2,0,"false",6,100,"[{""page_index"":0,""viewing_time"":6959.800000011921}]",6960,"","","","","","",NA,NA,"",NA,NA,NA,NA,NA,NA,"",NA,"",NA
"193","","Hangman_replay",24,238201,"0.0-12.0-1.0",NA,24,"107,81,212,49,223,93,127,20,28,190,206,204,247,158,223,61,216,97,195,180,6,159,11,17,102,26,62,239,172,187,169,24",12,"669a58f4f17d67c0aba4c4d3","667ff3711e30726d16f919c7","669a67461a84556efb35c34e",1,2,0,"false",6,100,"",NA,"","","","","SHAKIRA","E,A,R,T,S,H,I,K",8,13,"false",NA,NA,NA,NA,NA,NA,"",NA,"",NA
"194","","instructions",25,245955,"0.0-12.0-2.0",NA,24,"107,81,212,49,223,93,127,20,28,190,206,204,247,158,223,61,216,97,195,180,6,159,11,17,102,26,62,239,172,187,169,24",12,"669a58f4f17d67c0aba4c4d3","667ff3711e30726d16f919c7","669a67461a84556efb35c34e",1,2,0,"false",6,100,"[{""page_index"":0,""viewing_time"":7760.4000000059605}]",7760.59999999404,"","","","","","",NA,NA,"",NA,NA,NA,NA,NA,NA,"",NA,"",NA
"195","","Guess_leaderboard",26,248723,"0.0-12.0-3.0",NA,24,"107,81,212,49,223,93,127,20,28,190,206,204,247,158,223,61,216,97,195,180,6,159,11,17,102,26,62,239,172,187,169,24",12,"669a58f4f17d67c0aba4c4d3","667ff3711e30726d16f919c7","669a67461a84556efb35c34e",1,2,0,"false",6,100,"",NA,"","","","","SHAKIRA","",NA,NA,"",2004.79999998212,1,53,0,31,30,"",NA,"",NA
"196","","instructions",27,254436,"0.0-12.0-0.1",NA,24,"107,81,212,49,223,93,127,20,28,190,206,204,247,158,223,61,216,97,195,180,6,159,11,17,102,26,62,239,172,187,169,24",12,"669a58f4f17d67c0aba4c4d3","667ff3711e30726d16f919c7","669a67461a84556efb35c34e",1,2,0,"false",6,100,"[{""page_index"":0,""viewing_time"":5711.5}]",5711.59999999404,"","","","","","",NA,NA,"",NA,NA,NA,NA,NA,NA,"",NA,"",NA
"197","","Hangman_replay",28,294337,"0.0-12.0-1.1",NA,24,"107,81,212,49,223,93,127,20,28,190,206,204,247,158,223,61,216,97,195,180,6,159,11,17,102,26,62,239,172,187,169,24",12,"669a58f4f17d67c0aba4c4d3","667ff3711e30726d16f919c7","669a67461a84556efb35c34e",1,2,0,"false",6,100,"",NA,"","","","","WRIST","A,E,I,O,U,Y,S,H,R,W,T",11,9,"false",NA,NA,NA,NA,NA,NA,"",NA,"",NA
"198","","instructions",29,296189,"0.0-12.0-2.1",NA,24,"107,81,212,49,223,93,127,20,28,190,206,204,247,158,223,61,216,97,195,180,6,159,11,17,102,26,62,239,172,187,169,24",12,"669a58f4f17d67c0aba4c4d3","667ff3711e30726d16f919c7","669a67461a84556efb35c34e",1,2,0,"false",6,100,"[{""page_index"":0,""viewing_time"":1850.699999988079}]",1850.79999998212,"","","","","","",NA,NA,"",NA,NA,NA,NA,NA,NA,"",NA,"",NA
"199","","Guess_leaderboard",30,298449,"0.0-12.0-3.1",NA,24,"107,81,212,49,223,93,127,20,28,190,206,204,247,158,223,61,216,97,195,180,6,159,11,17,102,26,62,239,172,187,169,24",12,"669a58f4f17d67c0aba4c4d3","667ff3711e30726d16f919c7","669a67461a84556efb35c34e",1,2,0,"false",6,100,"",NA,"","","","","WRIST","",NA,NA,"",1489.59999999404,1,9,1,51,50,"",NA,"",NA
"200","","instructions",31,300011,"0.0-12.0-0.2",NA,24,"107,81,212,49,223,93,127,20,28,190,206,204,247,158,223,61,216,97,195,180,6,159,11,17,102,26,62,239,172,187,169,24",12,"669a58f4f17d67c0aba4c4d3","667ff3711e30726d16f919c7","669a67461a84556efb35c34e",1,2,0,"false",6,100,"[{""page_index"":0,""viewing_time"":1560.4000000059605}]",1560.5,"","","","","","",NA,NA,"",NA,NA,NA,NA,NA,NA,"",NA,"",NA
"201","","Hangman_replay",32,366548,"0.0-12.0-1.2",NA,24,"107,81,212,49,223,93,127,20,28,190,206,204,247,158,223,61,216,97,195,180,6,159,11,17,102,26,62,239,172,187,169,24",12,"669a58f4f17d67c0aba4c4d3","667ff3711e30726d16f919c7","669a67461a84556efb35c34e",1,2,0,"false",6,100,"",NA,"","","","","THIRTY FOUR","N,F,O,U,R,T,H,I,Y",9,14,"false",NA,NA,NA,NA,NA,NA,"",NA,"",NA
"202","","instructions",33,368417,"0.0-12.0-2.2",NA,24,"107,81,212,49,223,93,127,20,28,190,206,204,247,158,223,61,216,97,195,180,6,159,11,17,102,26,62,239,172,187,169,24",12,"669a58f4f17d67c0aba4c4d3","667ff3711e30726d16f919c7","669a67461a84556efb35c34e",1,2,0,"false",6,100,"[{""page_index"":0,""viewing_time"":1868}]",1868.20000001788,"","","","","","",NA,NA,"",NA,NA,NA,NA,NA,NA,"",NA,"",NA
"203","","Guess_leaderboard",34,372043,"0.0-12.0-3.2",NA,24,"107,81,212,49,223,93,127,20,28,190,206,204,247,158,223,61,216,97,195,180,6,159,11,17,102,26,62,239,172,187,169,24",12,"669a58f4f17d67c0aba4c4d3","667ff3711e30726d16f919c7","669a67461a84556efb35c34e",1,2,0,"false",6,100,"",NA,"","","","","THIRTY FOUR","",NA,NA,"",2851.09999999404,1,8,2,54,53,"",NA,"",NA
"204","","instructions",35,374505,"0.0-12.0-0.3",NA,24,"107,81,212,49,223,93,127,20,28,190,206,204,247,158,223,61,216,97,195,180,6,159,11,17,102,26,62,239,172,187,169,24",12,"669a58f4f17d67c0aba4c4d3","667ff3711e30726d16f919c7","669a67461a84556efb35c34e",1,2,0,"false",6,100,"[{""page_index"":0,""viewing_time"":2460.699999988079}]",2460.80000001192,"","","","","","",NA,NA,"",NA,NA,NA,NA,NA,NA,"",NA,"",NA
"205","","Hangman_replay",36,401301,"0.0-12.0-1.3",NA,24,"107,81,212,49,223,93,127,20,28,190,206,204,247,158,223,61,216,97,195,180,6,159,11,17,102,26,62,239,172,187,169,24",12,"669a58f4f17d67c0aba4c4d3","667ff3711e30726d16f919c7","669a67461a84556efb35c34e",1,2,0,"false",6,100,"",NA,"","","","","FIG","I,F,G",3,15,"false",NA,NA,NA,NA,NA,NA,"",NA,"",NA
"206","","instructions",37,403039,"0.0-12.0-2.3",NA,24,"107,81,212,49,223,93,127,20,28,190,206,204,247,158,223,61,216,97,195,180,6,159,11,17,102,26,62,239,172,187,169,24",12,"669a58f4f17d67c0aba4c4d3","667ff3711e30726d16f919c7","669a67461a84556efb35c34e",1,2,0,"false",6,100,"[{""page_index"":0,""viewing_time"":1737.1000000238419}]",1737.30000001192,"","","","","","",NA,NA,"",NA,NA,NA,NA,NA,NA,"",NA,"",NA
"207","","Guess_leaderboard",38,404463,"0.0-12.0-3.3",NA,24,"107,81,212,49,223,93,127,20,28,190,206,204,247,158,223,61,216,97,195,180,6,159,11,17,102,26,62,239,172,187,169,24",12,"669a58f4f17d67c0aba4c4d3","667ff3711e30726d16f919c7","669a67461a84556efb35c34e",1,2,0,"false",6,100,"",NA,"","","","","FIG","",NA,NA,"",660.799999982119,1,23,3,30,29,"",NA,"",NA
"208","","instructions",39,408005,"0.0-12.0-0.4",NA,24,"107,81,212,49,223,93,127,20,28,190,206,204,247,158,223,61,216,97,195,180,6,159,11,17,102,26,62,239,172,187,169,24",12,"669a58f4f17d67c0aba4c4d3","667ff3711e30726d16f919c7","669a67461a84556efb35c34e",1,2,0,"false",6,100,"[{""page_index"":0,""viewing_time"":3540.5999999940395}]",3540.79999998212,"","","","","","",NA,NA,"",NA,NA,NA,NA,NA,NA,"",NA,"",NA
"209","","Hangman_replay",40,428540,"0.0-12.0-1.4",NA,24,"107,81,212,49,223,93,127,20,28,190,206,204,247,158,223,61,216,97,195,180,6,159,11,17,102,26,62,239,172,187,169,24",12,"669a58f4f17d67c0aba4c4d3","667ff3711e30726d16f919c7","669a67461a84556efb35c34e",1,2,0,"false",6,100,"",NA,"","","","","HAWAII","O,R,E,A,I,H,W",7,12,"false",NA,NA,NA,NA,NA,NA,"",NA,"",NA
"210","","instructions",41,430331,"0.0-12.0-2.4",NA,24,"107,81,212,49,223,93,127,20,28,190,206,204,247,158,223,61,216,97,195,180,6,159,11,17,102,26,62,239,172,187,169,24",12,"669a58f4f17d67c0aba4c4d3","667ff3711e30726d16f919c7","669a67461a84556efb35c34e",1,2,0,"false",6,100,"[{""page_index"":0,""viewing_time"":1790.4000000059605}]",1790.5,"","","","","","",NA,NA,"",NA,NA,NA,NA,NA,NA,"",NA,"",NA
"211","","Guess_leaderboard",42,431286,"0.0-12.0-3.4",NA,24,"107,81,212,49,223,93,127,20,28,190,206,204,247,158,223,61,216,97,195,180,6,159,11,17,102,26,62,239,172,187,169,24",12,"669a58f4f17d67c0aba4c4d3","667ff3711e30726d16f919c7","669a67461a84556efb35c34e",1,2,0,"false",6,100,"",NA,"","","","","HAWAII","",NA,NA,"",187.5,1,91,4,89,88,"",NA,"",NA
"212","","survey-text",43,449251,"0.0-13.0",NA,24,"107,81,212,49,223,93,127,20,28,190,206,204,247,158,223,61,216,97,195,180,6,159,11,17,102,26,62,239,172,187,169,24",12,"669a58f4f17d67c0aba4c4d3","667ff3711e30726d16f919c7","669a67461a84556efb35c34e",1,2,0,"false",6,100,"",17962.599999994,"{""Q0"":""hawaii""}","","","","","",NA,NA,"",NA,NA,NA,NA,NA,NA,"hawaii",NA,"",NA
"213","","survey-multi-choice",44,463006,"0.0-14.0",NA,24,"107,81,212,49,223,93,127,20,28,190,206,204,247,158,223,61,216,97,195,180,6,159,11,17,102,26,62,239,172,187,169,24",12,"669a58f4f17d67c0aba4c4d3","667ff3711e30726d16f919c7","669a67461a84556efb35c34e",1,2,0,"false",6,100,"",13753.099999994,"{""Q0"":""6. I would be <b>last</b> out of the six of us.""}","[0]","","self-rating","","",NA,NA,"",NA,6,NA,NA,NA,NA,"",NA,"",NA
"214","","html-slider-response",45,466124,"0.0-15.0",NA,24,"107,81,212,49,223,93,127,20,28,190,206,204,247,158,223,61,216,97,195,180,6,159,11,17,102,26,62,239,172,187,169,24",12,"669a58f4f17d67c0aba4c4d3","667ff3711e30726d16f919c7","669a67461a84556efb35c34e",1,2,0,"false",6,100,"",3116.5,"","","","","","",NA,NA,"",NA,NA,NA,NA,NA,NA,"","100","<p>Overall, how confident were you in your answer to this last question?</p>",100
"215","","survey-text",46,478281,"0.0-16.0",NA,24,"107,81,212,49,223,93,127,20,28,190,206,204,247,158,223,61,216,97,195,180,6,159,11,17,102,26,62,239,172,187,169,24",12,"669a58f4f17d67c0aba4c4d3","667ff3711e30726d16f919c7","669a67461a84556efb35c34e",1,2,0,"false",6,100,"",12155.1999999881,"{""Q0"":""I am not sure""}","","","","","",NA,NA,"",NA,NA,NA,NA,NA,NA,"",NA,"",NA
"216","","survey-text",47,481458,"0.0-17.0",NA,24,"107,81,212,49,223,93,127,20,28,190,206,204,247,158,223,61,216,97,195,180,6,159,11,17,102,26,62,239,172,187,169,24",12,"669a58f4f17d67c0aba4c4d3","667ff3711e30726d16f919c7","669a67461a84556efb35c34e",1,2,0,"false",6,100,"",3174.5,"{""Q0"":""no""}","","","","","",NA,NA,"",NA,NA,NA,NA,NA,NA,"",NA,"",NA
"217","","instructions",48,491040,"0.0-18.0",NA,24,"107,81,212,49,223,93,127,20,28,190,206,204,247,158,223,61,216,97,195,180,6,159,11,17,102,26,62,239,172,187,169,24",12,"669a58f4f17d67c0aba4c4d3","667ff3711e30726d16f919c7","669a67461a84556efb35c34e",1,2,0,"false",6,100,"[{""page_index"":0,""viewing_time"":9582.699999988079}]",9582.79999998212,"","","","","","",NA,NA,"",NA,NA,NA,NA,NA,NA,"",NA,"",NA
"218","true","fullscreen",0,3961,"0.0-0.0",NA,25,"107,81,212,49,223,93,127,20,28,190,206,204,247,158,223,61,216,97,195,180,6,159,11,17,102,26,62,239,172,187,169,24",12,"669a58f4f17d67c0aba4c4d3","65cba5290b9dca9291cd76ac","669a6953f0d486b10e4b9fc3",1,0,1,"true",6,100,"",NA,"","","","","","",NA,NA,"",NA,NA,NA,NA,NA,NA,"","","",NA
"219","","instructions",1,9557,"0.0-1.0",NA,25,"107,81,212,49,223,93,127,20,28,190,206,204,247,158,223,61,216,97,195,180,6,159,11,17,102,26,62,239,172,187,169,24",12,"669a58f4f17d67c0aba4c4d3","65cba5290b9dca9291cd76ac","669a6953f0d486b10e4b9fc3",1,0,1,"true",6,100,"[{""page_index"":0,""viewing_time"":5593.899999976158}]",5594.29999995232,"","","","","","",NA,NA,"",NA,NA,NA,NA,NA,NA,"","","",NA
"220","","instructions",2,31154,"0.0-2.0-0.0",NA,25,"107,81,212,49,223,93,127,20,28,190,206,204,247,158,223,61,216,97,195,180,6,159,11,17,102,26,62,239,172,187,169,24",12,"669a58f4f17d67c0aba4c4d3","65cba5290b9dca9291cd76ac","669a6953f0d486b10e4b9fc3",1,0,1,"true",6,100,"[{""page_index"":0,""viewing_time"":21595.200000047684}]",21595.6000000238,"","","","","","",NA,NA,"",NA,NA,NA,NA,NA,NA,"","","",NA
"221","","survey-multi-choice",3,47312,"0.0-2.0-1.0",NA,25,"107,81,212,49,223,93,127,20,28,190,206,204,247,158,223,61,216,97,195,180,6,159,11,17,102,26,62,239,172,187,169,24",12,"669a58f4f17d67c0aba4c4d3","65cba5290b9dca9291cd76ac","669a6953f0d486b10e4b9fc3",1,0,1,"true",6,100,"",16149.2000000477,"{""Q0"":""... reveal the word with as <b>few letter guesses</b> as possible""}","[0]","true","multichoice_nonpretend","","",NA,NA,"",NA,NA,NA,NA,NA,NA,"","","",NA
"222","","instructions",4,50147,"0.0-3.0",NA,25,"107,81,212,49,223,93,127,20,28,190,206,204,247,158,223,61,216,97,195,180,6,159,11,17,102,26,62,239,172,187,169,24",12,"669a58f4f17d67c0aba4c4d3","65cba5290b9dca9291cd76ac","669a6953f0d486b10e4b9fc3",1,0,1,"true",6,100,"[{""page_index"":0,""viewing_time"":2834.5}]",2834.89999997616,"","","","","","",NA,NA,"",NA,NA,NA,NA,NA,NA,"","","",NA
"223","","Hangman",5,104766,"0.0-4.0",NA,25,"107,81,212,49,223,93,127,20,28,190,206,204,247,158,223,61,216,97,195,180,6,159,11,17,102,26,62,239,172,187,169,24",12,"669a58f4f17d67c0aba4c4d3","65cba5290b9dca9291cd76ac","669a6953f0d486b10e4b9fc3",1,0,1,"true",6,100,"",NA,"","","","","ZEBRA","T,I,G,E,R,L,D,W,P,N,B,Z,A",13,7,"false",NA,NA,NA,NA,NA,NA,"","","",NA
"224","","instructions",6,123764,"0.0-5.0",NA,25,"107,81,212,49,223,93,127,20,28,190,206,204,247,158,223,61,216,97,195,180,6,159,11,17,102,26,62,239,172,187,169,24",12,"669a58f4f17d67c0aba4c4d3","65cba5290b9dca9291cd76ac","669a6953f0d486b10e4b9fc3",1,0,1,"true",6,100,"[{""page_index"":0,""viewing_time"":4608.299999952316},{""page_index"":1,""viewing_time"":14387.600000023842}]",18998.0999999046,"","","","","","",NA,NA,"",NA,NA,NA,NA,NA,NA,"","","",NA
"225","","survey-multi-choice",7,132742,"0.0-6.0",NA,25,"107,81,212,49,223,93,127,20,28,190,206,204,247,158,223,61,216,97,195,180,6,159,11,17,102,26,62,239,172,187,169,24",12,"669a58f4f17d67c0aba4c4d3","65cba5290b9dca9291cd76ac","669a6953f0d486b10e4b9fc3",1,0,1,"true",6,100,"",8975.59999990463,"{""Q0"":""...from <b>a previous session</b> that is part of the upcoming tournament.""}","[0]","false","multichoice_leaderboard","","",NA,NA,"",NA,NA,NA,NA,NA,NA,"","","",NA
"226","","instructions",8,140116,"0.0-7.0-0.0",NA,25,"107,81,212,49,223,93,127,20,28,190,206,204,247,158,223,61,216,97,195,180,6,159,11,17,102,26,62,239,172,187,169,24",12,"669a58f4f17d67c0aba4c4d3","65cba5290b9dca9291cd76ac","669a6953f0d486b10e4b9fc3",1,0,1,"true",6,100,"[{""page_index"":0,""viewing_time"":7372.299999952316}]",7372.5,"","","","","","",NA,NA,"",NA,NA,NA,NA,NA,NA,"","","",NA
"227","","survey-multi-choice",9,150890,"0.0-7.0-1.0",NA,25,"107,81,212,49,223,93,127,20,28,190,206,204,247,158,223,61,216,97,195,180,6,159,11,17,102,26,62,239,172,187,169,24",12,"669a58f4f17d67c0aba4c4d3","65cba5290b9dca9291cd76ac","669a6953f0d486b10e4b9fc3",1,0,1,"true",6,100,"",10772.3000000715,"{""Q0"":""...from <b>a previous session</b> that is part of the upcoming tournament.""}","[0]","false","multichoice_leaderboard","","",NA,NA,"",NA,NA,NA,NA,NA,NA,"","","",NA
"228","","instructions",10,153699,"0.0-7.1-0.1",NA,25,"107,81,212,49,223,93,127,20,28,190,206,204,247,158,223,61,216,97,195,180,6,159,11,17,102,26,62,239,172,187,169,24",12,"669a58f4f17d67c0aba4c4d3","65cba5290b9dca9291cd76ac","669a6953f0d486b10e4b9fc3",1,0,1,"true",6,100,"[{""page_index"":0,""viewing_time"":2807.100000023842}]",2807.40000009537,"","","","","","",NA,NA,"",NA,NA,NA,NA,NA,NA,"","","",NA
"229","","survey-multi-choice",11,160324,"0.0-7.1-1.1",NA,25,"107,81,212,49,223,93,127,20,28,190,206,204,247,158,223,61,216,97,195,180,6,159,11,17,102,26,62,239,172,187,169,24",12,"669a58f4f17d67c0aba4c4d3","65cba5290b9dca9291cd76ac","669a6953f0d486b10e4b9fc3",1,0,1,"true",6,100,"",6623.10000002384,"{""Q0"":""...from <b>a previous session</b> that is not part of the upcoming tournament.""}","[0]","true","multichoice_leaderboard","","",NA,NA,"",NA,NA,NA,NA,NA,NA,"","","",NA
"230","","instructions",12,179134,"0.0-8.0",NA,25,"107,81,212,49,223,93,127,20,28,190,206,204,247,158,223,61,216,97,195,180,6,159,11,17,102,26,62,239,172,187,169,24",12,"669a58f4f17d67c0aba4c4d3","65cba5290b9dca9291cd76ac","669a6953f0d486b10e4b9fc3",1,0,1,"true",6,100,"[{""page_index"":0,""viewing_time"":18808.899999976158}]",18809.1000000238,"","","","","","",NA,NA,"",NA,NA,NA,NA,NA,NA,"","","",NA
"231","","survey-multi-choice",13,189265,"0.0-9.0",NA,25,"107,81,212,49,223,93,127,20,28,190,206,204,247,158,223,61,216,97,195,180,6,159,11,17,102,26,62,239,172,187,169,24",12,"669a58f4f17d67c0aba4c4d3","65cba5290b9dca9291cd76ac","669a6953f0d486b10e4b9fc3",1,0,1,"true",6,100,"",10128.5,"{""Q0"":""...players' leaderboard position (in terms of <b>points</b>) in an <b>upcoming tournament.</b>""}","[0]","true","multichoice_tournament","","",NA,NA,"",NA,NA,NA,NA,NA,NA,"","","",NA
"232","","instructions",14,199243,"0.0-11.0",NA,25,"107,81,212,49,223,93,127,20,28,190,206,204,247,158,223,61,216,97,195,180,6,159,11,17,102,26,62,239,172,187,169,24",12,"669a58f4f17d67c0aba4c4d3","65cba5290b9dca9291cd76ac","669a6953f0d486b10e4b9fc3",1,0,1,"true",6,100,"[{""page_index"":0,""viewing_time"":9976.900000095367}]",9977.5,"","","","","","",NA,NA,"",NA,NA,NA,NA,NA,NA,"","","",NA
"233","","instructions",15,215813,"0.0-12.0-0.0",NA,25,"107,81,212,49,223,93,127,20,28,190,206,204,247,158,223,61,216,97,195,180,6,159,11,17,102,26,62,239,172,187,169,24",12,"669a58f4f17d67c0aba4c4d3","65cba5290b9dca9291cd76ac","669a6953f0d486b10e4b9fc3",1,0,1,"true",6,100,"[{""page_index"":0,""viewing_time"":16567.599999904633}]",16568,"","","","","","",NA,NA,"",NA,NA,NA,NA,NA,NA,"","","",NA
"234","","type-this",16,225053,"0.0-12.0-1.0",NA,25,"107,81,212,49,223,93,127,20,28,190,206,204,247,158,223,61,216,97,195,180,6,159,11,17,102,26,62,239,172,187,169,24",12,"669a58f4f17d67c0aba4c4d3","65cba5290b9dca9291cd76ac","669a6953f0d486b10e4b9fc3",1,0,1,"true",6,100,"",8732,"SHAKIRA","","","","","",NA,NA,"",NA,NA,NA,NA,NA,NA,"","SHAKIRA","",NA
"235","","Hangman_replay",17,260807,"0.0-12.0-2.0",NA,25,"107,81,212,49,223,93,127,20,28,190,206,204,247,158,223,61,216,97,195,180,6,159,11,17,102,26,62,239,172,187,169,24",12,"669a58f4f17d67c0aba4c4d3","65cba5290b9dca9291cd76ac","669a6953f0d486b10e4b9fc3",1,0,1,"true",6,100,"",NA,"","","","","SHAKIRA","E,A,R,T,S,H,I,K",8,13,"false",NA,NA,NA,NA,NA,NA,"","","",NA
"236","","instructions",18,267251,"0.0-12.0-3.0",NA,25,"107,81,212,49,223,93,127,20,28,190,206,204,247,158,223,61,216,97,195,180,6,159,11,17,102,26,62,239,172,187,169,24",12,"669a58f4f17d67c0aba4c4d3","65cba5290b9dca9291cd76ac","669a6953f0d486b10e4b9fc3",1,0,1,"true",6,100,"[{""page_index"":0,""viewing_time"":6442.299999952316}]",6443.5,"","","","","","",NA,NA,"",NA,NA,NA,NA,NA,NA,"","","",NA
"237","","Guess_leaderboard",19,279353,"0.0-12.0-4.0",NA,25,"107,81,212,49,223,93,127,20,28,190,206,204,247,158,223,61,216,97,195,180,6,159,11,17,102,26,62,239,172,187,169,24",12,"669a58f4f17d67c0aba4c4d3","65cba5290b9dca9291cd76ac","669a6953f0d486b10e4b9fc3",1,0,1,"true",6,100,"",NA,"","","","","SHAKIRA","",NA,NA,"",11347.5,9,53,0,31,22,"","","",NA
"238","","instructions",20,288697,"0.0-12.0-0.1",NA,25,"107,81,212,49,223,93,127,20,28,190,206,204,247,158,223,61,216,97,195,180,6,159,11,17,102,26,62,239,172,187,169,24",12,"669a58f4f17d67c0aba4c4d3","65cba5290b9dca9291cd76ac","669a6953f0d486b10e4b9fc3",1,0,1,"true",6,100,"[{""page_index"":0,""viewing_time"":9340.200000047684}]",9340.70000004768,"","","","","","",NA,NA,"",NA,NA,NA,NA,NA,NA,"","","",NA
"239","","type-this",21,297560,"0.0-12.0-1.1",NA,25,"107,81,212,49,223,93,127,20,28,190,206,204,247,158,223,61,216,97,195,180,6,159,11,17,102,26,62,239,172,187,169,24",12,"669a58f4f17d67c0aba4c4d3","65cba5290b9dca9291cd76ac","669a6953f0d486b10e4b9fc3",1,0,1,"true",6,100,"",8358.20000004768,"WRIST","","","","","",NA,NA,"",NA,NA,NA,NA,NA,NA,"","WRIST","",NA
"240","","Hangman_replay",22,337453,"0.0-12.0-2.1",NA,25,"107,81,212,49,223,93,127,20,28,190,206,204,247,158,223,61,216,97,195,180,6,159,11,17,102,26,62,239,172,187,169,24",12,"669a58f4f17d67c0aba4c4d3","65cba5290b9dca9291cd76ac","669a6953f0d486b10e4b9fc3",1,0,1,"true",6,100,"",NA,"","","","","WRIST","A,E,I,O,U,Y,S,H,R,W,T",11,9,"false",NA,NA,NA,NA,NA,NA,"","","",NA
"241","","instructions",23,342894,"0.0-12.0-3.1",NA,25,"107,81,212,49,223,93,127,20,28,190,206,204,247,158,223,61,216,97,195,180,6,159,11,17,102,26,62,239,172,187,169,24",12,"669a58f4f17d67c0aba4c4d3","65cba5290b9dca9291cd76ac","669a6953f0d486b10e4b9fc3",1,0,1,"true",6,100,"[{""page_index"":0,""viewing_time"":5438.5}]",5440.20000004768,"","","","","","",NA,NA,"",NA,NA,NA,NA,NA,NA,"","","",NA
"242","","Guess_leaderboard",24,345908,"0.0-12.0-4.1",NA,25,"107,81,212,49,223,93,127,20,28,190,206,204,247,158,223,61,216,97,195,180,6,159,11,17,102,26,62,239,172,187,169,24",12,"669a58f4f17d67c0aba4c4d3","65cba5290b9dca9291cd76ac","669a6953f0d486b10e4b9fc3",1,0,1,"true",6,100,"",NA,"","","","","WRIST","",NA,NA,"",2253.29999995232,27,9,1,51,24,"","","",NA
"243","","instructions",25,356618,"0.0-12.0-0.2",NA,25,"107,81,212,49,223,93,127,20,28,190,206,204,247,158,223,61,216,97,195,180,6,159,11,17,102,26,62,239,172,187,169,24",12,"669a58f4f17d67c0aba4c4d3","65cba5290b9dca9291cd76ac","669a6953f0d486b10e4b9fc3",1,0,1,"true",6,100,"[{""page_index"":0,""viewing_time"":10708}]",10708.5,"","","","","","",NA,NA,"",NA,NA,NA,NA,NA,NA,"","","",NA
"244","","type-this",26,363458,"0.0-12.0-1.2",NA,25,"107,81,212,49,223,93,127,20,28,190,206,204,247,158,223,61,216,97,195,180,6,159,11,17,102,26,62,239,172,187,169,24",12,"669a58f4f17d67c0aba4c4d3","65cba5290b9dca9291cd76ac","669a6953f0d486b10e4b9fc3",1,0,1,"true",6,100,"",6334.80000007153,"THIRTY FOUR","","","","","",NA,NA,"",NA,NA,NA,NA,NA,NA,"","THIRTY FOUR","",NA
"245","","Hangman_replay",27,430002,"0.0-12.0-2.2",NA,25,"107,81,212,49,223,93,127,20,28,190,206,204,247,158,223,61,216,97,195,180,6,159,11,17,102,26,62,239,172,187,169,24",12,"669a58f4f17d67c0aba4c4d3","65cba5290b9dca9291cd76ac","669a6953f0d486b10e4b9fc3",1,0,1,"true",6,100,"",NA,"","","","","THIRTY FOUR","N,F,O,U,R,T,H,I,Y",9,14,"false",NA,NA,NA,NA,NA,NA,"","","",NA
"246","","instructions",28,432259,"0.0-12.0-3.2",NA,25,"107,81,212,49,223,93,127,20,28,190,206,204,247,158,223,61,216,97,195,180,6,159,11,17,102,26,62,239,172,187,169,24",12,"669a58f4f17d67c0aba4c4d3","65cba5290b9dca9291cd76ac","669a6953f0d486b10e4b9fc3",1,0,1,"true",6,100,"[{""page_index"":0,""viewing_time"":2255.5999999046326}]",2256.19999992847,"","","","","","",NA,NA,"",NA,NA,NA,NA,NA,NA,"","","",NA
"247","","Guess_leaderboard",29,436075,"0.0-12.0-4.2",NA,25,"107,81,212,49,223,93,127,20,28,190,206,204,247,158,223,61,216,97,195,180,6,159,11,17,102,26,62,239,172,187,169,24",12,"669a58f4f17d67c0aba4c4d3","65cba5290b9dca9291cd76ac","669a6953f0d486b10e4b9fc3",1,0,1,"true",6,100,"",NA,"","","","","THIRTY FOUR","",NA,NA,"",3056.60000002384,5,8,2,54,49,"","","",NA
"248","","instructions",30,438916,"0.0-12.0-0.3",NA,25,"107,81,212,49,223,93,127,20,28,190,206,204,247,158,223,61,216,97,195,180,6,159,11,17,102,26,62,239,172,187,169,24",12,"669a58f4f17d67c0aba4c4d3","65cba5290b9dca9291cd76ac","669a6953f0d486b10e4b9fc3",1,0,1,"true",6,100,"[{""page_index"":0,""viewing_time"":2839.7000000476837}]",2840,"","","","","","",NA,NA,"",NA,NA,NA,NA,NA,NA,"","","",NA
"249","","type-this",31,445447,"0.0-12.0-1.3",NA,25,"107,81,212,49,223,93,127,20,28,190,206,204,247,158,223,61,216,97,195,180,6,159,11,17,102,26,62,239,172,187,169,24",12,"669a58f4f17d67c0aba4c4d3","65cba5290b9dca9291cd76ac","669a6953f0d486b10e4b9fc3",1,0,1,"true",6,100,"",6027.5,"FIG","","","","","",NA,NA,"",NA,NA,NA,NA,NA,NA,"","FIG","",NA
"250","","Hangman_replay",32,472245,"0.0-12.0-2.3",NA,25,"107,81,212,49,223,93,127,20,28,190,206,204,247,158,223,61,216,97,195,180,6,159,11,17,102,26,62,239,172,187,169,24",12,"669a58f4f17d67c0aba4c4d3","65cba5290b9dca9291cd76ac","669a6953f0d486b10e4b9fc3",1,0,1,"true",6,100,"",NA,"","","","","FIG","I,F,G",3,15,"false",NA,NA,NA,NA,NA,NA,"","","",NA
"251","","instructions",33,474947,"0.0-12.0-3.3",NA,25,"107,81,212,49,223,93,127,20,28,190,206,204,247,158,223,61,216,97,195,180,6,159,11,17,102,26,62,239,172,187,169,24",12,"669a58f4f17d67c0aba4c4d3","65cba5290b9dca9291cd76ac","669a6953f0d486b10e4b9fc3",1,0,1,"true",6,100,"[{""page_index"":0,""viewing_time"":2701}]",2702.10000002384,"","","","","","",NA,NA,"",NA,NA,NA,NA,NA,NA,"","","",NA
"252","","Guess_leaderboard",34,478885,"0.0-12.0-4.3",NA,25,"107,81,212,49,223,93,127,20,28,190,206,204,247,158,223,61,216,97,195,180,6,159,11,17,102,26,62,239,172,187,169,24",12,"669a58f4f17d67c0aba4c4d3","65cba5290b9dca9291cd76ac","669a6953f0d486b10e4b9fc3",1,0,1,"true",6,100,"",NA,"","","","","FIG","",NA,NA,"",3168.70000004768,30,23,3,30,0,"","","",NA
"253","","instructions",35,482744,"0.0-12.0-0.4",NA,25,"107,81,212,49,223,93,127,20,28,190,206,204,247,158,223,61,216,97,195,180,6,159,11,17,102,26,62,239,172,187,169,24",12,"669a58f4f17d67c0aba4c4d3","65cba5290b9dca9291cd76ac","669a6953f0d486b10e4b9fc3",1,0,1,"true",6,100,"[{""page_index"":0,""viewing_time"":3857.3000000715256}]",3857.70000004768,"","","","","","",NA,NA,"",NA,NA,NA,NA,NA,NA,"","","",NA
