"","success","trial_type","trial_index","time_elapsed","internal_node_id","protocol_sum","subject_identifier","subject_sum","subject_pair","STUDY_ID","PROLIFIC_PID","SESSION_ID","practice_instructions","leaderboard_instructions","bonus","reveal_word","self_rating","confidence","view_history","rt","responses","question_order","correct","test_part","word","final_keyboard_state","num_clicks","points","cheat","position_RT","position","player","i_game","true_position","distance","last_word","response","stimulus","confidence_slider_self_response"
"1","true","fullscreen",0,4173,"0.0-0.0",NA,300,"154,226,189,215,190,237,194,231,102,198,183,101,133,83,14,22,146,81,21,112,125,199,160,106,181,238,74,162,119,107,44,123",150,"66a0b3911f23dfc7665bb169","5e1fd25f1160072f44b93722","66a0f9e3593f797dce8351c6",1,0,1,"false",5,16,"",NA,"","","","","","",NA,NA,"",NA,NA,NA,NA,NA,NA,"",NA,"",NA
"2","","instructions",1,10287,"0.0-1.0",NA,300,"154,226,189,215,190,237,194,231,102,198,183,101,133,83,14,22,146,81,21,112,125,199,160,106,181,238,74,162,119,107,44,123",150,"66a0b3911f23dfc7665bb169","5e1fd25f1160072f44b93722","66a0f9e3593f797dce8351c6",1,0,1,"false",5,16,"[{""page_index"":0,""viewing_time"":6095.599999964237}]",6096.69999998808,"","","","","","",NA,NA,"",NA,NA,NA,NA,NA,NA,"",NA,"",NA
"3","","instructions",2,38275,"0.0-2.0-0.0",NA,300,"154,226,189,215,190,237,194,231,102,198,183,101,133,83,14,22,146,81,21,112,125,199,160,106,181,238,74,162,119,107,44,123",150,"66a0b3911f23dfc7665bb169","5e1fd25f1160072f44b93722","66a0f9e3593f797dce8351c6",1,0,1,"false",5,16,"[{""page_index"":0,""viewing_time"":27984.400000035763}]",27985.4000000358,"","","","","","",NA,NA,"",NA,NA,NA,NA,NA,NA,"",NA,"",NA
"4","","survey-multi-choice",3,46819,"0.0-2.0-1.0",NA,300,"154,226,189,215,190,237,194,231,102,198,183,101,133,83,14,22,146,81,21,112,125,199,160,106,181,238,74,162,119,107,44,123",150,"66a0b3911f23dfc7665bb169","5e1fd25f1160072f44b93722","66a0f9e3593f797dce8351c6",1,0,1,"false",5,16,"",8538.30000001192,"{""Q0"":""... reveal the word with as <b>few letter guesses</b> as possible""}","[0]","true","multichoice_nonpretend","","",NA,NA,"",NA,NA,NA,NA,NA,NA,"",NA,"",NA
"5","","instructions",4,48681,"0.0-3.0",NA,300,"154,226,189,215,190,237,194,231,102,198,183,101,133,83,14,22,146,81,21,112,125,199,160,106,181,238,74,162,119,107,44,123",150,"66a0b3911f23dfc7665bb169","5e1fd25f1160072f44b93722","66a0f9e3593f797dce8351c6",1,0,1,"false",5,16,"[{""page_index"":0,""viewing_time"":1860.3999999761581}]",1860.69999998808,"","","","","","",NA,NA,"",NA,NA,NA,NA,NA,NA,"",NA,"",NA
"6","","Hangman",5,110355,"0.0-4.0",NA,300,"154,226,189,215,190,237,194,231,102,198,183,101,133,83,14,22,146,81,21,112,125,199,160,106,181,238,74,162,119,107,44,123",150,"66a0b3911f23dfc7665bb169","5e1fd25f1160072f44b93722","66a0f9e3593f797dce8351c6",1,0,1,"false",5,16,"",NA,"","","","","ZEBRA","S,T,A,E,N,R,D,H,L,P,B,Z",12,8,"false",NA,NA,NA,NA,NA,NA,"",NA,"",NA
"7","","instructions",6,129376,"0.0-5.0",NA,300,"154,226,189,215,190,237,194,231,102,198,183,101,133,83,14,22,146,81,21,112,125,199,160,106,181,238,74,162,119,107,44,123",150,"66a0b3911f23dfc7665bb169","5e1fd25f1160072f44b93722","66a0f9e3593f797dce8351c6",1,0,1,"false",5,16,"[{""page_index"":0,""viewing_time"":3682.800000011921},{""page_index"":1,""viewing_time"":15332.899999976158}]",19018.8000000119,"","","","","","",NA,NA,"",NA,NA,NA,NA,NA,NA,"",NA,"",NA
"8","","survey-multi-choice",7,137472,"0.0-6.0",NA,300,"154,226,189,215,190,237,194,231,102,198,183,101,133,83,14,22,146,81,21,112,125,199,160,106,181,238,74,162,119,107,44,123",150,"66a0b3911f23dfc7665bb169","5e1fd25f1160072f44b93722","66a0f9e3593f797dce8351c6",1,0,1,"false",5,16,"",8090.89999997616,"{""Q0"":""...from <b>a previous session</b> that is part of the upcoming tournament.""}","[0]","false","multichoice_leaderboard","","",NA,NA,"",NA,NA,NA,NA,NA,NA,"",NA,"",NA
"9","","instructions",8,139322,"0.0-7.0-0.0",NA,300,"154,226,189,215,190,237,194,231,102,198,183,101,133,83,14,22,146,81,21,112,125,199,160,106,181,238,74,162,119,107,44,123",150,"66a0b3911f23dfc7665bb169","5e1fd25f1160072f44b93722","66a0f9e3593f797dce8351c6",1,0,1,"false",5,16,"[{""page_index"":0,""viewing_time"":1848.5}]",1848.89999997616,"","","","","","",NA,NA,"",NA,NA,NA,NA,NA,NA,"",NA,"",NA
"10","","survey-multi-choice",9,149634,"0.0-7.0-1.0",NA,300,"154,226,189,215,190,237,194,231,102,198,183,101,133,83,14,22,146,81,21,112,125,199,160,106,181,238,74,162,119,107,44,123",150,"66a0b3911f23dfc7665bb169","5e1fd25f1160072f44b93722","66a0f9e3593f797dce8351c6",1,0,1,"false",5,16,"",10309.5,"{""Q0"":""...from <b>a previous session</b> that is not part of the upcoming tournament.""}","[0]","true","multichoice_leaderboard","","",NA,NA,"",NA,NA,NA,NA,NA,NA,"",NA,"",NA
"11","","instructions",10,166357,"0.0-8.0",NA,300,"154,226,189,215,190,237,194,231,102,198,183,101,133,83,14,22,146,81,21,112,125,199,160,106,181,238,74,162,119,107,44,123",150,"66a0b3911f23dfc7665bb169","5e1fd25f1160072f44b93722","66a0f9e3593f797dce8351c6",1,0,1,"false",5,16,"[{""page_index"":0,""viewing_time"":16720.5}]",16721.0999999642,"","","","","","",NA,NA,"",NA,NA,NA,NA,NA,NA,"",NA,"",NA
"12","","survey-multi-choice",11,177114,"0.0-9.0",NA,300,"154,226,189,215,190,237,194,231,102,198,183,101,133,83,14,22,146,81,21,112,125,199,160,106,181,238,74,162,119,107,44,123",150,"66a0b3911f23dfc7665bb169","5e1fd25f1160072f44b93722","66a0f9e3593f797dce8351c6",1,0,1,"false",5,16,"",10755.5,"{""Q0"":""...players' leaderboard position (in terms of <b>points</b>) in an <b>upcoming tournament.</b>""}","[0]","true","multichoice_tournament","","",NA,NA,"",NA,NA,NA,NA,NA,NA,"",NA,"",NA
"13","","instructions",12,199021,"0.0-11.0",NA,300,"154,226,189,215,190,237,194,231,102,198,183,101,133,83,14,22,146,81,21,112,125,199,160,106,181,238,74,162,119,107,44,123",150,"66a0b3911f23dfc7665bb169","5e1fd25f1160072f44b93722","66a0f9e3593f797dce8351c6",1,0,1,"false",5,16,"[{""page_index"":0,""viewing_time"":21905.100000023842}]",21905.3999999762,"","","","","","",NA,NA,"",NA,NA,NA,NA,NA,NA,"",NA,"",NA
"14","","instructions",13,209472,"0.0-12.0-0.0",NA,300,"154,226,189,215,190,237,194,231,102,198,183,101,133,83,14,22,146,81,21,112,125,199,160,106,181,238,74,162,119,107,44,123",150,"66a0b3911f23dfc7665bb169","5e1fd25f1160072f44b93722","66a0f9e3593f797dce8351c6",1,0,1,"false",5,16,"[{""page_index"":0,""viewing_time"":10449.300000011921}]",10449.5999999642,"","","","","","",NA,NA,"",NA,NA,NA,NA,NA,NA,"",NA,"",NA
"15","","Hangman_replay",14,278867,"0.0-12.0-1.0",NA,300,"154,226,189,215,190,237,194,231,102,198,183,101,133,83,14,22,146,81,21,112,125,199,160,106,181,238,74,162,119,107,44,123",150,"66a0b3911f23dfc7665bb169","5e1fd25f1160072f44b93722","66a0f9e3593f797dce8351c6",1,0,1,"false",5,16,"",NA,"","","","","WRIST","T,E,A,I,S,R,W",7,13,"false",NA,NA,NA,NA,NA,NA,"",NA,"",NA
"16","","instructions",15,283865,"0.0-12.0-2.0",NA,300,"154,226,189,215,190,237,194,231,102,198,183,101,133,83,14,22,146,81,21,112,125,199,160,106,181,238,74,162,119,107,44,123",150,"66a0b3911f23dfc7665bb169","5e1fd25f1160072f44b93722","66a0f9e3593f797dce8351c6",1,0,1,"false",5,16,"[{""page_index"":0,""viewing_time"":4996.399999976158}]",4997.19999998808,"","","","","","",NA,NA,"",NA,NA,NA,NA,NA,NA,"",NA,"",NA
"17","","Guess_leaderboard",16,299073,"0.0-12.0-3.0",NA,300,"154,226,189,215,190,237,194,231,102,198,183,101,133,83,14,22,146,81,21,112,125,199,160,106,181,238,74,162,119,107,44,123",150,"66a0b3911f23dfc7665bb169","5e1fd25f1160072f44b93722","66a0f9e3593f797dce8351c6",1,0,1,"false",5,16,"",NA,"","","","","WRIST","",NA,NA,"",14422.3000000119,20,73,0,20,0,"",NA,"",NA
"18","","instructions",17,309510,"0.0-12.0-0.1",NA,300,"154,226,189,215,190,237,194,231,102,198,183,101,133,83,14,22,146,81,21,112,125,199,160,106,181,238,74,162,119,107,44,123",150,"66a0b3911f23dfc7665bb169","5e1fd25f1160072f44b93722","66a0f9e3593f797dce8351c6",1,0,1,"false",5,16,"[{""page_index"":0,""viewing_time"":10435.300000011921}]",10435.6000000238,"","","","","","",NA,NA,"",NA,NA,NA,NA,NA,NA,"",NA,"",NA
"19","","Hangman_replay",18,356124,"0.0-12.0-1.1",NA,300,"154,226,189,215,190,237,194,231,102,198,183,101,133,83,14,22,146,81,21,112,125,199,160,106,181,238,74,162,119,107,44,123",150,"66a0b3911f23dfc7665bb169","5e1fd25f1160072f44b93722","66a0f9e3593f797dce8351c6",1,0,1,"false",5,16,"",NA,"","","","","HAWAII","M,A,I,H,W",5,14,"false",NA,NA,NA,NA,NA,NA,"",NA,"",NA
"20","","instructions",19,359238,"0.0-12.0-2.1",NA,300,"154,226,189,215,190,237,194,231,102,198,183,101,133,83,14,22,146,81,21,112,125,199,160,106,181,238,74,162,119,107,44,123",150,"66a0b3911f23dfc7665bb169","5e1fd25f1160072f44b93722","66a0f9e3593f797dce8351c6",1,0,1,"false",5,16,"[{""page_index"":0,""viewing_time"":3112.2000000476837}]",3113.20000004768,"","","","","","",NA,NA,"",NA,NA,NA,NA,NA,NA,"",NA,"",NA
"21","","Guess_leaderboard",20,364950,"0.0-12.0-3.1",NA,300,"154,226,189,215,190,237,194,231,102,198,183,101,133,83,14,22,146,81,21,112,125,199,160,106,181,238,74,162,119,107,44,123",150,"66a0b3911f23dfc7665bb169","5e1fd25f1160072f44b93722","66a0f9e3593f797dce8351c6",1,0,1,"false",5,16,"",NA,"","","","","HAWAII","",NA,NA,"",4935.59999996424,5,38,1,77,72,"",NA,"",NA
"22","","instructions",21,368931,"0.0-12.0-0.2",NA,300,"154,226,189,215,190,237,194,231,102,198,183,101,133,83,14,22,146,81,21,112,125,199,160,106,181,238,74,162,119,107,44,123",150,"66a0b3911f23dfc7665bb169","5e1fd25f1160072f44b93722","66a0f9e3593f797dce8351c6",1,0,1,"false",5,16,"[{""page_index"":0,""viewing_time"":3978.7000000476837}]",3979.30000001192,"","","","","","",NA,NA,"",NA,NA,NA,NA,NA,NA,"",NA,"",NA
"23","","Hangman_replay",22,420285,"0.0-12.0-1.2",NA,300,"154,226,189,215,190,237,194,231,102,198,183,101,133,83,14,22,146,81,21,112,125,199,160,106,181,238,74,162,119,107,44,123",150,"66a0b3911f23dfc7665bb169","5e1fd25f1160072f44b93722","66a0f9e3593f797dce8351c6",1,0,1,"false",5,16,"",NA,"","","","","SHAKIRA","A,O,I,S,T,E,R,H,K",9,12,"false",NA,NA,NA,NA,NA,NA,"",NA,"",NA
"24","","instructions",23,423204,"0.0-12.0-2.2",NA,300,"154,226,189,215,190,237,194,231,102,198,183,101,133,83,14,22,146,81,21,112,125,199,160,106,181,238,74,162,119,107,44,123",150,"66a0b3911f23dfc7665bb169","5e1fd25f1160072f44b93722","66a0f9e3593f797dce8351c6",1,0,1,"false",5,16,"[{""page_index"":0,""viewing_time"":2917.599999964237}]",2918,"","","","","","",NA,NA,"",NA,NA,NA,NA,NA,NA,"",NA,"",NA
"25","","Guess_leaderboard",24,429728,"0.0-12.0-3.2",NA,300,"154,226,189,215,190,237,194,231,102,198,183,101,133,83,14,22,146,81,21,112,125,199,160,106,181,238,74,162,119,107,44,123",150,"66a0b3911f23dfc7665bb169","5e1fd25f1160072f44b93722","66a0f9e3593f797dce8351c6",1,0,1,"false",5,16,"",NA,"","","","","SHAKIRA","",NA,NA,"",5763.30000001192,25,58,2,28,3,"",NA,"",NA
"26","","instructions",25,435022,"0.0-12.0-0.3",NA,300,"154,226,189,215,190,237,194,231,102,198,183,101,133,83,14,22,146,81,21,112,125,199,160,106,181,238,74,162,119,107,44,123",150,"66a0b3911f23dfc7665bb169","5e1fd25f1160072f44b93722","66a0f9e3593f797dce8351c6",1,0,1,"false",5,16,"[{""page_index"":0,""viewing_time"":5291.399999976158}]",5291.89999997616,"","","","","","",NA,NA,"",NA,NA,NA,NA,NA,NA,"",NA,"",NA
"27","","Hangman_replay",26,456607,"0.0-12.0-1.3",NA,300,"154,226,189,215,190,237,194,231,102,198,183,101,133,83,14,22,146,81,21,112,125,199,160,106,181,238,74,162,119,107,44,123",150,"66a0b3911f23dfc7665bb169","5e1fd25f1160072f44b93722","66a0f9e3593f797dce8351c6",1,0,1,"false",5,16,"",NA,"","","","","THIRTY FOUR","T,H,I,R,Y,F,O,U",8,15,"false",NA,NA,NA,NA,NA,NA,"",NA,"",NA
"28","","instructions",27,458829,"0.0-12.0-2.3",NA,300,"154,226,189,215,190,237,194,231,102,198,183,101,133,83,14,22,146,81,21,112,125,199,160,106,181,238,74,162,119,107,44,123",150,"66a0b3911f23dfc7665bb169","5e1fd25f1160072f44b93722","66a0f9e3593f797dce8351c6",1,0,1,"false",5,16,"[{""page_index"":0,""viewing_time"":2220.800000011921}]",2221.19999998808,"","","","","","",NA,NA,"",NA,NA,NA,NA,NA,NA,"",NA,"",NA
"29","","Guess_leaderboard",28,462951,"0.0-12.0-3.3",NA,300,"154,226,189,215,190,237,194,231,102,198,183,101,133,83,14,22,146,81,21,112,125,199,160,106,181,238,74,162,119,107,44,123",150,"66a0b3911f23dfc7665bb169","5e1fd25f1160072f44b93722","66a0f9e3593f797dce8351c6",1,0,1,"false",5,16,"",NA,"","","","","THIRTY FOUR","",NA,NA,"",3357.89999997616,2,69,3,77,75,"",NA,"",NA
"30","","instructions",29,466481,"0.0-12.0-0.4",NA,300,"154,226,189,215,190,237,194,231,102,198,183,101,133,83,14,22,146,81,21,112,125,199,160,106,181,238,74,162,119,107,44,123",150,"66a0b3911f23dfc7665bb169","5e1fd25f1160072f44b93722","66a0f9e3593f797dce8351c6",1,0,1,"false",5,16,"[{""page_index"":0,""viewing_time"":3527.099999964237}]",3527.39999997616,"","","","","","",NA,NA,"",NA,NA,NA,NA,NA,NA,"",NA,"",NA
"31","","Hangman_replay",30,496210,"0.0-12.0-1.4",NA,300,"154,226,189,215,190,237,194,231,102,198,183,101,133,83,14,22,146,81,21,112,125,199,160,106,181,238,74,162,119,107,44,123",150,"66a0b3911f23dfc7665bb169","5e1fd25f1160072f44b93722","66a0f9e3593f797dce8351c6",1,0,1,"false",5,16,"",NA,"","","","","FIG","I,F,G",3,15,"false",NA,NA,NA,NA,NA,NA,"",NA,"",NA
"32","","instructions",31,498322,"0.0-12.0-2.4",NA,300,"154,226,189,215,190,237,194,231,102,198,183,101,133,83,14,22,146,81,21,112,125,199,160,106,181,238,74,162,119,107,44,123",150,"66a0b3911f23dfc7665bb169","5e1fd25f1160072f44b93722","66a0f9e3593f797dce8351c6",1,0,1,"false",5,16,"[{""page_index"":0,""viewing_time"":2110.300000011921}]",2110.90000003576,"","","","","","",NA,NA,"",NA,NA,NA,NA,NA,NA,"",NA,"",NA
"33","","Guess_leaderboard",32,501937,"0.0-12.0-3.4",NA,300,"154,226,189,215,190,237,194,231,102,198,183,101,133,83,14,22,146,81,21,112,125,199,160,106,181,238,74,162,119,107,44,123",150,"66a0b3911f23dfc7665bb169","5e1fd25f1160072f44b93722","66a0f9e3593f797dce8351c6",1,0,1,"false",5,16,"",NA,"","","","","FIG","",NA,NA,"",2847.90000003576,8,22,4,18,10,"",NA,"",NA
"34","","survey-text",33,508979,"0.0-13.0",NA,300,"154,226,189,215,190,237,194,231,102,198,183,101,133,83,14,22,146,81,21,112,125,199,160,106,181,238,74,162,119,107,44,123",150,"66a0b3911f23dfc7665bb169","5e1fd25f1160072f44b93722","66a0f9e3593f797dce8351c6",1,0,1,"false",5,16,"",7005.80000001192,"{""Q0"":""FIG""}","","","","","",NA,NA,"",NA,NA,NA,NA,NA,NA,"fig",NA,"",NA
"35","","survey-multi-choice",34,534084,"0.0-14.0",NA,300,"154,226,189,215,190,237,194,231,102,198,183,101,133,83,14,22,146,81,21,112,125,199,160,106,181,238,74,162,119,107,44,123",150,"66a0b3911f23dfc7665bb169","5e1fd25f1160072f44b93722","66a0f9e3593f797dce8351c6",1,0,1,"false",5,16,"",25091.3000000119,"{""Q0"":""5. I would be <b>fifth</b> out of the six of us.""}","[0]","","self-rating","","",NA,NA,"",NA,5,NA,NA,NA,NA,"",NA,"",NA
"36","","html-slider-response",35,539847,"0.0-15.0",NA,300,"154,226,189,215,190,237,194,231,102,198,183,101,133,83,14,22,146,81,21,112,125,199,160,106,181,238,74,162,119,107,44,123",150,"66a0b3911f23dfc7665bb169","5e1fd25f1160072f44b93722","66a0f9e3593f797dce8351c6",1,0,1,"false",5,16,"",5745.90000003576,"","","","","","",NA,NA,"",NA,NA,NA,NA,NA,NA,"","16","<p>Overall, how confident were you in your answer to this last question?</p>",16
"37","","survey-text",36,670045,"0.0-16.0",NA,300,"154,226,189,215,190,237,194,231,102,198,183,101,133,83,14,22,146,81,21,112,125,199,160,106,181,238,74,162,119,107,44,123",150,"66a0b3911f23dfc7665bb169","5e1fd25f1160072f44b93722","66a0f9e3593f797dce8351c6",1,0,1,"false",5,16,"",130179.5,"{""Q0"":""If people are looking up answers on their phones. The longer it takes with the fewest guesses, the contestant is probably researching behind the scenes.""}","","","","","",NA,NA,"",NA,NA,NA,NA,NA,NA,"",NA,"",NA
"38","","survey-text",37,694672,"0.0-17.0",NA,300,"154,226,189,215,190,237,194,231,102,198,183,101,133,83,14,22,146,81,21,112,125,199,160,106,181,238,74,162,119,107,44,123",150,"66a0b3911f23dfc7665bb169","5e1fd25f1160072f44b93722","66a0f9e3593f797dce8351c6",1,0,1,"false",5,16,"",24622.9000000358,"{""Q0"":""N/A""}","","","","","",NA,NA,"",NA,NA,NA,NA,NA,NA,"",NA,"",NA
"39","","instructions",38,703145,"0.0-18.0",NA,300,"154,226,189,215,190,237,194,231,102,198,183,101,133,83,14,22,146,81,21,112,125,199,160,106,181,238,74,162,119,107,44,123",150,"66a0b3911f23dfc7665bb169","5e1fd25f1160072f44b93722","66a0f9e3593f797dce8351c6",1,0,1,"false",5,16,"[{""page_index"":0,""viewing_time"":8472.699999988079}]",8473.10000002384,"","","","","","",NA,NA,"",NA,NA,NA,NA,NA,NA,"",NA,"",NA
"40","true","fullscreen",0,155702,"0.0-0.0",NA,301,"154,226,189,215,190,237,194,231,102,198,183,101,133,83,14,22,146,81,21,112,125,199,160,106,181,238,74,162,119,107,44,123",150,"66a0b3911f23dfc7665bb169","6638034e01a0a512f729c6b9","66a0fcdec13c96f864434f23",1,1,0,"true",3,94,"",NA,"","","","","","",NA,NA,"",NA,NA,NA,NA,NA,NA,"","","",NA
"41","","instructions",1,157299,"0.0-1.0",NA,301,"154,226,189,215,190,237,194,231,102,198,183,101,133,83,14,22,146,81,21,112,125,199,160,106,181,238,74,162,119,107,44,123",150,"66a0b3911f23dfc7665bb169","6638034e01a0a512f729c6b9","66a0fcdec13c96f864434f23",1,1,0,"true",3,94,"[{""page_index"":0,""viewing_time"":1594}]",1594,"","","","","","",NA,NA,"",NA,NA,NA,NA,NA,NA,"","","",NA
"42","","instructions",2,205908,"0.0-2.0-0.0",NA,301,"154,226,189,215,190,237,194,231,102,198,183,101,133,83,14,22,146,81,21,112,125,199,160,106,181,238,74,162,119,107,44,123",150,"66a0b3911f23dfc7665bb169","6638034e01a0a512f729c6b9","66a0fcdec13c96f864434f23",1,1,0,"true",3,94,"[{""page_index"":0,""viewing_time"":48582}]",48582,"","","","","","",NA,NA,"",NA,NA,NA,NA,NA,NA,"","","",NA
"43","","survey-multi-choice",3,236850,"0.0-2.0-1.0",NA,301,"154,226,189,215,190,237,194,231,102,198,183,101,133,83,14,22,146,81,21,112,125,199,160,106,181,238,74,162,119,107,44,123",150,"66a0b3911f23dfc7665bb169","6638034e01a0a512f729c6b9","66a0fcdec13c96f864434f23",1,1,0,"true",3,94,"",30934,"{""Q0"":""... reveal the word with as <b>few letter guesses</b> as possible""}","[0]","true","multichoice_nonpretend","","",NA,NA,"",NA,NA,NA,NA,NA,NA,"","","",NA
"44","","instructions",4,238457,"0.0-3.0",NA,301,"154,226,189,215,190,237,194,231,102,198,183,101,133,83,14,22,146,81,21,112,125,199,160,106,181,238,74,162,119,107,44,123",150,"66a0b3911f23dfc7665bb169","6638034e01a0a512f729c6b9","66a0fcdec13c96f864434f23",1,1,0,"true",3,94,"[{""page_index"":0,""viewing_time"":1607}]",1607,"","","","","","",NA,NA,"",NA,NA,NA,NA,NA,NA,"","","",NA
"45","","Hangman",5,417508,"0.0-4.0",NA,301,"154,226,189,215,190,237,194,231,102,198,183,101,133,83,14,22,146,81,21,112,125,199,160,106,181,238,74,162,119,107,44,123",150,"66a0b3911f23dfc7665bb169","6638034e01a0a512f729c6b9","66a0fcdec13c96f864434f23",1,1,0,"true",3,94,"",NA,"","","","","ZEBRA","P,H,O,C,A,S,E,T,Z,B,R",11,9,"false",NA,NA,NA,NA,NA,NA,"","","",NA
"46","","instructions",6,423025,"0.0-5.0",NA,301,"154,226,189,215,190,237,194,231,102,198,183,101,133,83,14,22,146,81,21,112,125,199,160,106,181,238,74,162,119,107,44,123",150,"66a0b3911f23dfc7665bb169","6638034e01a0a512f729c6b9","66a0fcdec13c96f864434f23",1,1,0,"true",3,94,"[{""page_index"":0,""viewing_time"":3516},{""page_index"":1,""viewing_time"":2000}]",5517,"","","","","","",NA,NA,"",NA,NA,NA,NA,NA,NA,"","","",NA
"47","","survey-multi-choice",7,431979,"0.0-6.0",NA,301,"154,226,189,215,190,237,194,231,102,198,183,101,133,83,14,22,146,81,21,112,125,199,160,106,181,238,74,162,119,107,44,123",150,"66a0b3911f23dfc7665bb169","6638034e01a0a512f729c6b9","66a0fcdec13c96f864434f23",1,1,0,"true",3,94,"",8949,"{""Q0"":""...from <b>a previous session</b> that is not part of the upcoming tournament.""}","[0]","true","multichoice_leaderboard","","",NA,NA,"",NA,NA,NA,NA,NA,NA,"","","",NA
"48","","instructions",8,438774,"0.0-8.0",NA,301,"154,226,189,215,190,237,194,231,102,198,183,101,133,83,14,22,146,81,21,112,125,199,160,106,181,238,74,162,119,107,44,123",150,"66a0b3911f23dfc7665bb169","6638034e01a0a512f729c6b9","66a0fcdec13c96f864434f23",1,1,0,"true",3,94,"[{""page_index"":0,""viewing_time"":6793}]",6793,"","","","","","",NA,NA,"",NA,NA,NA,NA,NA,NA,"","","",NA
"49","","survey-multi-choice",9,450761,"0.0-9.0",NA,301,"154,226,189,215,190,237,194,231,102,198,183,101,133,83,14,22,146,81,21,112,125,199,160,106,181,238,74,162,119,107,44,123",150,"66a0b3911f23dfc7665bb169","6638034e01a0a512f729c6b9","66a0fcdec13c96f864434f23",1,1,0,"true",3,94,"",11982,"{""Q0"":""...how well players did (in terms of <b>points</b>) in <b>previous games.</b>""}","[0]","false","multichoice_tournament","","",NA,NA,"",NA,NA,NA,NA,NA,NA,"","","",NA
"50","","instructions",10,452758,"0.0-10.0-0.0",NA,301,"154,226,189,215,190,237,194,231,102,198,183,101,133,83,14,22,146,81,21,112,125,199,160,106,181,238,74,162,119,107,44,123",150,"66a0b3911f23dfc7665bb169","6638034e01a0a512f729c6b9","66a0fcdec13c96f864434f23",1,1,0,"true",3,94,"[{""page_index"":0,""viewing_time"":1994}]",1994,"","","","","","",NA,NA,"",NA,NA,NA,NA,NA,NA,"","","",NA
"51","","survey-multi-choice",11,455827,"0.0-10.0-1.0",NA,301,"154,226,189,215,190,237,194,231,102,198,183,101,133,83,14,22,146,81,21,112,125,199,160,106,181,238,74,162,119,107,44,123",150,"66a0b3911f23dfc7665bb169","6638034e01a0a512f729c6b9","66a0fcdec13c96f864434f23",1,1,0,"true",3,94,"",3067,"{""Q0"":""...players' leaderboard position (in terms of <b>points</b>) in an <b>upcoming tournament.</b>""}","[0]","true","multichoice_tournament","","",NA,NA,"",NA,NA,NA,NA,NA,NA,"","","",NA
"52","","instructions",12,458040,"0.0-11.0",NA,301,"154,226,189,215,190,237,194,231,102,198,183,101,133,83,14,22,146,81,21,112,125,199,160,106,181,238,74,162,119,107,44,123",150,"66a0b3911f23dfc7665bb169","6638034e01a0a512f729c6b9","66a0fcdec13c96f864434f23",1,1,0,"true",3,94,"[{""page_index"":0,""viewing_time"":2212}]",2212,"","","","","","",NA,NA,"",NA,NA,NA,NA,NA,NA,"","","",NA
"53","","instructions",13,475576,"0.0-12.0-0.0",NA,301,"154,226,189,215,190,237,194,231,102,198,183,101,133,83,14,22,146,81,21,112,125,199,160,106,181,238,74,162,119,107,44,123",150,"66a0b3911f23dfc7665bb169","6638034e01a0a512f729c6b9","66a0fcdec13c96f864434f23",1,1,0,"true",3,94,"[{""page_index"":0,""viewing_time"":17531}]",17532,"","","","","","",NA,NA,"",NA,NA,NA,NA,NA,NA,"","","",NA
"54","","type-this",14,485900,"0.0-12.0-1.0",NA,301,"154,226,189,215,190,237,194,231,102,198,183,101,133,83,14,22,146,81,21,112,125,199,160,106,181,238,74,162,119,107,44,123",150,"66a0b3911f23dfc7665bb169","6638034e01a0a512f729c6b9","66a0fcdec13c96f864434f23",1,1,0,"true",3,94,"",9811,"WRIST","","","","","",NA,NA,"",NA,NA,NA,NA,NA,NA,"","WRIST","",NA
"55","","Hangman_replay",15,555241,"0.0-12.0-2.0",NA,301,"154,226,189,215,190,237,194,231,102,198,183,101,133,83,14,22,146,81,21,112,125,199,160,106,181,238,74,162,119,107,44,123",150,"66a0b3911f23dfc7665bb169","6638034e01a0a512f729c6b9","66a0fcdec13c96f864434f23",1,1,0,"true",3,94,"",NA,"","","","","WRIST","T,E,A,I,S,R,W",7,13,"false",NA,NA,NA,NA,NA,NA,"","","",NA
"56","","instructions",16,561724,"0.0-12.0-3.0",NA,301,"154,226,189,215,190,237,194,231,102,198,183,101,133,83,14,22,146,81,21,112,125,199,160,106,181,238,74,162,119,107,44,123",150,"66a0b3911f23dfc7665bb169","6638034e01a0a512f729c6b9","66a0fcdec13c96f864434f23",1,1,0,"true",3,94,"[{""page_index"":0,""viewing_time"":6481}]",6482,"","","","","","",NA,NA,"",NA,NA,NA,NA,NA,NA,"","","",NA
"57","","Guess_leaderboard",17,572189,"0.0-12.0-4.0",NA,301,"154,226,189,215,190,237,194,231,102,198,183,101,133,83,14,22,146,81,21,112,125,199,160,106,181,238,74,162,119,107,44,123",150,"66a0b3911f23dfc7665bb169","6638034e01a0a512f729c6b9","66a0fcdec13c96f864434f23",1,1,0,"true",3,94,"",NA,"","","","","WRIST","",NA,NA,"",9704,14,73,0,20,6,"","","",NA
"58","","instructions",18,580775,"0.0-12.0-0.1",NA,301,"154,226,189,215,190,237,194,231,102,198,183,101,133,83,14,22,146,81,21,112,125,199,160,106,181,238,74,162,119,107,44,123",150,"66a0b3911f23dfc7665bb169","6638034e01a0a512f729c6b9","66a0fcdec13c96f864434f23",1,1,0,"true",3,94,"[{""page_index"":0,""viewing_time"":8583}]",8584,"","","","","","",NA,NA,"",NA,NA,NA,NA,NA,NA,"","","",NA
"59","","type-this",19,588913,"0.0-12.0-1.1",NA,301,"154,226,189,215,190,237,194,231,102,198,183,101,133,83,14,22,146,81,21,112,125,199,160,106,181,238,74,162,119,107,44,123",150,"66a0b3911f23dfc7665bb169","6638034e01a0a512f729c6b9","66a0fcdec13c96f864434f23",1,1,0,"true",3,94,"",7629,"HAWAII","","","","","",NA,NA,"",NA,NA,NA,NA,NA,NA,"","HAWAII","",NA
"60","","Hangman_replay",20,635506,"0.0-12.0-2.1",NA,301,"154,226,189,215,190,237,194,231,102,198,183,101,133,83,14,22,146,81,21,112,125,199,160,106,181,238,74,162,119,107,44,123",150,"66a0b3911f23dfc7665bb169","6638034e01a0a512f729c6b9","66a0fcdec13c96f864434f23",1,1,0,"true",3,94,"",NA,"","","","","HAWAII","M,A,I,H,W",5,14,"false",NA,NA,NA,NA,NA,NA,"","","",NA
"61","","instructions",21,637841,"0.0-12.0-3.1",NA,301,"154,226,189,215,190,237,194,231,102,198,183,101,133,83,14,22,146,81,21,112,125,199,160,106,181,238,74,162,119,107,44,123",150,"66a0b3911f23dfc7665bb169","6638034e01a0a512f729c6b9","66a0fcdec13c96f864434f23",1,1,0,"true",3,94,"[{""page_index"":0,""viewing_time"":2332}]",2332,"","","","","","",NA,NA,"",NA,NA,NA,NA,NA,NA,"","","",NA
"62","","Guess_leaderboard",22,640921,"0.0-12.0-4.1",NA,301,"154,226,189,215,190,237,194,231,102,198,183,101,133,83,14,22,146,81,21,112,125,199,160,106,181,238,74,162,119,107,44,123",150,"66a0b3911f23dfc7665bb169","6638034e01a0a512f729c6b9","66a0fcdec13c96f864434f23",1,1,0,"true",3,94,"",NA,"","","","","HAWAII","",NA,NA,"",2318,9,38,1,77,68,"","","",NA
"63","","instructions",23,644140,"0.0-12.0-0.2",NA,301,"154,226,189,215,190,237,194,231,102,198,183,101,133,83,14,22,146,81,21,112,125,199,160,106,181,238,74,162,119,107,44,123",150,"66a0b3911f23dfc7665bb169","6638034e01a0a512f729c6b9","66a0fcdec13c96f864434f23",1,1,0,"true",3,94,"[{""page_index"":0,""viewing_time"":3219}]",3219,"","","","","","",NA,NA,"",NA,NA,NA,NA,NA,NA,"","","",NA
"64","","type-this",24,652378,"0.0-12.0-1.2",NA,301,"154,226,189,215,190,237,194,231,102,198,183,101,133,83,14,22,146,81,21,112,125,199,160,106,181,238,74,162,119,107,44,123",150,"66a0b3911f23dfc7665bb169","6638034e01a0a512f729c6b9","66a0fcdec13c96f864434f23",1,1,0,"true",3,94,"",7733,"SHAKIRA","","","","","",NA,NA,"",NA,NA,NA,NA,NA,NA,"","SHAKIRA","",NA
"65","","Hangman_replay",25,703725,"0.0-12.0-2.2",NA,301,"154,226,189,215,190,237,194,231,102,198,183,101,133,83,14,22,146,81,21,112,125,199,160,106,181,238,74,162,119,107,44,123",150,"66a0b3911f23dfc7665bb169","6638034e01a0a512f729c6b9","66a0fcdec13c96f864434f23",1,1,0,"true",3,94,"",NA,"","","","","SHAKIRA","A,O,I,S,T,E,R,H,K",9,12,"false",NA,NA,NA,NA,NA,NA,"","","",NA
"66","","instructions",26,706025,"0.0-12.0-3.2",NA,301,"154,226,189,215,190,237,194,231,102,198,183,101,133,83,14,22,146,81,21,112,125,199,160,106,181,238,74,162,119,107,44,123",150,"66a0b3911f23dfc7665bb169","6638034e01a0a512f729c6b9","66a0fcdec13c96f864434f23",1,1,0,"true",3,94,"[{""page_index"":0,""viewing_time"":2291}]",2292,"","","","","","",NA,NA,"",NA,NA,NA,NA,NA,NA,"","","",NA
"67","","Guess_leaderboard",27,708822,"0.0-12.0-4.2",NA,301,"154,226,189,215,190,237,194,231,102,198,183,101,133,83,14,22,146,81,21,112,125,199,160,106,181,238,74,162,119,107,44,123",150,"66a0b3911f23dfc7665bb169","6638034e01a0a512f729c6b9","66a0fcdec13c96f864434f23",1,1,0,"true",3,94,"",NA,"","","","","SHAKIRA","",NA,NA,"",2034,18,58,2,28,10,"","","",NA
"68","","instructions",28,714174,"0.0-12.0-0.3",NA,301,"154,226,189,215,190,237,194,231,102,198,183,101,133,83,14,22,146,81,21,112,125,199,160,106,181,238,74,162,119,107,44,123",150,"66a0b3911f23dfc7665bb169","6638034e01a0a512f729c6b9","66a0fcdec13c96f864434f23",1,1,0,"true",3,94,"[{""page_index"":0,""viewing_time"":5351}]",5351,"","","","","","",NA,NA,"",NA,NA,NA,NA,NA,NA,"","","",NA
"69","","type-this",29,724265,"0.0-12.0-1.3",NA,301,"154,226,189,215,190,237,194,231,102,198,183,101,133,83,14,22,146,81,21,112,125,199,160,106,181,238,74,162,119,107,44,123",150,"66a0b3911f23dfc7665bb169","6638034e01a0a512f729c6b9","66a0fcdec13c96f864434f23",1,1,0,"true",3,94,"",9582,"THIRTY FOUR","","","","","",NA,NA,"",NA,NA,NA,NA,NA,NA,"","THIRTY FOUR","",NA
"70","","Hangman_replay",30,745823,"0.0-12.0-2.3",NA,301,"154,226,189,215,190,237,194,231,102,198,183,101,133,83,14,22,146,81,21,112,125,199,160,106,181,238,74,162,119,107,44,123",150,"66a0b3911f23dfc7665bb169","6638034e01a0a512f729c6b9","66a0fcdec13c96f864434f23",1,1,0,"true",3,94,"",NA,"","","","","THIRTY FOUR","T,H,I,R,Y,F,O,U",8,15,"false",NA,NA,NA,NA,NA,NA,"","","",NA
"71","","instructions",31,747973,"0.0-12.0-3.3",NA,301,"154,226,189,215,190,237,194,231,102,198,183,101,133,83,14,22,146,81,21,112,125,199,160,106,181,238,74,162,119,107,44,123",150,"66a0b3911f23dfc7665bb169","6638034e01a0a512f729c6b9","66a0fcdec13c96f864434f23",1,1,0,"true",3,94,"[{""page_index"":0,""viewing_time"":2149}]",2149,"","","","","","",NA,NA,"",NA,NA,NA,NA,NA,NA,"","","",NA
"72","","Guess_leaderboard",32,750022,"0.0-12.0-4.3",NA,301,"154,226,189,215,190,237,194,231,102,198,183,101,133,83,14,22,146,81,21,112,125,199,160,106,181,238,74,162,119,107,44,123",150,"66a0b3911f23dfc7665bb169","6638034e01a0a512f729c6b9","66a0fcdec13c96f864434f23",1,1,0,"true",3,94,"",NA,"","","","","THIRTY FOUR","",NA,NA,"",1281,1,69,3,77,76,"","","",NA
"73","","instructions",33,753393,"0.0-12.0-0.4",NA,301,"154,226,189,215,190,237,194,231,102,198,183,101,133,83,14,22,146,81,21,112,125,199,160,106,181,238,74,162,119,107,44,123",150,"66a0b3911f23dfc7665bb169","6638034e01a0a512f729c6b9","66a0fcdec13c96f864434f23",1,1,0,"true",3,94,"[{""page_index"":0,""viewing_time"":3370}]",3371,"","","","","","",NA,NA,"",NA,NA,NA,NA,NA,NA,"","","",NA
"74","","type-this",34,758543,"0.0-12.0-1.4",NA,301,"154,226,189,215,190,237,194,231,102,198,183,101,133,83,14,22,146,81,21,112,125,199,160,106,181,238,74,162,119,107,44,123",150,"66a0b3911f23dfc7665bb169","6638034e01a0a512f729c6b9","66a0fcdec13c96f864434f23",1,1,0,"true",3,94,"",4647,"FIG","","","","","",NA,NA,"",NA,NA,NA,NA,NA,NA,"","FIG","",NA
"75","","Hangman_replay",35,788272,"0.0-12.0-2.4",NA,301,"154,226,189,215,190,237,194,231,102,198,183,101,133,83,14,22,146,81,21,112,125,199,160,106,181,238,74,162,119,107,44,123",150,"66a0b3911f23dfc7665bb169","6638034e01a0a512f729c6b9","66a0fcdec13c96f864434f23",1,1,0,"true",3,94,"",NA,"","","","","FIG","I,F,G",3,15,"false",NA,NA,NA,NA,NA,NA,"","","",NA
"76","","instructions",36,792907,"0.0-12.0-3.4",NA,301,"154,226,189,215,190,237,194,231,102,198,183,101,133,83,14,22,146,81,21,112,125,199,160,106,181,238,74,162,119,107,44,123",150,"66a0b3911f23dfc7665bb169","6638034e01a0a512f729c6b9","66a0fcdec13c96f864434f23",1,1,0,"true",3,94,"[{""page_index"":0,""viewing_time"":4634}]",4634,"","","","","","",NA,NA,"",NA,NA,NA,NA,NA,NA,"","","",NA
"77","","Guess_leaderboard",37,794889,"0.0-12.0-4.4",NA,301,"154,226,189,215,190,237,194,231,102,198,183,101,133,83,14,22,146,81,21,112,125,199,160,106,181,238,74,162,119,107,44,123",150,"66a0b3911f23dfc7665bb169","6638034e01a0a512f729c6b9","66a0fcdec13c96f864434f23",1,1,0,"true",3,94,"",NA,"","","","","FIG","",NA,NA,"",1217,1,22,4,18,17,"","","",NA
"78","","survey-text",38,805243,"0.0-13.0",NA,301,"154,226,189,215,190,237,194,231,102,198,183,101,133,83,14,22,146,81,21,112,125,199,160,106,181,238,74,162,119,107,44,123",150,"66a0b3911f23dfc7665bb169","6638034e01a0a512f729c6b9","66a0fcdec13c96f864434f23",1,1,0,"true",3,94,"",10339,"{""Q0"":""FIG""}","","","","","",NA,NA,"",NA,NA,NA,NA,NA,NA,"fig","","",NA
"79","","survey-multi-choice",39,823775,"0.0-14.0",NA,301,"154,226,189,215,190,237,194,231,102,198,183,101,133,83,14,22,146,81,21,112,125,199,160,106,181,238,74,162,119,107,44,123",150,"66a0b3911f23dfc7665bb169","6638034e01a0a512f729c6b9","66a0fcdec13c96f864434f23",1,1,0,"true",3,94,"",18527,"{""Q0"":""3. I would be <b>third</b> out of the six of us.""}","[0]","","self-rating","","",NA,NA,"",NA,3,NA,NA,NA,NA,"","","",NA
"80","","html-slider-response",40,827940,"0.0-15.0",NA,301,"154,226,189,215,190,237,194,231,102,198,183,101,133,83,14,22,146,81,21,112,125,199,160,106,181,238,74,162,119,107,44,123",150,"66a0b3911f23dfc7665bb169","6638034e01a0a512f729c6b9","66a0fcdec13c96f864434f23",1,1,0,"true",3,94,"",4163,"","","","","","",NA,NA,"",NA,NA,NA,NA,NA,NA,"","94","<p>Overall, how confident were you in your answer to this last question?</p>",94
"81","","survey-text",41,863728,"0.0-16.0",NA,301,"154,226,189,215,190,237,194,231,102,198,183,101,133,83,14,22,146,81,21,112,125,199,160,106,181,238,74,162,119,107,44,123",150,"66a0b3911f23dfc7665bb169","6638034e01a0a512f729c6b9","66a0fcdec13c96f864434f23",1,1,0,"true",3,94,"",35781,"{""Q0"":""How fast people can think""}","","","","","",NA,NA,"",NA,NA,NA,NA,NA,NA,"","","",NA
"82","","survey-text",42,872573,"0.0-17.0",NA,301,"154,226,189,215,190,237,194,231,102,198,183,101,133,83,14,22,146,81,21,112,125,199,160,106,181,238,74,162,119,107,44,123",150,"66a0b3911f23dfc7665bb169","6638034e01a0a512f729c6b9","66a0fcdec13c96f864434f23",1,1,0,"true",3,94,"",8842,"{""Q0"":""no""}","","","","","",NA,NA,"",NA,NA,NA,NA,NA,NA,"","","",NA
"83","","instructions",43,874540,"0.0-18.0",NA,301,"154,226,189,215,190,237,194,231,102,198,183,101,133,83,14,22,146,81,21,112,125,199,160,106,181,238,74,162,119,107,44,123",150,"66a0b3911f23dfc7665bb169","6638034e01a0a512f729c6b9","66a0fcdec13c96f864434f23",1,1,0,"true",3,94,"[{""page_index"":0,""viewing_time"":1965}]",1965,"","","","","","",NA,NA,"",NA,NA,NA,NA,NA,NA,"","","",NA
"84","true","fullscreen",0,3213,"0.0-0.0",NA,302,"142,97,43,209,245,209,50,163,57,87,91,141,175,183,132,44,100,97,78,86,188,243,213,171,101,160,188,75,52,50,148,7",151,"66a0b3911f23dfc7665bb169","665cb15c8534afbb16c0633f","66a100b96141402dcc237677",1,0,0,"false",3,58,"",NA,"","","","","","",NA,NA,"",NA,NA,NA,NA,NA,NA,"",NA,"",NA
"85","","instructions",1,5035,"0.0-1.0",NA,302,"142,97,43,209,245,209,50,163,57,87,91,141,175,183,132,44,100,97,78,86,188,243,213,171,101,160,188,75,52,50,148,7",151,"66a0b3911f23dfc7665bb169","665cb15c8534afbb16c0633f","66a100b96141402dcc237677",1,0,0,"false",3,58,"[{""page_index"":0,""viewing_time"":1818.5}]",1818.70000004768,"","","","","","",NA,NA,"",NA,NA,NA,NA,NA,NA,"",NA,"",NA
"86","","instructions",2,17875,"0.0-2.0-0.0",NA,302,"142,97,43,209,245,209,50,163,57,87,91,141,175,183,132,44,100,97,78,86,188,243,213,171,101,160,188,75,52,50,148,7",151,"66a0b3911f23dfc7665bb169","665cb15c8534afbb16c0633f","66a100b96141402dcc237677",1,0,0,"false",3,58,"[{""page_index"":0,""viewing_time"":12839.299999952316}]",12839.6999998093,"","","","","","",NA,NA,"",NA,NA,NA,NA,NA,NA,"",NA,"",NA
"87","","survey-multi-choice",3,43964,"0.0-2.0-1.0",NA,302,"142,97,43,209,245,209,50,163,57,87,91,141,175,183,132,44,100,97,78,86,188,243,213,171,101,160,188,75,52,50,148,7",151,"66a0b3911f23dfc7665bb169","665cb15c8534afbb16c0633f","66a100b96141402dcc237677",1,0,0,"false",3,58,"",26086.2000000477,"{""Q0"":""... reveal the word with as <b>few letter guesses</b> as possible""}","[0]","true","multichoice_nonpretend","","",NA,NA,"",NA,NA,NA,NA,NA,NA,"",NA,"",NA
"88","","instructions",4,46310,"0.0-3.0",NA,302,"142,97,43,209,245,209,50,163,57,87,91,141,175,183,132,44,100,97,78,86,188,243,213,171,101,160,188,75,52,50,148,7",151,"66a0b3911f23dfc7665bb169","665cb15c8534afbb16c0633f","66a100b96141402dcc237677",1,0,0,"false",3,58,"[{""page_index"":0,""viewing_time"":2345.7000000476837}]",2345.90000009537,"","","","","","",NA,NA,"",NA,NA,NA,NA,NA,NA,"",NA,"",NA
"89","","Hangman",5,136709,"0.0-4.0",NA,302,"142,97,43,209,245,209,50,163,57,87,91,141,175,183,132,44,100,97,78,86,188,243,213,171,101,160,188,75,52,50,148,7",151,"66a0b3911f23dfc7665bb169","665cb15c8534afbb16c0633f","66a100b96141402dcc237677",1,0,0,"false",3,58,"",NA,"","","","","ZEBRA","O,E,L,A,T,Z,B,R",8,12,"false",NA,NA,NA,NA,NA,NA,"",NA,"",NA
"90","","instructions",6,149989,"0.0-5.0",NA,302,"142,97,43,209,245,209,50,163,57,87,91,141,175,183,132,44,100,97,78,86,188,243,213,171,101,160,188,75,52,50,148,7",151,"66a0b3911f23dfc7665bb169","665cb15c8534afbb16c0633f","66a100b96141402dcc237677",1,0,0,"false",3,58,"[{""page_index"":0,""viewing_time"":2975.2000000476837},{""page_index"":1,""viewing_time"":10301.699999809265}]",13277.5999999046,"","","","","","",NA,NA,"",NA,NA,NA,NA,NA,NA,"",NA,"",NA
"91","","survey-multi-choice",7,162955,"0.0-6.0",NA,302,"142,97,43,209,245,209,50,163,57,87,91,141,175,183,132,44,100,97,78,86,188,243,213,171,101,160,188,75,52,50,148,7",151,"66a0b3911f23dfc7665bb169","665cb15c8534afbb16c0633f","66a100b96141402dcc237677",1,0,0,"false",3,58,"",12964.3999998569,"{""Q0"":""...from <b>a previous session</b> that is not part of the upcoming tournament.""}","[0]","true","multichoice_leaderboard","","",NA,NA,"",NA,NA,NA,NA,NA,NA,"",NA,"",NA
"92","","instructions",8,176392,"0.0-8.0",NA,302,"142,97,43,209,245,209,50,163,57,87,91,141,175,183,132,44,100,97,78,86,188,243,213,171,101,160,188,75,52,50,148,7",151,"66a0b3911f23dfc7665bb169","665cb15c8534afbb16c0633f","66a100b96141402dcc237677",1,0,0,"false",3,58,"[{""page_index"":0,""viewing_time"":13436.700000047684}]",13437,"","","","","","",NA,NA,"",NA,NA,NA,NA,NA,NA,"",NA,"",NA
"93","","survey-multi-choice",9,202711,"0.0-9.0",NA,302,"142,97,43,209,245,209,50,163,57,87,91,141,175,183,132,44,100,97,78,86,188,243,213,171,101,160,188,75,52,50,148,7",151,"66a0b3911f23dfc7665bb169","665cb15c8534afbb16c0633f","66a100b96141402dcc237677",1,0,0,"false",3,58,"",26317.7000000477,"{""Q0"":""...players' leaderboard position (in terms of <b>points</b>) in an <b>upcoming tournament.</b>""}","[0]","true","multichoice_tournament","","",NA,NA,"",NA,NA,NA,NA,NA,NA,"",NA,"",NA
"94","","instructions",10,214262,"0.0-11.0",NA,302,"142,97,43,209,245,209,50,163,57,87,91,141,175,183,132,44,100,97,78,86,188,243,213,171,101,160,188,75,52,50,148,7",151,"66a0b3911f23dfc7665bb169","665cb15c8534afbb16c0633f","66a100b96141402dcc237677",1,0,0,"false",3,58,"[{""page_index"":0,""viewing_time"":11550.199999809265}]",11550.3999998569,"","","","","","",NA,NA,"",NA,NA,NA,NA,NA,NA,"",NA,"",NA
"95","","instructions",11,226088,"0.0-12.0-0.0",NA,302,"142,97,43,209,245,209,50,163,57,87,91,141,175,183,132,44,100,97,78,86,188,243,213,171,101,160,188,75,52,50,148,7",151,"66a0b3911f23dfc7665bb169","665cb15c8534afbb16c0633f","66a100b96141402dcc237677",1,0,0,"false",3,58,"[{""page_index"":0,""viewing_time"":11825}]",11825.1999998093,"","","","","","",NA,NA,"",NA,NA,NA,NA,NA,NA,"",NA,"",NA
"96","","Hangman_replay",12,252520,"0.0-12.0-1.0",NA,302,"142,97,43,209,245,209,50,163,57,87,91,141,175,183,132,44,100,97,78,86,188,243,213,171,101,160,188,75,52,50,148,7",151,"66a0b3911f23dfc7665bb169","665cb15c8534afbb16c0633f","66a100b96141402dcc237677",1,0,0,"false",3,58,"",NA,"","","","","NECTARINE","O,A,I,M,N,R,E,C,T",9,13,"false",NA,NA,NA,NA,NA,NA,"",NA,"",NA
"97","","instructions",13,258092,"0.0-12.0-2.0",NA,302,"142,97,43,209,245,209,50,163,57,87,91,141,175,183,132,44,100,97,78,86,188,243,213,171,101,160,188,75,52,50,148,7",151,"66a0b3911f23dfc7665bb169","665cb15c8534afbb16c0633f","66a100b96141402dcc237677",1,0,0,"false",3,58,"[{""page_index"":0,""viewing_time"":5570.200000047684}]",5570.79999995232,"","","","","","",NA,NA,"",NA,NA,NA,NA,NA,NA,"",NA,"",NA
"98","","Guess_leaderboard",14,270698,"0.0-12.0-3.0",NA,302,"142,97,43,209,245,209,50,163,57,87,91,141,175,183,132,44,100,97,78,86,188,243,213,171,101,160,188,75,52,50,148,7",151,"66a0b3911f23dfc7665bb169","665cb15c8534afbb16c0633f","66a100b96141402dcc237677",1,0,0,"false",3,58,"",NA,"","","","","NECTARINE","",NA,NA,"",11843.3999998569,4,18,0,79,75,"",NA,"",NA
"99","","instructions",15,279508,"0.0-12.0-0.1",NA,302,"142,97,43,209,245,209,50,163,57,87,91,141,175,183,132,44,100,97,78,86,188,243,213,171,101,160,188,75,52,50,148,7",151,"66a0b3911f23dfc7665bb169","665cb15c8534afbb16c0633f","66a100b96141402dcc237677",1,0,0,"false",3,58,"[{""page_index"":0,""viewing_time"":8806.400000095367}]",8806.60000014305,"","","","","","",NA,NA,"",NA,NA,NA,NA,NA,NA,"",NA,"",NA
"100","","Hangman_replay",16,319325,"0.0-12.0-1.1",NA,302,"142,97,43,209,245,209,50,163,57,87,91,141,175,183,132,44,100,97,78,86,188,243,213,171,101,160,188,75,52,50,148,7",151,"66a0b3911f23dfc7665bb169","665cb15c8534afbb16c0633f","66a100b96141402dcc237677",1,0,0,"false",3,58,"",NA,"","","","","THIRTY FOUR","A,E,I,O,U,T,R,F,H,Y",10,13,"false",NA,NA,NA,NA,NA,NA,"",NA,"",NA
"101","","instructions",17,321134,"0.0-12.0-2.1",NA,302,"142,97,43,209,245,209,50,163,57,87,91,141,175,183,132,44,100,97,78,86,188,243,213,171,101,160,188,75,52,50,148,7",151,"66a0b3911f23dfc7665bb169","665cb15c8534afbb16c0633f","66a100b96141402dcc237677",1,0,0,"false",3,58,"[{""page_index"":0,""viewing_time"":1808}]",1808.20000004768,"","","","","","",NA,NA,"",NA,NA,NA,NA,NA,NA,"",NA,"",NA
"102","","Guess_leaderboard",18,328335,"0.0-12.0-3.1",NA,302,"142,97,43,209,245,209,50,163,57,87,91,141,175,183,132,44,100,97,78,86,188,243,213,171,101,160,188,75,52,50,148,7",151,"66a0b3911f23dfc7665bb169","665cb15c8534afbb16c0633f","66a100b96141402dcc237677",1,0,0,"false",3,58,"",NA,"","","","","THIRTY FOUR","",NA,NA,"",6442.5,4,99,1,80,76,"",NA,"",NA
"103","","instructions",19,331615,"0.0-12.0-0.2",NA,302,"142,97,43,209,245,209,50,163,57,87,91,141,175,183,132,44,100,97,78,86,188,243,213,171,101,160,188,75,52,50,148,7",151,"66a0b3911f23dfc7665bb169","665cb15c8534afbb16c0633f","66a100b96141402dcc237677",1,0,0,"false",3,58,"[{""page_index"":0,""viewing_time"":3279.100000143051}]",3279.29999995232,"","","","","","",NA,NA,"",NA,NA,NA,NA,NA,NA,"",NA,"",NA
"104","","Hangman_replay",20,382062,"0.0-12.0-1.2",NA,302,"142,97,43,209,245,209,50,163,57,87,91,141,175,183,132,44,100,97,78,86,188,243,213,171,101,160,188,75,52,50,148,7",151,"66a0b3911f23dfc7665bb169","665cb15c8534afbb16c0633f","66a100b96141402dcc237677",1,0,0,"false",3,58,"",NA,"","","","","USAIN BOLT","A,E,O,S,I,U,N,B,L,T",10,14,"false",NA,NA,NA,NA,NA,NA,"",NA,"",NA
"105","","instructions",21,383980,"0.0-12.0-2.2",NA,302,"142,97,43,209,245,209,50,163,57,87,91,141,175,183,132,44,100,97,78,86,188,243,213,171,101,160,188,75,52,50,148,7",151,"66a0b3911f23dfc7665bb169","665cb15c8534afbb16c0633f","66a100b96141402dcc237677",1,0,0,"false",3,58,"[{""page_index"":0,""viewing_time"":1916.5}]",1916.70000004768,"","","","","","",NA,NA,"",NA,NA,NA,NA,NA,NA,"",NA,"",NA
"106","","Guess_leaderboard",22,386955,"0.0-12.0-3.2",NA,302,"142,97,43,209,245,209,50,163,57,87,91,141,175,183,132,44,100,97,78,86,188,243,213,171,101,160,188,75,52,50,148,7",151,"66a0b3911f23dfc7665bb169","665cb15c8534afbb16c0633f","66a100b96141402dcc237677",1,0,0,"false",3,58,"",NA,"","","","","USAIN BOLT","",NA,NA,"",2218,2,11,2,19,17,"",NA,"",NA
"107","","instructions",23,395433,"0.0-12.0-0.3",NA,302,"142,97,43,209,245,209,50,163,57,87,91,141,175,183,132,44,100,97,78,86,188,243,213,171,101,160,188,75,52,50,148,7",151,"66a0b3911f23dfc7665bb169","665cb15c8534afbb16c0633f","66a100b96141402dcc237677",1,0,0,"false",3,58,"[{""page_index"":0,""viewing_time"":8477.300000190735}]",8477.5,"","","","","","",NA,NA,"",NA,NA,NA,NA,NA,NA,"",NA,"",NA
"108","","Hangman_replay",24,415029,"0.0-12.0-1.3",NA,302,"142,97,43,209,245,209,50,163,57,87,91,141,175,183,132,44,100,97,78,86,188,243,213,171,101,160,188,75,52,50,148,7",151,"66a0b3911f23dfc7665bb169","665cb15c8534afbb16c0633f","66a100b96141402dcc237677",1,0,0,"false",3,58,"",NA,"","","","","HAWAII","A,H,W,I",4,15,"false",NA,NA,NA,NA,NA,NA,"",NA,"",NA
"109","","instructions",25,416746,"0.0-12.0-2.3",NA,302,"142,97,43,209,245,209,50,163,57,87,91,141,175,183,132,44,100,97,78,86,188,243,213,171,101,160,188,75,52,50,148,7",151,"66a0b3911f23dfc7665bb169","665cb15c8534afbb16c0633f","66a100b96141402dcc237677",1,0,0,"false",3,58,"[{""page_index"":0,""viewing_time"":1716.0999999046326}]",1716.29999995232,"","","","","","",NA,NA,"",NA,NA,NA,NA,NA,NA,"",NA,"",NA
"110","","Guess_leaderboard",26,418491,"0.0-12.0-3.3",NA,302,"142,97,43,209,245,209,50,163,57,87,91,141,175,183,132,44,100,97,78,86,188,243,213,171,101,160,188,75,52,50,148,7",151,"66a0b3911f23dfc7665bb169","665cb15c8534afbb16c0633f","66a100b96141402dcc237677",1,0,0,"false",3,58,"",NA,"","","","","HAWAII","",NA,NA,"",987.5,1,1,3,66,65,"",NA,"",NA
"111","","instructions",27,419996,"0.0-12.0-0.4",NA,302,"142,97,43,209,245,209,50,163,57,87,91,141,175,183,132,44,100,97,78,86,188,243,213,171,101,160,188,75,52,50,148,7",151,"66a0b3911f23dfc7665bb169","665cb15c8534afbb16c0633f","66a100b96141402dcc237677",1,0,0,"false",3,58,"[{""page_index"":0,""viewing_time"":1503}]",1503.29999995232,"","","","","","",NA,NA,"",NA,NA,NA,NA,NA,NA,"",NA,"",NA
"112","","Hangman_replay",28,493517,"0.0-12.0-1.4",NA,302,"142,97,43,209,245,209,50,163,57,87,91,141,175,183,132,44,100,97,78,86,188,243,213,171,101,160,188,75,52,50,148,7",151,"66a0b3911f23dfc7665bb169","665cb15c8534afbb16c0633f","66a100b96141402dcc237677",1,0,0,"false",3,58,"",NA,"","","","","WRIST","H,C,S,T,I,W,R",7,13,"false",NA,NA,NA,NA,NA,NA,"",NA,"",NA
"113","","instructions",29,495796,"0.0-12.0-2.4",NA,302,"142,97,43,209,245,209,50,163,57,87,91,141,175,183,132,44,100,97,78,86,188,243,213,171,101,160,188,75,52,50,148,7",151,"66a0b3911f23dfc7665bb169","665cb15c8534afbb16c0633f","66a100b96141402dcc237677",1,0,0,"false",3,58,"[{""page_index"":0,""viewing_time"":2277.5}]",2277.69999980927,"","","","","","",NA,NA,"",NA,NA,NA,NA,NA,NA,"",NA,"",NA
"114","","Guess_leaderboard",30,498963,"0.0-12.0-3.4",NA,302,"142,97,43,209,245,209,50,163,57,87,91,141,175,183,132,44,100,97,78,86,188,243,213,171,101,160,188,75,52,50,148,7",151,"66a0b3911f23dfc7665bb169","665cb15c8534afbb16c0633f","66a100b96141402dcc237677",1,0,0,"false",3,58,"",NA,"","","","","WRIST","",NA,NA,"",2407.09999990463,33,77,4,19,14,"",NA,"",NA
"115","","survey-text",31,507282,"0.0-13.0",NA,302,"142,97,43,209,245,209,50,163,57,87,91,141,175,183,132,44,100,97,78,86,188,243,213,171,101,160,188,75,52,50,148,7",151,"66a0b3911f23dfc7665bb169","665cb15c8534afbb16c0633f","66a100b96141402dcc237677",1,0,0,"false",3,58,"",8315,"{""Q0"":""wrist""}","","","","","",NA,NA,"",NA,NA,NA,NA,NA,NA,"wrist",NA,"",NA
"116","","survey-multi-choice",32,516168,"0.0-14.0",NA,302,"142,97,43,209,245,209,50,163,57,87,91,141,175,183,132,44,100,97,78,86,188,243,213,171,101,160,188,75,52,50,148,7",151,"66a0b3911f23dfc7665bb169","665cb15c8534afbb16c0633f","66a100b96141402dcc237677",1,0,0,"false",3,58,"",8884.60000014305,"{""Q0"":""3. I would be <b>third</b> out of the six of us.""}","[0]","","self-rating","","",NA,NA,"",NA,3,NA,NA,NA,NA,"",NA,"",NA
"117","","html-slider-response",33,522700,"0.0-15.0",NA,302,"142,97,43,209,245,209,50,163,57,87,91,141,175,183,132,44,100,97,78,86,188,243,213,171,101,160,188,75,52,50,148,7",151,"66a0b3911f23dfc7665bb169","665cb15c8534afbb16c0633f","66a100b96141402dcc237677",1,0,0,"false",3,58,"",6530,"","","","","","",NA,NA,"",NA,NA,NA,NA,NA,NA,"","58","<p>Overall, how confident were you in your answer to this last question?</p>",58
"118","","survey-text",34,594328,"0.0-16.0",NA,302,"142,97,43,209,245,209,50,163,57,87,91,141,175,183,132,44,100,97,78,86,188,243,213,171,101,160,188,75,52,50,148,7",151,"66a0b3911f23dfc7665bb169","665cb15c8534afbb16c0633f","66a100b96141402dcc237677",1,0,0,"false",3,58,"",71625.6000001431,"{""Q0"":""You're trying to see based on the players selection of letters, if I can predict who would be the better player.""}","","","","","",NA,NA,"",NA,NA,NA,NA,NA,NA,"",NA,"",NA
"119","","survey-text",35,596212,"0.0-17.0",NA,302,"142,97,43,209,245,209,50,163,57,87,91,141,175,183,132,44,100,97,78,86,188,243,213,171,101,160,188,75,52,50,148,7",151,"66a0b3911f23dfc7665bb169","665cb15c8534afbb16c0633f","66a100b96141402dcc237677",1,0,0,"false",3,58,"",1882.30000019073,"{""Q0"":""""}","","","","","",NA,NA,"",NA,NA,NA,NA,NA,NA,"",NA,"",NA
"120","","instructions",36,598708,"0.0-18.0",NA,302,"142,97,43,209,245,209,50,163,57,87,91,141,175,183,132,44,100,97,78,86,188,243,213,171,101,160,188,75,52,50,148,7",151,"66a0b3911f23dfc7665bb169","665cb15c8534afbb16c0633f","66a100b96141402dcc237677",1,0,0,"false",3,58,"[{""page_index"":0,""viewing_time"":2495.199999809265}]",2495.5,"","","","","","",NA,NA,"",NA,NA,NA,NA,NA,NA,"",NA,"",NA
"121","true","fullscreen",0,3714,"0.0-0.0",NA,303,"142,97,43,209,245,209,50,163,57,87,91,141,175,183,132,44,100,97,78,86,188,243,213,171,101,160,188,75,52,50,148,7",151,"66a0b3911f23dfc7665bb169","663f61d2cf3a8a2d551183d7","66a103502b2ec54e3f9249dc",1,0,0,"true",2,76,"",NA,"","","","","","",NA,NA,"",NA,NA,NA,NA,NA,NA,"","","",NA
"122","","instructions",1,8781,"0.0-1.0",NA,303,"142,97,43,209,245,209,50,163,57,87,91,141,175,183,132,44,100,97,78,86,188,243,213,171,101,160,188,75,52,50,148,7",151,"66a0b3911f23dfc7665bb169","663f61d2cf3a8a2d551183d7","66a103502b2ec54e3f9249dc",1,0,0,"true",2,76,"[{""page_index"":0,""viewing_time"":5066.5}]",5066.79999995232,"","","","","","",NA,NA,"",NA,NA,NA,NA,NA,NA,"","","",NA
"123","","instructions",2,21978,"0.0-2.0-0.0",NA,303,"142,97,43,209,245,209,50,163,57,87,91,141,175,183,132,44,100,97,78,86,188,243,213,171,101,160,188,75,52,50,148,7",151,"66a0b3911f23dfc7665bb169","663f61d2cf3a8a2d551183d7","66a103502b2ec54e3f9249dc",1,0,0,"true",2,76,"[{""page_index"":0,""viewing_time"":13195.5}]",13195.7999999523,"","","","","","",NA,NA,"",NA,NA,NA,NA,NA,NA,"","","",NA
"124","","survey-multi-choice",3,28144,"0.0-2.0-1.0",NA,303,"142,97,43,209,245,209,50,163,57,87,91,141,175,183,132,44,100,97,78,86,188,243,213,171,101,160,188,75,52,50,148,7",151,"66a0b3911f23dfc7665bb169","663f61d2cf3a8a2d551183d7","66a103502b2ec54e3f9249dc",1,0,0,"true",2,76,"",6164.79999995232,"{""Q0"":""... reveal the word with as <b>few letter guesses</b> as possible""}","[0]","true","multichoice_nonpretend","","",NA,NA,"",NA,NA,NA,NA,NA,NA,"","","",NA
"125","","instructions",4,29718,"0.0-3.0",NA,303,"142,97,43,209,245,209,50,163,57,87,91,141,175,183,132,44,100,97,78,86,188,243,213,171,101,160,188,75,52,50,148,7",151,"66a0b3911f23dfc7665bb169","663f61d2cf3a8a2d551183d7","66a103502b2ec54e3f9249dc",1,0,0,"true",2,76,"[{""page_index"":0,""viewing_time"":1573}]",1573.20000004768,"","","","","","",NA,NA,"",NA,NA,NA,NA,NA,NA,"","","",NA
"126","","Hangman",5,51027,"0.0-4.0",NA,303,"142,97,43,209,245,209,50,163,57,87,91,141,175,183,132,44,100,97,78,86,188,243,213,171,101,160,188,75,52,50,148,7",151,"66a0b3911f23dfc7665bb169","663f61d2cf3a8a2d551183d7","66a103502b2ec54e3f9249dc",1,0,0,"true",2,76,"",NA,"","","","","ZEBRA","D,A,S,R,B,O,E,Z",8,12,"false",NA,NA,NA,NA,NA,NA,"","","",NA
"127","","instructions",6,78075,"0.0-5.0",NA,303,"142,97,43,209,245,209,50,163,57,87,91,141,175,183,132,44,100,97,78,86,188,243,213,171,101,160,188,75,52,50,148,7",151,"66a0b3911f23dfc7665bb169","663f61d2cf3a8a2d551183d7","66a103502b2ec54e3f9249dc",1,0,0,"true",2,76,"[{""page_index"":0,""viewing_time"":2549.4000000953674},{""page_index"":1,""viewing_time"":24497}]",27047.0999999046,"","","","","","",NA,NA,"",NA,NA,NA,NA,NA,NA,"","","",NA
"128","","survey-multi-choice",7,88124,"0.0-6.0",NA,303,"142,97,43,209,245,209,50,163,57,87,91,141,175,183,132,44,100,97,78,86,188,243,213,171,101,160,188,75,52,50,148,7",151,"66a0b3911f23dfc7665bb169","663f61d2cf3a8a2d551183d7","66a103502b2ec54e3f9249dc",1,0,0,"true",2,76,"",10048,"{""Q0"":""...from <b>a previous session</b> that is part of the upcoming tournament.""}","[0]","false","multichoice_leaderboard","","",NA,NA,"",NA,NA,NA,NA,NA,NA,"","","",NA
"129","","instructions",8,90084,"0.0-7.0-0.0",NA,303,"142,97,43,209,245,209,50,163,57,87,91,141,175,183,132,44,100,97,78,86,188,243,213,171,101,160,188,75,52,50,148,7",151,"66a0b3911f23dfc7665bb169","663f61d2cf3a8a2d551183d7","66a103502b2ec54e3f9249dc",1,0,0,"true",2,76,"[{""page_index"":0,""viewing_time"":1959}]",1959.20000004768,"","","","","","",NA,NA,"",NA,NA,NA,NA,NA,NA,"","","",NA
"130","","survey-multi-choice",9,95632,"0.0-7.0-1.0",NA,303,"142,97,43,209,245,209,50,163,57,87,91,141,175,183,132,44,100,97,78,86,188,243,213,171,101,160,188,75,52,50,148,7",151,"66a0b3911f23dfc7665bb169","663f61d2cf3a8a2d551183d7","66a103502b2ec54e3f9249dc",1,0,0,"true",2,76,"",5547.29999995232,"{""Q0"":""...from <b>a previous session</b> that is not part of the upcoming tournament.""}","[0]","true","multichoice_leaderboard","","",NA,NA,"",NA,NA,NA,NA,NA,NA,"","","",NA
"131","","instructions",10,115606,"0.0-8.0",NA,303,"142,97,43,209,245,209,50,163,57,87,91,141,175,183,132,44,100,97,78,86,188,243,213,171,101,160,188,75,52,50,148,7",151,"66a0b3911f23dfc7665bb169","663f61d2cf3a8a2d551183d7","66a103502b2ec54e3f9249dc",1,0,0,"true",2,76,"[{""page_index"":0,""viewing_time"":19972.299999952316}]",19972.5,"","","","","","",NA,NA,"",NA,NA,NA,NA,NA,NA,"","","",NA
"132","","survey-multi-choice",11,121715,"0.0-9.0",NA,303,"142,97,43,209,245,209,50,163,57,87,91,141,175,183,132,44,100,97,78,86,188,243,213,171,101,160,188,75,52,50,148,7",151,"66a0b3911f23dfc7665bb169","663f61d2cf3a8a2d551183d7","66a103502b2ec54e3f9249dc",1,0,0,"true",2,76,"",6108.5,"{""Q0"":""...players' leaderboard position (in terms of <b>points</b>) in an <b>upcoming tournament.</b>""}","[0]","true","multichoice_tournament","","",NA,NA,"",NA,NA,NA,NA,NA,NA,"","","",NA
"133","","instructions",12,128613,"0.0-11.0",NA,303,"142,97,43,209,245,209,50,163,57,87,91,141,175,183,132,44,100,97,78,86,188,243,213,171,101,160,188,75,52,50,148,7",151,"66a0b3911f23dfc7665bb169","663f61d2cf3a8a2d551183d7","66a103502b2ec54e3f9249dc",1,0,0,"true",2,76,"[{""page_index"":0,""viewing_time"":6896.699999809265}]",6897,"","","","","","",NA,NA,"",NA,NA,NA,NA,NA,NA,"","","",NA
"134","","instructions",13,148972,"0.0-12.0-0.0",NA,303,"142,97,43,209,245,209,50,163,57,87,91,141,175,183,132,44,100,97,78,86,188,243,213,171,101,160,188,75,52,50,148,7",151,"66a0b3911f23dfc7665bb169","663f61d2cf3a8a2d551183d7","66a103502b2ec54e3f9249dc",1,0,0,"true",2,76,"[{""page_index"":0,""viewing_time"":20359.099999904633}]",20359.2999999523,"","","","","","",NA,NA,"",NA,NA,NA,NA,NA,NA,"","","",NA
"135","","type-this",14,156144,"0.0-12.0-1.0",NA,303,"142,97,43,209,245,209,50,163,57,87,91,141,175,183,132,44,100,97,78,86,188,243,213,171,101,160,188,75,52,50,148,7",151,"66a0b3911f23dfc7665bb169","663f61d2cf3a8a2d551183d7","66a103502b2ec54e3f9249dc",1,0,0,"true",2,76,"",6668.70000004768,"NECTARINE","","","","","",NA,NA,"",NA,NA,NA,NA,NA,NA,"","NECTARINE","",NA
"136","","Hangman_replay",15,182599,"0.0-12.0-2.0",NA,303,"142,97,43,209,245,209,50,163,57,87,91,141,175,183,132,44,100,97,78,86,188,243,213,171,101,160,188,75,52,50,148,7",151,"66a0b3911f23dfc7665bb169","663f61d2cf3a8a2d551183d7","66a103502b2ec54e3f9249dc",1,0,0,"true",2,76,"",NA,"","","","","NECTARINE","O,A,I,M,N,R,E,C,T",9,13,"false",NA,NA,NA,NA,NA,NA,"","","",NA
"137","","instructions",16,186990,"0.0-12.0-3.0",NA,303,"142,97,43,209,245,209,50,163,57,87,91,141,175,183,132,44,100,97,78,86,188,243,213,171,101,160,188,75,52,50,148,7",151,"66a0b3911f23dfc7665bb169","663f61d2cf3a8a2d551183d7","66a103502b2ec54e3f9249dc",1,0,0,"true",2,76,"[{""page_index"":0,""viewing_time"":4389.400000095367}]",4389.80000019073,"","","","","","",NA,NA,"",NA,NA,NA,NA,NA,NA,"","","",NA
"138","","Guess_leaderboard",17,206362,"0.0-12.0-4.0",NA,303,"142,97,43,209,245,209,50,163,57,87,91,141,175,183,132,44,100,97,78,86,188,243,213,171,101,160,188,75,52,50,148,7",151,"66a0b3911f23dfc7665bb169","663f61d2cf3a8a2d551183d7","66a103502b2ec54e3f9249dc",1,0,0,"true",2,76,"",NA,"","","","","NECTARINE","",NA,NA,"",18608.2999999523,19,18,0,79,60,"","","",NA
"139","","instructions",18,214934,"0.0-12.0-0.1",NA,303,"142,97,43,209,245,209,50,163,57,87,91,141,175,183,132,44,100,97,78,86,188,243,213,171,101,160,188,75,52,50,148,7",151,"66a0b3911f23dfc7665bb169","663f61d2cf3a8a2d551183d7","66a103502b2ec54e3f9249dc",1,0,0,"true",2,76,"[{""page_index"":0,""viewing_time"":8570.5}]",8570.80000019073,"","","","","","",NA,NA,"",NA,NA,NA,NA,NA,NA,"","","",NA
"140","","type-this",19,222968,"0.0-12.0-1.1",NA,303,"142,97,43,209,245,209,50,163,57,87,91,141,175,183,132,44,100,97,78,86,188,243,213,171,101,160,188,75,52,50,148,7",151,"66a0b3911f23dfc7665bb169","663f61d2cf3a8a2d551183d7","66a103502b2ec54e3f9249dc",1,0,0,"true",2,76,"",7530.79999995232,"THIRTY FOUR","","","","","",NA,NA,"",NA,NA,NA,NA,NA,NA,"","THIRTY FOUR","",NA
"141","","Hangman_replay",20,262768,"0.0-12.0-2.1",NA,303,"142,97,43,209,245,209,50,163,57,87,91,141,175,183,132,44,100,97,78,86,188,243,213,171,101,160,188,75,52,50,148,7",151,"66a0b3911f23dfc7665bb169","663f61d2cf3a8a2d551183d7","66a103502b2ec54e3f9249dc",1,0,0,"true",2,76,"",NA,"","","","","THIRTY FOUR","A,E,I,O,U,T,R,F,H,Y",10,13,"false",NA,NA,NA,NA,NA,NA,"","","",NA
"142","","instructions",21,265099,"0.0-12.0-3.1",NA,303,"142,97,43,209,245,209,50,163,57,87,91,141,175,183,132,44,100,97,78,86,188,243,213,171,101,160,188,75,52,50,148,7",151,"66a0b3911f23dfc7665bb169","663f61d2cf3a8a2d551183d7","66a103502b2ec54e3f9249dc",1,0,0,"true",2,76,"[{""page_index"":0,""viewing_time"":2330.2000000476837}]",2330.40000009537,"","","","","","",NA,NA,"",NA,NA,NA,NA,NA,NA,"","","",NA
"143","","Guess_leaderboard",22,269646,"0.0-12.0-4.1",NA,303,"142,97,43,209,245,209,50,163,57,87,91,141,175,183,132,44,100,97,78,86,188,243,213,171,101,160,188,75,52,50,148,7",151,"66a0b3911f23dfc7665bb169","663f61d2cf3a8a2d551183d7","66a103502b2ec54e3f9249dc",1,0,0,"true",2,76,"",NA,"","","","","THIRTY FOUR","",NA,NA,"",3787.40000009537,35,99,1,80,45,"","","",NA
"144","","instructions",23,277027,"0.0-12.0-0.2",NA,303,"142,97,43,209,245,209,50,163,57,87,91,141,175,183,132,44,100,97,78,86,188,243,213,171,101,160,188,75,52,50,148,7",151,"66a0b3911f23dfc7665bb169","663f61d2cf3a8a2d551183d7","66a103502b2ec54e3f9249dc",1,0,0,"true",2,76,"[{""page_index"":0,""viewing_time"":7379.600000143051}]",7379.80000019073,"","","","","","",NA,NA,"",NA,NA,NA,NA,NA,NA,"","","",NA
"145","","type-this",24,283232,"0.0-12.0-1.2",NA,303,"142,97,43,209,245,209,50,163,57,87,91,141,175,183,132,44,100,97,78,86,188,243,213,171,101,160,188,75,52,50,148,7",151,"66a0b3911f23dfc7665bb169","663f61d2cf3a8a2d551183d7","66a103502b2ec54e3f9249dc",1,0,0,"true",2,76,"",5702.70000004768,"USAIN BOLT","","","","","",NA,NA,"",NA,NA,NA,NA,NA,NA,"","USAIN BOLT","",NA
"146","","Hangman_replay",25,333668,"0.0-12.0-2.2",NA,303,"142,97,43,209,245,209,50,163,57,87,91,141,175,183,132,44,100,97,78,86,188,243,213,171,101,160,188,75,52,50,148,7",151,"66a0b3911f23dfc7665bb169","663f61d2cf3a8a2d551183d7","66a103502b2ec54e3f9249dc",1,0,0,"true",2,76,"",NA,"","","","","USAIN BOLT","A,E,O,S,I,U,N,B,L,T",10,14,"false",NA,NA,NA,NA,NA,NA,"","","",NA
"147","","instructions",26,335787,"0.0-12.0-3.2",NA,303,"142,97,43,209,245,209,50,163,57,87,91,141,175,183,132,44,100,97,78,86,188,243,213,171,101,160,188,75,52,50,148,7",151,"66a0b3911f23dfc7665bb169","663f61d2cf3a8a2d551183d7","66a103502b2ec54e3f9249dc",1,0,0,"true",2,76,"[{""page_index"":0,""viewing_time"":2117.9000000953674}]",2118.10000014305,"","","","","","",NA,NA,"",NA,NA,NA,NA,NA,NA,"","","",NA
"148","","Guess_leaderboard",27,344415,"0.0-12.0-4.2",NA,303,"142,97,43,209,245,209,50,163,57,87,91,141,175,183,132,44,100,97,78,86,188,243,213,171,101,160,188,75,52,50,148,7",151,"66a0b3911f23dfc7665bb169","663f61d2cf3a8a2d551183d7","66a103502b2ec54e3f9249dc",1,0,0,"true",2,76,"",NA,"","","","","USAIN BOLT","",NA,NA,"",7870.59999990463,22,11,2,19,3,"","","",NA
"149","","instructions",28,348278,"0.0-12.0-0.3",NA,303,"142,97,43,209,245,209,50,163,57,87,91,141,175,183,132,44,100,97,78,86,188,243,213,171,101,160,188,75,52,50,148,7",151,"66a0b3911f23dfc7665bb169","663f61d2cf3a8a2d551183d7","66a103502b2ec54e3f9249dc",1,0,0,"true",2,76,"[{""page_index"":0,""viewing_time"":3861.5}]",3861.79999995232,"","","","","","",NA,NA,"",NA,NA,NA,NA,NA,NA,"","","",NA
"150","","type-this",29,352385,"0.0-12.0-1.3",NA,303,"142,97,43,209,245,209,50,163,57,87,91,141,175,183,132,44,100,97,78,86,188,243,213,171,101,160,188,75,52,50,148,7",151,"66a0b3911f23dfc7665bb169","663f61d2cf3a8a2d551183d7","66a103502b2ec54e3f9249dc",1,0,0,"true",2,76,"",3604.09999990463,"HAWAII","","","","","",NA,NA,"",NA,NA,NA,NA,NA,NA,"","HAWAII","",NA
"151","","Hangman_replay",30,371998,"0.0-12.0-2.3",NA,303,"142,97,43,209,245,209,50,163,57,87,91,141,175,183,132,44,100,97,78,86,188,243,213,171,101,160,188,75,52,50,148,7",151,"66a0b3911f23dfc7665bb169","663f61d2cf3a8a2d551183d7","66a103502b2ec54e3f9249dc",1,0,0,"true",2,76,"",NA,"","","","","HAWAII","A,H,W,I",4,15,"false",NA,NA,NA,NA,NA,NA,"","","",NA
"152","","instructions",31,373159,"0.0-12.0-3.3",NA,303,"142,97,43,209,245,209,50,163,57,87,91,141,175,183,132,44,100,97,78,86,188,243,213,171,101,160,188,75,52,50,148,7",151,"66a0b3911f23dfc7665bb169","663f61d2cf3a8a2d551183d7","66a103502b2ec54e3f9249dc",1,0,0,"true",2,76,"[{""page_index"":0,""viewing_time"":1160}]",1160.20000004768,"","","","","","",NA,NA,"",NA,NA,NA,NA,NA,NA,"","","",NA
"153","","Guess_leaderboard",32,378764,"0.0-12.0-4.3",NA,303,"142,97,43,209,245,209,50,163,57,87,91,141,175,183,132,44,100,97,78,86,188,243,213,171,101,160,188,75,52,50,148,7",151,"66a0b3911f23dfc7665bb169","663f61d2cf3a8a2d551183d7","66a103502b2ec54e3f9249dc",1,0,0,"true",2,76,"",NA,"","","","","HAWAII","",NA,NA,"",4849.29999995232,4,1,3,66,62,"","","",NA
"154","","instructions",33,381576,"0.0-12.0-0.4",NA,303,"142,97,43,209,245,209,50,163,57,87,91,141,175,183,132,44,100,97,78,86,188,243,213,171,101,160,188,75,52,50,148,7",151,"66a0b3911f23dfc7665bb169","663f61d2cf3a8a2d551183d7","66a103502b2ec54e3f9249dc",1,0,0,"true",2,76,"[{""page_index"":0,""viewing_time"":2810.9000000953674}]",2811.20000004768,"","","","","","",NA,NA,"",NA,NA,NA,NA,NA,NA,"","","",NA
"155","","type-this",34,386739,"0.0-12.0-1.4",NA,303,"142,97,43,209,245,209,50,163,57,87,91,141,175,183,132,44,100,97,78,86,188,243,213,171,101,160,188,75,52,50,148,7",151,"66a0b3911f23dfc7665bb169","663f61d2cf3a8a2d551183d7","66a103502b2ec54e3f9249dc",1,0,0,"true",2,76,"",4660.69999980927,"WRIST","","","","","",NA,NA,"",NA,NA,NA,NA,NA,NA,"","WRIST","",NA
"156","","Hangman_replay",35,460267,"0.0-12.0-2.4",NA,303,"142,97,43,209,245,209,50,163,57,87,91,141,175,183,132,44,100,97,78,86,188,243,213,171,101,160,188,75,52,50,148,7",151,"66a0b3911f23dfc7665bb169","663f61d2cf3a8a2d551183d7","66a103502b2ec54e3f9249dc",1,0,0,"true",2,76,"",NA,"","","","","WRIST","H,C,S,T,I,W,R",7,13,"false",NA,NA,NA,NA,NA,NA,"","","",NA
"157","","instructions",36,472760,"0.0-12.0-3.4",NA,303,"142,97,43,209,245,209,50,163,57,87,91,141,175,183,132,44,100,97,78,86,188,243,213,171,101,160,188,75,52,50,148,7",151,"66a0b3911f23dfc7665bb169","663f61d2cf3a8a2d551183d7","66a103502b2ec54e3f9249dc",1,0,0,"true",2,76,"[{""page_index"":0,""viewing_time"":12490.900000095367}]",12491.9000000954,"","","","","","",NA,NA,"",NA,NA,NA,NA,NA,NA,"","","",NA
"158","","Guess_leaderboard",37,476517,"0.0-12.0-4.4",NA,303,"142,97,43,209,245,209,50,163,57,87,91,141,175,183,132,44,100,97,78,86,188,243,213,171,101,160,188,75,52,50,148,7",151,"66a0b3911f23dfc7665bb169","663f61d2cf3a8a2d551183d7","66a103502b2ec54e3f9249dc",1,0,0,"true",2,76,"",NA,"","","","","WRIST","",NA,NA,"",2990.70000004768,58,77,4,19,39,"","","",NA
"159","","survey-text",38,482249,"0.0-13.0",NA,303,"142,97,43,209,245,209,50,163,57,87,91,141,175,183,132,44,100,97,78,86,188,243,213,171,101,160,188,75,52,50,148,7",151,"66a0b3911f23dfc7665bb169","663f61d2cf3a8a2d551183d7","66a103502b2ec54e3f9249dc",1,0,0,"true",2,76,"",5725.70000004768,"{""Q0"":""WRIST""}","","","","","",NA,NA,"",NA,NA,NA,NA,NA,NA,"wrist","","",NA
"160","","survey-multi-choice",39,492482,"0.0-14.0",NA,303,"142,97,43,209,245,209,50,163,57,87,91,141,175,183,132,44,100,97,78,86,188,243,213,171,101,160,188,75,52,50,148,7",151,"66a0b3911f23dfc7665bb169","663f61d2cf3a8a2d551183d7","66a103502b2ec54e3f9249dc",1,0,0,"true",2,76,"",10231.2999999523,"{""Q0"":""2. I would be <b>second</b> out of the six of us.""}","[0]","","self-rating","","",NA,NA,"",NA,2,NA,NA,NA,NA,"","","",NA
"161","","html-slider-response",40,496864,"0.0-15.0",NA,303,"142,97,43,209,245,209,50,163,57,87,91,141,175,183,132,44,100,97,78,86,188,243,213,171,101,160,188,75,52,50,148,7",151,"66a0b3911f23dfc7665bb169","663f61d2cf3a8a2d551183d7","66a103502b2ec54e3f9249dc",1,0,0,"true",2,76,"",4380.5,"","","","","","",NA,NA,"",NA,NA,NA,NA,NA,NA,"","76","<p>Overall, how confident were you in your answer to this last question?</p>",76
"162","","survey-text",41,557879,"0.0-16.0",NA,303,"142,97,43,209,245,209,50,163,57,87,91,141,175,183,132,44,100,97,78,86,188,243,213,171,101,160,188,75,52,50,148,7",151,"66a0b3911f23dfc7665bb169","663f61d2cf3a8a2d551183d7","66a103502b2ec54e3f9249dc",1,0,0,"true",2,76,"",61014.2000000477,"{""Q0"":""How accurately participants judge their own skill at a specific task versus others, and how accurately we judge others against themselves (and not ourselves). ""}","","","","","",NA,NA,"",NA,NA,NA,NA,NA,NA,"","","",NA
"163","","survey-text",42,580087,"0.0-17.0",NA,303,"142,97,43,209,245,209,50,163,57,87,91,141,175,183,132,44,100,97,78,86,188,243,213,171,101,160,188,75,52,50,148,7",151,"66a0b3911f23dfc7665bb169","663f61d2cf3a8a2d551183d7","66a103502b2ec54e3f9249dc",1,0,0,"true",2,76,"",22206.6000001431,"{""Q0"":""Not that I can think of :) But I want to be a part of the next Hangman tournament ;)""}","","","","","",NA,NA,"",NA,NA,NA,NA,NA,NA,"","","",NA
"164","","instructions",43,603584,"0.0-18.0",NA,303,"142,97,43,209,245,209,50,163,57,87,91,141,175,183,132,44,100,97,78,86,188,243,213,171,101,160,188,75,52,50,148,7",151,"66a0b3911f23dfc7665bb169","663f61d2cf3a8a2d551183d7","66a103502b2ec54e3f9249dc",1,0,0,"true",2,76,"[{""page_index"":0,""viewing_time"":23494.900000095367}]",23495.4000000954,"","","","","","",NA,NA,"",NA,NA,NA,NA,NA,NA,"","","",NA
"165","true","fullscreen",0,3293,"0.0-0.0",NA,304,"4,48,102,218,242,16,149,35,167,73,13,75,250,212,118,109,165,113,153,80,162,181,249,109,25,47,192,83,126,132,243,42",152,"66a0b3911f23dfc7665bb169","65d5cccd58b48e4435f18b34","66a10c38e926c720d450ed0d",1,1,0,"false",3,58,"",NA,"","","","","","",NA,NA,"",NA,NA,NA,NA,NA,NA,"",NA,"",NA
"166","","instructions",1,7784,"0.0-1.0",NA,304,"4,48,102,218,242,16,149,35,167,73,13,75,250,212,118,109,165,113,153,80,162,181,249,109,25,47,192,83,126,132,243,42",152,"66a0b3911f23dfc7665bb169","65d5cccd58b48e4435f18b34","66a10c38e926c720d450ed0d",1,1,0,"false",3,58,"[{""page_index"":0,""viewing_time"":4489.4000000059605}]",4489.60000002384,"","","","","","",NA,NA,"",NA,NA,NA,NA,NA,NA,"",NA,"",NA
"167","","instructions",2,21425,"0.0-2.0-0.0",NA,304,"4,48,102,218,242,16,149,35,167,73,13,75,250,212,118,109,165,113,153,80,162,181,249,109,25,47,192,83,126,132,243,42",152,"66a0b3911f23dfc7665bb169","65d5cccd58b48e4435f18b34","66a10c38e926c720d450ed0d",1,1,0,"false",3,58,"[{""page_index"":0,""viewing_time"":13640.299999982119}]",13640.5,"","","","","","",NA,NA,"",NA,NA,NA,NA,NA,NA,"",NA,"",NA
"168","","survey-multi-choice",3,29029,"0.0-2.0-1.0",NA,304,"4,48,102,218,242,16,149,35,167,73,13,75,250,212,118,109,165,113,153,80,162,181,249,109,25,47,192,83,126,132,243,42",152,"66a0b3911f23dfc7665bb169","65d5cccd58b48e4435f18b34","66a10c38e926c720d450ed0d",1,1,0,"false",3,58,"",7601.40000000596,"{""Q0"":""... reveal the word with as <b>few letter guesses</b> as possible""}","[0]","true","multichoice_nonpretend","","",NA,NA,"",NA,NA,NA,NA,NA,NA,"",NA,"",NA
"169","","instructions",4,30586,"0.0-3.0",NA,304,"4,48,102,218,242,16,149,35,167,73,13,75,250,212,118,109,165,113,153,80,162,181,249,109,25,47,192,83,126,132,243,42",152,"66a0b3911f23dfc7665bb169","65d5cccd58b48e4435f18b34","66a10c38e926c720d450ed0d",1,1,0,"false",3,58,"[{""page_index"":0,""viewing_time"":1555.300000011921}]",1555.5,"","","","","","",NA,NA,"",NA,NA,NA,NA,NA,NA,"",NA,"",NA
"170","","Hangman",5,80914,"0.0-4.0",NA,304,"4,48,102,218,242,16,149,35,167,73,13,75,250,212,118,109,165,113,153,80,162,181,249,109,25,47,192,83,126,132,243,42",152,"66a0b3911f23dfc7665bb169","65d5cccd58b48e4435f18b34","66a10c38e926c720d450ed0d",1,1,0,"false",3,58,"",NA,"","","","","ZEBRA","A,L,M,E,R,T,S,P,D,C,B,Z",12,8,"false",NA,NA,NA,NA,NA,NA,"",NA,"",NA
"171","","instructions",6,96919,"0.0-5.0",NA,304,"4,48,102,218,242,16,149,35,167,73,13,75,250,212,118,109,165,113,153,80,162,181,249,109,25,47,192,83,126,132,243,42",152,"66a0b3911f23dfc7665bb169","65d5cccd58b48e4435f18b34","66a10c38e926c720d450ed0d",1,1,0,"false",3,58,"[{""page_index"":0,""viewing_time"":3753.5},{""page_index"":1,""viewing_time"":12248.300000011921}]",16002.8000000119,"","","","","","",NA,NA,"",NA,NA,NA,NA,NA,NA,"",NA,"",NA
"172","","survey-multi-choice",7,102325,"0.0-6.0",NA,304,"4,48,102,218,242,16,149,35,167,73,13,75,250,212,118,109,165,113,153,80,162,181,249,109,25,47,192,83,126,132,243,42",152,"66a0b3911f23dfc7665bb169","65d5cccd58b48e4435f18b34","66a10c38e926c720d450ed0d",1,1,0,"false",3,58,"",5404.19999998808,"{""Q0"":""...from <b>a previous session</b> that is part of the upcoming tournament.""}","[0]","false","multichoice_leaderboard","","",NA,NA,"",NA,NA,NA,NA,NA,NA,"",NA,"",NA
"173","","instructions",8,103911,"0.0-7.0-0.0",NA,304,"4,48,102,218,242,16,149,35,167,73,13,75,250,212,118,109,165,113,153,80,162,181,249,109,25,47,192,83,126,132,243,42",152,"66a0b3911f23dfc7665bb169","65d5cccd58b48e4435f18b34","66a10c38e926c720d450ed0d",1,1,0,"false",3,58,"[{""page_index"":0,""viewing_time"":1583.9000000059605}]",1584,"","","","","","",NA,NA,"",NA,NA,NA,NA,NA,NA,"",NA,"",NA
"174","","survey-multi-choice",9,115290,"0.0-7.0-1.0",NA,304,"4,48,102,218,242,16,149,35,167,73,13,75,250,212,118,109,165,113,153,80,162,181,249,109,25,47,192,83,126,132,243,42",152,"66a0b3911f23dfc7665bb169","65d5cccd58b48e4435f18b34","66a10c38e926c720d450ed0d",1,1,0,"false",3,58,"",11378.5,"{""Q0"":""...from <b>a previous session</b> that is part of the upcoming tournament.""}","[0]","false","multichoice_leaderboard","","",NA,NA,"",NA,NA,NA,NA,NA,NA,"",NA,"",NA
"175","","instructions",10,117243,"0.0-7.1-0.1",NA,304,"4,48,102,218,242,16,149,35,167,73,13,75,250,212,118,109,165,113,153,80,162,181,249,109,25,47,192,83,126,132,243,42",152,"66a0b3911f23dfc7665bb169","65d5cccd58b48e4435f18b34","66a10c38e926c720d450ed0d",1,1,0,"false",3,58,"[{""page_index"":0,""viewing_time"":1949.3999999761581}]",1949.5,"","","","","","",NA,NA,"",NA,NA,NA,NA,NA,NA,"",NA,"",NA
"176","","survey-multi-choice",11,119304,"0.0-7.1-1.1",NA,304,"4,48,102,218,242,16,149,35,167,73,13,75,250,212,118,109,165,113,153,80,162,181,249,109,25,47,192,83,126,132,243,42",152,"66a0b3911f23dfc7665bb169","65d5cccd58b48e4435f18b34","66a10c38e926c720d450ed0d",1,1,0,"false",3,58,"",2060.09999999404,"{""Q0"":""...from <b>a previous session</b> that is not part of the upcoming tournament.""}","[0]","true","multichoice_leaderboard","","",NA,NA,"",NA,NA,NA,NA,NA,NA,"",NA,"",NA
"177","","instructions",12,128076,"0.0-8.0",NA,304,"4,48,102,218,242,16,149,35,167,73,13,75,250,212,118,109,165,113,153,80,162,181,249,109,25,47,192,83,126,132,243,42",152,"66a0b3911f23dfc7665bb169","65d5cccd58b48e4435f18b34","66a10c38e926c720d450ed0d",1,1,0,"false",3,58,"[{""page_index"":0,""viewing_time"":8770.300000011921}]",8770.5,"","","","","","",NA,NA,"",NA,NA,NA,NA,NA,NA,"",NA,"",NA
"178","","survey-multi-choice",13,134064,"0.0-9.0",NA,304,"4,48,102,218,242,16,149,35,167,73,13,75,250,212,118,109,165,113,153,80,162,181,249,109,25,47,192,83,126,132,243,42",152,"66a0b3911f23dfc7665bb169","65d5cccd58b48e4435f18b34","66a10c38e926c720d450ed0d",1,1,0,"false",3,58,"",5986.79999998212,"{""Q0"":""...how well players did (in terms of <b>points</b>) in <b>previous games.</b>""}","[0]","false","multichoice_tournament","","",NA,NA,"",NA,NA,NA,NA,NA,NA,"",NA,"",NA
"179","","instructions",14,135981,"0.0-10.0-0.0",NA,304,"4,48,102,218,242,16,149,35,167,73,13,75,250,212,118,109,165,113,153,80,162,181,249,109,25,47,192,83,126,132,243,42",152,"66a0b3911f23dfc7665bb169","65d5cccd58b48e4435f18b34","66a10c38e926c720d450ed0d",1,1,0,"false",3,58,"[{""page_index"":0,""viewing_time"":1916}]",1916.20000001788,"","","","","","",NA,NA,"",NA,NA,NA,NA,NA,NA,"",NA,"",NA
"180","","survey-multi-choice",15,140189,"0.0-10.0-1.0",NA,304,"4,48,102,218,242,16,149,35,167,73,13,75,250,212,118,109,165,113,153,80,162,181,249,109,25,47,192,83,126,132,243,42",152,"66a0b3911f23dfc7665bb169","65d5cccd58b48e4435f18b34","66a10c38e926c720d450ed0d",1,1,0,"false",3,58,"",4206.5,"{""Q0"":""...players' leaderboard position (in terms of <b>points</b>) in an <b>upcoming tournament.</b>""}","[0]","true","multichoice_tournament","","",NA,NA,"",NA,NA,NA,NA,NA,NA,"",NA,"",NA
"181","","instructions",16,149206,"0.0-11.0",NA,304,"4,48,102,218,242,16,149,35,167,73,13,75,250,212,118,109,165,113,153,80,162,181,249,109,25,47,192,83,126,132,243,42",152,"66a0b3911f23dfc7665bb169","65d5cccd58b48e4435f18b34","66a10c38e926c720d450ed0d",1,1,0,"false",3,58,"[{""page_index"":0,""viewing_time"":9015}]",9015.20000001788,"","","","","","",NA,NA,"",NA,NA,NA,NA,NA,NA,"",NA,"",NA
"182","","instructions",17,155108,"0.0-12.0-0.0",NA,304,"4,48,102,218,242,16,149,35,167,73,13,75,250,212,118,109,165,113,153,80,162,181,249,109,25,47,192,83,126,132,243,42",152,"66a0b3911f23dfc7665bb169","65d5cccd58b48e4435f18b34","66a10c38e926c720d450ed0d",1,1,0,"false",3,58,"[{""page_index"":0,""viewing_time"":5901.300000011921}]",5901.5,"","","","","","",NA,NA,"",NA,NA,NA,NA,NA,NA,"",NA,"",NA
"183","","Hangman_replay",18,174203,"0.0-12.0-1.0",NA,304,"4,48,102,218,242,16,149,35,167,73,13,75,250,212,118,109,165,113,153,80,162,181,249,109,25,47,192,83,126,132,243,42",152,"66a0b3911f23dfc7665bb169","65d5cccd58b48e4435f18b34","66a10c38e926c720d450ed0d",1,1,0,"false",3,58,"",NA,"","","","","HAWAII","G,F,U,E,I,H,A,W",8,11,"false",NA,NA,NA,NA,NA,NA,"",NA,"",NA
"184","","instructions",19,178559,"0.0-12.0-2.0",NA,304,"4,48,102,218,242,16,149,35,167,73,13,75,250,212,118,109,165,113,153,80,162,181,249,109,25,47,192,83,126,132,243,42",152,"66a0b3911f23dfc7665bb169","65d5cccd58b48e4435f18b34","66a10c38e926c720d450ed0d",1,1,0,"false",3,58,"[{""page_index"":0,""viewing_time"":4354.399999976158}]",4355.09999999404,"","","","","","",NA,NA,"",NA,NA,NA,NA,NA,NA,"",NA,"",NA
"185","","Guess_leaderboard",20,193371,"0.0-12.0-3.0",NA,304,"4,48,102,218,242,16,149,35,167,73,13,75,250,212,118,109,165,113,153,80,162,181,249,109,25,47,192,83,126,132,243,42",152,"66a0b3911f23dfc7665bb169","65d5cccd58b48e4435f18b34","66a10c38e926c720d450ed0d",1,1,0,"false",3,58,"",NA,"","","","","HAWAII","",NA,NA,"",14050.599999994,39,42,0,84,45,"",NA,"",NA
"186","","instructions",21,195696,"0.0-12.0-0.1",NA,304,"4,48,102,218,242,16,149,35,167,73,13,75,250,212,118,109,165,113,153,80,162,181,249,109,25,47,192,83,126,132,243,42",152,"66a0b3911f23dfc7665bb169","65d5cccd58b48e4435f18b34","66a10c38e926c720d450ed0d",1,1,0,"false",3,58,"[{""page_index"":0,""viewing_time"":2322.300000011921}]",2322.5,"","","","","","",NA,NA,"",NA,NA,NA,NA,NA,NA,"",NA,"",NA
"187","","Hangman_replay",22,244865,"0.0-12.0-1.1",NA,304,"4,48,102,218,242,16,149,35,167,73,13,75,250,212,118,109,165,113,153,80,162,181,249,109,25,47,192,83,126,132,243,42",152,"66a0b3911f23dfc7665bb169","65d5cccd58b48e4435f18b34","66a10c38e926c720d450ed0d",1,1,0,"false",3,58,"",NA,"","","","","USAIN BOLT","E,A,R,S,B,O,L,T,U,I,N",11,13,"false",NA,NA,NA,NA,NA,NA,"",NA,"",NA
"188","","instructions",23,246814,"0.0-12.0-2.1",NA,304,"4,48,102,218,242,16,149,35,167,73,13,75,250,212,118,109,165,113,153,80,162,181,249,109,25,47,192,83,126,132,243,42",152,"66a0b3911f23dfc7665bb169","65d5cccd58b48e4435f18b34","66a10c38e926c720d450ed0d",1,1,0,"false",3,58,"[{""page_index"":0,""viewing_time"":1948.4000000059605}]",1948.60000002384,"","","","","","",NA,NA,"",NA,NA,NA,NA,NA,NA,"",NA,"",NA
"189","","Guess_leaderboard",24,253042,"0.0-12.0-3.1",NA,304,"4,48,102,218,242,16,149,35,167,73,13,75,250,212,118,109,165,113,153,80,162,181,249,109,25,47,192,83,126,132,243,42",152,"66a0b3911f23dfc7665bb169","65d5cccd58b48e4435f18b34","66a10c38e926c720d450ed0d",1,1,0,"false",3,58,"",NA,"","","","","USAIN BOLT","",NA,NA,"",5457.80000001192,8,15,1,5,3,"",NA,"",NA
"190","","instructions",25,254755,"0.0-12.0-0.2",NA,304,"4,48,102,218,242,16,149,35,167,73,13,75,250,212,118,109,165,113,153,80,162,181,249,109,25,47,192,83,126,132,243,42",152,"66a0b3911f23dfc7665bb169","65d5cccd58b48e4435f18b34","66a10c38e926c720d450ed0d",1,1,0,"false",3,58,"[{""page_index"":0,""viewing_time"":1711.0999999940395}]",1711.40000000596,"","","","","","",NA,NA,"",NA,NA,NA,NA,NA,NA,"",NA,"",NA
"191","","Hangman_replay",26,314613,"0.0-12.0-1.2",NA,304,"4,48,102,218,242,16,149,35,167,73,13,75,250,212,118,109,165,113,153,80,162,181,249,109,25,47,192,83,126,132,243,42",152,"66a0b3911f23dfc7665bb169","65d5cccd58b48e4435f18b34","66a10c38e926c720d450ed0d",1,1,0,"false",3,58,"",NA,"","","","","THUMB","W,A,C,T,H,I,U,M,B",9,11,"false",NA,NA,NA,NA,NA,NA,"",NA,"",NA
"192","","instructions",27,317046,"0.0-12.0-2.2",NA,304,"4,48,102,218,242,16,149,35,167,73,13,75,250,212,118,109,165,113,153,80,162,181,249,109,25,47,192,83,126,132,243,42",152,"66a0b3911f23dfc7665bb169","65d5cccd58b48e4435f18b34","66a10c38e926c720d450ed0d",1,1,0,"false",3,58,"[{""page_index"":0,""viewing_time"":2432.7000000178814}]",2433.10000002384,"","","","","","",NA,NA,"",NA,NA,NA,NA,NA,NA,"",NA,"",NA
"193","","Guess_leaderboard",28,319991,"0.0-12.0-3.2",NA,304,"4,48,102,218,242,16,149,35,167,73,13,75,250,212,118,109,165,113,153,80,162,181,249,109,25,47,192,83,126,132,243,42",152,"66a0b3911f23dfc7665bb169","65d5cccd58b48e4435f18b34","66a10c38e926c720d450ed0d",1,1,0,"false",3,58,"",NA,"","","","","THUMB","",NA,NA,"",2184.5,76,8,2,58,18,"",NA,"",NA
"194","","instructions",29,322824,"0.0-12.0-0.3",NA,304,"4,48,102,218,242,16,149,35,167,73,13,75,250,212,118,109,165,113,153,80,162,181,249,109,25,47,192,83,126,132,243,42",152,"66a0b3911f23dfc7665bb169","65d5cccd58b48e4435f18b34","66a10c38e926c720d450ed0d",1,1,0,"false",3,58,"[{""page_index"":0,""viewing_time"":2831}]",2831.19999998808,"","","","","","",NA,NA,"",NA,NA,NA,NA,NA,NA,"",NA,"",NA
"195","","Hangman_replay",30,403723,"0.0-12.0-1.3",NA,304,"4,48,102,218,242,16,149,35,167,73,13,75,250,212,118,109,165,113,153,80,162,181,249,109,25,47,192,83,126,132,243,42",152,"66a0b3911f23dfc7665bb169","65d5cccd58b48e4435f18b34","66a10c38e926c720d450ed0d",1,1,0,"false",3,58,"",NA,"","","","","NECTARINE","W,S,O,A,R,G,C,E,P,B,L,D,T,N,I",15,7,"false",NA,NA,NA,NA,NA,NA,"",NA,"",NA
"196","","instructions",31,405770,"0.0-12.0-2.3",NA,304,"4,48,102,218,242,16,149,35,167,73,13,75,250,212,118,109,165,113,153,80,162,181,249,109,25,47,192,83,126,132,243,42",152,"66a0b3911f23dfc7665bb169","65d5cccd58b48e4435f18b34","66a10c38e926c720d450ed0d",1,1,0,"false",3,58,"[{""page_index"":0,""viewing_time"":2045.5999999940395}]",2045.79999998212,"","","","","","",NA,NA,"",NA,NA,NA,NA,NA,NA,"",NA,"",NA
"197","","Guess_leaderboard",32,409448,"0.0-12.0-3.3",NA,304,"4,48,102,218,242,16,149,35,167,73,13,75,250,212,118,109,165,113,153,80,162,181,249,109,25,47,192,83,126,132,243,42",152,"66a0b3911f23dfc7665bb169","65d5cccd58b48e4435f18b34","66a10c38e926c720d450ed0d",1,1,0,"false",3,58,"",NA,"","","","","NECTARINE","",NA,NA,"",2923.40000000596,72,89,3,59,13,"",NA,"",NA
"198","","instructions",33,412757,"0.0-12.0-0.4",NA,304,"4,48,102,218,242,16,149,35,167,73,13,75,250,212,118,109,165,113,153,80,162,181,249,109,25,47,192,83,126,132,243,42",152,"66a0b3911f23dfc7665bb169","65d5cccd58b48e4435f18b34","66a10c38e926c720d450ed0d",1,1,0,"false",3,58,"[{""page_index"":0,""viewing_time"":3306.2999999821186}]",3306.5,"","","","","","",NA,NA,"",NA,NA,NA,NA,NA,NA,"",NA,"",NA
"199","","Hangman_replay",34,446451,"0.0-12.0-1.4",NA,304,"4,48,102,218,242,16,149,35,167,73,13,75,250,212,118,109,165,113,153,80,162,181,249,109,25,47,192,83,126,132,243,42",152,"66a0b3911f23dfc7665bb169","65d5cccd58b48e4435f18b34","66a10c38e926c720d450ed0d",1,1,0,"false",3,58,"",NA,"","","","","THIRTY FOUR","T,Y,F,E,H,I,O,R,U",9,14,"false",NA,NA,NA,NA,NA,NA,"",NA,"",NA
"200","","instructions",35,449206,"0.0-12.0-2.4",NA,304,"4,48,102,218,242,16,149,35,167,73,13,75,250,212,118,109,165,113,153,80,162,181,249,109,25,47,192,83,126,132,243,42",152,"66a0b3911f23dfc7665bb169","65d5cccd58b48e4435f18b34","66a10c38e926c720d450ed0d",1,1,0,"false",3,58,"[{""page_index"":0,""viewing_time"":2753.9000000059605}]",2754.19999998808,"","","","","","",NA,NA,"",NA,NA,NA,NA,NA,NA,"",NA,"",NA
"201","","Guess_leaderboard",36,452977,"0.0-12.0-3.4",NA,304,"4,48,102,218,242,16,149,35,167,73,13,75,250,212,118,109,165,113,153,80,162,181,249,109,25,47,192,83,126,132,243,42",152,"66a0b3911f23dfc7665bb169","65d5cccd58b48e4435f18b34","66a10c38e926c720d450ed0d",1,1,0,"false",3,58,"",NA,"","","","","THIRTY FOUR","",NA,NA,"",3012.40000000596,59,72,4,51,8,"",NA,"",NA
"202","","survey-text",37,459151,"0.0-13.0",NA,304,"4,48,102,218,242,16,149,35,167,73,13,75,250,212,118,109,165,113,153,80,162,181,249,109,25,47,192,83,126,132,243,42",152,"66a0b3911f23dfc7665bb169","65d5cccd58b48e4435f18b34","66a10c38e926c720d450ed0d",1,1,0,"false",3,58,"",6170.59999999404,"{""Q0"":""thirty four""}","","","","","",NA,NA,"",NA,NA,NA,NA,NA,NA,"thirty four",NA,"",NA
"203","","survey-multi-choice",38,467839,"0.0-14.0",NA,304,"4,48,102,218,242,16,149,35,167,73,13,75,250,212,118,109,165,113,153,80,162,181,249,109,25,47,192,83,126,132,243,42",152,"66a0b3911f23dfc7665bb169","65d5cccd58b48e4435f18b34","66a10c38e926c720d450ed0d",1,1,0,"false",3,58,"",8686.89999997616,"{""Q0"":""3. I would be <b>third</b> out of the six of us.""}","[0]","","self-rating","","",NA,NA,"",NA,3,NA,NA,NA,NA,"",NA,"",NA
"204","","html-slider-response",39,472952,"0.0-15.0",NA,304,"4,48,102,218,242,16,149,35,167,73,13,75,250,212,118,109,165,113,153,80,162,181,249,109,25,47,192,83,126,132,243,42",152,"66a0b3911f23dfc7665bb169","65d5cccd58b48e4435f18b34","66a10c38e926c720d450ed0d",1,1,0,"false",3,58,"",5110,"","","","","","",NA,NA,"",NA,NA,NA,NA,NA,NA,"","58","<p>Overall, how confident were you in your answer to this last question?</p>",58
"205","","survey-text",40,525299,"0.0-16.0",NA,304,"4,48,102,218,242,16,149,35,167,73,13,75,250,212,118,109,165,113,153,80,162,181,249,109,25,47,192,83,126,132,243,42",152,"66a0b3911f23dfc7665bb169","65d5cccd58b48e4435f18b34","66a10c38e926c720d450ed0d",1,1,0,"false",3,58,"",52344.7000000179,"{""Q0"":""the experiment might be to test how good someone is at estimating how they rank/stand in comparison to their peers, whether their perceptions are in line with reality""}","","","","","",NA,NA,"",NA,NA,NA,NA,NA,NA,"",NA,"",NA
"206","","survey-text",41,527028,"0.0-17.0",NA,304,"4,48,102,218,242,16,149,35,167,73,13,75,250,212,118,109,165,113,153,80,162,181,249,109,25,47,192,83,126,132,243,42",152,"66a0b3911f23dfc7665bb169","65d5cccd58b48e4435f18b34","66a10c38e926c720d450ed0d",1,1,0,"false",3,58,"",1728.09999999404,"{""Q0"":""""}","","","","","",NA,NA,"",NA,NA,NA,NA,NA,NA,"",NA,"",NA
"207","","instructions",42,534501,"0.0-18.0",NA,304,"4,48,102,218,242,16,149,35,167,73,13,75,250,212,118,109,165,113,153,80,162,181,249,109,25,47,192,83,126,132,243,42",152,"66a0b3911f23dfc7665bb169","65d5cccd58b48e4435f18b34","66a10c38e926c720d450ed0d",1,1,0,"false",3,58,"[{""page_index"":0,""viewing_time"":7472.0999999940395}]",7472.19999998808,"","","","","","",NA,NA,"",NA,NA,NA,NA,NA,NA,"",NA,"",NA
"208","true","fullscreen",0,10227,"0.0-0.0",NA,305,"4,48,102,218,242,16,149,35,167,73,13,75,250,212,118,109,165,113,153,80,162,181,249,109,25,47,192,83,126,132,243,42",152,"66a0b3911f23dfc7665bb169","662939c49821886e0246c494","66a10e8905f44658a9602e76",1,1,0,"true",3,40,"",NA,"","","","","","",NA,NA,"",NA,NA,NA,NA,NA,NA,"","","",NA
"209","","instructions",1,13058,"0.0-1.0",NA,305,"4,48,102,218,242,16,149,35,167,73,13,75,250,212,118,109,165,113,153,80,162,181,249,109,25,47,192,83,126,132,243,42",152,"66a0b3911f23dfc7665bb169","662939c49821886e0246c494","66a10e8905f44658a9602e76",1,1,0,"true",3,40,"[{""page_index"":0,""viewing_time"":2829}]",2830,"","","","","","",NA,NA,"",NA,NA,NA,NA,NA,NA,"","","",NA
"210","","instructions",2,34342,"0.0-2.0-0.0",NA,305,"4,48,102,218,242,16,149,35,167,73,13,75,250,212,118,109,165,113,153,80,162,181,249,109,25,47,192,83,126,132,243,42",152,"66a0b3911f23dfc7665bb169","662939c49821886e0246c494","66a10e8905f44658a9602e76",1,1,0,"true",3,40,"[{""page_index"":0,""viewing_time"":21281}]",21282,"","","","","","",NA,NA,"",NA,NA,NA,NA,NA,NA,"","","",NA
"211","","survey-multi-choice",3,43245,"0.0-2.0-1.0",NA,305,"4,48,102,218,242,16,149,35,167,73,13,75,250,212,118,109,165,113,153,80,162,181,249,109,25,47,192,83,126,132,243,42",152,"66a0b3911f23dfc7665bb169","662939c49821886e0246c494","66a10e8905f44658a9602e76",1,1,0,"true",3,40,"",8900,"{""Q0"":""... reveal the word with as <b>few letter guesses</b> as possible""}","[0]","true","multichoice_nonpretend","","",NA,NA,"",NA,NA,NA,NA,NA,NA,"","","",NA
"212","","instructions",4,44575,"0.0-3.0",NA,305,"4,48,102,218,242,16,149,35,167,73,13,75,250,212,118,109,165,113,153,80,162,181,249,109,25,47,192,83,126,132,243,42",152,"66a0b3911f23dfc7665bb169","662939c49821886e0246c494","66a10e8905f44658a9602e76",1,1,0,"true",3,40,"[{""page_index"":0,""viewing_time"":1329}]",1329,"","","","","","",NA,NA,"",NA,NA,NA,NA,NA,NA,"","","",NA
"213","","Hangman",5,73540,"0.0-4.0",NA,305,"4,48,102,218,242,16,149,35,167,73,13,75,250,212,118,109,165,113,153,80,162,181,249,109,25,47,192,83,126,132,243,42",152,"66a0b3911f23dfc7665bb169","662939c49821886e0246c494","66a10e8905f44658a9602e76",1,1,0,"true",3,40,"",NA,"","","","","ZEBRA","H,O,B,L,E,T,Z,R,A",9,11,"false",NA,NA,NA,NA,NA,NA,"","","",NA
"214","","instructions",6,101876,"0.0-5.0",NA,305,"4,48,102,218,242,16,149,35,167,73,13,75,250,212,118,109,165,113,153,80,162,181,249,109,25,47,192,83,126,132,243,42",152,"66a0b3911f23dfc7665bb169","662939c49821886e0246c494","66a10e8905f44658a9602e76",1,1,0,"true",3,40,"[{""page_index"":0,""viewing_time"":4534},{""page_index"":1,""viewing_time"":23800}]",28335,"","","","","","",NA,NA,"",NA,NA,NA,NA,NA,NA,"","","",NA
"215","","survey-multi-choice",7,110226,"0.0-6.0",NA,305,"4,48,102,218,242,16,149,35,167,73,13,75,250,212,118,109,165,113,153,80,162,181,249,109,25,47,192,83,126,132,243,42",152,"66a0b3911f23dfc7665bb169","662939c49821886e0246c494","66a10e8905f44658a9602e76",1,1,0,"true",3,40,"",8347,"{""Q0"":""...from <b>a previous session</b> that is not part of the upcoming tournament.""}","[0]","true","multichoice_leaderboard","","",NA,NA,"",NA,NA,NA,NA,NA,NA,"","","",NA
"216","","instructions",8,119092,"0.0-8.0",NA,305,"4,48,102,218,242,16,149,35,167,73,13,75,250,212,118,109,165,113,153,80,162,181,249,109,25,47,192,83,126,132,243,42",152,"66a0b3911f23dfc7665bb169","662939c49821886e0246c494","66a10e8905f44658a9602e76",1,1,0,"true",3,40,"[{""page_index"":0,""viewing_time"":8863}]",8864,"","","","","","",NA,NA,"",NA,NA,NA,NA,NA,NA,"","","",NA
"217","","survey-multi-choice",9,126276,"0.0-9.0",NA,305,"4,48,102,218,242,16,149,35,167,73,13,75,250,212,118,109,165,113,153,80,162,181,249,109,25,47,192,83,126,132,243,42",152,"66a0b3911f23dfc7665bb169","662939c49821886e0246c494","66a10e8905f44658a9602e76",1,1,0,"true",3,40,"",7182,"{""Q0"":""...how well players did (in terms of <b>points</b>) in <b>previous games.</b>""}","[0]","false","multichoice_tournament","","",NA,NA,"",NA,NA,NA,NA,NA,NA,"","","",NA
"218","","instructions",10,129926,"0.0-10.0-0.0",NA,305,"4,48,102,218,242,16,149,35,167,73,13,75,250,212,118,109,165,113,153,80,162,181,249,109,25,47,192,83,126,132,243,42",152,"66a0b3911f23dfc7665bb169","662939c49821886e0246c494","66a10e8905f44658a9602e76",1,1,0,"true",3,40,"[{""page_index"":0,""viewing_time"":3648}]",3648,"","","","","","",NA,NA,"",NA,NA,NA,NA,NA,NA,"","","",NA
"219","","survey-multi-choice",11,137327,"0.0-10.0-1.0",NA,305,"4,48,102,218,242,16,149,35,167,73,13,75,250,212,118,109,165,113,153,80,162,181,249,109,25,47,192,83,126,132,243,42",152,"66a0b3911f23dfc7665bb169","662939c49821886e0246c494","66a10e8905f44658a9602e76",1,1,0,"true",3,40,"",7398,"{""Q0"":""...players' leaderboard position (in terms of <b>points</b>) in an <b>upcoming tournament.</b>""}","[0]","true","multichoice_tournament","","",NA,NA,"",NA,NA,NA,NA,NA,NA,"","","",NA
"220","","instructions",12,150359,"0.0-11.0",NA,305,"4,48,102,218,242,16,149,35,167,73,13,75,250,212,118,109,165,113,153,80,162,181,249,109,25,47,192,83,126,132,243,42",152,"66a0b3911f23dfc7665bb169","662939c49821886e0246c494","66a10e8905f44658a9602e76",1,1,0,"true",3,40,"[{""page_index"":0,""viewing_time"":13031}]",13031,"","","","","","",NA,NA,"",NA,NA,NA,NA,NA,NA,"","","",NA
"221","","instructions",13,167927,"0.0-12.0-0.0",NA,305,"4,48,102,218,242,16,149,35,167,73,13,75,250,212,118,109,165,113,153,80,162,181,249,109,25,47,192,83,126,132,243,42",152,"66a0b3911f23dfc7665bb169","662939c49821886e0246c494","66a10e8905f44658a9602e76",1,1,0,"true",3,40,"[{""page_index"":0,""viewing_time"":17565}]",17565,"","","","","","",NA,NA,"",NA,NA,NA,NA,NA,NA,"","","",NA
"222","","type-this",14,175211,"0.0-12.0-1.0",NA,305,"4,48,102,218,242,16,149,35,167,73,13,75,250,212,118,109,165,113,153,80,162,181,249,109,25,47,192,83,126,132,243,42",152,"66a0b3911f23dfc7665bb169","662939c49821886e0246c494","66a10e8905f44658a9602e76",1,1,0,"true",3,40,"",6780,"HAWAII","","","","","",NA,NA,"",NA,NA,NA,NA,NA,NA,"","HAWAII","",NA
"223","","Hangman_replay",15,194273,"0.0-12.0-2.0",NA,305,"4,48,102,218,242,16,149,35,167,73,13,75,250,212,118,109,165,113,153,80,162,181,249,109,25,47,192,83,126,132,243,42",152,"66a0b3911f23dfc7665bb169","662939c49821886e0246c494","66a10e8905f44658a9602e76",1,1,0,"true",3,40,"",NA,"","","","","HAWAII","G,F,U,E,I,H,A,W",8,11,"false",NA,NA,NA,NA,NA,NA,"","","",NA
"224","","instructions",16,198443,"0.0-12.0-3.0",NA,305,"4,48,102,218,242,16,149,35,167,73,13,75,250,212,118,109,165,113,153,80,162,181,249,109,25,47,192,83,126,132,243,42",152,"66a0b3911f23dfc7665bb169","662939c49821886e0246c494","66a10e8905f44658a9602e76",1,1,0,"true",3,40,"[{""page_index"":0,""viewing_time"":4168}]",4169,"","","","","","",NA,NA,"",NA,NA,NA,NA,NA,NA,"","","",NA
"225","","Guess_leaderboard",17,212508,"0.0-12.0-4.0",NA,305,"4,48,102,218,242,16,149,35,167,73,13,75,250,212,118,109,165,113,153,80,162,181,249,109,25,47,192,83,126,132,243,42",152,"66a0b3911f23dfc7665bb169","662939c49821886e0246c494","66a10e8905f44658a9602e76",1,1,0,"true",3,40,"",NA,"","","","","HAWAII","",NA,NA,"",13299,38,42,0,84,46,"","","",NA
"226","","instructions",18,223277,"0.0-12.0-0.1",NA,305,"4,48,102,218,242,16,149,35,167,73,13,75,250,212,118,109,165,113,153,80,162,181,249,109,25,47,192,83,126,132,243,42",152,"66a0b3911f23dfc7665bb169","662939c49821886e0246c494","66a10e8905f44658a9602e76",1,1,0,"true",3,40,"[{""page_index"":0,""viewing_time"":10767}]",10768,"","","","","","",NA,NA,"",NA,NA,NA,NA,NA,NA,"","","",NA
"227","","type-this",19,228966,"0.0-12.0-1.1",NA,305,"4,48,102,218,242,16,149,35,167,73,13,75,250,212,118,109,165,113,153,80,162,181,249,109,25,47,192,83,126,132,243,42",152,"66a0b3911f23dfc7665bb169","662939c49821886e0246c494","66a10e8905f44658a9602e76",1,1,0,"true",3,40,"",5179,"USAIN BOLT","","","","","",NA,NA,"",NA,NA,NA,NA,NA,NA,"","USAIN BOLT","",NA
"228","","Hangman_replay",20,278124,"0.0-12.0-2.1",NA,305,"4,48,102,218,242,16,149,35,167,73,13,75,250,212,118,109,165,113,153,80,162,181,249,109,25,47,192,83,126,132,243,42",152,"66a0b3911f23dfc7665bb169","662939c49821886e0246c494","66a10e8905f44658a9602e76",1,1,0,"true",3,40,"",NA,"","","","","USAIN BOLT","E,A,R,S,B,O,L,T,U,I,N",11,13,"false",NA,NA,NA,NA,NA,NA,"","","",NA
"229","","instructions",21,280895,"0.0-12.0-3.1",NA,305,"4,48,102,218,242,16,149,35,167,73,13,75,250,212,118,109,165,113,153,80,162,181,249,109,25,47,192,83,126,132,243,42",152,"66a0b3911f23dfc7665bb169","662939c49821886e0246c494","66a10e8905f44658a9602e76",1,1,0,"true",3,40,"[{""page_index"":0,""viewing_time"":2768}]",2768,"","","","","","",NA,NA,"",NA,NA,NA,NA,NA,NA,"","","",NA
"230","","Guess_leaderboard",22,285858,"0.0-12.0-4.1",NA,305,"4,48,102,218,242,16,149,35,167,73,13,75,250,212,118,109,165,113,153,80,162,181,249,109,25,47,192,83,126,132,243,42",152,"66a0b3911f23dfc7665bb169","662939c49821886e0246c494","66a10e8905f44658a9602e76",1,1,0,"true",3,40,"",NA,"","","","","USAIN BOLT","",NA,NA,"",4197,69,15,1,5,64,"","","",NA
"231","","instructions",23,294311,"0.0-12.0-0.2",NA,305,"4,48,102,218,242,16,149,35,167,73,13,75,250,212,118,109,165,113,153,80,162,181,249,109,25,47,192,83,126,132,243,42",152,"66a0b3911f23dfc7665bb169","662939c49821886e0246c494","66a10e8905f44658a9602e76",1,1,0,"true",3,40,"[{""page_index"":0,""viewing_time"":8453}]",8453,"","","","","","",NA,NA,"",NA,NA,NA,NA,NA,NA,"","","",NA
"232","","type-this",24,298914,"0.0-12.0-1.2",NA,305,"4,48,102,218,242,16,149,35,167,73,13,75,250,212,118,109,165,113,153,80,162,181,249,109,25,47,192,83,126,132,243,42",152,"66a0b3911f23dfc7665bb169","662939c49821886e0246c494","66a10e8905f44658a9602e76",1,1,0,"true",3,40,"",4097,"THUMB","","","","","",NA,NA,"",NA,NA,NA,NA,NA,NA,"","THUMB","",NA
"233","","Hangman_replay",25,358759,"0.0-12.0-2.2",NA,305,"4,48,102,218,242,16,149,35,167,73,13,75,250,212,118,109,165,113,153,80,162,181,249,109,25,47,192,83,126,132,243,42",152,"66a0b3911f23dfc7665bb169","662939c49821886e0246c494","66a10e8905f44658a9602e76",1,1,0,"true",3,40,"",NA,"","","","","THUMB","W,A,C,T,H,I,U,M,B",9,11,"false",NA,NA,NA,NA,NA,NA,"","","",NA
"234","","instructions",26,360878,"0.0-12.0-3.2",NA,305,"4,48,102,218,242,16,149,35,167,73,13,75,250,212,118,109,165,113,153,80,162,181,249,109,25,47,192,83,126,132,243,42",152,"66a0b3911f23dfc7665bb169","662939c49821886e0246c494","66a10e8905f44658a9602e76",1,1,0,"true",3,40,"[{""page_index"":0,""viewing_time"":2117}]",2118,"","","","","","",NA,NA,"",NA,NA,NA,NA,NA,NA,"","","",NA
"235","","Guess_leaderboard",27,367842,"0.0-12.0-4.2",NA,305,"4,48,102,218,242,16,149,35,167,73,13,75,250,212,118,109,165,113,153,80,162,181,249,109,25,47,192,83,126,132,243,42",152,"66a0b3911f23dfc7665bb169","662939c49821886e0246c494","66a10e8905f44658a9602e76",1,1,0,"true",3,40,"",NA,"","","","","THUMB","",NA,NA,"",6199,74,8,2,58,16,"","","",NA
"236","","instructions",28,374228,"0.0-12.0-0.3",NA,305,"4,48,102,218,242,16,149,35,167,73,13,75,250,212,118,109,165,113,153,80,162,181,249,109,25,47,192,83,126,132,243,42",152,"66a0b3911f23dfc7665bb169","662939c49821886e0246c494","66a10e8905f44658a9602e76",1,1,0,"true",3,40,"[{""page_index"":0,""viewing_time"":6384}]",6385,"","","","","","",NA,NA,"",NA,NA,NA,NA,NA,NA,"","","",NA
"237","","type-this",29,379784,"0.0-12.0-1.3",NA,305,"4,48,102,218,242,16,149,35,167,73,13,75,250,212,118,109,165,113,153,80,162,181,249,109,25,47,192,83,126,132,243,42",152,"66a0b3911f23dfc7665bb169","662939c49821886e0246c494","66a10e8905f44658a9602e76",1,1,0,"true",3,40,"",5046,"NECTARINE","","","","","",NA,NA,"",NA,NA,NA,NA,NA,NA,"","NECTARINE","",NA
"238","","Hangman_replay",30,460693,"0.0-12.0-2.3",NA,305,"4,48,102,218,242,16,149,35,167,73,13,75,250,212,118,109,165,113,153,80,162,181,249,109,25,47,192,83,126,132,243,42",152,"66a0b3911f23dfc7665bb169","662939c49821886e0246c494","66a10e8905f44658a9602e76",1,1,0,"true",3,40,"",NA,"","","","","NECTARINE","W,S,O,A,R,G,C,E,P,B,L,D,T,N,I",15,7,"false",NA,NA,NA,NA,NA,NA,"","","",NA
"239","","instructions",31,462712,"0.0-12.0-3.3",NA,305,"4,48,102,218,242,16,149,35,167,73,13,75,250,212,118,109,165,113,153,80,162,181,249,109,25,47,192,83,126,132,243,42",152,"66a0b3911f23dfc7665bb169","662939c49821886e0246c494","66a10e8905f44658a9602e76",1,1,0,"true",3,40,"[{""page_index"":0,""viewing_time"":2018}]",2018,"","","","","","",NA,NA,"",NA,NA,NA,NA,NA,NA,"","","",NA
"240","","Guess_leaderboard",32,468110,"0.0-12.0-4.3",NA,305,"4,48,102,218,242,16,149,35,167,73,13,75,250,212,118,109,165,113,153,80,162,181,249,109,25,47,192,83,126,132,243,42",152,"66a0b3911f23dfc7665bb169","662939c49821886e0246c494","66a10e8905f44658a9602e76",1,1,0,"true",3,40,"",NA,"","","","","NECTARINE","",NA,NA,"",4630,84,89,3,59,25,"","","",NA
"241","","instructions",33,469578,"0.0-12.0-0.4",NA,305,"4,48,102,218,242,16,149,35,167,73,13,75,250,212,118,109,165,113,153,80,162,181,249,109,25,47,192,83,126,132,243,42",152,"66a0b3911f23dfc7665bb169","662939c49821886e0246c494","66a10e8905f44658a9602e76",1,1,0,"true",3,40,"[{""page_index"":0,""viewing_time"":1467}]",1467,"","","","","","",NA,NA,"",NA,NA,NA,NA,NA,NA,"","","",NA
"242","","type-this",34,477089,"0.0-12.0-1.4",NA,305,"4,48,102,218,242,16,149,35,167,73,13,75,250,212,118,109,165,113,153,80,162,181,249,109,25,47,192,83,126,132,243,42",152,"66a0b3911f23dfc7665bb169","662939c49821886e0246c494","66a10e8905f44658a9602e76",1,1,0,"true",3,40,"",6966,"THIRTY FOUR","","","","","",NA,NA,"",NA,NA,NA,NA,NA,NA,"","THIRTY FOUR","",NA
"243","","Hangman_replay",35,510759,"0.0-12.0-2.4",NA,305,"4,48,102,218,242,16,149,35,167,73,13,75,250,212,118,109,165,113,153,80,162,181,249,109,25,47,192,83,126,132,243,42",152,"66a0b3911f23dfc7665bb169","662939c49821886e0246c494","66a10e8905f44658a9602e76",1,1,0,"true",3,40,"",NA,"","","","","THIRTY FOUR","T,Y,F,E,H,I,O,R,U",9,14,"false",NA,NA,NA,NA,NA,NA,"","","",NA
"244","","instructions",36,512146,"0.0-12.0-3.4",NA,305,"4,48,102,218,242,16,149,35,167,73,13,75,250,212,118,109,165,113,153,80,162,181,249,109,25,47,192,83,126,132,243,42",152,"66a0b3911f23dfc7665bb169","662939c49821886e0246c494","66a10e8905f44658a9602e76",1,1,0,"true",3,40,"[{""page_index"":0,""viewing_time"":1385}]",1386,"","","","","","",NA,NA,"",NA,NA,NA,NA,NA,NA,"","","",NA
"245","","Guess_leaderboard",37,516709,"0.0-12.0-4.4",NA,305,"4,48,102,218,242,16,149,35,167,73,13,75,250,212,118,109,165,113,153,80,162,181,249,109,25,47,192,83,126,132,243,42",152,"66a0b3911f23dfc7665bb169","662939c49821886e0246c494","66a10e8905f44658a9602e76",1,1,0,"true",3,40,"",NA,"","","","","THIRTY FOUR","",NA,NA,"",3799,27,72,4,51,24,"","","",NA
"246","","survey-text",38,528747,"0.0-13.0",NA,305,"4,48,102,218,242,16,149,35,167,73,13,75,250,212,118,109,165,113,153,80,162,181,249,109,25,47,192,83,126,132,243,42",152,"66a0b3911f23dfc7665bb169","662939c49821886e0246c494","66a10e8905f44658a9602e76",1,1,0,"true",3,40,"",12034,"{""Q0"":""THIRTY FOUR""}","","","","","",NA,NA,"",NA,NA,NA,NA,NA,NA,"thirty four","","",NA
"247","","survey-multi-choice",39,551631,"0.0-14.0",NA,305,"4,48,102,218,242,16,149,35,167,73,13,75,250,212,118,109,165,113,153,80,162,181,249,109,25,47,192,83,126,132,243,42",152,"66a0b3911f23dfc7665bb169","662939c49821886e0246c494","66a10e8905f44658a9602e76",1,1,0,"true",3,40,"",22879,"{""Q0"":""3. I would be <b>third</b> out of the six of us.""}","[0]","","self-rating","","",NA,NA,"",NA,3,NA,NA,NA,NA,"","","",NA
"248","","html-slider-response",40,558196,"0.0-15.0",NA,305,"4,48,102,218,242,16,149,35,167,73,13,75,250,212,118,109,165,113,153,80,162,181,249,109,25,47,192,83,126,132,243,42",152,"66a0b3911f23dfc7665bb169","662939c49821886e0246c494","66a10e8905f44658a9602e76",1,1,0,"true",3,40,"",6564,"","","","","","",NA,NA,"",NA,NA,NA,NA,NA,NA,"","40","<p>Overall, how confident were you in your answer to this last question?</p>",40
"249","","survey-text",41,654666,"0.0-16.0",NA,305,"4,48,102,218,242,16,149,35,167,73,13,75,250,212,118,109,165,113,153,80,162,181,249,109,25,47,192,83,126,132,243,42",152,"66a0b3911f23dfc7665bb169","662939c49821886e0246c494","66a10e8905f44658a9602e76",1,1,0,"true",3,40,"",96464,"{""Q0"":""Trying to test confidence in how the person watching would perform. It's easier to have confidence in how you would perform when you are not the one under pressure.""}","","","","","",NA,NA,"",NA,NA,NA,NA,NA,NA,"","","",NA
"250","","survey-text",42,665014,"0.0-17.0",NA,305,"4,48,102,218,242,16,149,35,167,73,13,75,250,212,118,109,165,113,153,80,162,181,249,109,25,47,192,83,126,132,243,42",152,"66a0b3911f23dfc7665bb169","662939c49821886e0246c494","66a10e8905f44658a9602e76",1,1,0,"true",3,40,"",10345,"{""Q0"":""No thank you.""}","","","","","",NA,NA,"",NA,NA,NA,NA,NA,NA,"","","",NA
"251","","instructions",43,676048,"0.0-18.0",NA,305,"4,48,102,218,242,16,149,35,167,73,13,75,250,212,118,109,165,113,153,80,162,181,249,109,25,47,192,83,126,132,243,42",152,"66a0b3911f23dfc7665bb169","662939c49821886e0246c494","66a10e8905f44658a9602e76",1,1,0,"true",3,40,"[{""page_index"":0,""viewing_time"":11032}]",11032,"","","","","","",NA,NA,"",NA,NA,NA,NA,NA,NA,"","","",NA
