"","success","trial_type","trial_index","time_elapsed","internal_node_id","protocol_sum","subject_identifier","subject_sum","subject_pair","STUDY_ID","PROLIFIC_PID","SESSION_ID","practice_instructions","leaderboard_instructions","bonus","reveal_word","self_rating","confidence","view_history","rt","responses","question_order","correct","test_part","word","final_keyboard_state","num_clicks","points","cheat","response","position_RT","position","player","i_game","true_position","distance","last_word","stimulus","confidence_slider_self_response"
"1","true","fullscreen",0,4889,"0.0-0.0",NA,401,"39,186,220,152,61,241,120,11,96,194,179,250,157,58,25,160,14,70,170,199,152,69,31,15,235,220,165,41,32,250,173,223",200,"66a22c0758a3d5c9d26873c6","6652982569df798e71daaf11","66a232b3477d50b7aea0b065",1,0,0,"true",3,18,"",NA,"","","","","","",NA,NA,"","",NA,NA,NA,NA,NA,NA,"","",NA
"2","","instructions",1,10873,"0.0-1.0",NA,401,"39,186,220,152,61,241,120,11,96,194,179,250,157,58,25,160,14,70,170,199,152,69,31,15,235,220,165,41,32,250,173,223",200,"66a22c0758a3d5c9d26873c6","6652982569df798e71daaf11","66a232b3477d50b7aea0b065",1,0,0,"true",3,18,"[{""page_index"":0,""viewing_time"":5982.5}]",5982.79999995232,"","","","","","",NA,NA,"","",NA,NA,NA,NA,NA,NA,"","",NA
"3","","instructions",2,41356,"0.0-2.0-0.0",NA,401,"39,186,220,152,61,241,120,11,96,194,179,250,157,58,25,160,14,70,170,199,152,69,31,15,235,220,165,41,32,250,173,223",200,"66a22c0758a3d5c9d26873c6","6652982569df798e71daaf11","66a232b3477d50b7aea0b065",1,0,0,"true",3,18,"[{""page_index"":0,""viewing_time"":30482.400000095367}]",30482.5999999046,"","","","","","",NA,NA,"","",NA,NA,NA,NA,NA,NA,"","",NA
"4","","survey-multi-choice",3,53000,"0.0-2.0-1.0",NA,401,"39,186,220,152,61,241,120,11,96,194,179,250,157,58,25,160,14,70,170,199,152,69,31,15,235,220,165,41,32,250,173,223",200,"66a22c0758a3d5c9d26873c6","6652982569df798e71daaf11","66a232b3477d50b7aea0b065",1,0,0,"true",3,18,"",11642,"{""Q0"":""... reveal the word with as <b>few letter guesses</b> as possible""}","[0]","true","multichoice_nonpretend","","",NA,NA,"","",NA,NA,NA,NA,NA,NA,"","",NA
"5","","instructions",4,54999,"0.0-3.0",NA,401,"39,186,220,152,61,241,120,11,96,194,179,250,157,58,25,160,14,70,170,199,152,69,31,15,235,220,165,41,32,250,173,223",200,"66a22c0758a3d5c9d26873c6","6652982569df798e71daaf11","66a232b3477d50b7aea0b065",1,0,0,"true",3,18,"[{""page_index"":0,""viewing_time"":1996.9000000953674}]",1997,"","","","","","",NA,NA,"","",NA,NA,NA,NA,NA,NA,"","",NA
"6","","Hangman",5,120558,"0.0-4.0",NA,401,"39,186,220,152,61,241,120,11,96,194,179,250,157,58,25,160,14,70,170,199,152,69,31,15,235,220,165,41,32,250,173,223",200,"66a22c0758a3d5c9d26873c6","6652982569df798e71daaf11","66a232b3477d50b7aea0b065",1,0,0,"true",3,18,"",NA,"","","","","ZEBRA","A,P,N,R,T,S,C,O,I,E,V,B,Z",13,7,"false","",NA,NA,NA,NA,NA,NA,"","",NA
"7","","instructions",6,144806,"0.0-5.0",NA,401,"39,186,220,152,61,241,120,11,96,194,179,250,157,58,25,160,14,70,170,199,152,69,31,15,235,220,165,41,32,250,173,223",200,"66a22c0758a3d5c9d26873c6","6652982569df798e71daaf11","66a232b3477d50b7aea0b065",1,0,0,"true",3,18,"[{""page_index"":0,""viewing_time"":2990.5},{""page_index"":1,""viewing_time"":21255.699999809265}]",24247.5,"","","","","","",NA,NA,"","",NA,NA,NA,NA,NA,NA,"","",NA
"8","","survey-multi-choice",7,151496,"0.0-6.0",NA,401,"39,186,220,152,61,241,120,11,96,194,179,250,157,58,25,160,14,70,170,199,152,69,31,15,235,220,165,41,32,250,173,223",200,"66a22c0758a3d5c9d26873c6","6652982569df798e71daaf11","66a232b3477d50b7aea0b065",1,0,0,"true",3,18,"",6687.39999985695,"{""Q0"":""...from <b>a previous session</b> that is not part of the upcoming tournament.""}","[0]","true","multichoice_leaderboard","","",NA,NA,"","",NA,NA,NA,NA,NA,NA,"","",NA
"9","","instructions",8,165176,"0.0-8.0",NA,401,"39,186,220,152,61,241,120,11,96,194,179,250,157,58,25,160,14,70,170,199,152,69,31,15,235,220,165,41,32,250,173,223",200,"66a22c0758a3d5c9d26873c6","6652982569df798e71daaf11","66a232b3477d50b7aea0b065",1,0,0,"true",3,18,"[{""page_index"":0,""viewing_time"":13679.899999856949}]",13680.0999999046,"","","","","","",NA,NA,"","",NA,NA,NA,NA,NA,NA,"","",NA
"10","","survey-multi-choice",9,179542,"0.0-9.0",NA,401,"39,186,220,152,61,241,120,11,96,194,179,250,157,58,25,160,14,70,170,199,152,69,31,15,235,220,165,41,32,250,173,223",200,"66a22c0758a3d5c9d26873c6","6652982569df798e71daaf11","66a232b3477d50b7aea0b065",1,0,0,"true",3,18,"",14364.7000000477,"{""Q0"":""...players' leaderboard position (in terms of <b>points</b>) in an <b>upcoming tournament.</b>""}","[0]","true","multichoice_tournament","","",NA,NA,"","",NA,NA,NA,NA,NA,NA,"","",NA
"11","","instructions",10,190715,"0.0-11.0",NA,401,"39,186,220,152,61,241,120,11,96,194,179,250,157,58,25,160,14,70,170,199,152,69,31,15,235,220,165,41,32,250,173,223",200,"66a22c0758a3d5c9d26873c6","6652982569df798e71daaf11","66a232b3477d50b7aea0b065",1,0,0,"true",3,18,"[{""page_index"":0,""viewing_time"":11172.200000047684}]",11172.5999999046,"","","","","","",NA,NA,"","",NA,NA,NA,NA,NA,NA,"","",NA
"12","","instructions",11,229415,"0.0-12.0-0.0",NA,401,"39,186,220,152,61,241,120,11,96,194,179,250,157,58,25,160,14,70,170,199,152,69,31,15,235,220,165,41,32,250,173,223",200,"66a22c0758a3d5c9d26873c6","6652982569df798e71daaf11","66a232b3477d50b7aea0b065",1,0,0,"true",3,18,"[{""page_index"":0,""viewing_time"":38698.199999809265}]",38698.2999999523,"","","","","","",NA,NA,"","",NA,NA,NA,NA,NA,NA,"","",NA
"13","","type-this",12,238477,"0.0-12.0-1.0",NA,401,"39,186,220,152,61,241,120,11,96,194,179,250,157,58,25,160,14,70,170,199,152,69,31,15,235,220,165,41,32,250,173,223",200,"66a22c0758a3d5c9d26873c6","6652982569df798e71daaf11","66a232b3477d50b7aea0b065",1,0,0,"true",3,18,"",8558.29999995232,"USAIN BOLT","","","","","",NA,NA,"","USAIN BOLT",NA,NA,NA,NA,NA,NA,"","",NA
"14","","Hangman_replay",13,287980,"0.0-12.0-2.0",NA,401,"39,186,220,152,61,241,120,11,96,194,179,250,157,58,25,160,14,70,170,199,152,69,31,15,235,220,165,41,32,250,173,223",200,"66a22c0758a3d5c9d26873c6","6652982569df798e71daaf11","66a232b3477d50b7aea0b065",1,0,0,"true",3,18,"",NA,"","","","","USAIN BOLT","E,A,I,O,S,N,U,B,L,T",10,14,"false","",NA,NA,NA,NA,NA,NA,"","",NA
"15","","instructions",14,292398,"0.0-12.0-3.0",NA,401,"39,186,220,152,61,241,120,11,96,194,179,250,157,58,25,160,14,70,170,199,152,69,31,15,235,220,165,41,32,250,173,223",200,"66a22c0758a3d5c9d26873c6","6652982569df798e71daaf11","66a232b3477d50b7aea0b065",1,0,0,"true",3,18,"[{""page_index"":0,""viewing_time"":4416.5}]",4417.10000014305,"","","","","","",NA,NA,"","",NA,NA,NA,NA,NA,NA,"","",NA
"16","","Guess_leaderboard",15,299792,"0.0-12.0-4.0",NA,401,"39,186,220,152,61,241,120,11,96,194,179,250,157,58,25,160,14,70,170,199,152,69,31,15,235,220,165,41,32,250,173,223",200,"66a22c0758a3d5c9d26873c6","6652982569df798e71daaf11","66a232b3477d50b7aea0b065",1,0,0,"true",3,18,"",NA,"","","","","USAIN BOLT","",NA,NA,"","",6633.40000009537,40,35,0,47,7,"","",NA
"17","","instructions",16,308888,"0.0-12.0-0.1",NA,401,"39,186,220,152,61,241,120,11,96,194,179,250,157,58,25,160,14,70,170,199,152,69,31,15,235,220,165,41,32,250,173,223",200,"66a22c0758a3d5c9d26873c6","6652982569df798e71daaf11","66a232b3477d50b7aea0b065",1,0,0,"true",3,18,"[{""page_index"":0,""viewing_time"":9093.399999856949}]",9093.69999980927,"","","","","","",NA,NA,"","",NA,NA,NA,NA,NA,NA,"","",NA
"18","","type-this",17,317875,"0.0-12.0-1.1",NA,401,"39,186,220,152,61,241,120,11,96,194,179,250,157,58,25,160,14,70,170,199,152,69,31,15,235,220,165,41,32,250,173,223",200,"66a22c0758a3d5c9d26873c6","6652982569df798e71daaf11","66a232b3477d50b7aea0b065",1,0,0,"true",3,18,"",8470.20000004768,"KENTUCKY","","","","","",NA,NA,"","KENTUCKY",NA,NA,NA,NA,NA,NA,"","",NA
"19","","Hangman_replay",18,365998,"0.0-12.0-2.1",NA,401,"39,186,220,152,61,241,120,11,96,194,179,250,157,58,25,160,14,70,170,199,152,69,31,15,235,220,165,41,32,250,173,223",200,"66a22c0758a3d5c9d26873c6","6652982569df798e71daaf11","66a232b3477d50b7aea0b065",1,0,0,"true",3,18,"",NA,"","","","","KENTUCKY","M,C,I,A,F,G,W,K,E,N,T,U,Y",13,9,"false","",NA,NA,NA,NA,NA,NA,"","",NA
"20","","instructions",19,369639,"0.0-12.0-3.1",NA,401,"39,186,220,152,61,241,120,11,96,194,179,250,157,58,25,160,14,70,170,199,152,69,31,15,235,220,165,41,32,250,173,223",200,"66a22c0758a3d5c9d26873c6","6652982569df798e71daaf11","66a232b3477d50b7aea0b065",1,0,0,"true",3,18,"[{""page_index"":0,""viewing_time"":3639.399999856949}]",3639.89999985695,"","","","","","",NA,NA,"","",NA,NA,NA,NA,NA,NA,"","",NA
"21","","Guess_leaderboard",20,375611,"0.0-12.0-4.1",NA,401,"39,186,220,152,61,241,120,11,96,194,179,250,157,58,25,160,14,70,170,199,152,69,31,15,235,220,165,41,32,250,173,223",200,"66a22c0758a3d5c9d26873c6","6652982569df798e71daaf11","66a232b3477d50b7aea0b065",1,0,0,"true",3,18,"",NA,"","","","","KENTUCKY","",NA,NA,"","",5213.20000004768,65,27,1,50,15,"","",NA
"22","","instructions",21,391124,"0.0-12.0-0.2",NA,401,"39,186,220,152,61,241,120,11,96,194,179,250,157,58,25,160,14,70,170,199,152,69,31,15,235,220,165,41,32,250,173,223",200,"66a22c0758a3d5c9d26873c6","6652982569df798e71daaf11","66a232b3477d50b7aea0b065",1,0,0,"true",3,18,"[{""page_index"":0,""viewing_time"":15512.599999904633}]",15512.7999999523,"","","","","","",NA,NA,"","",NA,NA,NA,NA,NA,NA,"","",NA
"23","","type-this",22,397338,"0.0-12.0-1.2",NA,401,"39,186,220,152,61,241,120,11,96,194,179,250,157,58,25,160,14,70,170,199,152,69,31,15,235,220,165,41,32,250,173,223",200,"66a22c0758a3d5c9d26873c6","6652982569df798e71daaf11","66a232b3477d50b7aea0b065",1,0,0,"true",3,18,"",5711,"WRIST","","","","","",NA,NA,"","WRIST",NA,NA,NA,NA,NA,NA,"","",NA
"24","","Hangman_replay",23,483352,"0.0-12.0-2.2",NA,401,"39,186,220,152,61,241,120,11,96,194,179,250,157,58,25,160,14,70,170,199,152,69,31,15,235,220,165,41,32,250,173,223",200,"66a22c0758a3d5c9d26873c6","6652982569df798e71daaf11","66a232b3477d50b7aea0b065",1,0,0,"true",3,18,"",NA,"","","","","WRIST","H,A,U,M,T,P,E,F,J,S,R,I,W",13,7,"false","",NA,NA,NA,NA,NA,NA,"","",NA
"25","","instructions",24,487069,"0.0-12.0-3.2",NA,401,"39,186,220,152,61,241,120,11,96,194,179,250,157,58,25,160,14,70,170,199,152,69,31,15,235,220,165,41,32,250,173,223",200,"66a22c0758a3d5c9d26873c6","6652982569df798e71daaf11","66a232b3477d50b7aea0b065",1,0,0,"true",3,18,"[{""page_index"":0,""viewing_time"":3715}]",3716.40000009537,"","","","","","",NA,NA,"","",NA,NA,NA,NA,NA,NA,"","",NA
"26","","Guess_leaderboard",25,490480,"0.0-12.0-4.2",NA,401,"39,186,220,152,61,241,120,11,96,194,179,250,157,58,25,160,14,70,170,199,152,69,31,15,235,220,165,41,32,250,173,223",200,"66a22c0758a3d5c9d26873c6","6652982569df798e71daaf11","66a232b3477d50b7aea0b065",1,0,0,"true",3,18,"",NA,"","","","","WRIST","",NA,NA,"","",2652.09999990463,78,89,2,58,20,"","",NA
"27","","instructions",26,495913,"0.0-12.0-0.3",NA,401,"39,186,220,152,61,241,120,11,96,194,179,250,157,58,25,160,14,70,170,199,152,69,31,15,235,220,165,41,32,250,173,223",200,"66a22c0758a3d5c9d26873c6","6652982569df798e71daaf11","66a232b3477d50b7aea0b065",1,0,0,"true",3,18,"[{""page_index"":0,""viewing_time"":5431.299999952316}]",5431.5,"","","","","","",NA,NA,"","",NA,NA,NA,NA,NA,NA,"","",NA
"28","","type-this",27,512557,"0.0-12.0-1.3",NA,401,"39,186,220,152,61,241,120,11,96,194,179,250,157,58,25,160,14,70,170,199,152,69,31,15,235,220,165,41,32,250,173,223",200,"66a22c0758a3d5c9d26873c6","6652982569df798e71daaf11","66a232b3477d50b7aea0b065",1,0,0,"true",3,18,"",16140.0999999046,"NECTARINE","","","","","",NA,NA,"","NECTARINE",NA,NA,NA,NA,NA,NA,"","",NA
"29","","Hangman_replay",28,574486,"0.0-12.0-2.3",NA,401,"39,186,220,152,61,241,120,11,96,194,179,250,157,58,25,160,14,70,170,199,152,69,31,15,235,220,165,41,32,250,173,223",200,"66a22c0758a3d5c9d26873c6","6652982569df798e71daaf11","66a232b3477d50b7aea0b065",1,0,0,"true",3,18,"",NA,"","","","","NECTARINE","A,E,B,C,D,F,G,H,P,S,T,N,R,I",14,8,"false","",NA,NA,NA,NA,NA,NA,"","",NA
"30","","instructions",29,577334,"0.0-12.0-3.3",NA,401,"39,186,220,152,61,241,120,11,96,194,179,250,157,58,25,160,14,70,170,199,152,69,31,15,235,220,165,41,32,250,173,223",200,"66a22c0758a3d5c9d26873c6","6652982569df798e71daaf11","66a232b3477d50b7aea0b065",1,0,0,"true",3,18,"[{""page_index"":0,""viewing_time"":2847}]",2847.39999985695,"","","","","","",NA,NA,"","",NA,NA,NA,NA,NA,NA,"","",NA
"31","","Guess_leaderboard",30,587899,"0.0-12.0-4.3",NA,401,"39,186,220,152,61,241,120,11,96,194,179,250,157,58,25,160,14,70,170,199,152,69,31,15,235,220,165,41,32,250,173,223",200,"66a22c0758a3d5c9d26873c6","6652982569df798e71daaf11","66a232b3477d50b7aea0b065",1,0,0,"true",3,18,"",NA,"","","","","NECTARINE","",NA,NA,"","",9808.40000009537,28,9,3,49,21,"","",NA
"32","","instructions",31,593472,"0.0-12.0-0.4",NA,401,"39,186,220,152,61,241,120,11,96,194,179,250,157,58,25,160,14,70,170,199,152,69,31,15,235,220,165,41,32,250,173,223",200,"66a22c0758a3d5c9d26873c6","6652982569df798e71daaf11","66a232b3477d50b7aea0b065",1,0,0,"true",3,18,"[{""page_index"":0,""viewing_time"":5570.899999856949}]",5571.09999990463,"","","","","","",NA,NA,"","",NA,NA,NA,NA,NA,NA,"","",NA
"33","","type-this",32,602269,"0.0-12.0-1.4",NA,401,"39,186,220,152,61,241,120,11,96,194,179,250,157,58,25,160,14,70,170,199,152,69,31,15,235,220,165,41,32,250,173,223",200,"66a22c0758a3d5c9d26873c6","6652982569df798e71daaf11","66a232b3477d50b7aea0b065",1,0,0,"true",3,18,"",8293,"THIRTY FOUR","","","","","",NA,NA,"","THIRTY FOUR",NA,NA,NA,NA,NA,NA,"","",NA
"34","","Hangman_replay",33,628554,"0.0-12.0-2.4",NA,401,"39,186,220,152,61,241,120,11,96,194,179,250,157,58,25,160,14,70,170,199,152,69,31,15,235,220,165,41,32,250,173,223",200,"66a22c0758a3d5c9d26873c6","6652982569df798e71daaf11","66a232b3477d50b7aea0b065",1,0,0,"true",3,18,"",NA,"","","","","THIRTY FOUR","F,O,U,R,T,H,I,Y",8,15,"false","",NA,NA,NA,NA,NA,NA,"","",NA
"35","","instructions",34,630539,"0.0-12.0-3.4",NA,401,"39,186,220,152,61,241,120,11,96,194,179,250,157,58,25,160,14,70,170,199,152,69,31,15,235,220,165,41,32,250,173,223",200,"66a22c0758a3d5c9d26873c6","6652982569df798e71daaf11","66a232b3477d50b7aea0b065",1,0,0,"true",3,18,"[{""page_index"":0,""viewing_time"":1983.7999999523163}]",1984.09999990463,"","","","","","",NA,NA,"","",NA,NA,NA,NA,NA,NA,"","",NA
"36","","Guess_leaderboard",35,636833,"0.0-12.0-4.4",NA,401,"39,186,220,152,61,241,120,11,96,194,179,250,157,58,25,160,14,70,170,199,152,69,31,15,235,220,165,41,32,250,173,223",200,"66a22c0758a3d5c9d26873c6","6652982569df798e71daaf11","66a232b3477d50b7aea0b065",1,0,0,"true",3,18,"",NA,"","","","","THIRTY FOUR","",NA,NA,"","",5536.10000014305,10,16,4,20,10,"","",NA
"37","","survey-text",36,645138,"0.0-13.0",NA,401,"39,186,220,152,61,241,120,11,96,194,179,250,157,58,25,160,14,70,170,199,152,69,31,15,235,220,165,41,32,250,173,223",200,"66a22c0758a3d5c9d26873c6","6652982569df798e71daaf11","66a232b3477d50b7aea0b065",1,0,0,"true",3,18,"",8302.29999995232,"{""Q0"":""THIRTY FOUR""}","","","","","",NA,NA,"","",NA,NA,NA,NA,NA,NA,"thirty four","",NA
"38","","survey-multi-choice",37,656524,"0.0-14.0",NA,401,"39,186,220,152,61,241,120,11,96,194,179,250,157,58,25,160,14,70,170,199,152,69,31,15,235,220,165,41,32,250,173,223",200,"66a22c0758a3d5c9d26873c6","6652982569df798e71daaf11","66a232b3477d50b7aea0b065",1,0,0,"true",3,18,"",11384.0999999046,"{""Q0"":""3. I would be <b>third</b> out of the six of us.""}","[0]","","self-rating","","",NA,NA,"","",NA,3,NA,NA,NA,NA,"","",NA
"39","","html-slider-response",38,660571,"0.0-15.0",NA,401,"39,186,220,152,61,241,120,11,96,194,179,250,157,58,25,160,14,70,170,199,152,69,31,15,235,220,165,41,32,250,173,223",200,"66a22c0758a3d5c9d26873c6","6652982569df798e71daaf11","66a232b3477d50b7aea0b065",1,0,0,"true",3,18,"",4044.60000014305,"","","","","","",NA,NA,"","18",NA,NA,NA,NA,NA,NA,"","<p>Overall, how confident were you in your answer to this last question?</p>",18
"40","","survey-text",39,679207,"0.0-16.0",NA,401,"39,186,220,152,61,241,120,11,96,194,179,250,157,58,25,160,14,70,170,199,152,69,31,15,235,220,165,41,32,250,173,223",200,"66a22c0758a3d5c9d26873c6","6652982569df798e71daaf11","66a232b3477d50b7aea0b065",1,0,0,"true",3,18,"",18633.5,"{""Q0"":""Evaluations of players based on speed vs strategy""}","","","","","",NA,NA,"","",NA,NA,NA,NA,NA,NA,"","",NA
"41","","survey-text",40,690165,"0.0-17.0",NA,401,"39,186,220,152,61,241,120,11,96,194,179,250,157,58,25,160,14,70,170,199,152,69,31,15,235,220,165,41,32,250,173,223",200,"66a22c0758a3d5c9d26873c6","6652982569df798e71daaf11","66a232b3477d50b7aea0b065",1,0,0,"true",3,18,"",10956.0999999046,"{""Q0"":""No, nothing in particular.""}","","","","","",NA,NA,"","",NA,NA,NA,NA,NA,NA,"","",NA
"42","","instructions",41,700159,"0.0-18.0",NA,401,"39,186,220,152,61,241,120,11,96,194,179,250,157,58,25,160,14,70,170,199,152,69,31,15,235,220,165,41,32,250,173,223",200,"66a22c0758a3d5c9d26873c6","6652982569df798e71daaf11","66a232b3477d50b7aea0b065",1,0,0,"true",3,18,"[{""page_index"":0,""viewing_time"":9993.799999952316}]",9994,"","","","","","",NA,NA,"","",NA,NA,NA,NA,NA,NA,"","",NA
"43","true","fullscreen",0,3603,"0.0-0.0",NA,402,"67,151,78,215,64,102,178,7,195,15,253,15,237,81,70,118,46,108,96,116,90,201,119,0,75,193,69,7,199,196,43,80",201,"66a22c0758a3d5c9d26873c6","65eb6ffd3cd8843ed98975a5","66a235d63a8a52dc827bc928",1,0,0,"false",3,82,"",NA,"","","","","","",NA,NA,"",NA,NA,NA,NA,NA,NA,NA,"","",NA
"44","","instructions",1,6218,"0.0-1.0",NA,402,"67,151,78,215,64,102,178,7,195,15,253,15,237,81,70,118,46,108,96,116,90,201,119,0,75,193,69,7,199,196,43,80",201,"66a22c0758a3d5c9d26873c6","65eb6ffd3cd8843ed98975a5","66a235d63a8a52dc827bc928",1,0,0,"false",3,82,"[{""page_index"":0,""viewing_time"":2614.5}]",2614.79999995232,"","","","","","",NA,NA,"",NA,NA,NA,NA,NA,NA,NA,"","",NA
"45","","instructions",2,12080,"0.0-2.0-0.0",NA,402,"67,151,78,215,64,102,178,7,195,15,253,15,237,81,70,118,46,108,96,116,90,201,119,0,75,193,69,7,199,196,43,80",201,"66a22c0758a3d5c9d26873c6","65eb6ffd3cd8843ed98975a5","66a235d63a8a52dc827bc928",1,0,0,"false",3,82,"[{""page_index"":0,""viewing_time"":5861.100000023842}]",5861.5,"","","","","","",NA,NA,"",NA,NA,NA,NA,NA,NA,NA,"","",NA
"46","","survey-multi-choice",3,18453,"0.0-2.0-1.0",NA,402,"67,151,78,215,64,102,178,7,195,15,253,15,237,81,70,118,46,108,96,116,90,201,119,0,75,193,69,7,199,196,43,80",201,"66a22c0758a3d5c9d26873c6","65eb6ffd3cd8843ed98975a5","66a235d63a8a52dc827bc928",1,0,0,"false",3,82,"",6369.69999992847,"{""Q0"":""... reveal the word with as <b>few letter guesses</b> as possible""}","[0]","true","multichoice_nonpretend","","",NA,NA,"",NA,NA,NA,NA,NA,NA,NA,"","",NA
"47","","instructions",4,19670,"0.0-3.0",NA,402,"67,151,78,215,64,102,178,7,195,15,253,15,237,81,70,118,46,108,96,116,90,201,119,0,75,193,69,7,199,196,43,80",201,"66a22c0758a3d5c9d26873c6","65eb6ffd3cd8843ed98975a5","66a235d63a8a52dc827bc928",1,0,0,"false",3,82,"[{""page_index"":0,""viewing_time"":1216.7999999523163}]",1217.10000002384,"","","","","","",NA,NA,"",NA,NA,NA,NA,NA,NA,NA,"","",NA
"48","","Hangman",5,40175,"0.0-4.0",NA,402,"67,151,78,215,64,102,178,7,195,15,253,15,237,81,70,118,46,108,96,116,90,201,119,0,75,193,69,7,199,196,43,80",201,"66a22c0758a3d5c9d26873c6","65eb6ffd3cd8843ed98975a5","66a235d63a8a52dc827bc928",1,0,0,"false",3,82,"",NA,"","","","","ZEBRA","A,E,S,R,Z,B",6,14,"false",NA,NA,NA,NA,NA,NA,NA,"","",NA
"49","","instructions",6,55508,"0.0-5.0",NA,402,"67,151,78,215,64,102,178,7,195,15,253,15,237,81,70,118,46,108,96,116,90,201,119,0,75,193,69,7,199,196,43,80",201,"66a22c0758a3d5c9d26873c6","65eb6ffd3cd8843ed98975a5","66a235d63a8a52dc827bc928",1,0,0,"false",3,82,"[{""page_index"":0,""viewing_time"":1753.7999999523163},{""page_index"":1,""viewing_time"":13577}]",15331.6999999285,"","","","","","",NA,NA,"",NA,NA,NA,NA,NA,NA,NA,"","",NA
"50","","survey-multi-choice",7,59797,"0.0-6.0",NA,402,"67,151,78,215,64,102,178,7,195,15,253,15,237,81,70,118,46,108,96,116,90,201,119,0,75,193,69,7,199,196,43,80",201,"66a22c0758a3d5c9d26873c6","65eb6ffd3cd8843ed98975a5","66a235d63a8a52dc827bc928",1,0,0,"false",3,82,"",4287.80000007153,"{""Q0"":""...from <b>a previous session</b> that is not part of the upcoming tournament.""}","[0]","true","multichoice_leaderboard","","",NA,NA,"",NA,NA,NA,NA,NA,NA,NA,"","",NA
"51","","instructions",8,68022,"0.0-8.0",NA,402,"67,151,78,215,64,102,178,7,195,15,253,15,237,81,70,118,46,108,96,116,90,201,119,0,75,193,69,7,199,196,43,80",201,"66a22c0758a3d5c9d26873c6","65eb6ffd3cd8843ed98975a5","66a235d63a8a52dc827bc928",1,0,0,"false",3,82,"[{""page_index"":0,""viewing_time"":8224.5}]",8224.79999995232,"","","","","","",NA,NA,"",NA,NA,NA,NA,NA,NA,NA,"","",NA
"52","","survey-multi-choice",9,72353,"0.0-9.0",NA,402,"67,151,78,215,64,102,178,7,195,15,253,15,237,81,70,118,46,108,96,116,90,201,119,0,75,193,69,7,199,196,43,80",201,"66a22c0758a3d5c9d26873c6","65eb6ffd3cd8843ed98975a5","66a235d63a8a52dc827bc928",1,0,0,"false",3,82,"",4329.60000002384,"{""Q0"":""...players' leaderboard position (in terms of <b>points</b>) in an <b>upcoming tournament.</b>""}","[0]","true","multichoice_tournament","","",NA,NA,"",NA,NA,NA,NA,NA,NA,NA,"","",NA
"53","","instructions",10,78596,"0.0-11.0",NA,402,"67,151,78,215,64,102,178,7,195,15,253,15,237,81,70,118,46,108,96,116,90,201,119,0,75,193,69,7,199,196,43,80",201,"66a22c0758a3d5c9d26873c6","65eb6ffd3cd8843ed98975a5","66a235d63a8a52dc827bc928",1,0,0,"false",3,82,"[{""page_index"":0,""viewing_time"":6241}]",6241.30000007153,"","","","","","",NA,NA,"",NA,NA,NA,NA,NA,NA,NA,"","",NA
"54","","instructions",11,83695,"0.0-12.0-0.0",NA,402,"67,151,78,215,64,102,178,7,195,15,253,15,237,81,70,118,46,108,96,116,90,201,119,0,75,193,69,7,199,196,43,80",201,"66a22c0758a3d5c9d26873c6","65eb6ffd3cd8843ed98975a5","66a235d63a8a52dc827bc928",1,0,0,"false",3,82,"[{""page_index"":0,""viewing_time"":5097.300000071526}]",5097.60000002384,"","","","","","",NA,NA,"",NA,NA,NA,NA,NA,NA,NA,"","",NA
"55","","Hangman_replay",12,145627,"0.0-12.0-1.0",NA,402,"67,151,78,215,64,102,178,7,195,15,253,15,237,81,70,118,46,108,96,116,90,201,119,0,75,193,69,7,199,196,43,80",201,"66a22c0758a3d5c9d26873c6","65eb6ffd3cd8843ed98975a5","66a235d63a8a52dc827bc928",1,0,0,"false",3,82,"",NA,"","","","","NECTARINE","A,E,B,C,D,F,G,H,P,S,T,N,R,I",14,8,"false",NA,NA,NA,NA,NA,NA,NA,"","",NA
"56","","instructions",13,148272,"0.0-12.0-2.0",NA,402,"67,151,78,215,64,102,178,7,195,15,253,15,237,81,70,118,46,108,96,116,90,201,119,0,75,193,69,7,199,196,43,80",201,"66a22c0758a3d5c9d26873c6","65eb6ffd3cd8843ed98975a5","66a235d63a8a52dc827bc928",1,0,0,"false",3,82,"[{""page_index"":0,""viewing_time"":2644.399999976158}]",2644.79999995232,"","","","","","",NA,NA,"",NA,NA,NA,NA,NA,NA,NA,"","",NA
"57","","Guess_leaderboard",14,152714,"0.0-12.0-3.0",NA,402,"67,151,78,215,64,102,178,7,195,15,253,15,237,81,70,118,46,108,96,116,90,201,119,0,75,193,69,7,199,196,43,80",201,"66a22c0758a3d5c9d26873c6","65eb6ffd3cd8843ed98975a5","66a235d63a8a52dc827bc928",1,0,0,"false",3,82,"",NA,"","","","","NECTARINE","",NA,NA,"",NA,3686.90000009537,68,9,0,49,19,"","",NA
"58","","instructions",15,155320,"0.0-12.0-0.1",NA,402,"67,151,78,215,64,102,178,7,195,15,253,15,237,81,70,118,46,108,96,116,90,201,119,0,75,193,69,7,199,196,43,80",201,"66a22c0758a3d5c9d26873c6","65eb6ffd3cd8843ed98975a5","66a235d63a8a52dc827bc928",1,0,0,"false",3,82,"[{""page_index"":0,""viewing_time"":2604.2999999523163}]",2604.60000002384,"","","","","","",NA,NA,"",NA,NA,NA,NA,NA,NA,NA,"","",NA
"59","","Hangman_replay",16,224949,"0.0-12.0-1.1",NA,402,"67,151,78,215,64,102,178,7,195,15,253,15,237,81,70,118,46,108,96,116,90,201,119,0,75,193,69,7,199,196,43,80",201,"66a22c0758a3d5c9d26873c6","65eb6ffd3cd8843ed98975a5","66a235d63a8a52dc827bc928",1,0,0,"false",3,82,"",NA,"","","","","WRIST","E,O,A,I,H,R,S,T,W",9,11,"false",NA,NA,NA,NA,NA,NA,NA,"","",NA
"60","","instructions",17,226601,"0.0-12.0-2.1",NA,402,"67,151,78,215,64,102,178,7,195,15,253,15,237,81,70,118,46,108,96,116,90,201,119,0,75,193,69,7,199,196,43,80",201,"66a22c0758a3d5c9d26873c6","65eb6ffd3cd8843ed98975a5","66a235d63a8a52dc827bc928",1,0,0,"false",3,82,"[{""page_index"":0,""viewing_time"":1651.4000000953674}]",1651.80000007153,"","","","","","",NA,NA,"",NA,NA,NA,NA,NA,NA,NA,"","",NA
"61","","Guess_leaderboard",18,230222,"0.0-12.0-3.1",NA,402,"67,151,78,215,64,102,178,7,195,15,253,15,237,81,70,118,46,108,96,116,90,201,119,0,75,193,69,7,199,196,43,80",201,"66a22c0758a3d5c9d26873c6","65eb6ffd3cd8843ed98975a5","66a235d63a8a52dc827bc928",1,0,0,"false",3,82,"",NA,"","","","","WRIST","",NA,NA,"",NA,2852.30000007153,68,67,1,2,66,"","",NA
"62","","instructions",19,232101,"0.0-12.0-0.2",NA,402,"67,151,78,215,64,102,178,7,195,15,253,15,237,81,70,118,46,108,96,116,90,201,119,0,75,193,69,7,199,196,43,80",201,"66a22c0758a3d5c9d26873c6","65eb6ffd3cd8843ed98975a5","66a235d63a8a52dc827bc928",1,0,0,"false",3,82,"[{""page_index"":0,""viewing_time"":1877.7000000476837}]",1877.80000007153,"","","","","","",NA,NA,"",NA,NA,NA,NA,NA,NA,NA,"","",NA
"63","","Hangman_replay",20,296076,"0.0-12.0-1.2",NA,402,"67,151,78,215,64,102,178,7,195,15,253,15,237,81,70,118,46,108,96,116,90,201,119,0,75,193,69,7,199,196,43,80",201,"66a22c0758a3d5c9d26873c6","65eb6ffd3cd8843ed98975a5","66a235d63a8a52dc827bc928",1,0,0,"false",3,82,"",NA,"","","","","THIRTY FOUR","F,O,U,R,T,H,I,Y",8,15,"false",NA,NA,NA,NA,NA,NA,NA,"","",NA
"64","","instructions",21,297234,"0.0-12.0-2.2",NA,402,"67,151,78,215,64,102,178,7,195,15,253,15,237,81,70,118,46,108,96,116,90,201,119,0,75,193,69,7,199,196,43,80",201,"66a22c0758a3d5c9d26873c6","65eb6ffd3cd8843ed98975a5","66a235d63a8a52dc827bc928",1,0,0,"false",3,82,"[{""page_index"":0,""viewing_time"":1157.5}]",1157.89999997616,"","","","","","",NA,NA,"",NA,NA,NA,NA,NA,NA,NA,"","",NA
"65","","Guess_leaderboard",22,300453,"0.0-12.0-3.2",NA,402,"67,151,78,215,64,102,178,7,195,15,253,15,237,81,70,118,46,108,96,116,90,201,119,0,75,193,69,7,199,196,43,80",201,"66a22c0758a3d5c9d26873c6","65eb6ffd3cd8843ed98975a5","66a235d63a8a52dc827bc928",1,0,0,"false",3,82,"",NA,"","","","","THIRTY FOUR","",NA,NA,"",NA,2450.89999997616,15,68,2,45,30,"","",NA
"66","","instructions",23,302129,"0.0-12.0-0.3",NA,402,"67,151,78,215,64,102,178,7,195,15,253,15,237,81,70,118,46,108,96,116,90,201,119,0,75,193,69,7,199,196,43,80",201,"66a22c0758a3d5c9d26873c6","65eb6ffd3cd8843ed98975a5","66a235d63a8a52dc827bc928",1,0,0,"false",3,82,"[{""page_index"":0,""viewing_time"":1674.1000000238419}]",1674.40000009537,"","","","","","",NA,NA,"",NA,NA,NA,NA,NA,NA,NA,"","",NA
"67","","Hangman_replay",24,333022,"0.0-12.0-1.3",NA,402,"67,151,78,215,64,102,178,7,195,15,253,15,237,81,70,118,46,108,96,116,90,201,119,0,75,193,69,7,199,196,43,80",201,"66a22c0758a3d5c9d26873c6","65eb6ffd3cd8843ed98975a5","66a235d63a8a52dc827bc928",1,0,0,"false",3,82,"",NA,"","","","","USAIN BOLT","A,B,K,J,C,D,E,F,O,N,M,L,T,U,V,W,X,S,G,P,H,I",22,2,"false",NA,NA,NA,NA,NA,NA,NA,"","",NA
"68","","instructions",25,334359,"0.0-12.0-2.3",NA,402,"67,151,78,215,64,102,178,7,195,15,253,15,237,81,70,118,46,108,96,116,90,201,119,0,75,193,69,7,199,196,43,80",201,"66a22c0758a3d5c9d26873c6","65eb6ffd3cd8843ed98975a5","66a235d63a8a52dc827bc928",1,0,0,"false",3,82,"[{""page_index"":0,""viewing_time"":1336}]",1336.30000007153,"","","","","","",NA,NA,"",NA,NA,NA,NA,NA,NA,NA,"","",NA
"69","","Guess_leaderboard",26,336201,"0.0-12.0-3.3",NA,402,"67,151,78,215,64,102,178,7,195,15,253,15,237,81,70,118,46,108,96,116,90,201,119,0,75,193,69,7,199,196,43,80",201,"66a22c0758a3d5c9d26873c6","65eb6ffd3cd8843ed98975a5","66a235d63a8a52dc827bc928",1,0,0,"false",3,82,"",NA,"","","","","USAIN BOLT","",NA,NA,"",NA,1076.5,78,64,3,93,15,"","",NA
"70","","instructions",27,337560,"0.0-12.0-0.4",NA,402,"67,151,78,215,64,102,178,7,195,15,253,15,237,81,70,118,46,108,96,116,90,201,119,0,75,193,69,7,199,196,43,80",201,"66a22c0758a3d5c9d26873c6","65eb6ffd3cd8843ed98975a5","66a235d63a8a52dc827bc928",1,0,0,"false",3,82,"[{""page_index"":0,""viewing_time"":1357.8000000715256}]",1358,"","","","","","",NA,NA,"",NA,NA,NA,NA,NA,NA,NA,"","",NA
"71","","Hangman_replay",28,352021,"0.0-12.0-1.4",NA,402,"67,151,78,215,64,102,178,7,195,15,253,15,237,81,70,118,46,108,96,116,90,201,119,0,75,193,69,7,199,196,43,80",201,"66a22c0758a3d5c9d26873c6","65eb6ffd3cd8843ed98975a5","66a235d63a8a52dc827bc928",1,0,0,"false",3,82,"",NA,"","","","","KENTUCKY","K,Y,E,N,T,U,C",7,15,"false",NA,NA,NA,NA,NA,NA,NA,"","",NA
"72","","instructions",29,353297,"0.0-12.0-2.4",NA,402,"67,151,78,215,64,102,178,7,195,15,253,15,237,81,70,118,46,108,96,116,90,201,119,0,75,193,69,7,199,196,43,80",201,"66a22c0758a3d5c9d26873c6","65eb6ffd3cd8843ed98975a5","66a235d63a8a52dc827bc928",1,0,0,"false",3,82,"[{""page_index"":0,""viewing_time"":1275.1999999284744}]",1275.5,"","","","","","",NA,NA,"",NA,NA,NA,NA,NA,NA,NA,"","",NA
"73","","Guess_leaderboard",30,355216,"0.0-12.0-3.4",NA,402,"67,151,78,215,64,102,178,7,195,15,253,15,237,81,70,118,46,108,96,116,90,201,119,0,75,193,69,7,199,196,43,80",201,"66a22c0758a3d5c9d26873c6","65eb6ffd3cd8843ed98975a5","66a235d63a8a52dc827bc928",1,0,0,"false",3,82,"",NA,"","","","","KENTUCKY","",NA,NA,"",NA,1155.89999997616,23,79,4,61,38,"","",NA
"74","","survey-text",31,359808,"0.0-13.0",NA,402,"67,151,78,215,64,102,178,7,195,15,253,15,237,81,70,118,46,108,96,116,90,201,119,0,75,193,69,7,199,196,43,80",201,"66a22c0758a3d5c9d26873c6","65eb6ffd3cd8843ed98975a5","66a235d63a8a52dc827bc928",1,0,0,"false",3,82,"",4588.20000004768,"{""Q0"":""Kentucky""}","","","","","",NA,NA,"",NA,NA,NA,NA,NA,NA,NA,"kentucky","",NA
"75","","survey-multi-choice",32,366916,"0.0-14.0",NA,402,"67,151,78,215,64,102,178,7,195,15,253,15,237,81,70,118,46,108,96,116,90,201,119,0,75,193,69,7,199,196,43,80",201,"66a22c0758a3d5c9d26873c6","65eb6ffd3cd8843ed98975a5","66a235d63a8a52dc827bc928",1,0,0,"false",3,82,"",7105.80000007153,"{""Q0"":""3. I would be <b>third</b> out of the six of us.""}","[0]","","self-rating","","",NA,NA,"",NA,NA,3,NA,NA,NA,NA,"","",NA
"76","","html-slider-response",33,371908,"0.0-15.0",NA,402,"67,151,78,215,64,102,178,7,195,15,253,15,237,81,70,118,46,108,96,116,90,201,119,0,75,193,69,7,199,196,43,80",201,"66a22c0758a3d5c9d26873c6","65eb6ffd3cd8843ed98975a5","66a235d63a8a52dc827bc928",1,0,0,"false",3,82,"",4988.29999995232,"","","","","","",NA,NA,"","82",NA,NA,NA,NA,NA,NA,"","<p>Overall, how confident were you in your answer to this last question?</p>",82
"77","","survey-text",34,399641,"0.0-16.0",NA,402,"67,151,78,215,64,102,178,7,195,15,253,15,237,81,70,118,46,108,96,116,90,201,119,0,75,193,69,7,199,196,43,80",201,"66a22c0758a3d5c9d26873c6","65eb6ffd3cd8843ed98975a5","66a235d63a8a52dc827bc928",1,0,0,"false",3,82,"",27730.2000000477,"{""Q0"":""I'm honestly not sure at all. ""}","","","","","",NA,NA,"",NA,NA,NA,NA,NA,NA,NA,"","",NA
"78","","survey-text",35,402550,"0.0-17.0",NA,402,"67,151,78,215,64,102,178,7,195,15,253,15,237,81,70,118,46,108,96,116,90,201,119,0,75,193,69,7,199,196,43,80",201,"66a22c0758a3d5c9d26873c6","65eb6ffd3cd8843ed98975a5","66a235d63a8a52dc827bc928",1,0,0,"false",3,82,"",2907,"{""Q0"":""No""}","","","","","",NA,NA,"",NA,NA,NA,NA,NA,NA,NA,"","",NA
"79","","instructions",36,403837,"0.0-18.0",NA,402,"67,151,78,215,64,102,178,7,195,15,253,15,237,81,70,118,46,108,96,116,90,201,119,0,75,193,69,7,199,196,43,80",201,"66a22c0758a3d5c9d26873c6","65eb6ffd3cd8843ed98975a5","66a235d63a8a52dc827bc928",1,0,0,"false",3,82,"[{""page_index"":0,""viewing_time"":1286}]",1286.29999995232,"","","","","","",NA,NA,"",NA,NA,NA,NA,NA,NA,NA,"","",NA
"80","true","fullscreen",0,3423,"0.0-0.0",NA,403,"67,151,78,215,64,102,178,7,195,15,253,15,237,81,70,118,46,108,96,116,90,201,119,0,75,193,69,7,199,196,43,80",201,"66a22c0758a3d5c9d26873c6","66076de3ddde71f125afc1f6","66a237eb2bbc85e5f0e4cf53",1,0,0,"true",6,99,"",NA,"","","","","","",NA,NA,"","",NA,NA,NA,NA,NA,NA,"","",NA
"81","","instructions",1,10810,"0.0-1.0",NA,403,"67,151,78,215,64,102,178,7,195,15,253,15,237,81,70,118,46,108,96,116,90,201,119,0,75,193,69,7,199,196,43,80",201,"66a22c0758a3d5c9d26873c6","66076de3ddde71f125afc1f6","66a237eb2bbc85e5f0e4cf53",1,0,0,"true",6,99,"[{""page_index"":0,""viewing_time"":7385.80000000447}]",7386.39999999851,"","","","","","",NA,NA,"","",NA,NA,NA,NA,NA,NA,"","",NA
"82","","instructions",2,24797,"0.0-2.0-0.0",NA,403,"67,151,78,215,64,102,178,7,195,15,253,15,237,81,70,118,46,108,96,116,90,201,119,0,75,193,69,7,199,196,43,80",201,"66a22c0758a3d5c9d26873c6","66076de3ddde71f125afc1f6","66a237eb2bbc85e5f0e4cf53",1,0,0,"true",6,99,"[{""page_index"":0,""viewing_time"":13985}]",13985.400000006,"","","","","","",NA,NA,"","",NA,NA,NA,NA,NA,NA,"","",NA
"83","","survey-multi-choice",3,33161,"0.0-2.0-1.0",NA,403,"67,151,78,215,64,102,178,7,195,15,253,15,237,81,70,118,46,108,96,116,90,201,119,0,75,193,69,7,199,196,43,80",201,"66a22c0758a3d5c9d26873c6","66076de3ddde71f125afc1f6","66a237eb2bbc85e5f0e4cf53",1,0,0,"true",6,99,"",8361.10000000149,"{""Q0"":""... reveal the word with as <b>few letter guesses</b> as possible""}","[0]","true","multichoice_nonpretend","","",NA,NA,"","",NA,NA,NA,NA,NA,NA,"","",NA
"84","","instructions",4,35958,"0.0-3.0",NA,403,"67,151,78,215,64,102,178,7,195,15,253,15,237,81,70,118,46,108,96,116,90,201,119,0,75,193,69,7,199,196,43,80",201,"66a22c0758a3d5c9d26873c6","66076de3ddde71f125afc1f6","66a237eb2bbc85e5f0e4cf53",1,0,0,"true",6,99,"[{""page_index"":0,""viewing_time"":2794.7000000029802}]",2795.5,"","","","","","",NA,NA,"","",NA,NA,NA,NA,NA,NA,"","",NA
"85","","Hangman",5,153353,"0.0-4.0",NA,403,"67,151,78,215,64,102,178,7,195,15,253,15,237,81,70,118,46,108,96,116,90,201,119,0,75,193,69,7,199,196,43,80",201,"66a22c0758a3d5c9d26873c6","66076de3ddde71f125afc1f6","66a237eb2bbc85e5f0e4cf53",1,0,0,"true",6,99,"",NA,"","","","","ZEBRA","M,A,P,E,I,G,H,C,R,O,L,T,S,U,V,N,D,F,J,K,B,Z",22,-2,"false","",NA,NA,NA,NA,NA,NA,"","",NA
"86","","instructions",6,181790,"0.0-5.0",NA,403,"67,151,78,215,64,102,178,7,195,15,253,15,237,81,70,118,46,108,96,116,90,201,119,0,75,193,69,7,199,196,43,80",201,"66a22c0758a3d5c9d26873c6","66076de3ddde71f125afc1f6","66a237eb2bbc85e5f0e4cf53",1,0,0,"true",6,99,"[{""page_index"":0,""viewing_time"":3335.4000000059605},{""page_index"":1,""viewing_time"":25101.29999999702}]",28437.200000003,"","","","","","",NA,NA,"","",NA,NA,NA,NA,NA,NA,"","",NA
"87","","survey-multi-choice",7,193076,"0.0-6.0",NA,403,"67,151,78,215,64,102,178,7,195,15,253,15,237,81,70,118,46,108,96,116,90,201,119,0,75,193,69,7,199,196,43,80",201,"66a22c0758a3d5c9d26873c6","66076de3ddde71f125afc1f6","66a237eb2bbc85e5f0e4cf53",1,0,0,"true",6,99,"",11283.8999999985,"{""Q0"":""...from <b>a previous session</b> that is not part of the upcoming tournament.""}","[0]","true","multichoice_leaderboard","","",NA,NA,"","",NA,NA,NA,NA,NA,NA,"","",NA
"88","","instructions",8,202007,"0.0-8.0",NA,403,"67,151,78,215,64,102,178,7,195,15,253,15,237,81,70,118,46,108,96,116,90,201,119,0,75,193,69,7,199,196,43,80",201,"66a22c0758a3d5c9d26873c6","66076de3ddde71f125afc1f6","66a237eb2bbc85e5f0e4cf53",1,0,0,"true",6,99,"[{""page_index"":0,""viewing_time"":8929.39999999851}]",8930.10000000149,"","","","","","",NA,NA,"","",NA,NA,NA,NA,NA,NA,"","",NA
"89","","survey-multi-choice",9,209457,"0.0-9.0",NA,403,"67,151,78,215,64,102,178,7,195,15,253,15,237,81,70,118,46,108,96,116,90,201,119,0,75,193,69,7,199,196,43,80",201,"66a22c0758a3d5c9d26873c6","66076de3ddde71f125afc1f6","66a237eb2bbc85e5f0e4cf53",1,0,0,"true",6,99,"",7448.19999999553,"{""Q0"":""...players' leaderboard position (in terms of <b>points</b>) in an <b>upcoming tournament.</b>""}","[0]","true","multichoice_tournament","","",NA,NA,"","",NA,NA,NA,NA,NA,NA,"","",NA
"90","","instructions",10,217799,"0.0-11.0",NA,403,"67,151,78,215,64,102,178,7,195,15,253,15,237,81,70,118,46,108,96,116,90,201,119,0,75,193,69,7,199,196,43,80",201,"66a22c0758a3d5c9d26873c6","66076de3ddde71f125afc1f6","66a237eb2bbc85e5f0e4cf53",1,0,0,"true",6,99,"[{""page_index"":0,""viewing_time"":8341.20000000298}]",8341.30000000447,"","","","","","",NA,NA,"","",NA,NA,NA,NA,NA,NA,"","",NA
"91","","instructions",11,232448,"0.0-12.0-0.0",NA,403,"67,151,78,215,64,102,178,7,195,15,253,15,237,81,70,118,46,108,96,116,90,201,119,0,75,193,69,7,199,196,43,80",201,"66a22c0758a3d5c9d26873c6","66076de3ddde71f125afc1f6","66a237eb2bbc85e5f0e4cf53",1,0,0,"true",6,99,"[{""page_index"":0,""viewing_time"":14647.60000000149}]",14648,"","","","","","",NA,NA,"","",NA,NA,NA,NA,NA,NA,"","",NA
"92","","type-this",12,239344,"0.0-12.0-1.0",NA,403,"67,151,78,215,64,102,178,7,195,15,253,15,237,81,70,118,46,108,96,116,90,201,119,0,75,193,69,7,199,196,43,80",201,"66a22c0758a3d5c9d26873c6","66076de3ddde71f125afc1f6","66a237eb2bbc85e5f0e4cf53",1,0,0,"true",6,99,"",6389.80000000447,"nectarine","","","","","",NA,NA,"","nectarine",NA,NA,NA,NA,NA,NA,"","",NA
"93","","Hangman_replay",13,301261,"0.0-12.0-2.0",NA,403,"67,151,78,215,64,102,178,7,195,15,253,15,237,81,70,118,46,108,96,116,90,201,119,0,75,193,69,7,199,196,43,80",201,"66a22c0758a3d5c9d26873c6","66076de3ddde71f125afc1f6","66a237eb2bbc85e5f0e4cf53",1,0,0,"true",6,99,"",NA,"","","","","NECTARINE","A,E,B,C,D,F,G,H,P,S,T,N,R,I",14,8,"false","",NA,NA,NA,NA,NA,NA,"","",NA
"94","","instructions",14,306466,"0.0-12.0-3.0",NA,403,"67,151,78,215,64,102,178,7,195,15,253,15,237,81,70,118,46,108,96,116,90,201,119,0,75,193,69,7,199,196,43,80",201,"66a22c0758a3d5c9d26873c6","66076de3ddde71f125afc1f6","66a237eb2bbc85e5f0e4cf53",1,0,0,"true",6,99,"[{""page_index"":0,""viewing_time"":5205.19999999553}]",5205.79999999702,"","","","","","",NA,NA,"","",NA,NA,NA,NA,NA,NA,"","",NA
"95","","Guess_leaderboard",15,314172,"0.0-12.0-4.0",NA,403,"67,151,78,215,64,102,178,7,195,15,253,15,237,81,70,118,46,108,96,116,90,201,119,0,75,193,69,7,199,196,43,80",201,"66a22c0758a3d5c9d26873c6","66076de3ddde71f125afc1f6","66a237eb2bbc85e5f0e4cf53",1,0,0,"true",6,99,"",NA,"","","","","NECTARINE","",NA,NA,"","",6942.5,31,9,0,49,18,"","",NA
"96","","instructions",16,323831,"0.0-12.0-0.1",NA,403,"67,151,78,215,64,102,178,7,195,15,253,15,237,81,70,118,46,108,96,116,90,201,119,0,75,193,69,7,199,196,43,80",201,"66a22c0758a3d5c9d26873c6","66076de3ddde71f125afc1f6","66a237eb2bbc85e5f0e4cf53",1,0,0,"true",6,99,"[{""page_index"":0,""viewing_time"":9656.70000000298}]",9656.90000000596,"","","","","","",NA,NA,"","",NA,NA,NA,NA,NA,NA,"","",NA
"97","","type-this",17,330569,"0.0-12.0-1.1",NA,403,"67,151,78,215,64,102,178,7,195,15,253,15,237,81,70,118,46,108,96,116,90,201,119,0,75,193,69,7,199,196,43,80",201,"66a22c0758a3d5c9d26873c6","66076de3ddde71f125afc1f6","66a237eb2bbc85e5f0e4cf53",1,0,0,"true",6,99,"",6233.10000000149,"wrist","","","","","",NA,NA,"","wrist",NA,NA,NA,NA,NA,NA,"","",NA
"98","","Hangman_replay",18,400189,"0.0-12.0-2.1",NA,403,"67,151,78,215,64,102,178,7,195,15,253,15,237,81,70,118,46,108,96,116,90,201,119,0,75,193,69,7,199,196,43,80",201,"66a22c0758a3d5c9d26873c6","66076de3ddde71f125afc1f6","66a237eb2bbc85e5f0e4cf53",1,0,0,"true",6,99,"",NA,"","","","","WRIST","E,O,A,I,H,R,S,T,W",9,11,"false","",NA,NA,NA,NA,NA,NA,"","",NA
"99","","instructions",19,403783,"0.0-12.0-3.1",NA,403,"67,151,78,215,64,102,178,7,195,15,253,15,237,81,70,118,46,108,96,116,90,201,119,0,75,193,69,7,199,196,43,80",201,"66a22c0758a3d5c9d26873c6","66076de3ddde71f125afc1f6","66a237eb2bbc85e5f0e4cf53",1,0,0,"true",6,99,"[{""page_index"":0,""viewing_time"":3593.0999999940395}]",3593.59999999404,"","","","","","",NA,NA,"","",NA,NA,NA,NA,NA,NA,"","",NA
"100","","Guess_leaderboard",20,407848,"0.0-12.0-4.1",NA,403,"67,151,78,215,64,102,178,7,195,15,253,15,237,81,70,118,46,108,96,116,90,201,119,0,75,193,69,7,199,196,43,80",201,"66a22c0758a3d5c9d26873c6","66076de3ddde71f125afc1f6","66a237eb2bbc85e5f0e4cf53",1,0,0,"true",6,99,"",NA,"","","","","WRIST","",NA,NA,"","",3307.19999999553,13,67,1,2,11,"","",NA
"101","","instructions",21,410749,"0.0-12.0-0.2",NA,403,"67,151,78,215,64,102,178,7,195,15,253,15,237,81,70,118,46,108,96,116,90,201,119,0,75,193,69,7,199,196,43,80",201,"66a22c0758a3d5c9d26873c6","66076de3ddde71f125afc1f6","66a237eb2bbc85e5f0e4cf53",1,0,0,"true",6,99,"[{""page_index"":0,""viewing_time"":2899.10000000149}]",2899.5,"","","","","","",NA,NA,"","",NA,NA,NA,NA,NA,NA,"","",NA
"102","","type-this",22,416766,"0.0-12.0-1.2",NA,403,"67,151,78,215,64,102,178,7,195,15,253,15,237,81,70,118,46,108,96,116,90,201,119,0,75,193,69,7,199,196,43,80",201,"66a22c0758a3d5c9d26873c6","66076de3ddde71f125afc1f6","66a237eb2bbc85e5f0e4cf53",1,0,0,"true",6,99,"",5503,"thirty four","","","","","",NA,NA,"","thirty four",NA,NA,NA,NA,NA,NA,"","",NA
"103","","Hangman_replay",23,480744,"0.0-12.0-2.2",NA,403,"67,151,78,215,64,102,178,7,195,15,253,15,237,81,70,118,46,108,96,116,90,201,119,0,75,193,69,7,199,196,43,80",201,"66a22c0758a3d5c9d26873c6","66076de3ddde71f125afc1f6","66a237eb2bbc85e5f0e4cf53",1,0,0,"true",6,99,"",NA,"","","","","THIRTY FOUR","F,O,U,R,T,H,I,Y",8,15,"false","",NA,NA,NA,NA,NA,NA,"","",NA
"104","","instructions",24,484881,"0.0-12.0-3.2",NA,403,"67,151,78,215,64,102,178,7,195,15,253,15,237,81,70,118,46,108,96,116,90,201,119,0,75,193,69,7,199,196,43,80",201,"66a22c0758a3d5c9d26873c6","66076de3ddde71f125afc1f6","66a237eb2bbc85e5f0e4cf53",1,0,0,"true",6,99,"[{""page_index"":0,""viewing_time"":4135}]",4136.09999999404,"","","","","","",NA,NA,"","",NA,NA,NA,NA,NA,NA,"","",NA
"105","","Guess_leaderboard",25,488972,"0.0-12.0-4.2",NA,403,"67,151,78,215,64,102,178,7,195,15,253,15,237,81,70,118,46,108,96,116,90,201,119,0,75,193,69,7,199,196,43,80",201,"66a22c0758a3d5c9d26873c6","66076de3ddde71f125afc1f6","66a237eb2bbc85e5f0e4cf53",1,0,0,"true",6,99,"",NA,"","","","","THIRTY FOUR","",NA,NA,"","",3322.80000000447,11,68,2,45,34,"","",NA
"106","","instructions",26,493860,"0.0-12.0-0.3",NA,403,"67,151,78,215,64,102,178,7,195,15,253,15,237,81,70,118,46,108,96,116,90,201,119,0,75,193,69,7,199,196,43,80",201,"66a22c0758a3d5c9d26873c6","66076de3ddde71f125afc1f6","66a237eb2bbc85e5f0e4cf53",1,0,0,"true",6,99,"[{""page_index"":0,""viewing_time"":4884}]",4885,"","","","","","",NA,NA,"","",NA,NA,NA,NA,NA,NA,"","",NA
"107","","type-this",27,499113,"0.0-12.0-1.3",NA,403,"67,151,78,215,64,102,178,7,195,15,253,15,237,81,70,118,46,108,96,116,90,201,119,0,75,193,69,7,199,196,43,80",201,"66a22c0758a3d5c9d26873c6","66076de3ddde71f125afc1f6","66a237eb2bbc85e5f0e4cf53",1,0,0,"true",6,99,"",4739.70000000298,"usain bolt","","","","","",NA,NA,"","usain bolt",NA,NA,NA,NA,NA,NA,"","",NA
"108","","Hangman_replay",28,530018,"0.0-12.0-2.3",NA,403,"67,151,78,215,64,102,178,7,195,15,253,15,237,81,70,118,46,108,96,116,90,201,119,0,75,193,69,7,199,196,43,80",201,"66a22c0758a3d5c9d26873c6","66076de3ddde71f125afc1f6","66a237eb2bbc85e5f0e4cf53",1,0,0,"true",6,99,"",NA,"","","","","USAIN BOLT","A,B,K,J,C,D,E,F,O,N,M,L,T,U,V,W,X,S,G,P,H,I",22,2,"false","",NA,NA,NA,NA,NA,NA,"","",NA
"109","","instructions",29,531677,"0.0-12.0-3.3",NA,403,"67,151,78,215,64,102,178,7,195,15,253,15,237,81,70,118,46,108,96,116,90,201,119,0,75,193,69,7,199,196,43,80",201,"66a22c0758a3d5c9d26873c6","66076de3ddde71f125afc1f6","66a237eb2bbc85e5f0e4cf53",1,0,0,"true",6,99,"[{""page_index"":0,""viewing_time"":1657.8999999985099}]",1658.60000000149,"","","","","","",NA,NA,"","",NA,NA,NA,NA,NA,NA,"","",NA
"110","","Guess_leaderboard",30,535369,"0.0-12.0-4.3",NA,403,"67,151,78,215,64,102,178,7,195,15,253,15,237,81,70,118,46,108,96,116,90,201,119,0,75,193,69,7,199,196,43,80",201,"66a22c0758a3d5c9d26873c6","66076de3ddde71f125afc1f6","66a237eb2bbc85e5f0e4cf53",1,0,0,"true",6,99,"",NA,"","","","","USAIN BOLT","",NA,NA,"","",2927.30000000447,90,64,3,93,3,"","",NA
"111","","instructions",31,537973,"0.0-12.0-0.4",NA,403,"67,151,78,215,64,102,178,7,195,15,253,15,237,81,70,118,46,108,96,116,90,201,119,0,75,193,69,7,199,196,43,80",201,"66a22c0758a3d5c9d26873c6","66076de3ddde71f125afc1f6","66a237eb2bbc85e5f0e4cf53",1,0,0,"true",6,99,"[{""page_index"":0,""viewing_time"":2602.1999999955297}]",2602.89999999851,"","","","","","",NA,NA,"","",NA,NA,NA,NA,NA,NA,"","",NA
"112","","type-this",32,543489,"0.0-12.0-1.4",NA,403,"67,151,78,215,64,102,178,7,195,15,253,15,237,81,70,118,46,108,96,116,90,201,119,0,75,193,69,7,199,196,43,80",201,"66a22c0758a3d5c9d26873c6","66076de3ddde71f125afc1f6","66a237eb2bbc85e5f0e4cf53",1,0,0,"true",6,99,"",5002.10000000149,"kentucky","","","","","",NA,NA,"","kentucky",NA,NA,NA,NA,NA,NA,"","",NA
"113","","Hangman_replay",33,557955,"0.0-12.0-2.4",NA,403,"67,151,78,215,64,102,178,7,195,15,253,15,237,81,70,118,46,108,96,116,90,201,119,0,75,193,69,7,199,196,43,80",201,"66a22c0758a3d5c9d26873c6","66076de3ddde71f125afc1f6","66a237eb2bbc85e5f0e4cf53",1,0,0,"true",6,99,"",NA,"","","","","KENTUCKY","K,Y,E,N,T,U,C",7,15,"false","",NA,NA,NA,NA,NA,NA,"","",NA
"114","","instructions",34,560614,"0.0-12.0-3.4",NA,403,"67,151,78,215,64,102,178,7,195,15,253,15,237,81,70,118,46,108,96,116,90,201,119,0,75,193,69,7,199,196,43,80",201,"66a22c0758a3d5c9d26873c6","66076de3ddde71f125afc1f6","66a237eb2bbc85e5f0e4cf53",1,0,0,"true",6,99,"[{""page_index"":0,""viewing_time"":2658}]",2658.10000000149,"","","","","","",NA,NA,"","",NA,NA,NA,NA,NA,NA,"","",NA
"115","","Guess_leaderboard",35,565322,"0.0-12.0-4.4",NA,403,"67,151,78,215,64,102,178,7,195,15,253,15,237,81,70,118,46,108,96,116,90,201,119,0,75,193,69,7,199,196,43,80",201,"66a22c0758a3d5c9d26873c6","66076de3ddde71f125afc1f6","66a237eb2bbc85e5f0e4cf53",1,0,0,"true",6,99,"",NA,"","","","","KENTUCKY","",NA,NA,"","",3944.89999999851,5,79,4,61,56,"","",NA
"116","","survey-text",36,574214,"0.0-13.0",NA,403,"67,151,78,215,64,102,178,7,195,15,253,15,237,81,70,118,46,108,96,116,90,201,119,0,75,193,69,7,199,196,43,80",201,"66a22c0758a3d5c9d26873c6","66076de3ddde71f125afc1f6","66a237eb2bbc85e5f0e4cf53",1,0,0,"true",6,99,"",8887.59999999404,"{""Q0"":""Kentucky""}","","","","","",NA,NA,"","",NA,NA,NA,NA,NA,NA,"kentucky","",NA
"117","","survey-multi-choice",37,584914,"0.0-14.0",NA,403,"67,151,78,215,64,102,178,7,195,15,253,15,237,81,70,118,46,108,96,116,90,201,119,0,75,193,69,7,199,196,43,80",201,"66a22c0758a3d5c9d26873c6","66076de3ddde71f125afc1f6","66a237eb2bbc85e5f0e4cf53",1,0,0,"true",6,99,"",10699.099999994,"{""Q0"":""6. I would be <b>last</b> out of the six of us.""}","[0]","","self-rating","","",NA,NA,"","",NA,6,NA,NA,NA,NA,"","",NA
"118","","html-slider-response",38,591379,"0.0-15.0",NA,403,"67,151,78,215,64,102,178,7,195,15,253,15,237,81,70,118,46,108,96,116,90,201,119,0,75,193,69,7,199,196,43,80",201,"66a22c0758a3d5c9d26873c6","66076de3ddde71f125afc1f6","66a237eb2bbc85e5f0e4cf53",1,0,0,"true",6,99,"",6461.89999999851,"","","","","","",NA,NA,"","99",NA,NA,NA,NA,NA,NA,"","<p>Overall, how confident were you in your answer to this last question?</p>",99
"119","","survey-text",39,663935,"0.0-16.0",NA,403,"67,151,78,215,64,102,178,7,195,15,253,15,237,81,70,118,46,108,96,116,90,201,119,0,75,193,69,7,199,196,43,80",201,"66a22c0758a3d5c9d26873c6","66076de3ddde71f125afc1f6","66a237eb2bbc85e5f0e4cf53",1,0,0,"true",6,99,"",72538.799999997,"{""Q0"":""Task comprehension- goal is to use the fewest words but I could see people trying to guess it the fastest\n\nWord comprehension""}","","","","","",NA,NA,"","",NA,NA,NA,NA,NA,NA,"","",NA
"120","","survey-text",40,686282,"0.0-17.0",NA,403,"67,151,78,215,64,102,178,7,195,15,253,15,237,81,70,118,46,108,96,116,90,201,119,0,75,193,69,7,199,196,43,80",201,"66a22c0758a3d5c9d26873c6","66076de3ddde71f125afc1f6","66a237eb2bbc85e5f0e4cf53",1,0,0,"true",6,99,"",22351.5,"{""Q0"":""I gave up like an idiot! :) Should've played it like I play wordle lol""}","","","","","",NA,NA,"","",NA,NA,NA,NA,NA,NA,"","",NA
"121","","instructions",41,695150,"0.0-18.0",NA,403,"67,151,78,215,64,102,178,7,195,15,253,15,237,81,70,118,46,108,96,116,90,201,119,0,75,193,69,7,199,196,43,80",201,"66a22c0758a3d5c9d26873c6","66076de3ddde71f125afc1f6","66a237eb2bbc85e5f0e4cf53",1,0,0,"true",6,99,"[{""page_index"":0,""viewing_time"":8865.89999999851}]",8867.39999999851,"","","","","","",NA,NA,"","",NA,NA,NA,NA,NA,NA,"","",NA
"122","true","fullscreen",0,5599,"0.0-0.0",NA,404,"193,126,218,174,134,228,1,106,88,62,9,133,130,246,219,243,236,202,222,142,248,55,71,223,155,166,23,222,217,211,19,9",202,"66a22c0758a3d5c9d26873c6","661f4cfbeabfb4f58a8ecb4c","66a263c201885d12dd512076",1,0,0,"false",2,35,"",NA,"","","","","","",NA,NA,"",NA,NA,NA,NA,NA,NA,NA,"","",NA
"123","","instructions",1,12293,"0.0-1.0",NA,404,"193,126,218,174,134,228,1,106,88,62,9,133,130,246,219,243,236,202,222,142,248,55,71,223,155,166,23,222,217,211,19,9",202,"66a22c0758a3d5c9d26873c6","661f4cfbeabfb4f58a8ecb4c","66a263c201885d12dd512076",1,0,0,"false",2,35,"[{""page_index"":0,""viewing_time"":6693.300000190735}]",6693.5,"","","","","","",NA,NA,"",NA,NA,NA,NA,NA,NA,NA,"","",NA
"124","","instructions",2,51021,"0.0-2.0-0.0",NA,404,"193,126,218,174,134,228,1,106,88,62,9,133,130,246,219,243,236,202,222,142,248,55,71,223,155,166,23,222,217,211,19,9",202,"66a22c0758a3d5c9d26873c6","661f4cfbeabfb4f58a8ecb4c","66a263c201885d12dd512076",1,0,0,"false",2,35,"[{""page_index"":0,""viewing_time"":38726.39999985695}]",38726.5,"","","","","","",NA,NA,"",NA,NA,NA,NA,NA,NA,NA,"","",NA
"125","","survey-multi-choice",3,70323,"0.0-2.0-1.0",NA,404,"193,126,218,174,134,228,1,106,88,62,9,133,130,246,219,243,236,202,222,142,248,55,71,223,155,166,23,222,217,211,19,9",202,"66a22c0758a3d5c9d26873c6","661f4cfbeabfb4f58a8ecb4c","66a263c201885d12dd512076",1,0,0,"false",2,35,"",19300.2000000477,"{""Q0"":""... reveal the word with as <b>few letter guesses</b> as possible""}","[0]","true","multichoice_nonpretend","","",NA,NA,"",NA,NA,NA,NA,NA,NA,NA,"","",NA
"126","","instructions",4,72170,"0.0-3.0",NA,404,"193,126,218,174,134,228,1,106,88,62,9,133,130,246,219,243,236,202,222,142,248,55,71,223,155,166,23,222,217,211,19,9",202,"66a22c0758a3d5c9d26873c6","661f4cfbeabfb4f58a8ecb4c","66a263c201885d12dd512076",1,0,0,"false",2,35,"[{""page_index"":0,""viewing_time"":1846.3000001907349}]",1846.40000009537,"","","","","","",NA,NA,"",NA,NA,NA,NA,NA,NA,NA,"","",NA
"127","","Hangman",5,106922,"0.0-4.0",NA,404,"193,126,218,174,134,228,1,106,88,62,9,133,130,246,219,243,236,202,222,142,248,55,71,223,155,166,23,222,217,211,19,9",202,"66a22c0758a3d5c9d26873c6","661f4cfbeabfb4f58a8ecb4c","66a263c201885d12dd512076",1,0,0,"false",2,35,"",NA,"","","","","ZEBRA","T,A,E,R,Z,B",6,14,"false",NA,NA,NA,NA,NA,NA,NA,"","",NA
"128","","instructions",6,143773,"0.0-5.0",NA,404,"193,126,218,174,134,228,1,106,88,62,9,133,130,246,219,243,236,202,222,142,248,55,71,223,155,166,23,222,217,211,19,9",202,"66a22c0758a3d5c9d26873c6","661f4cfbeabfb4f58a8ecb4c","66a263c201885d12dd512076",1,0,0,"false",2,35,"[{""page_index"":0,""viewing_time"":3734.800000190735},{""page_index"":1,""viewing_time"":33115}]",36850.5,"","","","","","",NA,NA,"",NA,NA,NA,NA,NA,NA,NA,"","",NA
"129","","survey-multi-choice",7,155583,"0.0-6.0",NA,404,"193,126,218,174,134,228,1,106,88,62,9,133,130,246,219,243,236,202,222,142,248,55,71,223,155,166,23,222,217,211,19,9",202,"66a22c0758a3d5c9d26873c6","661f4cfbeabfb4f58a8ecb4c","66a263c201885d12dd512076",1,0,0,"false",2,35,"",11808.5999999046,"{""Q0"":""...from <b>a previous session</b> that is part of the upcoming tournament.""}","[0]","false","multichoice_leaderboard","","",NA,NA,"",NA,NA,NA,NA,NA,NA,NA,"","",NA
"130","","instructions",8,157490,"0.0-7.0-0.0",NA,404,"193,126,218,174,134,228,1,106,88,62,9,133,130,246,219,243,236,202,222,142,248,55,71,223,155,166,23,222,217,211,19,9",202,"66a22c0758a3d5c9d26873c6","661f4cfbeabfb4f58a8ecb4c","66a263c201885d12dd512076",1,0,0,"false",2,35,"[{""page_index"":0,""viewing_time"":1906.5999999046326}]",1906.69999980927,"","","","","","",NA,NA,"",NA,NA,NA,NA,NA,NA,NA,"","",NA
"131","","survey-multi-choice",9,173622,"0.0-7.0-1.0",NA,404,"193,126,218,174,134,228,1,106,88,62,9,133,130,246,219,243,236,202,222,142,248,55,71,223,155,166,23,222,217,211,19,9",202,"66a22c0758a3d5c9d26873c6","661f4cfbeabfb4f58a8ecb4c","66a263c201885d12dd512076",1,0,0,"false",2,35,"",16130.9000000954,"{""Q0"":""""}","[0]","false","multichoice_leaderboard","","",NA,NA,"",NA,NA,NA,NA,NA,NA,NA,"","",NA
"132","","instructions",10,175564,"0.0-7.1-0.1",NA,404,"193,126,218,174,134,228,1,106,88,62,9,133,130,246,219,243,236,202,222,142,248,55,71,223,155,166,23,222,217,211,19,9",202,"66a22c0758a3d5c9d26873c6","661f4cfbeabfb4f58a8ecb4c","66a263c201885d12dd512076",1,0,0,"false",2,35,"[{""page_index"":0,""viewing_time"":1940.7000000476837}]",1940.90000009537,"","","","","","",NA,NA,"",NA,NA,NA,NA,NA,NA,NA,"","",NA
"133","","survey-multi-choice",11,185734,"0.0-7.1-1.1",NA,404,"193,126,218,174,134,228,1,106,88,62,9,133,130,246,219,243,236,202,222,142,248,55,71,223,155,166,23,222,217,211,19,9",202,"66a22c0758a3d5c9d26873c6","661f4cfbeabfb4f58a8ecb4c","66a263c201885d12dd512076",1,0,0,"false",2,35,"",10169.2000000477,"{""Q0"":""...from <b>a previous session</b> that is part of the upcoming tournament.""}","[0]","false","multichoice_leaderboard","","",NA,NA,"",NA,NA,NA,NA,NA,NA,NA,"","",NA
"134","","instructions",12,187158,"0.0-7.2-0.2",NA,404,"193,126,218,174,134,228,1,106,88,62,9,133,130,246,219,243,236,202,222,142,248,55,71,223,155,166,23,222,217,211,19,9",202,"66a22c0758a3d5c9d26873c6","661f4cfbeabfb4f58a8ecb4c","66a263c201885d12dd512076",1,0,0,"false",2,35,"[{""page_index"":0,""viewing_time"":1422.9000000953674}]",1423,"","","","","","",NA,NA,"",NA,NA,NA,NA,NA,NA,NA,"","",NA
"135","","survey-multi-choice",13,189296,"0.0-7.2-1.2",NA,404,"193,126,218,174,134,228,1,106,88,62,9,133,130,246,219,243,236,202,222,142,248,55,71,223,155,166,23,222,217,211,19,9",202,"66a22c0758a3d5c9d26873c6","661f4cfbeabfb4f58a8ecb4c","66a263c201885d12dd512076",1,0,0,"false",2,35,"",2137.29999995232,"{""Q0"":""...from the <b>upcoming tournament</b>.""}","[0]","false","multichoice_leaderboard","","",NA,NA,"",NA,NA,NA,NA,NA,NA,NA,"","",NA
"136","","instructions",14,192543,"0.0-7.3-0.3",NA,404,"193,126,218,174,134,228,1,106,88,62,9,133,130,246,219,243,236,202,222,142,248,55,71,223,155,166,23,222,217,211,19,9",202,"66a22c0758a3d5c9d26873c6","661f4cfbeabfb4f58a8ecb4c","66a263c201885d12dd512076",1,0,0,"false",2,35,"[{""page_index"":0,""viewing_time"":3246.800000190735}]",3247,"","","","","","",NA,NA,"",NA,NA,NA,NA,NA,NA,NA,"","",NA
"137","","survey-multi-choice",15,200925,"0.0-7.3-1.3",NA,404,"193,126,218,174,134,228,1,106,88,62,9,133,130,246,219,243,236,202,222,142,248,55,71,223,155,166,23,222,217,211,19,9",202,"66a22c0758a3d5c9d26873c6","661f4cfbeabfb4f58a8ecb4c","66a263c201885d12dd512076",1,0,0,"false",2,35,"",8380.70000004768,"{""Q0"":""...from <b>a previous session</b> that is not part of the upcoming tournament.""}","[0]","true","multichoice_leaderboard","","",NA,NA,"",NA,NA,NA,NA,NA,NA,NA,"","",NA
"138","","instructions",16,229397,"0.0-8.0",NA,404,"193,126,218,174,134,228,1,106,88,62,9,133,130,246,219,243,236,202,222,142,248,55,71,223,155,166,23,222,217,211,19,9",202,"66a22c0758a3d5c9d26873c6","661f4cfbeabfb4f58a8ecb4c","66a263c201885d12dd512076",1,0,0,"false",2,35,"[{""page_index"":0,""viewing_time"":28471.299999952316}]",28471.5,"","","","","","",NA,NA,"",NA,NA,NA,NA,NA,NA,NA,"","",NA
"139","","survey-multi-choice",17,241308,"0.0-9.0",NA,404,"193,126,218,174,134,228,1,106,88,62,9,133,130,246,219,243,236,202,222,142,248,55,71,223,155,166,23,222,217,211,19,9",202,"66a22c0758a3d5c9d26873c6","661f4cfbeabfb4f58a8ecb4c","66a263c201885d12dd512076",1,0,0,"false",2,35,"",11909.7000000477,"{""Q0"":""...players' leaderboard position (in terms of <b>points</b>) in an <b>upcoming tournament.</b>""}","[0]","true","multichoice_tournament","","",NA,NA,"",NA,NA,NA,NA,NA,NA,NA,"","",NA
"140","","instructions",18,257864,"0.0-11.0",NA,404,"193,126,218,174,134,228,1,106,88,62,9,133,130,246,219,243,236,202,222,142,248,55,71,223,155,166,23,222,217,211,19,9",202,"66a22c0758a3d5c9d26873c6","661f4cfbeabfb4f58a8ecb4c","66a263c201885d12dd512076",1,0,0,"false",2,35,"[{""page_index"":0,""viewing_time"":16555.700000047684}]",16555.9000000954,"","","","","","",NA,NA,"",NA,NA,NA,NA,NA,NA,NA,"","",NA
"141","","instructions",19,271922,"0.0-12.0-0.0",NA,404,"193,126,218,174,134,228,1,106,88,62,9,133,130,246,219,243,236,202,222,142,248,55,71,223,155,166,23,222,217,211,19,9",202,"66a22c0758a3d5c9d26873c6","661f4cfbeabfb4f58a8ecb4c","66a263c201885d12dd512076",1,0,0,"false",2,35,"[{""page_index"":0,""viewing_time"":14057.699999809265}]",14058,"","","","","","",NA,NA,"",NA,NA,NA,NA,NA,NA,NA,"","",NA
"142","","Hangman_replay",20,311281,"0.0-12.0-1.0",NA,404,"193,126,218,174,134,228,1,106,88,62,9,133,130,246,219,243,236,202,222,142,248,55,71,223,155,166,23,222,217,211,19,9",202,"66a22c0758a3d5c9d26873c6","661f4cfbeabfb4f58a8ecb4c","66a263c201885d12dd512076",1,0,0,"false",2,35,"",NA,"","","","","KENTUCKY","A,E,K,Y,N,T,U,C",8,14,"false",NA,NA,NA,NA,NA,NA,NA,"","",NA
"143","","instructions",21,318997,"0.0-12.0-2.0",NA,404,"193,126,218,174,134,228,1,106,88,62,9,133,130,246,219,243,236,202,222,142,248,55,71,223,155,166,23,222,217,211,19,9",202,"66a22c0758a3d5c9d26873c6","661f4cfbeabfb4f58a8ecb4c","66a263c201885d12dd512076",1,0,0,"false",2,35,"[{""page_index"":0,""viewing_time"":7716}]",7716.5,"","","","","","",NA,NA,"",NA,NA,NA,NA,NA,NA,NA,"","",NA
"144","","Guess_leaderboard",22,324728,"0.0-12.0-3.0",NA,404,"193,126,218,174,134,228,1,106,88,62,9,133,130,246,219,243,236,202,222,142,248,55,71,223,155,166,23,222,217,211,19,9",202,"66a22c0758a3d5c9d26873c6","661f4cfbeabfb4f58a8ecb4c","66a263c201885d12dd512076",1,0,0,"false",2,35,"",NA,"","","","","KENTUCKY","",NA,NA,"",NA,4962,64,23,0,36,28,"","",NA
"145","","instructions",23,335895,"0.0-12.0-0.1",NA,404,"193,126,218,174,134,228,1,106,88,62,9,133,130,246,219,243,236,202,222,142,248,55,71,223,155,166,23,222,217,211,19,9",202,"66a22c0758a3d5c9d26873c6","661f4cfbeabfb4f58a8ecb4c","66a263c201885d12dd512076",1,0,0,"false",2,35,"[{""page_index"":0,""viewing_time"":11165}]",11165.2999999523,"","","","","","",NA,NA,"",NA,NA,NA,NA,NA,NA,NA,"","",NA
"146","","Hangman_replay",24,423867,"0.0-12.0-1.1",NA,404,"193,126,218,174,134,228,1,106,88,62,9,133,130,246,219,243,236,202,222,142,248,55,71,223,155,166,23,222,217,211,19,9",202,"66a22c0758a3d5c9d26873c6","661f4cfbeabfb4f58a8ecb4c","66a263c201885d12dd512076",1,0,0,"false",2,35,"",NA,"","","","","NECTARINE","C,E,L,H,I,V,N,T,A,R",10,12,"false",NA,NA,NA,NA,NA,NA,NA,"","",NA
"147","","instructions",25,426293,"0.0-12.0-2.1",NA,404,"193,126,218,174,134,228,1,106,88,62,9,133,130,246,219,243,236,202,222,142,248,55,71,223,155,166,23,222,217,211,19,9",202,"66a22c0758a3d5c9d26873c6","661f4cfbeabfb4f58a8ecb4c","66a263c201885d12dd512076",1,0,0,"false",2,35,"[{""page_index"":0,""viewing_time"":2425.199999809265}]",2425.39999985695,"","","","","","",NA,NA,"",NA,NA,NA,NA,NA,NA,NA,"","",NA
"148","","Guess_leaderboard",26,431748,"0.0-12.0-3.1",NA,404,"193,126,218,174,134,228,1,106,88,62,9,133,130,246,219,243,236,202,222,142,248,55,71,223,155,166,23,222,217,211,19,9",202,"66a22c0758a3d5c9d26873c6","661f4cfbeabfb4f58a8ecb4c","66a263c201885d12dd512076",1,0,0,"false",2,35,"",NA,"","","","","NECTARINE","",NA,NA,"",NA,4691.80000019073,78,21,1,40,38,"","",NA
"149","","instructions",27,446562,"0.0-12.0-0.2",NA,404,"193,126,218,174,134,228,1,106,88,62,9,133,130,246,219,243,236,202,222,142,248,55,71,223,155,166,23,222,217,211,19,9",202,"66a22c0758a3d5c9d26873c6","661f4cfbeabfb4f58a8ecb4c","66a263c201885d12dd512076",1,0,0,"false",2,35,"[{""page_index"":0,""viewing_time"":14812.700000047684}]",14813,"","","","","","",NA,NA,"",NA,NA,NA,NA,NA,NA,NA,"","",NA
"150","","Hangman_replay",28,487186,"0.0-12.0-1.2",NA,404,"193,126,218,174,134,228,1,106,88,62,9,133,130,246,219,243,236,202,222,142,248,55,71,223,155,166,23,222,217,211,19,9",202,"66a22c0758a3d5c9d26873c6","661f4cfbeabfb4f58a8ecb4c","66a263c201885d12dd512076",1,0,0,"false",2,35,"",NA,"","","","","THIRTY FOUR","A,E,I,G,H,O,N,W,M,D,C,S,T,R,Y,F,U",17,6,"false",NA,NA,NA,NA,NA,NA,NA,"","",NA
"151","","instructions",29,489913,"0.0-12.0-2.2",NA,404,"193,126,218,174,134,228,1,106,88,62,9,133,130,246,219,243,236,202,222,142,248,55,71,223,155,166,23,222,217,211,19,9",202,"66a22c0758a3d5c9d26873c6","661f4cfbeabfb4f58a8ecb4c","66a263c201885d12dd512076",1,0,0,"false",2,35,"[{""page_index"":0,""viewing_time"":2726.7999999523163}]",2727.29999995232,"","","","","","",NA,NA,"",NA,NA,NA,NA,NA,NA,NA,"","",NA
"152","","Guess_leaderboard",30,502450,"0.0-12.0-3.2",NA,404,"193,126,218,174,134,228,1,106,88,62,9,133,130,246,219,243,236,202,222,142,248,55,71,223,155,166,23,222,217,211,19,9",202,"66a22c0758a3d5c9d26873c6","661f4cfbeabfb4f58a8ecb4c","66a263c201885d12dd512076",1,0,0,"false",2,35,"",NA,"","","","","THIRTY FOUR","",NA,NA,"",NA,11783,62,75,2,84,22,"","",NA
"153","","instructions",31,510039,"0.0-12.0-0.3",NA,404,"193,126,218,174,134,228,1,106,88,62,9,133,130,246,219,243,236,202,222,142,248,55,71,223,155,166,23,222,217,211,19,9",202,"66a22c0758a3d5c9d26873c6","661f4cfbeabfb4f58a8ecb4c","66a263c201885d12dd512076",1,0,0,"false",2,35,"[{""page_index"":0,""viewing_time"":7587.899999856949}]",7588.09999990463,"","","","","","",NA,NA,"",NA,NA,NA,NA,NA,NA,NA,"","",NA
"154","","Hangman_replay",32,550086,"0.0-12.0-1.3",NA,404,"193,126,218,174,134,228,1,106,88,62,9,133,130,246,219,243,236,202,222,142,248,55,71,223,155,166,23,222,217,211,19,9",202,"66a22c0758a3d5c9d26873c6","661f4cfbeabfb4f58a8ecb4c","66a263c201885d12dd512076",1,0,0,"false",2,35,"",NA,"","","","","SHAKIRA","U,E,R,B,I,O,V,W,C,D,L,H,G,P,Y,A,S,K",18,3,"false",NA,NA,NA,NA,NA,NA,NA,"","",NA
"155","","instructions",33,553333,"0.0-12.0-2.3",NA,404,"193,126,218,174,134,228,1,106,88,62,9,133,130,246,219,243,236,202,222,142,248,55,71,223,155,166,23,222,217,211,19,9",202,"66a22c0758a3d5c9d26873c6","661f4cfbeabfb4f58a8ecb4c","66a263c201885d12dd512076",1,0,0,"false",2,35,"[{""page_index"":0,""viewing_time"":3245.2999999523163}]",3246,"","","","","","",NA,NA,"",NA,NA,NA,NA,NA,NA,NA,"","",NA
"156","","Guess_leaderboard",34,568069,"0.0-12.0-3.3",NA,404,"193,126,218,174,134,228,1,106,88,62,9,133,130,246,219,243,236,202,222,142,248,55,71,223,155,166,23,222,217,211,19,9",202,"66a22c0758a3d5c9d26873c6","661f4cfbeabfb4f58a8ecb4c","66a263c201885d12dd512076",1,0,0,"false",2,35,"",NA,"","","","","SHAKIRA","",NA,NA,"",NA,13978.6000001431,78,27,3,39,39,"","",NA
"157","","instructions",35,577120,"0.0-12.0-0.4",NA,404,"193,126,218,174,134,228,1,106,88,62,9,133,130,246,219,243,236,202,222,142,248,55,71,223,155,166,23,222,217,211,19,9",202,"66a22c0758a3d5c9d26873c6","661f4cfbeabfb4f58a8ecb4c","66a263c201885d12dd512076",1,0,0,"false",2,35,"[{""page_index"":0,""viewing_time"":9049.400000095367}]",9049.5,"","","","","","",NA,NA,"",NA,NA,NA,NA,NA,NA,NA,"","",NA
"158","","Hangman_replay",36,591639,"0.0-12.0-1.4",NA,404,"193,126,218,174,134,228,1,106,88,62,9,133,130,246,219,243,236,202,222,142,248,55,71,223,155,166,23,222,217,211,19,9",202,"66a22c0758a3d5c9d26873c6","661f4cfbeabfb4f58a8ecb4c","66a263c201885d12dd512076",1,0,0,"false",2,35,"",NA,"","","","","THUMB","A,B,E,G,H,Q,P,X,W,V,U,T,M",13,7,"false",NA,NA,NA,NA,NA,NA,NA,"","",NA
"159","","instructions",37,594101,"0.0-12.0-2.4",NA,404,"193,126,218,174,134,228,1,106,88,62,9,133,130,246,219,243,236,202,222,142,248,55,71,223,155,166,23,222,217,211,19,9",202,"66a22c0758a3d5c9d26873c6","661f4cfbeabfb4f58a8ecb4c","66a263c201885d12dd512076",1,0,0,"false",2,35,"[{""page_index"":0,""viewing_time"":2461.100000143051}]",2461.29999995232,"","","","","","",NA,NA,"",NA,NA,NA,NA,NA,NA,NA,"","",NA
"160","","Guess_leaderboard",38,600671,"0.0-12.0-3.4",NA,404,"193,126,218,174,134,228,1,106,88,62,9,133,130,246,219,243,236,202,222,142,248,55,71,223,155,166,23,222,217,211,19,9",202,"66a22c0758a3d5c9d26873c6","661f4cfbeabfb4f58a8ecb4c","66a263c201885d12dd512076",1,0,0,"false",2,35,"",NA,"","","","","THUMB","",NA,NA,"",NA,5815.80000019073,30,32,4,90,60,"","",NA
"161","","survey-text",39,608755,"0.0-13.0",NA,404,"193,126,218,174,134,228,1,106,88,62,9,133,130,246,219,243,236,202,222,142,248,55,71,223,155,166,23,222,217,211,19,9",202,"66a22c0758a3d5c9d26873c6","661f4cfbeabfb4f58a8ecb4c","66a263c201885d12dd512076",1,0,0,"false",2,35,"",8082.70000004768,"{""Q0"":""thumb""}","","","","","",NA,NA,"",NA,NA,NA,NA,NA,NA,NA,"thumb","",NA
"162","","survey-multi-choice",40,624992,"0.0-14.0",NA,404,"193,126,218,174,134,228,1,106,88,62,9,133,130,246,219,243,236,202,222,142,248,55,71,223,155,166,23,222,217,211,19,9",202,"66a22c0758a3d5c9d26873c6","661f4cfbeabfb4f58a8ecb4c","66a263c201885d12dd512076",1,0,0,"false",2,35,"",16235.5999999046,"{""Q0"":""2. I would be <b>second</b> out of the six of us.""}","[0]","","self-rating","","",NA,NA,"",NA,NA,2,NA,NA,NA,NA,"","",NA
"163","","html-slider-response",41,635830,"0.0-15.0",NA,404,"193,126,218,174,134,228,1,106,88,62,9,133,130,246,219,243,236,202,222,142,248,55,71,223,155,166,23,222,217,211,19,9",202,"66a22c0758a3d5c9d26873c6","661f4cfbeabfb4f58a8ecb4c","66a263c201885d12dd512076",1,0,0,"false",2,35,"",10837,"","","","","","",NA,NA,"","35",NA,NA,NA,NA,NA,NA,"","<p>Overall, how confident were you in your answer to this last question?</p>",35
"164","","survey-text",42,720655,"0.0-16.0",NA,404,"193,126,218,174,134,228,1,106,88,62,9,133,130,246,219,243,236,202,222,142,248,55,71,223,155,166,23,222,217,211,19,9",202,"66a22c0758a3d5c9d26873c6","661f4cfbeabfb4f58a8ecb4c","66a263c201885d12dd512076",1,0,0,"false",2,35,"",84823.2000000477,"{""Q0"":""How people come to guess. Are they being strategic and using Odds of using letters or are they going for broke and tapping so fast hoping they click a few of the correct letters to guess the right answer.  ""}","","","","","",NA,NA,"",NA,NA,NA,NA,NA,NA,NA,"","",NA
"165","","survey-text",43,749269,"0.0-17.0",NA,404,"193,126,218,174,134,228,1,106,88,62,9,133,130,246,219,243,236,202,222,142,248,55,71,223,155,166,23,222,217,211,19,9",202,"66a22c0758a3d5c9d26873c6","661f4cfbeabfb4f58a8ecb4c","66a263c201885d12dd512076",1,0,0,"false",2,35,"",28613.5999999046,"{""Q0"":""No, I did it to the best of my ability.  I love Hangman!!""}","","","","","",NA,NA,"",NA,NA,NA,NA,NA,NA,NA,"","",NA
"166","","instructions",44,763169,"0.0-18.0",NA,404,"193,126,218,174,134,228,1,106,88,62,9,133,130,246,219,243,236,202,222,142,248,55,71,223,155,166,23,222,217,211,19,9",202,"66a22c0758a3d5c9d26873c6","661f4cfbeabfb4f58a8ecb4c","66a263c201885d12dd512076",1,0,0,"false",2,35,"[{""page_index"":0,""viewing_time"":13898.900000095367}]",13899.1000001431,"","","","","","",NA,NA,"",NA,NA,NA,NA,NA,NA,NA,"","",NA
"167","true","fullscreen",0,2398,"0.0-0.0",NA,405,"193,126,218,174,134,228,1,106,88,62,9,133,130,246,219,243,236,202,222,142,248,55,71,223,155,166,23,222,217,211,19,9",202,"66a22c0758a3d5c9d26873c6","66749596518f556e28f505d9","66a2670ac3245bf4e6427e2b",1,0,0,"true",1,69,"",NA,"","","","","","",NA,NA,"","",NA,NA,NA,NA,NA,NA,"","",NA
"168","","instructions",1,4917,"0.0-1.0",NA,405,"193,126,218,174,134,228,1,106,88,62,9,133,130,246,219,243,236,202,222,142,248,55,71,223,155,166,23,222,217,211,19,9",202,"66a22c0758a3d5c9d26873c6","66749596518f556e28f505d9","66a2670ac3245bf4e6427e2b",1,0,0,"true",1,69,"[{""page_index"":0,""viewing_time"":2518.300000011921}]",2518.5,"","","","","","",NA,NA,"","",NA,NA,NA,NA,NA,NA,"","",NA
"169","","instructions",2,16248,"0.0-2.0-0.0",NA,405,"193,126,218,174,134,228,1,106,88,62,9,133,130,246,219,243,236,202,222,142,248,55,71,223,155,166,23,222,217,211,19,9",202,"66a22c0758a3d5c9d26873c6","66749596518f556e28f505d9","66a2670ac3245bf4e6427e2b",1,0,0,"true",1,69,"[{""page_index"":0,""viewing_time"":11330.59999999404}]",11330.799999997,"","","","","","",NA,NA,"","",NA,NA,NA,NA,NA,NA,"","",NA
"170","","survey-multi-choice",3,20725,"0.0-2.0-1.0",NA,405,"193,126,218,174,134,228,1,106,88,62,9,133,130,246,219,243,236,202,222,142,248,55,71,223,155,166,23,222,217,211,19,9",202,"66a22c0758a3d5c9d26873c6","66749596518f556e28f505d9","66a2670ac3245bf4e6427e2b",1,0,0,"true",1,69,"",4475.29999999702,"{""Q0"":""... reveal the word with as <b>few letter guesses</b> as possible""}","[0]","true","multichoice_nonpretend","","",NA,NA,"","",NA,NA,NA,NA,NA,NA,"","",NA
"171","","instructions",4,21767,"0.0-3.0",NA,405,"193,126,218,174,134,228,1,106,88,62,9,133,130,246,219,243,236,202,222,142,248,55,71,223,155,166,23,222,217,211,19,9",202,"66a22c0758a3d5c9d26873c6","66749596518f556e28f505d9","66a2670ac3245bf4e6427e2b",1,0,0,"true",1,69,"[{""page_index"":0,""viewing_time"":1041.7000000029802}]",1041.90000000596,"","","","","","",NA,NA,"","",NA,NA,NA,NA,NA,NA,"","",NA
"172","","Hangman",5,33954,"0.0-4.0",NA,405,"193,126,218,174,134,228,1,106,88,62,9,133,130,246,219,243,236,202,222,142,248,55,71,223,155,166,23,222,217,211,19,9",202,"66a22c0758a3d5c9d26873c6","66749596518f556e28f505d9","66a2670ac3245bf4e6427e2b",1,0,0,"true",1,69,"",NA,"","","","","ZEBRA","E,Z,B,R,A",5,15,"false","",NA,NA,NA,NA,NA,NA,"","",NA
"173","","instructions",6,48279,"0.0-5.0",NA,405,"193,126,218,174,134,228,1,106,88,62,9,133,130,246,219,243,236,202,222,142,248,55,71,223,155,166,23,222,217,211,19,9",202,"66a22c0758a3d5c9d26873c6","66749596518f556e28f505d9","66a2670ac3245bf4e6427e2b",1,0,0,"true",1,69,"[{""page_index"":0,""viewing_time"":1903.2000000029802},{""page_index"":1,""viewing_time"":12421.5}]",14325.200000003,"","","","","","",NA,NA,"","",NA,NA,NA,NA,NA,NA,"","",NA
"174","","survey-multi-choice",7,52766,"0.0-6.0",NA,405,"193,126,218,174,134,228,1,106,88,62,9,133,130,246,219,243,236,202,222,142,248,55,71,223,155,166,23,222,217,211,19,9",202,"66a22c0758a3d5c9d26873c6","66749596518f556e28f505d9","66a2670ac3245bf4e6427e2b",1,0,0,"true",1,69,"",4485.89999999106,"{""Q0"":""...from <b>a previous session</b> that is not part of the upcoming tournament.""}","[0]","true","multichoice_leaderboard","","",NA,NA,"","",NA,NA,NA,NA,NA,NA,"","",NA
"175","","instructions",8,64724,"0.0-8.0",NA,405,"193,126,218,174,134,228,1,106,88,62,9,133,130,246,219,243,236,202,222,142,248,55,71,223,155,166,23,222,217,211,19,9",202,"66a22c0758a3d5c9d26873c6","66749596518f556e28f505d9","66a2670ac3245bf4e6427e2b",1,0,0,"true",1,69,"[{""page_index"":0,""viewing_time"":11957.29999999702}]",11957.400000006,"","","","","","",NA,NA,"","",NA,NA,NA,NA,NA,NA,"","",NA
"176","","survey-multi-choice",9,69143,"0.0-9.0",NA,405,"193,126,218,174,134,228,1,106,88,62,9,133,130,246,219,243,236,202,222,142,248,55,71,223,155,166,23,222,217,211,19,9",202,"66a22c0758a3d5c9d26873c6","66749596518f556e28f505d9","66a2670ac3245bf4e6427e2b",1,0,0,"true",1,69,"",4418.5,"{""Q0"":""...players' leaderboard position (in terms of <b>points</b>) in an <b>upcoming tournament.</b>""}","[0]","true","multichoice_tournament","","",NA,NA,"","",NA,NA,NA,NA,NA,NA,"","",NA
"177","","instructions",10,73839,"0.0-11.0",NA,405,"193,126,218,174,134,228,1,106,88,62,9,133,130,246,219,243,236,202,222,142,248,55,71,223,155,166,23,222,217,211,19,9",202,"66a22c0758a3d5c9d26873c6","66749596518f556e28f505d9","66a2670ac3245bf4e6427e2b",1,0,0,"true",1,69,"[{""page_index"":0,""viewing_time"":4695.199999988079}]",4695.29999999702,"","","","","","",NA,NA,"","",NA,NA,NA,NA,NA,NA,"","",NA
"178","","instructions",11,81795,"0.0-12.0-0.0",NA,405,"193,126,218,174,134,228,1,106,88,62,9,133,130,246,219,243,236,202,222,142,248,55,71,223,155,166,23,222,217,211,19,9",202,"66a22c0758a3d5c9d26873c6","66749596518f556e28f505d9","66a2670ac3245bf4e6427e2b",1,0,0,"true",1,69,"[{""page_index"":0,""viewing_time"":7955.0999999940395}]",7955.29999999702,"","","","","","",NA,NA,"","",NA,NA,NA,NA,NA,NA,"","",NA
"179","","type-this",12,87755,"0.0-12.0-1.0",NA,405,"193,126,218,174,134,228,1,106,88,62,9,133,130,246,219,243,236,202,222,142,248,55,71,223,155,166,23,222,217,211,19,9",202,"66a22c0758a3d5c9d26873c6","66749596518f556e28f505d9","66a2670ac3245bf4e6427e2b",1,0,0,"true",1,69,"",5457.60000000894,"kentucky","","","","","",NA,NA,"","kentucky",NA,NA,NA,NA,NA,NA,"","",NA
"180","","Hangman_replay",13,127113,"0.0-12.0-2.0",NA,405,"193,126,218,174,134,228,1,106,88,62,9,133,130,246,219,243,236,202,222,142,248,55,71,223,155,166,23,222,217,211,19,9",202,"66a22c0758a3d5c9d26873c6","66749596518f556e28f505d9","66a2670ac3245bf4e6427e2b",1,0,0,"true",1,69,"",NA,"","","","","KENTUCKY","A,E,K,Y,N,T,U,C",8,14,"false","",NA,NA,NA,NA,NA,NA,"","",NA
"181","","instructions",14,130572,"0.0-12.0-3.0",NA,405,"193,126,218,174,134,228,1,106,88,62,9,133,130,246,219,243,236,202,222,142,248,55,71,223,155,166,23,222,217,211,19,9",202,"66a22c0758a3d5c9d26873c6","66749596518f556e28f505d9","66a2670ac3245bf4e6427e2b",1,0,0,"true",1,69,"[{""page_index"":0,""viewing_time"":3458.2999999970198}]",3458.70000000298,"","","","","","",NA,NA,"","",NA,NA,NA,NA,NA,NA,"","",NA
"182","","Guess_leaderboard",15,135570,"0.0-12.0-4.0",NA,405,"193,126,218,174,134,228,1,106,88,62,9,133,130,246,219,243,236,202,222,142,248,55,71,223,155,166,23,222,217,211,19,9",202,"66a22c0758a3d5c9d26873c6","66749596518f556e28f505d9","66a2670ac3245bf4e6427e2b",1,0,0,"true",1,69,"",NA,"","","","","KENTUCKY","",NA,NA,"","",4233.29999999702,25,23,0,36,11,"","",NA
"183","","instructions",16,139230,"0.0-12.0-0.1",NA,405,"193,126,218,174,134,228,1,106,88,62,9,133,130,246,219,243,236,202,222,142,248,55,71,223,155,166,23,222,217,211,19,9",202,"66a22c0758a3d5c9d26873c6","66749596518f556e28f505d9","66a2670ac3245bf4e6427e2b",1,0,0,"true",1,69,"[{""page_index"":0,""viewing_time"":3659.7999999970198}]",3660,"","","","","","",NA,NA,"","",NA,NA,NA,NA,NA,NA,"","",NA
"184","","type-this",17,143642,"0.0-12.0-1.1",NA,405,"193,126,218,174,134,228,1,106,88,62,9,133,130,246,219,243,236,202,222,142,248,55,71,223,155,166,23,222,217,211,19,9",202,"66a22c0758a3d5c9d26873c6","66749596518f556e28f505d9","66a2670ac3245bf4e6427e2b",1,0,0,"true",1,69,"",3909.20000000298,"nectarine","","","","","",NA,NA,"","nectarine",NA,NA,NA,NA,NA,NA,"","",NA
"185","","Hangman_replay",18,231630,"0.0-12.0-2.1",NA,405,"193,126,218,174,134,228,1,106,88,62,9,133,130,246,219,243,236,202,222,142,248,55,71,223,155,166,23,222,217,211,19,9",202,"66a22c0758a3d5c9d26873c6","66749596518f556e28f505d9","66a2670ac3245bf4e6427e2b",1,0,0,"true",1,69,"",NA,"","","","","NECTARINE","C,E,L,H,I,V,N,T,A,R",10,12,"false","",NA,NA,NA,NA,NA,NA,"","",NA
"186","","instructions",19,233984,"0.0-12.0-3.1",NA,405,"193,126,218,174,134,228,1,106,88,62,9,133,130,246,219,243,236,202,222,142,248,55,71,223,155,166,23,222,217,211,19,9",202,"66a22c0758a3d5c9d26873c6","66749596518f556e28f505d9","66a2670ac3245bf4e6427e2b",1,0,0,"true",1,69,"[{""page_index"":0,""viewing_time"":2353.9000000059605}]",2354.09999999404,"","","","","","",NA,NA,"","",NA,NA,NA,NA,NA,NA,"","",NA
"187","","Guess_leaderboard",20,237852,"0.0-12.0-4.1",NA,405,"193,126,218,174,134,228,1,106,88,62,9,133,130,246,219,243,236,202,222,142,248,55,71,223,155,166,23,222,217,211,19,9",202,"66a22c0758a3d5c9d26873c6","66749596518f556e28f505d9","66a2670ac3245bf4e6427e2b",1,0,0,"true",1,69,"",NA,"","","","","NECTARINE","",NA,NA,"","",3102.79999999702,65,21,1,40,25,"","",NA
"188","","instructions",21,243531,"0.0-12.0-0.2",NA,405,"193,126,218,174,134,228,1,106,88,62,9,133,130,246,219,243,236,202,222,142,248,55,71,223,155,166,23,222,217,211,19,9",202,"66a22c0758a3d5c9d26873c6","66749596518f556e28f505d9","66a2670ac3245bf4e6427e2b",1,0,0,"true",1,69,"[{""page_index"":0,""viewing_time"":5678.20000000298}]",5678.29999999702,"","","","","","",NA,NA,"","",NA,NA,NA,NA,NA,NA,"","",NA
"189","","type-this",22,248386,"0.0-12.0-1.2",NA,405,"193,126,218,174,134,228,1,106,88,62,9,133,130,246,219,243,236,202,222,142,248,55,71,223,155,166,23,222,217,211,19,9",202,"66a22c0758a3d5c9d26873c6","66749596518f556e28f505d9","66a2670ac3245bf4e6427e2b",1,0,0,"true",1,69,"",4353.59999999404,"thirty four","","","","","",NA,NA,"","thirty four",NA,NA,NA,NA,NA,NA,"","",NA
"190","","Hangman_replay",23,288987,"0.0-12.0-2.2",NA,405,"193,126,218,174,134,228,1,106,88,62,9,133,130,246,219,243,236,202,222,142,248,55,71,223,155,166,23,222,217,211,19,9",202,"66a22c0758a3d5c9d26873c6","66749596518f556e28f505d9","66a2670ac3245bf4e6427e2b",1,0,0,"true",1,69,"",NA,"","","","","THIRTY FOUR","A,E,I,G,H,O,N,W,M,D,C,S,T,R,Y,F,U",17,6,"false","",NA,NA,NA,NA,NA,NA,"","",NA
"191","","instructions",24,291185,"0.0-12.0-3.2",NA,405,"193,126,218,174,134,228,1,106,88,62,9,133,130,246,219,243,236,202,222,142,248,55,71,223,155,166,23,222,217,211,19,9",202,"66a22c0758a3d5c9d26873c6","66749596518f556e28f505d9","66a2670ac3245bf4e6427e2b",1,0,0,"true",1,69,"[{""page_index"":0,""viewing_time"":2197.300000011921}]",2197.5,"","","","","","",NA,NA,"","",NA,NA,NA,NA,NA,NA,"","",NA
"192","","Guess_leaderboard",25,294090,"0.0-12.0-4.2",NA,405,"193,126,218,174,134,228,1,106,88,62,9,133,130,246,219,243,236,202,222,142,248,55,71,223,155,166,23,222,217,211,19,9",202,"66a22c0758a3d5c9d26873c6","66749596518f556e28f505d9","66a2670ac3245bf4e6427e2b",1,0,0,"true",1,69,"",NA,"","","","","THIRTY FOUR","",NA,NA,"","",2140.90000000596,80,75,2,84,4,"","",NA
"193","","instructions",26,296397,"0.0-12.0-0.3",NA,405,"193,126,218,174,134,228,1,106,88,62,9,133,130,246,219,243,236,202,222,142,248,55,71,223,155,166,23,222,217,211,19,9",202,"66a22c0758a3d5c9d26873c6","66749596518f556e28f505d9","66a2670ac3245bf4e6427e2b",1,0,0,"true",1,69,"[{""page_index"":0,""viewing_time"":2306.699999988079}]",2306.79999999702,"","","","","","",NA,NA,"","",NA,NA,NA,NA,NA,NA,"","",NA
"194","","type-this",27,300363,"0.0-12.0-1.3",NA,405,"193,126,218,174,134,228,1,106,88,62,9,133,130,246,219,243,236,202,222,142,248,55,71,223,155,166,23,222,217,211,19,9",202,"66a22c0758a3d5c9d26873c6","66749596518f556e28f505d9","66a2670ac3245bf4e6427e2b",1,0,0,"true",1,69,"",3464.29999999702,"shakira","","","","","",NA,NA,"","shakira",NA,NA,NA,NA,NA,NA,"","",NA
"195","","Hangman_replay",28,340401,"0.0-12.0-2.3",NA,405,"193,126,218,174,134,228,1,106,88,62,9,133,130,246,219,243,236,202,222,142,248,55,71,223,155,166,23,222,217,211,19,9",202,"66a22c0758a3d5c9d26873c6","66749596518f556e28f505d9","66a2670ac3245bf4e6427e2b",1,0,0,"true",1,69,"",NA,"","","","","SHAKIRA","U,E,R,B,I,O,V,W,C,D,L,H,G,P,Y,A,S,K",18,3,"false","",NA,NA,NA,NA,NA,NA,"","",NA
"196","","instructions",29,342507,"0.0-12.0-3.3",NA,405,"193,126,218,174,134,228,1,106,88,62,9,133,130,246,219,243,236,202,222,142,248,55,71,223,155,166,23,222,217,211,19,9",202,"66a22c0758a3d5c9d26873c6","66749596518f556e28f505d9","66a2670ac3245bf4e6427e2b",1,0,0,"true",1,69,"[{""page_index"":0,""viewing_time"":2105.0999999940395}]",2105.29999999702,"","","","","","",NA,NA,"","",NA,NA,NA,NA,NA,NA,"","",NA
"197","","Guess_leaderboard",30,345588,"0.0-12.0-4.3",NA,405,"193,126,218,174,134,228,1,106,88,62,9,133,130,246,219,243,236,202,222,142,248,55,71,223,155,166,23,222,217,211,19,9",202,"66a22c0758a3d5c9d26873c6","66749596518f556e28f505d9","66a2670ac3245bf4e6427e2b",1,0,0,"true",1,69,"",NA,"","","","","SHAKIRA","",NA,NA,"","",2323.29999999702,88,27,3,39,49,"","",NA
"198","","instructions",31,348168,"0.0-12.0-0.4",NA,405,"193,126,218,174,134,228,1,106,88,62,9,133,130,246,219,243,236,202,222,142,248,55,71,223,155,166,23,222,217,211,19,9",202,"66a22c0758a3d5c9d26873c6","66749596518f556e28f505d9","66a2670ac3245bf4e6427e2b",1,0,0,"true",1,69,"[{""page_index"":0,""viewing_time"":2579.7000000029802}]",2579.90000000596,"","","","","","",NA,NA,"","",NA,NA,NA,NA,NA,NA,"","",NA
"199","","type-this",32,352629,"0.0-12.0-1.4",NA,405,"193,126,218,174,134,228,1,106,88,62,9,133,130,246,219,243,236,202,222,142,248,55,71,223,155,166,23,222,217,211,19,9",202,"66a22c0758a3d5c9d26873c6","66749596518f556e28f505d9","66a2670ac3245bf4e6427e2b",1,0,0,"true",1,69,"",3958.79999999702,"thumb","","","","","",NA,NA,"","thumb",NA,NA,NA,NA,NA,NA,"","",NA
"200","","Hangman_replay",33,367127,"0.0-12.0-2.4",NA,405,"193,126,218,174,134,228,1,106,88,62,9,133,130,246,219,243,236,202,222,142,248,55,71,223,155,166,23,222,217,211,19,9",202,"66a22c0758a3d5c9d26873c6","66749596518f556e28f505d9","66a2670ac3245bf4e6427e2b",1,0,0,"true",1,69,"",NA,"","","","","THUMB","A,B,E,G,H,Q,P,X,W,V,U,T,M",13,7,"false","",NA,NA,NA,NA,NA,NA,"","",NA
"201","","instructions",34,369091,"0.0-12.0-3.4",NA,405,"193,126,218,174,134,228,1,106,88,62,9,133,130,246,219,243,236,202,222,142,248,55,71,223,155,166,23,222,217,211,19,9",202,"66a22c0758a3d5c9d26873c6","66749596518f556e28f505d9","66a2670ac3245bf4e6427e2b",1,0,0,"true",1,69,"[{""page_index"":0,""viewing_time"":1963.4000000059605}]",1963.60000000894,"","","","","","",NA,NA,"","",NA,NA,NA,NA,NA,NA,"","",NA
"202","","Guess_leaderboard",35,371064,"0.0-12.0-4.4",NA,405,"193,126,218,174,134,228,1,106,88,62,9,133,130,246,219,243,236,202,222,142,248,55,71,223,155,166,23,222,217,211,19,9",202,"66a22c0758a3d5c9d26873c6","66749596518f556e28f505d9","66a2670ac3245bf4e6427e2b",1,0,0,"true",1,69,"",NA,"","","","","THUMB","",NA,NA,"","",1205.10000000894,76,32,4,90,14,"","",NA
"203","","survey-text",36,375108,"0.0-13.0",NA,405,"193,126,218,174,134,228,1,106,88,62,9,133,130,246,219,243,236,202,222,142,248,55,71,223,155,166,23,222,217,211,19,9",202,"66a22c0758a3d5c9d26873c6","66749596518f556e28f505d9","66a2670ac3245bf4e6427e2b",1,0,0,"true",1,69,"",4041.10000000894,"{""Q0"":""thumb""}","","","","","",NA,NA,"","",NA,NA,NA,NA,NA,NA,"thumb","",NA
"204","","survey-multi-choice",37,379181,"0.0-14.0",NA,405,"193,126,218,174,134,228,1,106,88,62,9,133,130,246,219,243,236,202,222,142,248,55,71,223,155,166,23,222,217,211,19,9",202,"66a22c0758a3d5c9d26873c6","66749596518f556e28f505d9","66a2670ac3245bf4e6427e2b",1,0,0,"true",1,69,"",4071.90000000596,"{""Q0"":""1. I would be <b>first</b> out of the six of us.""}","[0]","","self-rating","","",NA,NA,"","",NA,1,NA,NA,NA,NA,"","",NA
"205","","html-slider-response",38,383491,"0.0-15.0",NA,405,"193,126,218,174,134,228,1,106,88,62,9,133,130,246,219,243,236,202,222,142,248,55,71,223,155,166,23,222,217,211,19,9",202,"66a22c0758a3d5c9d26873c6","66749596518f556e28f505d9","66a2670ac3245bf4e6427e2b",1,0,0,"true",1,69,"",4308.29999999702,"","","","","","",NA,NA,"","69",NA,NA,NA,NA,NA,NA,"","<p>Overall, how confident were you in your answer to this last question?</p>",69
"206","","survey-text",39,417392,"0.0-16.0",NA,405,"193,126,218,174,134,228,1,106,88,62,9,133,130,246,219,243,236,202,222,142,248,55,71,223,155,166,23,222,217,211,19,9",202,"66a22c0758a3d5c9d26873c6","66749596518f556e28f505d9","66a2670ac3245bf4e6427e2b",1,0,0,"true",1,69,"",33899.599999994,"{""Q0"":""How we judge other people based on the number of mistakes they make when trying to complete a task.""}","","","","","",NA,NA,"","",NA,NA,NA,NA,NA,NA,"","",NA
"207","","survey-text",40,424032,"0.0-17.0",NA,405,"193,126,218,174,134,228,1,106,88,62,9,133,130,246,219,243,236,202,222,142,248,55,71,223,155,166,23,222,217,211,19,9",202,"66a22c0758a3d5c9d26873c6","66749596518f556e28f505d9","66a2670ac3245bf4e6427e2b",1,0,0,"true",1,69,"",6638.90000000596,"{""Q0"":""N/A""}","","","","","",NA,NA,"","",NA,NA,NA,NA,NA,NA,"","",NA
"208","","instructions",41,431679,"0.0-18.0",NA,405,"193,126,218,174,134,228,1,106,88,62,9,133,130,246,219,243,236,202,222,142,248,55,71,223,155,166,23,222,217,211,19,9",202,"66a22c0758a3d5c9d26873c6","66749596518f556e28f505d9","66a2670ac3245bf4e6427e2b",1,0,0,"true",1,69,"[{""page_index"":0,""viewing_time"":7645.5}]",7646.10000000894,"","","","","","",NA,NA,"","",NA,NA,NA,NA,NA,NA,"","",NA
"209","true","fullscreen",0,2615,"0.0-0.0",NA,406,"70,33,193,213,95,164,232,108,224,218,228,40,131,2,100,27,170,200,109,213,63,118,34,124,137,45,249,211,0,104,45,65",203,"66a22c0758a3d5c9d26873c6","653feb348f4df4e625de5909","66a2690b41a073f1b53afe77",1,0,0,"false",1,100,"",NA,"","","","","","",NA,NA,"",NA,NA,NA,NA,NA,NA,NA,"","",NA
"210","","instructions",1,38179,"0.0-1.0",NA,406,"70,33,193,213,95,164,232,108,224,218,228,40,131,2,100,27,170,200,109,213,63,118,34,124,137,45,249,211,0,104,45,65",203,"66a22c0758a3d5c9d26873c6","653feb348f4df4e625de5909","66a2690b41a073f1b53afe77",1,0,0,"false",1,100,"[{""page_index"":0,""viewing_time"":35562.10000014305}]",35563.2999999523,"","","","","","",NA,NA,"",NA,NA,NA,NA,NA,NA,NA,"","",NA
"211","","instructions",2,78113,"0.0-2.0-0.0",NA,406,"70,33,193,213,95,164,232,108,224,218,228,40,131,2,100,27,170,200,109,213,63,118,34,124,137,45,249,211,0,104,45,65",203,"66a22c0758a3d5c9d26873c6","653feb348f4df4e625de5909","66a2690b41a073f1b53afe77",1,0,0,"false",1,100,"[{""page_index"":0,""viewing_time"":39932.10000014305}]",39932.2999999523,"","","","","","",NA,NA,"",NA,NA,NA,NA,NA,NA,NA,"","",NA
"212","","survey-multi-choice",3,90346,"0.0-2.0-1.0",NA,406,"70,33,193,213,95,164,232,108,224,218,228,40,131,2,100,27,170,200,109,213,63,118,34,124,137,45,249,211,0,104,45,65",203,"66a22c0758a3d5c9d26873c6","653feb348f4df4e625de5909","66a2690b41a073f1b53afe77",1,0,0,"false",1,100,"",12230.4000000954,"{""Q0"":""... reveal the word with as <b>few letter guesses</b> as possible""}","[0]","true","multichoice_nonpretend","","",NA,NA,"",NA,NA,NA,NA,NA,NA,NA,"","",NA
"213","","instructions",4,93936,"0.0-3.0",NA,406,"70,33,193,213,95,164,232,108,224,218,228,40,131,2,100,27,170,200,109,213,63,118,34,124,137,45,249,211,0,104,45,65",203,"66a22c0758a3d5c9d26873c6","653feb348f4df4e625de5909","66a2690b41a073f1b53afe77",1,0,0,"false",1,100,"[{""page_index"":0,""viewing_time"":3587.199999809265}]",3587.39999985695,"","","","","","",NA,NA,"",NA,NA,NA,NA,NA,NA,NA,"","",NA
"214","","Hangman",5,146242,"0.0-4.0",NA,406,"70,33,193,213,95,164,232,108,224,218,228,40,131,2,100,27,170,200,109,213,63,118,34,124,137,45,249,211,0,104,45,65",203,"66a22c0758a3d5c9d26873c6","653feb348f4df4e625de5909","66a2690b41a073f1b53afe77",1,0,0,"false",1,100,"",NA,"","","","","ZEBRA","T,B,A,Z,E,R",6,14,"false",NA,NA,NA,NA,NA,NA,NA,"","",NA
"215","","instructions",6,188855,"0.0-5.0",NA,406,"70,33,193,213,95,164,232,108,224,218,228,40,131,2,100,27,170,200,109,213,63,118,34,124,137,45,249,211,0,104,45,65",203,"66a22c0758a3d5c9d26873c6","653feb348f4df4e625de5909","66a2690b41a073f1b53afe77",1,0,0,"false",1,100,"[{""page_index"":0,""viewing_time"":6717.699999809265},{""page_index"":1,""viewing_time"":35892.40000009537}]",42611.5,"","","","","","",NA,NA,"",NA,NA,NA,NA,NA,NA,NA,"","",NA
"216","","survey-multi-choice",7,200393,"0.0-6.0",NA,406,"70,33,193,213,95,164,232,108,224,218,228,40,131,2,100,27,170,200,109,213,63,118,34,124,137,45,249,211,0,104,45,65",203,"66a22c0758a3d5c9d26873c6","653feb348f4df4e625de5909","66a2690b41a073f1b53afe77",1,0,0,"false",1,100,"",11535.7999999523,"{""Q0"":""...from <b>a previous session</b> that is part of the upcoming tournament.""}","[0]","false","multichoice_leaderboard","","",NA,NA,"",NA,NA,NA,NA,NA,NA,NA,"","",NA
"217","","instructions",8,204166,"0.0-7.0-0.0",NA,406,"70,33,193,213,95,164,232,108,224,218,228,40,131,2,100,27,170,200,109,213,63,118,34,124,137,45,249,211,0,104,45,65",203,"66a22c0758a3d5c9d26873c6","653feb348f4df4e625de5909","66a2690b41a073f1b53afe77",1,0,0,"false",1,100,"[{""page_index"":0,""viewing_time"":3770.2000000476837}]",3770.90000009537,"","","","","","",NA,NA,"",NA,NA,NA,NA,NA,NA,NA,"","",NA
"218","","survey-multi-choice",9,216211,"0.0-7.0-1.0",NA,406,"70,33,193,213,95,164,232,108,224,218,228,40,131,2,100,27,170,200,109,213,63,118,34,124,137,45,249,211,0,104,45,65",203,"66a22c0758a3d5c9d26873c6","653feb348f4df4e625de5909","66a2690b41a073f1b53afe77",1,0,0,"false",1,100,"",12043.4000000954,"{""Q0"":""...from <b>a previous session</b> that is part of the upcoming tournament.""}","[0]","false","multichoice_leaderboard","","",NA,NA,"",NA,NA,NA,NA,NA,NA,NA,"","",NA
"219","","instructions",10,218922,"0.0-7.1-0.1",NA,406,"70,33,193,213,95,164,232,108,224,218,228,40,131,2,100,27,170,200,109,213,63,118,34,124,137,45,249,211,0,104,45,65",203,"66a22c0758a3d5c9d26873c6","653feb348f4df4e625de5909","66a2690b41a073f1b53afe77",1,0,0,"false",1,100,"[{""page_index"":0,""viewing_time"":2707.5999999046326}]",2708.09999990463,"","","","","","",NA,NA,"",NA,NA,NA,NA,NA,NA,NA,"","",NA
"220","","survey-multi-choice",11,227354,"0.0-7.1-1.1",NA,406,"70,33,193,213,95,164,232,108,224,218,228,40,131,2,100,27,170,200,109,213,63,118,34,124,137,45,249,211,0,104,45,65",203,"66a22c0758a3d5c9d26873c6","653feb348f4df4e625de5909","66a2690b41a073f1b53afe77",1,0,0,"false",1,100,"",8430.80000019073,"{""Q0"":""...from <b>a previous session</b> that is part of the upcoming tournament.""}","[0]","false","multichoice_leaderboard","","",NA,NA,"",NA,NA,NA,NA,NA,NA,NA,"","",NA
"221","","instructions",12,231184,"0.0-7.2-0.2",NA,406,"70,33,193,213,95,164,232,108,224,218,228,40,131,2,100,27,170,200,109,213,63,118,34,124,137,45,249,211,0,104,45,65",203,"66a22c0758a3d5c9d26873c6","653feb348f4df4e625de5909","66a2690b41a073f1b53afe77",1,0,0,"false",1,100,"[{""page_index"":0,""viewing_time"":3828.4000000953674}]",3828.70000004768,"","","","","","",NA,NA,"",NA,NA,NA,NA,NA,NA,NA,"","",NA
"222","","survey-multi-choice",13,248094,"0.0-7.2-1.2",NA,406,"70,33,193,213,95,164,232,108,224,218,228,40,131,2,100,27,170,200,109,213,63,118,34,124,137,45,249,211,0,104,45,65",203,"66a22c0758a3d5c9d26873c6","653feb348f4df4e625de5909","66a2690b41a073f1b53afe77",1,0,0,"false",1,100,"",16907.7999999523,"{""Q0"":""...from <b>a previous session</b> that is not part of the upcoming tournament.""}","[0]","true","multichoice_leaderboard","","",NA,NA,"",NA,NA,NA,NA,NA,NA,NA,"","",NA
"223","","instructions",14,276513,"0.0-8.0",NA,406,"70,33,193,213,95,164,232,108,224,218,228,40,131,2,100,27,170,200,109,213,63,118,34,124,137,45,249,211,0,104,45,65",203,"66a22c0758a3d5c9d26873c6","653feb348f4df4e625de5909","66a2690b41a073f1b53afe77",1,0,0,"false",1,100,"[{""page_index"":0,""viewing_time"":28417}]",28418.3000001907,"","","","","","",NA,NA,"",NA,NA,NA,NA,NA,NA,NA,"","",NA
"224","","survey-multi-choice",15,299682,"0.0-9.0",NA,406,"70,33,193,213,95,164,232,108,224,218,228,40,131,2,100,27,170,200,109,213,63,118,34,124,137,45,249,211,0,104,45,65",203,"66a22c0758a3d5c9d26873c6","653feb348f4df4e625de5909","66a2690b41a073f1b53afe77",1,0,0,"false",1,100,"",23166.2999999523,"{""Q0"":""...players' leaderboard position (in terms of <b>points</b>) in an <b>upcoming tournament.</b>""}","[0]","true","multichoice_tournament","","",NA,NA,"",NA,NA,NA,NA,NA,NA,NA,"","",NA
"225","","instructions",16,330363,"0.0-11.0",NA,406,"70,33,193,213,95,164,232,108,224,218,228,40,131,2,100,27,170,200,109,213,63,118,34,124,137,45,249,211,0,104,45,65",203,"66a22c0758a3d5c9d26873c6","653feb348f4df4e625de5909","66a2690b41a073f1b53afe77",1,0,0,"false",1,100,"[{""page_index"":0,""viewing_time"":30679.200000047684}]",30679.7999999523,"","","","","","",NA,NA,"",NA,NA,NA,NA,NA,NA,NA,"","",NA
"226","","instructions",17,348157,"0.0-12.0-0.0",NA,406,"70,33,193,213,95,164,232,108,224,218,228,40,131,2,100,27,170,200,109,213,63,118,34,124,137,45,249,211,0,104,45,65",203,"66a22c0758a3d5c9d26873c6","653feb348f4df4e625de5909","66a2690b41a073f1b53afe77",1,0,0,"false",1,100,"[{""page_index"":0,""viewing_time"":17791.89999985695}]",17792.2999999523,"","","","","","",NA,NA,"",NA,NA,NA,NA,NA,NA,NA,"","",NA
"227","","Hangman_replay",18,417797,"0.0-12.0-1.0",NA,406,"70,33,193,213,95,164,232,108,224,218,228,40,131,2,100,27,170,200,109,213,63,118,34,124,137,45,249,211,0,104,45,65",203,"66a22c0758a3d5c9d26873c6","653feb348f4df4e625de5909","66a2690b41a073f1b53afe77",1,0,0,"false",1,100,"",NA,"","","","","WRIST","E,O,A,I,H,R,S,T,W",9,11,"false",NA,NA,NA,NA,NA,NA,NA,"","",NA
"228","","instructions",19,425378,"0.0-12.0-2.0",NA,406,"70,33,193,213,95,164,232,108,224,218,228,40,131,2,100,27,170,200,109,213,63,118,34,124,137,45,249,211,0,104,45,65",203,"66a22c0758a3d5c9d26873c6","653feb348f4df4e625de5909","66a2690b41a073f1b53afe77",1,0,0,"false",1,100,"[{""page_index"":0,""viewing_time"":7579.299999952316}]",7580.5,"","","","","","",NA,NA,"",NA,NA,NA,NA,NA,NA,NA,"","",NA
"229","","Guess_leaderboard",20,441234,"0.0-12.0-3.0",NA,406,"70,33,193,213,95,164,232,108,224,218,228,40,131,2,100,27,170,200,109,213,63,118,34,124,137,45,249,211,0,104,45,65",203,"66a22c0758a3d5c9d26873c6","653feb348f4df4e625de5909","66a2690b41a073f1b53afe77",1,0,0,"false",1,100,"",NA,"","","","","WRIST","",NA,NA,"",NA,15086.1999998093,95,67,0,2,93,"","",NA
"230","","instructions",21,452010,"0.0-12.0-0.1",NA,406,"70,33,193,213,95,164,232,108,224,218,228,40,131,2,100,27,170,200,109,213,63,118,34,124,137,45,249,211,0,104,45,65",203,"66a22c0758a3d5c9d26873c6","653feb348f4df4e625de5909","66a2690b41a073f1b53afe77",1,0,0,"false",1,100,"[{""page_index"":0,""viewing_time"":10773.400000095367}]",10773.8000001907,"","","","","","",NA,NA,"",NA,NA,NA,NA,NA,NA,NA,"","",NA
"231","","Hangman_replay",22,510121,"0.0-12.0-1.1",NA,406,"70,33,193,213,95,164,232,108,224,218,228,40,131,2,100,27,170,200,109,213,63,118,34,124,137,45,249,211,0,104,45,65",203,"66a22c0758a3d5c9d26873c6","653feb348f4df4e625de5909","66a2690b41a073f1b53afe77",1,0,0,"false",1,100,"",NA,"","","","","FIG","C,M,H,N,B,J,K,A,D,E,F,G,U,I",14,4,"false",NA,NA,NA,NA,NA,NA,NA,"","",NA
"232","","instructions",23,512423,"0.0-12.0-2.1",NA,406,"70,33,193,213,95,164,232,108,224,218,228,40,131,2,100,27,170,200,109,213,63,118,34,124,137,45,249,211,0,104,45,65",203,"66a22c0758a3d5c9d26873c6","653feb348f4df4e625de5909","66a2690b41a073f1b53afe77",1,0,0,"false",1,100,"[{""page_index"":0,""viewing_time"":2300.5}]",2301,"","","","","","",NA,NA,"",NA,NA,NA,NA,NA,NA,NA,"","",NA
"233","","Guess_leaderboard",24,522038,"0.0-12.0-3.1",NA,406,"70,33,193,213,95,164,232,108,224,218,228,40,131,2,100,27,170,200,109,213,63,118,34,124,137,45,249,211,0,104,45,65",203,"66a22c0758a3d5c9d26873c6","653feb348f4df4e625de5909","66a2690b41a073f1b53afe77",1,0,0,"false",1,100,"",NA,"","","","","FIG","",NA,NA,"",NA,8848.69999980927,60,87,1,91,31,"","",NA
"234","","instructions",25,527302,"0.0-12.0-0.2",NA,406,"70,33,193,213,95,164,232,108,224,218,228,40,131,2,100,27,170,200,109,213,63,118,34,124,137,45,249,211,0,104,45,65",203,"66a22c0758a3d5c9d26873c6","653feb348f4df4e625de5909","66a2690b41a073f1b53afe77",1,0,0,"false",1,100,"[{""page_index"":0,""viewing_time"":5261.200000047684}]",5261.79999995232,"","","","","","",NA,NA,"",NA,NA,NA,NA,NA,NA,NA,"","",NA
"235","","Hangman_replay",26,578856,"0.0-12.0-1.2",NA,406,"70,33,193,213,95,164,232,108,224,218,228,40,131,2,100,27,170,200,109,213,63,118,34,124,137,45,249,211,0,104,45,65",203,"66a22c0758a3d5c9d26873c6","653feb348f4df4e625de5909","66a2690b41a073f1b53afe77",1,0,0,"false",1,100,"",NA,"","","","","THIRTY FOUR","A,E,T,H,I,R,Y,F,O,U",10,13,"false",NA,NA,NA,NA,NA,NA,NA,"","",NA
"236","","instructions",27,582387,"0.0-12.0-2.2",NA,406,"70,33,193,213,95,164,232,108,224,218,228,40,131,2,100,27,170,200,109,213,63,118,34,124,137,45,249,211,0,104,45,65",203,"66a22c0758a3d5c9d26873c6","653feb348f4df4e625de5909","66a2690b41a073f1b53afe77",1,0,0,"false",1,100,"[{""page_index"":0,""viewing_time"":3529.199999809265}]",3530.5,"","","","","","",NA,NA,"",NA,NA,NA,NA,NA,NA,NA,"","",NA
"237","","Guess_leaderboard",28,592953,"0.0-12.0-3.2",NA,406,"70,33,193,213,95,164,232,108,224,218,228,40,131,2,100,27,170,200,109,213,63,118,34,124,137,45,249,211,0,104,45,65",203,"66a22c0758a3d5c9d26873c6","653feb348f4df4e625de5909","66a2690b41a073f1b53afe77",1,0,0,"false",1,100,"",NA,"","","","","THIRTY FOUR","",NA,NA,"",NA,9791.70000004768,58,44,2,23,35,"","",NA
"238","","instructions",29,596279,"0.0-12.0-0.3",NA,406,"70,33,193,213,95,164,232,108,224,218,228,40,131,2,100,27,170,200,109,213,63,118,34,124,137,45,249,211,0,104,45,65",203,"66a22c0758a3d5c9d26873c6","653feb348f4df4e625de5909","66a2690b41a073f1b53afe77",1,0,0,"false",1,100,"[{""page_index"":0,""viewing_time"":3322.9000000953674}]",3323.29999995232,"","","","","","",NA,NA,"",NA,NA,NA,NA,NA,NA,NA,"","",NA
"239","","Hangman_replay",30,649235,"0.0-12.0-1.3",NA,406,"70,33,193,213,95,164,232,108,224,218,228,40,131,2,100,27,170,200,109,213,63,118,34,124,137,45,249,211,0,104,45,65",203,"66a22c0758a3d5c9d26873c6","653feb348f4df4e625de5909","66a2690b41a073f1b53afe77",1,0,0,"false",1,100,"",NA,"","","","","KENTUCKY","A,I,K,E,N,T,U,C,Y",9,13,"false",NA,NA,NA,NA,NA,NA,NA,"","",NA
"240","","instructions",31,651922,"0.0-12.0-2.3",NA,406,"70,33,193,213,95,164,232,108,224,218,228,40,131,2,100,27,170,200,109,213,63,118,34,124,137,45,249,211,0,104,45,65",203,"66a22c0758a3d5c9d26873c6","653feb348f4df4e625de5909","66a2690b41a073f1b53afe77",1,0,0,"false",1,100,"[{""page_index"":0,""viewing_time"":2685.0999999046326}]",2685.69999980927,"","","","","","",NA,NA,"",NA,NA,NA,NA,NA,NA,NA,"","",NA
"241","","Guess_leaderboard",32,664000,"0.0-12.0-3.3",NA,406,"70,33,193,213,95,164,232,108,224,218,228,40,131,2,100,27,170,200,109,213,63,118,34,124,137,45,249,211,0,104,45,65",203,"66a22c0758a3d5c9d26873c6","653feb348f4df4e625de5909","66a2690b41a073f1b53afe77",1,0,0,"false",1,100,"",NA,"","","","","KENTUCKY","",NA,NA,"",NA,11318.7000000477,2,77,3,17,15,"","",NA
"242","","instructions",33,676123,"0.0-12.0-0.4",NA,406,"70,33,193,213,95,164,232,108,224,218,228,40,131,2,100,27,170,200,109,213,63,118,34,124,137,45,249,211,0,104,45,65",203,"66a22c0758a3d5c9d26873c6","653feb348f4df4e625de5909","66a2690b41a073f1b53afe77",1,0,0,"false",1,100,"[{""page_index"":0,""viewing_time"":12119.599999904633}]",12120.3999998569,"","","","","","",NA,NA,"",NA,NA,NA,NA,NA,NA,NA,"","",NA
"243","","Hangman_replay",34,716170,"0.0-12.0-1.4",NA,406,"70,33,193,213,95,164,232,108,224,218,228,40,131,2,100,27,170,200,109,213,63,118,34,124,137,45,249,211,0,104,45,65",203,"66a22c0758a3d5c9d26873c6","653feb348f4df4e625de5909","66a2690b41a073f1b53afe77",1,0,0,"false",1,100,"",NA,"","","","","SHAKIRA","U,E,R,B,I,O,V,W,C,D,L,H,G,P,Y,A,S,K",18,3,"false",NA,NA,NA,NA,NA,NA,NA,"","",NA
"244","","instructions",35,719184,"0.0-12.0-2.4",NA,406,"70,33,193,213,95,164,232,108,224,218,228,40,131,2,100,27,170,200,109,213,63,118,34,124,137,45,249,211,0,104,45,65",203,"66a22c0758a3d5c9d26873c6","653feb348f4df4e625de5909","66a2690b41a073f1b53afe77",1,0,0,"false",1,100,"[{""page_index"":0,""viewing_time"":3011.5}]",3012.70000004768,"","","","","","",NA,NA,"",NA,NA,NA,NA,NA,NA,NA,"","",NA
"245","","Guess_leaderboard",36,741075,"0.0-12.0-3.4",NA,406,"70,33,193,213,95,164,232,108,224,218,228,40,131,2,100,27,170,200,109,213,63,118,34,124,137,45,249,211,0,104,45,65",203,"66a22c0758a3d5c9d26873c6","653feb348f4df4e625de5909","66a2690b41a073f1b53afe77",1,0,0,"false",1,100,"",NA,"","","","","SHAKIRA","",NA,NA,"",NA,21126.5,2,27,4,39,37,"","",NA
"246","","survey-text",37,761910,"0.0-13.0",NA,406,"70,33,193,213,95,164,232,108,224,218,228,40,131,2,100,27,170,200,109,213,63,118,34,124,137,45,249,211,0,104,45,65",203,"66a22c0758a3d5c9d26873c6","653feb348f4df4e625de5909","66a2690b41a073f1b53afe77",1,0,0,"false",1,100,"",20830.3000001907,"{""Q0"":""shakira""}","","","","","",NA,NA,"",NA,NA,NA,NA,NA,NA,NA,"shakira","",NA
"247","","survey-multi-choice",38,782054,"0.0-14.0",NA,406,"70,33,193,213,95,164,232,108,224,218,228,40,131,2,100,27,170,200,109,213,63,118,34,124,137,45,249,211,0,104,45,65",203,"66a22c0758a3d5c9d26873c6","653feb348f4df4e625de5909","66a2690b41a073f1b53afe77",1,0,0,"false",1,100,"",20141.5,"{""Q0"":""1. I would be <b>first</b> out of the six of us.""}","[0]","","self-rating","","",NA,NA,"",NA,NA,1,NA,NA,NA,NA,"","",NA
"248","","html-slider-response",39,791229,"0.0-15.0",NA,406,"70,33,193,213,95,164,232,108,224,218,228,40,131,2,100,27,170,200,109,213,63,118,34,124,137,45,249,211,0,104,45,65",203,"66a22c0758a3d5c9d26873c6","653feb348f4df4e625de5909","66a2690b41a073f1b53afe77",1,0,0,"false",1,100,"",9171.20000004768,"","","","","","",NA,NA,"","100",NA,NA,NA,NA,NA,NA,"","<p>Overall, how confident were you in your answer to this last question?</p>",100
"249","","survey-text",40,873931,"0.0-16.0",NA,406,"70,33,193,213,95,164,232,108,224,218,228,40,131,2,100,27,170,200,109,213,63,118,34,124,137,45,249,211,0,104,45,65",203,"66a22c0758a3d5c9d26873c6","653feb348f4df4e625de5909","66a2690b41a073f1b53afe77",1,0,0,"false",1,100,"",82698.7999999523,"{""Q0"":""How easy it is to solve a problem.""}","","","","","",NA,NA,"",NA,NA,NA,NA,NA,NA,NA,"","",NA
"250","","survey-text",41,888052,"0.0-17.0",NA,406,"70,33,193,213,95,164,232,108,224,218,228,40,131,2,100,27,170,200,109,213,63,118,34,124,137,45,249,211,0,104,45,65",203,"66a22c0758a3d5c9d26873c6","653feb348f4df4e625de5909","66a2690b41a073f1b53afe77",1,0,0,"false",1,100,"",14111.9000000954,"{""Q0"":""nothing.""}","","","","","",NA,NA,"",NA,NA,NA,NA,NA,NA,NA,"","",NA
