"","success","trial_type","trial_index","time_elapsed","internal_node_id","protocol_sum","subject_identifier","subject_sum","subject_pair","STUDY_ID","PROLIFIC_PID","SESSION_ID","practice_instructions","leaderboard_instructions","bonus","reveal_word","self_rating","confidence","view_history","rt","responses","question_order","correct","test_part","word","final_keyboard_state","num_clicks","points","cheat","position_RT","position","player","i_game","true_position","distance","last_word","response","stimulus","confidence_slider_self_response"
"1","true","fullscreen",0,16988,"0.0-0.0",NA,200,"173,87,54,104,101,18,110,85,100,158,203,35,174,29,72,136,117,68,151,110,254,164,106,72,235,93,133,166,238,180,211,6",100,"669eec2e4270c76bc184a38e","669d2e3514022f35e47da6d8","669eecd4b7173a47a093d2f5",1,0,0,"false",3,100,"",NA,"","","","","","",NA,NA,"",NA,NA,NA,NA,NA,NA,"",NA,"",NA
"2","","instructions",1,26386,"0.0-1.0",NA,200,"173,87,54,104,101,18,110,85,100,158,203,35,174,29,72,136,117,68,151,110,254,164,106,72,235,93,133,166,238,180,211,6",100,"669eec2e4270c76bc184a38e","669d2e3514022f35e47da6d8","669eecd4b7173a47a093d2f5",1,0,0,"false",3,100,"[{""page_index"":0,""viewing_time"":9397}]",9398.00000000001,"","","","","","",NA,NA,"",NA,NA,NA,NA,NA,NA,"",NA,"",NA
"3","","instructions",2,83479,"0.0-2.0-0.0",NA,200,"173,87,54,104,101,18,110,85,100,158,203,35,174,29,72,136,117,68,151,110,254,164,106,72,235,93,133,166,238,180,211,6",100,"669eec2e4270c76bc184a38e","669d2e3514022f35e47da6d8","669eecd4b7173a47a093d2f5",1,0,0,"false",3,100,"[{""page_index"":0,""viewing_time"":57091.99999999999}]",57092,"","","","","","",NA,NA,"",NA,NA,NA,NA,NA,NA,"",NA,"",NA
"4","","survey-multi-choice",3,102743,"0.0-2.0-1.0",NA,200,"173,87,54,104,101,18,110,85,100,158,203,35,174,29,72,136,117,68,151,110,254,164,106,72,235,93,133,166,238,180,211,6",100,"669eec2e4270c76bc184a38e","669d2e3514022f35e47da6d8","669eecd4b7173a47a093d2f5",1,0,0,"false",3,100,"",19262,"{""Q0"":""... reveal the word with as <b>few letter guesses</b> as possible""}","[0]","true","multichoice_nonpretend","","",NA,NA,"",NA,NA,NA,NA,NA,NA,"",NA,"",NA
"5","","instructions",4,106516,"0.0-3.0",NA,200,"173,87,54,104,101,18,110,85,100,158,203,35,174,29,72,136,117,68,151,110,254,164,106,72,235,93,133,166,238,180,211,6",100,"669eec2e4270c76bc184a38e","669d2e3514022f35e47da6d8","669eecd4b7173a47a093d2f5",1,0,0,"false",3,100,"[{""page_index"":0,""viewing_time"":3772}]",3772,"","","","","","",NA,NA,"",NA,NA,NA,NA,NA,NA,"",NA,"",NA
"6","","Hangman",5,227756,"0.0-4.0",NA,200,"173,87,54,104,101,18,110,85,100,158,203,35,174,29,72,136,117,68,151,110,254,164,106,72,235,93,133,166,238,180,211,6",100,"669eec2e4270c76bc184a38e","669d2e3514022f35e47da6d8","669eecd4b7173a47a093d2f5",1,0,0,"false",3,100,"",NA,"","","","","ZEBRA","D,M,C,T,G,R,L,B,E,H,F,J,A,Y,U,V,W,Z",18,2,"false",NA,NA,NA,NA,NA,NA,"",NA,"",NA
"7","","instructions",6,270019,"0.0-5.0",NA,200,"173,87,54,104,101,18,110,85,100,158,203,35,174,29,72,136,117,68,151,110,254,164,106,72,235,93,133,166,238,180,211,6",100,"669eec2e4270c76bc184a38e","669d2e3514022f35e47da6d8","669eecd4b7173a47a093d2f5",1,0,0,"false",3,100,"[{""page_index"":0,""viewing_time"":15533},{""page_index"":1,""viewing_time"":26728}]",42261,"","","","","","",NA,NA,"",NA,NA,NA,NA,NA,NA,"",NA,"",NA
"8","","survey-multi-choice",7,290106,"0.0-6.0",NA,200,"173,87,54,104,101,18,110,85,100,158,203,35,174,29,72,136,117,68,151,110,254,164,106,72,235,93,133,166,238,180,211,6",100,"669eec2e4270c76bc184a38e","669d2e3514022f35e47da6d8","669eecd4b7173a47a093d2f5",1,0,0,"false",3,100,"",20086,"{""Q0"":""...from <b>a previous session</b> that is part of the upcoming tournament.""}","[0]","false","multichoice_leaderboard","","",NA,NA,"",NA,NA,NA,NA,NA,NA,"",NA,"",NA
"9","","instructions",8,296103,"0.0-7.0-0.0",NA,200,"173,87,54,104,101,18,110,85,100,158,203,35,174,29,72,136,117,68,151,110,254,164,106,72,235,93,133,166,238,180,211,6",100,"669eec2e4270c76bc184a38e","669d2e3514022f35e47da6d8","669eecd4b7173a47a093d2f5",1,0,0,"false",3,100,"[{""page_index"":0,""viewing_time"":5996}]",5996,"","","","","","",NA,NA,"",NA,NA,NA,NA,NA,NA,"",NA,"",NA
"10","","survey-multi-choice",9,307838,"0.0-7.0-1.0",NA,200,"173,87,54,104,101,18,110,85,100,158,203,35,174,29,72,136,117,68,151,110,254,164,106,72,235,93,133,166,238,180,211,6",100,"669eec2e4270c76bc184a38e","669d2e3514022f35e47da6d8","669eecd4b7173a47a093d2f5",1,0,0,"false",3,100,"",11733,"{""Q0"":""...from <b>a previous session</b> that is not part of the upcoming tournament.""}","[0]","true","multichoice_leaderboard","","",NA,NA,"",NA,NA,NA,NA,NA,NA,"",NA,"",NA
"11","","instructions",10,340061,"0.0-8.0",NA,200,"173,87,54,104,101,18,110,85,100,158,203,35,174,29,72,136,117,68,151,110,254,164,106,72,235,93,133,166,238,180,211,6",100,"669eec2e4270c76bc184a38e","669d2e3514022f35e47da6d8","669eecd4b7173a47a093d2f5",1,0,0,"false",3,100,"[{""page_index"":0,""viewing_time"":32221}]",32221,"","","","","","",NA,NA,"",NA,NA,NA,NA,NA,NA,"",NA,"",NA
"12","","survey-multi-choice",11,355231,"0.0-9.0",NA,200,"173,87,54,104,101,18,110,85,100,158,203,35,174,29,72,136,117,68,151,110,254,164,106,72,235,93,133,166,238,180,211,6",100,"669eec2e4270c76bc184a38e","669d2e3514022f35e47da6d8","669eecd4b7173a47a093d2f5",1,0,0,"false",3,100,"",15168.0000000001,"{""Q0"":""...players' leaderboard position (in terms of <b>points</b>) in an <b>upcoming tournament.</b>""}","[0]","true","multichoice_tournament","","",NA,NA,"",NA,NA,NA,NA,NA,NA,"",NA,"",NA
"13","","instructions",12,392821,"0.0-11.0",NA,200,"173,87,54,104,101,18,110,85,100,158,203,35,174,29,72,136,117,68,151,110,254,164,106,72,235,93,133,166,238,180,211,6",100,"669eec2e4270c76bc184a38e","669d2e3514022f35e47da6d8","669eecd4b7173a47a093d2f5",1,0,0,"false",3,100,"[{""page_index"":0,""viewing_time"":37588}]",37588,"","","","","","",NA,NA,"",NA,NA,NA,NA,NA,NA,"",NA,"",NA
"14","","instructions",13,414589,"0.0-12.0-0.0",NA,200,"173,87,54,104,101,18,110,85,100,158,203,35,174,29,72,136,117,68,151,110,254,164,106,72,235,93,133,166,238,180,211,6",100,"669eec2e4270c76bc184a38e","669d2e3514022f35e47da6d8","669eecd4b7173a47a093d2f5",1,0,0,"false",3,100,"[{""page_index"":0,""viewing_time"":21768}]",21768,"","","","","","",NA,NA,"",NA,NA,NA,NA,NA,NA,"",NA,"",NA
"15","","Hangman_replay",14,427255,"0.0-12.0-1.0",NA,200,"173,87,54,104,101,18,110,85,100,158,203,35,174,29,72,136,117,68,151,110,254,164,106,72,235,93,133,166,238,180,211,6",100,"669eec2e4270c76bc184a38e","669d2e3514022f35e47da6d8","669eecd4b7173a47a093d2f5",1,0,0,"false",3,100,"",NA,"","","","","THUMB","A,B,D,C,F,G,H,I,P,O,N,M,L,K,J,T,S,U",18,2,"false",NA,NA,NA,NA,NA,NA,"",NA,"",NA
"16","","instructions",15,435578,"0.0-12.0-2.0",NA,200,"173,87,54,104,101,18,110,85,100,158,203,35,174,29,72,136,117,68,151,110,254,164,106,72,235,93,133,166,238,180,211,6",100,"669eec2e4270c76bc184a38e","669d2e3514022f35e47da6d8","669eecd4b7173a47a093d2f5",1,0,0,"false",3,100,"[{""page_index"":0,""viewing_time"":8321.000000000058}]",8322,"","","","","","",NA,NA,"",NA,NA,NA,NA,NA,NA,"",NA,"",NA
"17","","Guess_leaderboard",16,439288,"0.0-12.0-3.0",NA,200,"173,87,54,104,101,18,110,85,100,158,203,35,174,29,72,136,117,68,151,110,254,164,106,72,235,93,133,166,238,180,211,6",100,"669eec2e4270c76bc184a38e","669d2e3514022f35e47da6d8","669eecd4b7173a47a093d2f5",1,0,0,"false",3,100,"",NA,"","","","","THUMB","",NA,NA,"",2951,1,66,0,92,91,"",NA,"",NA
"18","","instructions",17,455323,"0.0-12.0-0.1",NA,200,"173,87,54,104,101,18,110,85,100,158,203,35,174,29,72,136,117,68,151,110,254,164,106,72,235,93,133,166,238,180,211,6",100,"669eec2e4270c76bc184a38e","669d2e3514022f35e47da6d8","669eecd4b7173a47a093d2f5",1,0,0,"false",3,100,"[{""page_index"":0,""viewing_time"":16037}]",16038.0000000001,"","","","","","",NA,NA,"",NA,NA,NA,NA,NA,NA,"",NA,"",NA
"19","","Hangman_replay",18,477009,"0.0-12.0-1.1",NA,200,"173,87,54,104,101,18,110,85,100,158,203,35,174,29,72,136,117,68,151,110,254,164,106,72,235,93,133,166,238,180,211,6",100,"669eec2e4270c76bc184a38e","669d2e3514022f35e47da6d8","669eecd4b7173a47a093d2f5",1,0,0,"false",3,100,"",NA,"","","","","SHAKIRA","R,S,T,L,N,E,C,B,A,H,K,I",12,9,"false",NA,NA,NA,NA,NA,NA,"",NA,"",NA
"20","","instructions",19,481248,"0.0-12.0-2.1",NA,200,"173,87,54,104,101,18,110,85,100,158,203,35,174,29,72,136,117,68,151,110,254,164,106,72,235,93,133,166,238,180,211,6",100,"669eec2e4270c76bc184a38e","669d2e3514022f35e47da6d8","669eecd4b7173a47a093d2f5",1,0,0,"false",3,100,"[{""page_index"":0,""viewing_time"":4240}]",4240,"","","","","","",NA,NA,"",NA,NA,NA,NA,NA,NA,"",NA,"",NA
"21","","Guess_leaderboard",20,485557,"0.0-12.0-3.1",NA,200,"173,87,54,104,101,18,110,85,100,158,203,35,174,29,72,136,117,68,151,110,254,164,106,72,235,93,133,166,238,180,211,6",100,"669eec2e4270c76bc184a38e","669d2e3514022f35e47da6d8","669eecd4b7173a47a093d2f5",1,0,0,"false",3,100,"",NA,"","","","","SHAKIRA","",NA,NA,"",3554,35,33,1,72,37,"",NA,"",NA
"22","","instructions",21,492076,"0.0-12.0-0.2",NA,200,"173,87,54,104,101,18,110,85,100,158,203,35,174,29,72,136,117,68,151,110,254,164,106,72,235,93,133,166,238,180,211,6",100,"669eec2e4270c76bc184a38e","669d2e3514022f35e47da6d8","669eecd4b7173a47a093d2f5",1,0,0,"false",3,100,"[{""page_index"":0,""viewing_time"":6519}]",6519,"","","","","","",NA,NA,"",NA,NA,NA,NA,NA,NA,"",NA,"",NA
"23","","Hangman_replay",22,560423,"0.0-12.0-1.2",NA,200,"173,87,54,104,101,18,110,85,100,158,203,35,174,29,72,136,117,68,151,110,254,164,106,72,235,93,133,166,238,180,211,6",100,"669eec2e4270c76bc184a38e","669d2e3514022f35e47da6d8","669eecd4b7173a47a093d2f5",1,0,0,"false",3,100,"",NA,"","","","","FIG","F,I,G",3,15,"false",NA,NA,NA,NA,NA,NA,"",NA,"",NA
"24","","instructions",23,565193,"0.0-12.0-2.2",NA,200,"173,87,54,104,101,18,110,85,100,158,203,35,174,29,72,136,117,68,151,110,254,164,106,72,235,93,133,166,238,180,211,6",100,"669eec2e4270c76bc184a38e","669d2e3514022f35e47da6d8","669eecd4b7173a47a093d2f5",1,0,0,"false",3,100,"[{""page_index"":0,""viewing_time"":4769}]",4769,"","","","","","",NA,NA,"",NA,NA,NA,NA,NA,NA,"",NA,"",NA
"25","","Guess_leaderboard",24,575856,"0.0-12.0-3.2",NA,200,"173,87,54,104,101,18,110,85,100,158,203,35,174,29,72,136,117,68,151,110,254,164,106,72,235,93,133,166,238,180,211,6",100,"669eec2e4270c76bc184a38e","669d2e3514022f35e47da6d8","669eecd4b7173a47a093d2f5",1,0,0,"false",3,100,"",NA,"","","","","FIG","",NA,NA,"",9901,70,44,2,26,44,"",NA,"",NA
"26","","instructions",25,578682,"0.0-12.0-0.3",NA,200,"173,87,54,104,101,18,110,85,100,158,203,35,174,29,72,136,117,68,151,110,254,164,106,72,235,93,133,166,238,180,211,6",100,"669eec2e4270c76bc184a38e","669d2e3514022f35e47da6d8","669eecd4b7173a47a093d2f5",1,0,0,"false",3,100,"[{""page_index"":0,""viewing_time"":2824}]",2824,"","","","","","",NA,NA,"",NA,NA,NA,NA,NA,NA,"",NA,"",NA
"27","","Hangman_replay",26,602205,"0.0-12.0-1.3",NA,200,"173,87,54,104,101,18,110,85,100,158,203,35,174,29,72,136,117,68,151,110,254,164,106,72,235,93,133,166,238,180,211,6",100,"669eec2e4270c76bc184a38e","669d2e3514022f35e47da6d8","669eecd4b7173a47a093d2f5",1,0,0,"false",3,100,"",NA,"","","","","HAWAII","A,N,I,W,H",5,14,"false",NA,NA,NA,NA,NA,NA,"",NA,"",NA
"28","","instructions",27,604340,"0.0-12.0-2.3",NA,200,"173,87,54,104,101,18,110,85,100,158,203,35,174,29,72,136,117,68,151,110,254,164,106,72,235,93,133,166,238,180,211,6",100,"669eec2e4270c76bc184a38e","669d2e3514022f35e47da6d8","669eecd4b7173a47a093d2f5",1,0,0,"false",3,100,"[{""page_index"":0,""viewing_time"":2133.9999999998836}]",2133.99999999988,"","","","","","",NA,NA,"",NA,NA,NA,NA,NA,NA,"",NA,"",NA
"29","","Guess_leaderboard",28,612906,"0.0-12.0-3.3",NA,200,"173,87,54,104,101,18,110,85,100,158,203,35,174,29,72,136,117,68,151,110,254,164,106,72,235,93,133,166,238,180,211,6",100,"669eec2e4270c76bc184a38e","669d2e3514022f35e47da6d8","669eecd4b7173a47a093d2f5",1,0,0,"false",3,100,"",NA,"","","","","HAWAII","",NA,NA,"",7813,20,85,3,3,17,"",NA,"",NA
"30","","instructions",29,618920,"0.0-12.0-0.4",NA,200,"173,87,54,104,101,18,110,85,100,158,203,35,174,29,72,136,117,68,151,110,254,164,106,72,235,93,133,166,238,180,211,6",100,"669eec2e4270c76bc184a38e","669d2e3514022f35e47da6d8","669eecd4b7173a47a093d2f5",1,0,0,"false",3,100,"[{""page_index"":0,""viewing_time"":6012}]",6012,"","","","","","",NA,NA,"",NA,NA,NA,NA,NA,NA,"",NA,"",NA
"31","","Hangman_replay",30,659172,"0.0-12.0-1.4",NA,200,"173,87,54,104,101,18,110,85,100,158,203,35,174,29,72,136,117,68,151,110,254,164,106,72,235,93,133,166,238,180,211,6",100,"669eec2e4270c76bc184a38e","669d2e3514022f35e47da6d8","669eecd4b7173a47a093d2f5",1,0,0,"false",3,100,"",NA,"","","","","THIRTY FOUR","F,E,O,U,R,T,H,I,Y",9,14,"false",NA,NA,NA,NA,NA,NA,"",NA,"",NA
"32","","instructions",31,660593,"0.0-12.0-2.4",NA,200,"173,87,54,104,101,18,110,85,100,158,203,35,174,29,72,136,117,68,151,110,254,164,106,72,235,93,133,166,238,180,211,6",100,"669eec2e4270c76bc184a38e","669d2e3514022f35e47da6d8","669eecd4b7173a47a093d2f5",1,0,0,"false",3,100,"[{""page_index"":0,""viewing_time"":1420}]",1420,"","","","","","",NA,NA,"",NA,NA,NA,NA,NA,NA,"",NA,"",NA
"33","","Guess_leaderboard",32,668056,"0.0-12.0-3.4",NA,200,"173,87,54,104,101,18,110,85,100,158,203,35,174,29,72,136,117,68,151,110,254,164,106,72,235,93,133,166,238,180,211,6",100,"669eec2e4270c76bc184a38e","669d2e3514022f35e47da6d8","669eecd4b7173a47a093d2f5",1,0,0,"false",3,100,"",NA,"","","","","THIRTY FOUR","",NA,NA,"",6706,4,90,4,13,9,"",NA,"",NA
"34","","survey-text",33,687904,"0.0-13.0",NA,200,"173,87,54,104,101,18,110,85,100,158,203,35,174,29,72,136,117,68,151,110,254,164,106,72,235,93,133,166,238,180,211,6",100,"669eec2e4270c76bc184a38e","669d2e3514022f35e47da6d8","669eecd4b7173a47a093d2f5",1,0,0,"false",3,100,"",19833.0000000001,"{""Q0"":""Thirty Four""}","","","","","",NA,NA,"",NA,NA,NA,NA,NA,NA,"thirty four",NA,"",NA
"35","","survey-multi-choice",34,708379,"0.0-14.0",NA,200,"173,87,54,104,101,18,110,85,100,158,203,35,174,29,72,136,117,68,151,110,254,164,106,72,235,93,133,166,238,180,211,6",100,"669eec2e4270c76bc184a38e","669d2e3514022f35e47da6d8","669eecd4b7173a47a093d2f5",1,0,0,"false",3,100,"",20473,"{""Q0"":""3. I would be <b>third</b> out of the six of us.""}","[0]","","self-rating","","",NA,NA,"",NA,3,NA,NA,NA,NA,"",NA,"",NA
"36","","html-slider-response",35,713957,"0.0-15.0",NA,200,"173,87,54,104,101,18,110,85,100,158,203,35,174,29,72,136,117,68,151,110,254,164,106,72,235,93,133,166,238,180,211,6",100,"669eec2e4270c76bc184a38e","669d2e3514022f35e47da6d8","669eecd4b7173a47a093d2f5",1,0,0,"false",3,100,"",5575.99999999988,"","","","","","",NA,NA,"",NA,NA,NA,NA,NA,NA,"","100","<p>Overall, how confident were you in your answer to this last question?</p>",100
"37","","survey-text",36,746590,"0.0-16.0",NA,200,"173,87,54,104,101,18,110,85,100,158,203,35,174,29,72,136,117,68,151,110,254,164,106,72,235,93,133,166,238,180,211,6",100,"669eec2e4270c76bc184a38e","669d2e3514022f35e47da6d8","669eecd4b7173a47a093d2f5",1,0,0,"false",3,100,"",32631,"{""Q0"":""Cognitive test""}","","","","","",NA,NA,"",NA,NA,NA,NA,NA,NA,"",NA,"",NA
"38","","survey-text",37,757213,"0.0-17.0",NA,200,"173,87,54,104,101,18,110,85,100,158,203,35,174,29,72,136,117,68,151,110,254,164,106,72,235,93,133,166,238,180,211,6",100,"669eec2e4270c76bc184a38e","669d2e3514022f35e47da6d8","669eecd4b7173a47a093d2f5",1,0,0,"false",3,100,"",10622.0000000001,"{""Q0"":""No""}","","","","","",NA,NA,"",NA,NA,NA,NA,NA,NA,"",NA,"",NA
"39","","instructions",38,767238,"0.0-18.0",NA,200,"173,87,54,104,101,18,110,85,100,158,203,35,174,29,72,136,117,68,151,110,254,164,106,72,235,93,133,166,238,180,211,6",100,"669eec2e4270c76bc184a38e","669d2e3514022f35e47da6d8","669eecd4b7173a47a093d2f5",1,0,0,"false",3,100,"[{""page_index"":0,""viewing_time"":10024}]",10025,"","","","","","",NA,NA,"",NA,NA,NA,NA,NA,NA,"",NA,"",NA
"40","true","fullscreen",0,5528,"0.0-0.0",NA,201,"173,87,54,104,101,18,110,85,100,158,203,35,174,29,72,136,117,68,151,110,254,164,106,72,235,93,133,166,238,180,211,6",100,"669eec2e4270c76bc184a38e","666e20c484d272cadcc536c9","669ef08ef0fcd2f1a3e67568",1,0,0,"true",3,69,"",NA,"","","","","","",NA,NA,"",NA,NA,NA,NA,NA,NA,"","","",NA
"41","","instructions",1,9701,"0.0-1.0",NA,201,"173,87,54,104,101,18,110,85,100,158,203,35,174,29,72,136,117,68,151,110,254,164,106,72,235,93,133,166,238,180,211,6",100,"669eec2e4270c76bc184a38e","666e20c484d272cadcc536c9","669ef08ef0fcd2f1a3e67568",1,0,0,"true",3,69,"[{""page_index"":0,""viewing_time"":4171.100000008941}]",4171.40000000596,"","","","","","",NA,NA,"",NA,NA,NA,NA,NA,NA,"","","",NA
"42","","instructions",2,49304,"0.0-2.0-0.0",NA,201,"173,87,54,104,101,18,110,85,100,158,203,35,174,29,72,136,117,68,151,110,254,164,106,72,235,93,133,166,238,180,211,6",100,"669eec2e4270c76bc184a38e","666e20c484d272cadcc536c9","669ef08ef0fcd2f1a3e67568",1,0,0,"true",3,69,"[{""page_index"":0,""viewing_time"":39601.70000000298}]",39601.900000006,"","","","","","",NA,NA,"",NA,NA,NA,NA,NA,NA,"","","",NA
"43","","survey-multi-choice",3,58891,"0.0-2.0-1.0",NA,201,"173,87,54,104,101,18,110,85,100,158,203,35,174,29,72,136,117,68,151,110,254,164,106,72,235,93,133,166,238,180,211,6",100,"669eec2e4270c76bc184a38e","666e20c484d272cadcc536c9","669ef08ef0fcd2f1a3e67568",1,0,0,"true",3,69,"",9585.19999998808,"{""Q0"":""... reveal the word with as <b>few letter guesses</b> as possible""}","[0]","true","multichoice_nonpretend","","",NA,NA,"",NA,NA,NA,NA,NA,NA,"","","",NA
"44","","instructions",4,60234,"0.0-3.0",NA,201,"173,87,54,104,101,18,110,85,100,158,203,35,174,29,72,136,117,68,151,110,254,164,106,72,235,93,133,166,238,180,211,6",100,"669eec2e4270c76bc184a38e","666e20c484d272cadcc536c9","669ef08ef0fcd2f1a3e67568",1,0,0,"true",3,69,"[{""page_index"":0,""viewing_time"":1341.7000000029802}]",1342,"","","","","","",NA,NA,"",NA,NA,NA,NA,NA,NA,"","","",NA
"45","","Hangman",5,112624,"0.0-4.0",NA,201,"173,87,54,104,101,18,110,85,100,158,203,35,174,29,72,136,117,68,151,110,254,164,106,72,235,93,133,166,238,180,211,6",100,"669eec2e4270c76bc184a38e","666e20c484d272cadcc536c9","669ef08ef0fcd2f1a3e67568",1,0,0,"true",3,69,"",NA,"","","","","ZEBRA","A,E,I,U,T,L,D,N,P,H,R,J,B,C,Z",15,5,"false",NA,NA,NA,NA,NA,NA,"","","",NA
"46","","instructions",6,133005,"0.0-5.0",NA,201,"173,87,54,104,101,18,110,85,100,158,203,35,174,29,72,136,117,68,151,110,254,164,106,72,235,93,133,166,238,180,211,6",100,"669eec2e4270c76bc184a38e","666e20c484d272cadcc536c9","669ef08ef0fcd2f1a3e67568",1,0,0,"true",3,69,"[{""page_index"":0,""viewing_time"":3498.4000000059605},{""page_index"":1,""viewing_time"":16879.89999999106}]",20379.099999994,"","","","","","",NA,NA,"",NA,NA,NA,NA,NA,NA,"","","",NA
"47","","survey-multi-choice",7,139012,"0.0-6.0",NA,201,"173,87,54,104,101,18,110,85,100,158,203,35,174,29,72,136,117,68,151,110,254,164,106,72,235,93,133,166,238,180,211,6",100,"669eec2e4270c76bc184a38e","666e20c484d272cadcc536c9","669ef08ef0fcd2f1a3e67568",1,0,0,"true",3,69,"",6006.39999999106,"{""Q0"":""...from <b>a previous session</b> that is part of the upcoming tournament.""}","[0]","false","multichoice_leaderboard","","",NA,NA,"",NA,NA,NA,NA,NA,NA,"","","",NA
"48","","instructions",8,140672,"0.0-7.0-0.0",NA,201,"173,87,54,104,101,18,110,85,100,158,203,35,174,29,72,136,117,68,151,110,254,164,106,72,235,93,133,166,238,180,211,6",100,"669eec2e4270c76bc184a38e","666e20c484d272cadcc536c9","669ef08ef0fcd2f1a3e67568",1,0,0,"true",3,69,"[{""page_index"":0,""viewing_time"":1658.7000000029802}]",1659,"","","","","","",NA,NA,"",NA,NA,NA,NA,NA,NA,"","","",NA
"49","","survey-multi-choice",9,145038,"0.0-7.0-1.0",NA,201,"173,87,54,104,101,18,110,85,100,158,203,35,174,29,72,136,117,68,151,110,254,164,106,72,235,93,133,166,238,180,211,6",100,"669eec2e4270c76bc184a38e","666e20c484d272cadcc536c9","669ef08ef0fcd2f1a3e67568",1,0,0,"true",3,69,"",4365.30000001192,"{""Q0"":""...from <b>a previous session</b> that is not part of the upcoming tournament.""}","[0]","true","multichoice_leaderboard","","",NA,NA,"",NA,NA,NA,NA,NA,NA,"","","",NA
"50","","instructions",10,155484,"0.0-8.0",NA,201,"173,87,54,104,101,18,110,85,100,158,203,35,174,29,72,136,117,68,151,110,254,164,106,72,235,93,133,166,238,180,211,6",100,"669eec2e4270c76bc184a38e","666e20c484d272cadcc536c9","669ef08ef0fcd2f1a3e67568",1,0,0,"true",3,69,"[{""page_index"":0,""viewing_time"":10444.79999999702}]",10445,"","","","","","",NA,NA,"",NA,NA,NA,NA,NA,NA,"","","",NA
"51","","survey-multi-choice",11,160672,"0.0-9.0",NA,201,"173,87,54,104,101,18,110,85,100,158,203,35,174,29,72,136,117,68,151,110,254,164,106,72,235,93,133,166,238,180,211,6",100,"669eec2e4270c76bc184a38e","666e20c484d272cadcc536c9","669ef08ef0fcd2f1a3e67568",1,0,0,"true",3,69,"",5186.70000000298,"{""Q0"":""...players' leaderboard position (in terms of <b>points</b>) in an <b>upcoming tournament.</b>""}","[0]","true","multichoice_tournament","","",NA,NA,"",NA,NA,NA,NA,NA,NA,"","","",NA
"52","","instructions",12,179850,"0.0-11.0",NA,201,"173,87,54,104,101,18,110,85,100,158,203,35,174,29,72,136,117,68,151,110,254,164,106,72,235,93,133,166,238,180,211,6",100,"669eec2e4270c76bc184a38e","666e20c484d272cadcc536c9","669ef08ef0fcd2f1a3e67568",1,0,0,"true",3,69,"[{""page_index"":0,""viewing_time"":19177.09999999404}]",19177.299999997,"","","","","","",NA,NA,"",NA,NA,NA,NA,NA,NA,"","","",NA
"53","","instructions",13,199014,"0.0-12.0-0.0",NA,201,"173,87,54,104,101,18,110,85,100,158,203,35,174,29,72,136,117,68,151,110,254,164,106,72,235,93,133,166,238,180,211,6",100,"669eec2e4270c76bc184a38e","666e20c484d272cadcc536c9","669ef08ef0fcd2f1a3e67568",1,0,0,"true",3,69,"[{""page_index"":0,""viewing_time"":19163.30000001192}]",19163.6000000089,"","","","","","",NA,NA,"",NA,NA,NA,NA,NA,NA,"","","",NA
"54","","type-this",14,208200,"0.0-12.0-1.0",NA,201,"173,87,54,104,101,18,110,85,100,158,203,35,174,29,72,136,117,68,151,110,254,164,106,72,235,93,133,166,238,180,211,6",100,"669eec2e4270c76bc184a38e","666e20c484d272cadcc536c9","669ef08ef0fcd2f1a3e67568",1,0,0,"true",3,69,"",8683.10000000894,"THUMB","","","","","",NA,NA,"",NA,NA,NA,NA,NA,NA,"","THUMB","",NA
"55","","Hangman_replay",15,220870,"0.0-12.0-2.0",NA,201,"173,87,54,104,101,18,110,85,100,158,203,35,174,29,72,136,117,68,151,110,254,164,106,72,235,93,133,166,238,180,211,6",100,"669eec2e4270c76bc184a38e","666e20c484d272cadcc536c9","669ef08ef0fcd2f1a3e67568",1,0,0,"true",3,69,"",NA,"","","","","THUMB","A,B,D,C,F,G,H,I,P,O,N,M,L,K,J,T,S,U",18,2,"false",NA,NA,NA,NA,NA,NA,"","","",NA
"56","","instructions",16,225024,"0.0-12.0-3.0",NA,201,"173,87,54,104,101,18,110,85,100,158,203,35,174,29,72,136,117,68,151,110,254,164,106,72,235,93,133,166,238,180,211,6",100,"669eec2e4270c76bc184a38e","666e20c484d272cadcc536c9","669ef08ef0fcd2f1a3e67568",1,0,0,"true",3,69,"[{""page_index"":0,""viewing_time"":4153.20000000298}]",4153.70000000298,"","","","","","",NA,NA,"",NA,NA,NA,NA,NA,NA,"","","",NA
"57","","Guess_leaderboard",17,231119,"0.0-12.0-4.0",NA,201,"173,87,54,104,101,18,110,85,100,158,203,35,174,29,72,136,117,68,151,110,254,164,106,72,235,93,133,166,238,180,211,6",100,"669eec2e4270c76bc184a38e","666e20c484d272cadcc536c9","669ef08ef0fcd2f1a3e67568",1,0,0,"true",3,69,"",NA,"","","","","THUMB","",NA,NA,"",5324.39999999106,22,66,0,92,70,"","","",NA
"58","","instructions",18,240158,"0.0-12.0-0.1",NA,201,"173,87,54,104,101,18,110,85,100,158,203,35,174,29,72,136,117,68,151,110,254,164,106,72,235,93,133,166,238,180,211,6",100,"669eec2e4270c76bc184a38e","666e20c484d272cadcc536c9","669ef08ef0fcd2f1a3e67568",1,0,0,"true",3,69,"[{""page_index"":0,""viewing_time"":9037.89999999106}]",9038.20000000298,"","","","","","",NA,NA,"",NA,NA,NA,NA,NA,NA,"","","",NA
"59","","type-this",19,245353,"0.0-12.0-1.1",NA,201,"173,87,54,104,101,18,110,85,100,158,203,35,174,29,72,136,117,68,151,110,254,164,106,72,235,93,133,166,238,180,211,6",100,"669eec2e4270c76bc184a38e","666e20c484d272cadcc536c9","669ef08ef0fcd2f1a3e67568",1,0,0,"true",3,69,"",4691.79999999702,"SHAKIRA","","","","","",NA,NA,"",NA,NA,NA,NA,NA,NA,"","SHAKIRA","",NA
"60","","Hangman_replay",20,267058,"0.0-12.0-2.1",NA,201,"173,87,54,104,101,18,110,85,100,158,203,35,174,29,72,136,117,68,151,110,254,164,106,72,235,93,133,166,238,180,211,6",100,"669eec2e4270c76bc184a38e","666e20c484d272cadcc536c9","669ef08ef0fcd2f1a3e67568",1,0,0,"true",3,69,"",NA,"","","","","SHAKIRA","R,S,T,L,N,E,C,B,A,H,K,I",12,9,"false",NA,NA,NA,NA,NA,NA,"","","",NA
"61","","instructions",21,270004,"0.0-12.0-3.1",NA,201,"173,87,54,104,101,18,110,85,100,158,203,35,174,29,72,136,117,68,151,110,254,164,106,72,235,93,133,166,238,180,211,6",100,"669eec2e4270c76bc184a38e","666e20c484d272cadcc536c9","669ef08ef0fcd2f1a3e67568",1,0,0,"true",3,69,"[{""page_index"":0,""viewing_time"":2944.7999999970198}]",2945.29999999702,"","","","","","",NA,NA,"",NA,NA,NA,NA,NA,NA,"","","",NA
"62","","Guess_leaderboard",22,273907,"0.0-12.0-4.1",NA,201,"173,87,54,104,101,18,110,85,100,158,203,35,174,29,72,136,117,68,151,110,254,164,106,72,235,93,133,166,238,180,211,6",100,"669eec2e4270c76bc184a38e","666e20c484d272cadcc536c9","669ef08ef0fcd2f1a3e67568",1,0,0,"true",3,69,"",NA,"","","","","SHAKIRA","",NA,NA,"",3135,58,33,1,72,14,"","","",NA
"63","","instructions",23,278312,"0.0-12.0-0.2",NA,201,"173,87,54,104,101,18,110,85,100,158,203,35,174,29,72,136,117,68,151,110,254,164,106,72,235,93,133,166,238,180,211,6",100,"669eec2e4270c76bc184a38e","666e20c484d272cadcc536c9","669ef08ef0fcd2f1a3e67568",1,0,0,"true",3,69,"[{""page_index"":0,""viewing_time"":4403.699999988079}]",4404.09999999404,"","","","","","",NA,NA,"",NA,NA,NA,NA,NA,NA,"","","",NA
"64","","type-this",24,281670,"0.0-12.0-1.2",NA,201,"173,87,54,104,101,18,110,85,100,158,203,35,174,29,72,136,117,68,151,110,254,164,106,72,235,93,133,166,238,180,211,6",100,"669eec2e4270c76bc184a38e","666e20c484d272cadcc536c9","669ef08ef0fcd2f1a3e67568",1,0,0,"true",3,69,"",2854.90000000596,"FIG","","","","","",NA,NA,"",NA,NA,NA,NA,NA,NA,"","FIG","",NA
"65","","Hangman_replay",25,350017,"0.0-12.0-2.2",NA,201,"173,87,54,104,101,18,110,85,100,158,203,35,174,29,72,136,117,68,151,110,254,164,106,72,235,93,133,166,238,180,211,6",100,"669eec2e4270c76bc184a38e","666e20c484d272cadcc536c9","669ef08ef0fcd2f1a3e67568",1,0,0,"true",3,69,"",NA,"","","","","FIG","F,I,G",3,15,"false",NA,NA,NA,NA,NA,NA,"","","",NA
"66","","instructions",26,353760,"0.0-12.0-3.2",NA,201,"173,87,54,104,101,18,110,85,100,158,203,35,174,29,72,136,117,68,151,110,254,164,106,72,235,93,133,166,238,180,211,6",100,"669eec2e4270c76bc184a38e","666e20c484d272cadcc536c9","669ef08ef0fcd2f1a3e67568",1,0,0,"true",3,69,"[{""page_index"":0,""viewing_time"":3742.300000011921}]",3742.70000000298,"","","","","","",NA,NA,"",NA,NA,NA,NA,NA,NA,"","","",NA
"67","","Guess_leaderboard",27,357449,"0.0-12.0-4.2",NA,201,"173,87,54,104,101,18,110,85,100,158,203,35,174,29,72,136,117,68,151,110,254,164,106,72,235,93,133,166,238,180,211,6",100,"669eec2e4270c76bc184a38e","666e20c484d272cadcc536c9","669ef08ef0fcd2f1a3e67568",1,0,0,"true",3,69,"",NA,"","","","","FIG","",NA,NA,"",2931.29999999702,100,44,2,26,74,"","","",NA
"68","","instructions",28,361208,"0.0-12.0-0.3",NA,201,"173,87,54,104,101,18,110,85,100,158,203,35,174,29,72,136,117,68,151,110,254,164,106,72,235,93,133,166,238,180,211,6",100,"669eec2e4270c76bc184a38e","666e20c484d272cadcc536c9","669ef08ef0fcd2f1a3e67568",1,0,0,"true",3,69,"[{""page_index"":0,""viewing_time"":3758.0999999940395}]",3758.39999999106,"","","","","","",NA,NA,"",NA,NA,NA,NA,NA,NA,"","","",NA
"69","","type-this",29,366530,"0.0-12.0-1.3",NA,201,"173,87,54,104,101,18,110,85,100,158,203,35,174,29,72,136,117,68,151,110,254,164,106,72,235,93,133,166,238,180,211,6",100,"669eec2e4270c76bc184a38e","666e20c484d272cadcc536c9","669ef08ef0fcd2f1a3e67568",1,0,0,"true",3,69,"",4820.5,"HAWAII","","","","","",NA,NA,"",NA,NA,NA,NA,NA,NA,"","HAWAII","",NA
"70","","Hangman_replay",30,390054,"0.0-12.0-2.3",NA,201,"173,87,54,104,101,18,110,85,100,158,203,35,174,29,72,136,117,68,151,110,254,164,106,72,235,93,133,166,238,180,211,6",100,"669eec2e4270c76bc184a38e","666e20c484d272cadcc536c9","669ef08ef0fcd2f1a3e67568",1,0,0,"true",3,69,"",NA,"","","","","HAWAII","A,N,I,W,H",5,14,"false",NA,NA,NA,NA,NA,NA,"","","",NA
"71","","instructions",31,418083,"0.0-12.0-3.3",NA,201,"173,87,54,104,101,18,110,85,100,158,203,35,174,29,72,136,117,68,151,110,254,164,106,72,235,93,133,166,238,180,211,6",100,"669eec2e4270c76bc184a38e","666e20c484d272cadcc536c9","669ef08ef0fcd2f1a3e67568",1,0,0,"true",3,69,"[{""page_index"":0,""viewing_time"":28027}]",28027.599999994,"","","","","","",NA,NA,"",NA,NA,NA,NA,NA,NA,"","","",NA
"72","","Guess_leaderboard",32,421023,"0.0-12.0-4.3",NA,201,"173,87,54,104,101,18,110,85,100,158,203,35,174,29,72,136,117,68,151,110,254,164,106,72,235,93,133,166,238,180,211,6",100,"669eec2e4270c76bc184a38e","666e20c484d272cadcc536c9","669ef08ef0fcd2f1a3e67568",1,0,0,"true",3,69,"",NA,"","","","","HAWAII","",NA,NA,"",2177.29999999702,32,85,3,3,29,"","","",NA
"73","","instructions",33,432958,"0.0-12.0-0.4",NA,201,"173,87,54,104,101,18,110,85,100,158,203,35,174,29,72,136,117,68,151,110,254,164,106,72,235,93,133,166,238,180,211,6",100,"669eec2e4270c76bc184a38e","666e20c484d272cadcc536c9","669ef08ef0fcd2f1a3e67568",1,0,0,"true",3,69,"[{""page_index"":0,""viewing_time"":11933.20000000298}]",11933.6000000089,"","","","","","",NA,NA,"",NA,NA,NA,NA,NA,NA,"","","",NA
"74","","type-this",34,448574,"0.0-12.0-1.4",NA,201,"173,87,54,104,101,18,110,85,100,158,203,35,174,29,72,136,117,68,151,110,254,164,106,72,235,93,133,166,238,180,211,6",100,"669eec2e4270c76bc184a38e","666e20c484d272cadcc536c9","669ef08ef0fcd2f1a3e67568",1,0,0,"true",3,69,"",15113.200000003,"THIRTY FOUR","","","","","",NA,NA,"",NA,NA,NA,NA,NA,NA,"","THIRTY FOUR","",NA
"75","","Hangman_replay",35,488833,"0.0-12.0-2.4",NA,201,"173,87,54,104,101,18,110,85,100,158,203,35,174,29,72,136,117,68,151,110,254,164,106,72,235,93,133,166,238,180,211,6",100,"669eec2e4270c76bc184a38e","666e20c484d272cadcc536c9","669ef08ef0fcd2f1a3e67568",1,0,0,"true",3,69,"",NA,"","","","","THIRTY FOUR","F,E,O,U,R,T,H,I,Y",9,14,"false",NA,NA,NA,NA,NA,NA,"","","",NA
"76","","instructions",36,500275,"0.0-12.0-3.4",NA,201,"173,87,54,104,101,18,110,85,100,158,203,35,174,29,72,136,117,68,151,110,254,164,106,72,235,93,133,166,238,180,211,6",100,"669eec2e4270c76bc184a38e","666e20c484d272cadcc536c9","669ef08ef0fcd2f1a3e67568",1,0,0,"true",3,69,"[{""page_index"":0,""viewing_time"":11440.70000000298}]",11441.200000003,"","","","","","",NA,NA,"",NA,NA,NA,NA,NA,NA,"","","",NA
"77","","Guess_leaderboard",37,502882,"0.0-12.0-4.4",NA,201,"173,87,54,104,101,18,110,85,100,158,203,35,174,29,72,136,117,68,151,110,254,164,106,72,235,93,133,166,238,180,211,6",100,"669eec2e4270c76bc184a38e","666e20c484d272cadcc536c9","669ef08ef0fcd2f1a3e67568",1,0,0,"true",3,69,"",NA,"","","","","THIRTY FOUR","",NA,NA,"",1845.10000000894,45,90,4,13,32,"","","",NA
"78","","survey-text",38,510895,"0.0-13.0",NA,201,"173,87,54,104,101,18,110,85,100,158,203,35,174,29,72,136,117,68,151,110,254,164,106,72,235,93,133,166,238,180,211,6",100,"669eec2e4270c76bc184a38e","666e20c484d272cadcc536c9","669ef08ef0fcd2f1a3e67568",1,0,0,"true",3,69,"",8011.90000000596,"{""Q0"":""THIRTY FOUR""}","","","","","",NA,NA,"",NA,NA,NA,NA,NA,NA,"thirty four","","",NA
"79","","survey-multi-choice",39,521755,"0.0-14.0",NA,201,"173,87,54,104,101,18,110,85,100,158,203,35,174,29,72,136,117,68,151,110,254,164,106,72,235,93,133,166,238,180,211,6",100,"669eec2e4270c76bc184a38e","666e20c484d272cadcc536c9","669ef08ef0fcd2f1a3e67568",1,0,0,"true",3,69,"",10858.700000003,"{""Q0"":""3. I would be <b>third</b> out of the six of us.""}","[0]","","self-rating","","",NA,NA,"",NA,3,NA,NA,NA,NA,"","","",NA
"80","","html-slider-response",40,524838,"0.0-15.0",NA,201,"173,87,54,104,101,18,110,85,100,158,203,35,174,29,72,136,117,68,151,110,254,164,106,72,235,93,133,166,238,180,211,6",100,"669eec2e4270c76bc184a38e","666e20c484d272cadcc536c9","669ef08ef0fcd2f1a3e67568",1,0,0,"true",3,69,"",3081,"","","","","","",NA,NA,"",NA,NA,NA,NA,NA,NA,"","69","<p>Overall, how confident were you in your answer to this last question?</p>",69
"81","","survey-text",41,582656,"0.0-16.0",NA,201,"173,87,54,104,101,18,110,85,100,158,203,35,174,29,72,136,117,68,151,110,254,164,106,72,235,93,133,166,238,180,211,6",100,"669eec2e4270c76bc184a38e","666e20c484d272cadcc536c9","669ef08ef0fcd2f1a3e67568",1,0,0,"true",3,69,"",57816,"{""Q0"":""Determine how we view are goals compared to other, by fisrt making us do the thing, so we have experince of what it is, so then you judege others, and it determines if you think you are fater or slower then them. ""}","","","","","",NA,NA,"",NA,NA,NA,NA,NA,NA,"","","",NA
"82","","survey-text",42,585927,"0.0-17.0",NA,201,"173,87,54,104,101,18,110,85,100,158,203,35,174,29,72,136,117,68,151,110,254,164,106,72,235,93,133,166,238,180,211,6",100,"669eec2e4270c76bc184a38e","666e20c484d272cadcc536c9","669ef08ef0fcd2f1a3e67568",1,0,0,"true",3,69,"",3268.40000000596,"{""Q0"":""""}","","","","","",NA,NA,"",NA,NA,NA,NA,NA,NA,"","","",NA
"83","","instructions",43,589525,"0.0-18.0",NA,201,"173,87,54,104,101,18,110,85,100,158,203,35,174,29,72,136,117,68,151,110,254,164,106,72,235,93,133,166,238,180,211,6",100,"669eec2e4270c76bc184a38e","666e20c484d272cadcc536c9","669ef08ef0fcd2f1a3e67568",1,0,0,"true",3,69,"[{""page_index"":0,""viewing_time"":3597.1000000089407}]",3597.40000000596,"","","","","","",NA,NA,"",NA,NA,NA,NA,NA,NA,"","","",NA
"84","true","fullscreen",0,3327,"0.0-0.0",NA,202,"22,220,54,138,137,180,40,178,72,84,132,49,59,166,122,57,18,202,3,242,178,180,36,41,23,74,79,139,61,200,78,68",101,"669eec2e4270c76bc184a38e","63e5517cd738b83025348a43","669ef30d9b40860d04e2f0a9",1,0,0,"false",2,78,"",NA,"","","","","","",NA,NA,"",NA,NA,NA,NA,NA,NA,"",NA,"",NA
"85","","instructions",1,5401,"0.0-1.0",NA,202,"22,220,54,138,137,180,40,178,72,84,132,49,59,166,122,57,18,202,3,242,178,180,36,41,23,74,79,139,61,200,78,68",101,"669eec2e4270c76bc184a38e","63e5517cd738b83025348a43","669ef30d9b40860d04e2f0a9",1,0,0,"false",2,78,"[{""page_index"":0,""viewing_time"":2071.899999856949}]",2072.20000004768,"","","","","","",NA,NA,"",NA,NA,NA,NA,NA,NA,"",NA,"",NA
"86","","instructions",2,24332,"0.0-2.0-0.0",NA,202,"22,220,54,138,137,180,40,178,72,84,132,49,59,166,122,57,18,202,3,242,178,180,36,41,23,74,79,139,61,200,78,68",101,"669eec2e4270c76bc184a38e","63e5517cd738b83025348a43","669ef30d9b40860d04e2f0a9",1,0,0,"false",2,78,"[{""page_index"":0,""viewing_time"":18930.099999904633}]",18930.3999998569,"","","","","","",NA,NA,"",NA,NA,NA,NA,NA,NA,"",NA,"",NA
"87","","survey-multi-choice",3,31128,"0.0-2.0-1.0",NA,202,"22,220,54,138,137,180,40,178,72,84,132,49,59,166,122,57,18,202,3,242,178,180,36,41,23,74,79,139,61,200,78,68",101,"669eec2e4270c76bc184a38e","63e5517cd738b83025348a43","669ef30d9b40860d04e2f0a9",1,0,0,"false",2,78,"",6794,"{""Q0"":""... reveal the word with as <b>few letter guesses</b> as possible""}","[0]","true","multichoice_nonpretend","","",NA,NA,"",NA,NA,NA,NA,NA,NA,"",NA,"",NA
"88","","instructions",4,32820,"0.0-3.0",NA,202,"22,220,54,138,137,180,40,178,72,84,132,49,59,166,122,57,18,202,3,242,178,180,36,41,23,74,79,139,61,200,78,68",101,"669eec2e4270c76bc184a38e","63e5517cd738b83025348a43","669ef30d9b40860d04e2f0a9",1,0,0,"false",2,78,"[{""page_index"":0,""viewing_time"":1689.8999998569489}]",1690.19999980927,"","","","","","",NA,NA,"",NA,NA,NA,NA,NA,NA,"",NA,"",NA
"89","","Hangman",5,58553,"0.0-4.0",NA,202,"22,220,54,138,137,180,40,178,72,84,132,49,59,166,122,57,18,202,3,242,178,180,36,41,23,74,79,139,61,200,78,68",101,"669eec2e4270c76bc184a38e","63e5517cd738b83025348a43","669ef30d9b40860d04e2f0a9",1,0,0,"false",2,78,"",NA,"","","","","ZEBRA","C,A,N,L,M,P,R,Z,E,B",10,10,"false",NA,NA,NA,NA,NA,NA,"",NA,"",NA
"90","","instructions",6,67684,"0.0-5.0",NA,202,"22,220,54,138,137,180,40,178,72,84,132,49,59,166,122,57,18,202,3,242,178,180,36,41,23,74,79,139,61,200,78,68",101,"669eec2e4270c76bc184a38e","63e5517cd738b83025348a43","669ef30d9b40860d04e2f0a9",1,0,0,"false",2,78,"[{""page_index"":0,""viewing_time"":2003.2000000476837},{""page_index"":1,""viewing_time"":7125.899999856949}]",9130,"","","","","","",NA,NA,"",NA,NA,NA,NA,NA,NA,"",NA,"",NA
"91","","survey-multi-choice",7,72039,"0.0-6.0",NA,202,"22,220,54,138,137,180,40,178,72,84,132,49,59,166,122,57,18,202,3,242,178,180,36,41,23,74,79,139,61,200,78,68",101,"669eec2e4270c76bc184a38e","63e5517cd738b83025348a43","669ef30d9b40860d04e2f0a9",1,0,0,"false",2,78,"",4353.29999995232,"{""Q0"":""...from the <b>upcoming tournament</b>.""}","[0]","false","multichoice_leaderboard","","",NA,NA,"",NA,NA,NA,NA,NA,NA,"",NA,"",NA
"92","","instructions",8,73929,"0.0-7.0-0.0",NA,202,"22,220,54,138,137,180,40,178,72,84,132,49,59,166,122,57,18,202,3,242,178,180,36,41,23,74,79,139,61,200,78,68",101,"669eec2e4270c76bc184a38e","63e5517cd738b83025348a43","669ef30d9b40860d04e2f0a9",1,0,0,"false",2,78,"[{""page_index"":0,""viewing_time"":1888.2000000476837}]",1888.60000014305,"","","","","","",NA,NA,"",NA,NA,NA,NA,NA,NA,"",NA,"",NA
"93","","survey-multi-choice",9,79057,"0.0-7.0-1.0",NA,202,"22,220,54,138,137,180,40,178,72,84,132,49,59,166,122,57,18,202,3,242,178,180,36,41,23,74,79,139,61,200,78,68",101,"669eec2e4270c76bc184a38e","63e5517cd738b83025348a43","669ef30d9b40860d04e2f0a9",1,0,0,"false",2,78,"",5126.20000004768,"{""Q0"":""...from <b>a previous session</b> that is part of the upcoming tournament.""}","[0]","false","multichoice_leaderboard","","",NA,NA,"",NA,NA,NA,NA,NA,NA,"",NA,"",NA
"94","","instructions",10,80414,"0.0-7.1-0.1",NA,202,"22,220,54,138,137,180,40,178,72,84,132,49,59,166,122,57,18,202,3,242,178,180,36,41,23,74,79,139,61,200,78,68",101,"669eec2e4270c76bc184a38e","63e5517cd738b83025348a43","669ef30d9b40860d04e2f0a9",1,0,0,"false",2,78,"[{""page_index"":0,""viewing_time"":1355.5}]",1355.60000014305,"","","","","","",NA,NA,"",NA,NA,NA,NA,NA,NA,"",NA,"",NA
"95","","survey-multi-choice",11,82801,"0.0-7.1-1.1",NA,202,"22,220,54,138,137,180,40,178,72,84,132,49,59,166,122,57,18,202,3,242,178,180,36,41,23,74,79,139,61,200,78,68",101,"669eec2e4270c76bc184a38e","63e5517cd738b83025348a43","669ef30d9b40860d04e2f0a9",1,0,0,"false",2,78,"",2386.70000004768,"{""Q0"":""...from <b>a previous session</b> that is not part of the upcoming tournament.""}","[0]","true","multichoice_leaderboard","","",NA,NA,"",NA,NA,NA,NA,NA,NA,"",NA,"",NA
"96","","instructions",12,90874,"0.0-8.0",NA,202,"22,220,54,138,137,180,40,178,72,84,132,49,59,166,122,57,18,202,3,242,178,180,36,41,23,74,79,139,61,200,78,68",101,"669eec2e4270c76bc184a38e","63e5517cd738b83025348a43","669ef30d9b40860d04e2f0a9",1,0,0,"false",2,78,"[{""page_index"":0,""viewing_time"":8072.299999952316}]",8072.59999990463,"","","","","","",NA,NA,"",NA,NA,NA,NA,NA,NA,"",NA,"",NA
"97","","survey-multi-choice",13,100882,"0.0-9.0",NA,202,"22,220,54,138,137,180,40,178,72,84,132,49,59,166,122,57,18,202,3,242,178,180,36,41,23,74,79,139,61,200,78,68",101,"669eec2e4270c76bc184a38e","63e5517cd738b83025348a43","669ef30d9b40860d04e2f0a9",1,0,0,"false",2,78,"",10005.5999999046,"{""Q0"":""...players' leaderboard position (in terms of <b>points</b>) in an <b>upcoming tournament.</b>""}","[0]","true","multichoice_tournament","","",NA,NA,"",NA,NA,NA,NA,NA,NA,"",NA,"",NA
"98","","instructions",14,107277,"0.0-11.0",NA,202,"22,220,54,138,137,180,40,178,72,84,132,49,59,166,122,57,18,202,3,242,178,180,36,41,23,74,79,139,61,200,78,68",101,"669eec2e4270c76bc184a38e","63e5517cd738b83025348a43","669ef30d9b40860d04e2f0a9",1,0,0,"false",2,78,"[{""page_index"":0,""viewing_time"":6392.600000143051}]",6392.90000009537,"","","","","","",NA,NA,"",NA,NA,NA,NA,NA,NA,"",NA,"",NA
"99","","instructions",15,111983,"0.0-12.0-0.0",NA,202,"22,220,54,138,137,180,40,178,72,84,132,49,59,166,122,57,18,202,3,242,178,180,36,41,23,74,79,139,61,200,78,68",101,"669eec2e4270c76bc184a38e","63e5517cd738b83025348a43","669ef30d9b40860d04e2f0a9",1,0,0,"false",2,78,"[{""page_index"":0,""viewing_time"":4703.399999856949}]",4703.79999995232,"","","","","","",NA,NA,"",NA,NA,NA,NA,NA,NA,"",NA,"",NA
"100","","Hangman_replay",16,132036,"0.0-12.0-1.0",NA,202,"22,220,54,138,137,180,40,178,72,84,132,49,59,166,122,57,18,202,3,242,178,180,36,41,23,74,79,139,61,200,78,68",101,"669eec2e4270c76bc184a38e","63e5517cd738b83025348a43","669ef30d9b40860d04e2f0a9",1,0,0,"false",2,78,"",NA,"","","","","KENTUCKY","N,E,K,T,U,C,Y",7,15,"false",NA,NA,NA,NA,NA,NA,"",NA,"",NA
"101","","instructions",17,137251,"0.0-12.0-2.0",NA,202,"22,220,54,138,137,180,40,178,72,84,132,49,59,166,122,57,18,202,3,242,178,180,36,41,23,74,79,139,61,200,78,68",101,"669eec2e4270c76bc184a38e","63e5517cd738b83025348a43","669ef30d9b40860d04e2f0a9",1,0,0,"false",2,78,"[{""page_index"":0,""viewing_time"":5212.799999952316}]",5213.90000009537,"","","","","","",NA,NA,"",NA,NA,NA,NA,NA,NA,"",NA,"",NA
"102","","Guess_leaderboard",18,141957,"0.0-12.0-3.0",NA,202,"22,220,54,138,137,180,40,178,72,84,132,49,59,166,122,57,18,202,3,242,178,180,36,41,23,74,79,139,61,200,78,68",101,"669eec2e4270c76bc184a38e","63e5517cd738b83025348a43","669ef30d9b40860d04e2f0a9",1,0,0,"false",2,78,"",NA,"","","","","KENTUCKY","",NA,NA,"",3944.60000014305,1,2,0,17,16,"",NA,"",NA
"103","","instructions",19,145333,"0.0-12.0-0.1",NA,202,"22,220,54,138,137,180,40,178,72,84,132,49,59,166,122,57,18,202,3,242,178,180,36,41,23,74,79,139,61,200,78,68",101,"669eec2e4270c76bc184a38e","63e5517cd738b83025348a43","669ef30d9b40860d04e2f0a9",1,0,0,"false",2,78,"[{""page_index"":0,""viewing_time"":3374.100000143051}]",3374.40000009537,"","","","","","",NA,NA,"",NA,NA,NA,NA,NA,NA,"",NA,"",NA
"104","","Hangman_replay",20,170567,"0.0-12.0-1.1",NA,202,"22,220,54,138,137,180,40,178,72,84,132,49,59,166,122,57,18,202,3,242,178,180,36,41,23,74,79,139,61,200,78,68",101,"669eec2e4270c76bc184a38e","63e5517cd738b83025348a43","669ef30d9b40860d04e2f0a9",1,0,0,"false",2,78,"",NA,"","","","","FIG","G,F,I",3,15,"false",NA,NA,NA,NA,NA,NA,"",NA,"",NA
"105","","instructions",21,172711,"0.0-12.0-2.1",NA,202,"22,220,54,138,137,180,40,178,72,84,132,49,59,166,122,57,18,202,3,242,178,180,36,41,23,74,79,139,61,200,78,68",101,"669eec2e4270c76bc184a38e","63e5517cd738b83025348a43","669ef30d9b40860d04e2f0a9",1,0,0,"false",2,78,"[{""page_index"":0,""viewing_time"":2142.7999999523163}]",2143.10000014305,"","","","","","",NA,NA,"",NA,NA,NA,NA,NA,NA,"",NA,"",NA
"106","","Guess_leaderboard",22,176788,"0.0-12.0-3.1",NA,202,"22,220,54,138,137,180,40,178,72,84,132,49,59,166,122,57,18,202,3,242,178,180,36,41,23,74,79,139,61,200,78,68",101,"669eec2e4270c76bc184a38e","63e5517cd738b83025348a43","669ef30d9b40860d04e2f0a9",1,0,0,"false",2,78,"",NA,"","","","","FIG","",NA,NA,"",3321,9,41,1,74,65,"",NA,"",NA
"107","","instructions",23,178555,"0.0-12.0-0.2",NA,202,"22,220,54,138,137,180,40,178,72,84,132,49,59,166,122,57,18,202,3,242,178,180,36,41,23,74,79,139,61,200,78,68",101,"669eec2e4270c76bc184a38e","63e5517cd738b83025348a43","669ef30d9b40860d04e2f0a9",1,0,0,"false",2,78,"[{""page_index"":0,""viewing_time"":1765}]",1765.09999990463,"","","","","","",NA,NA,"",NA,NA,NA,NA,NA,NA,"",NA,"",NA
"108","","Hangman_replay",24,263912,"0.0-12.0-1.2",NA,202,"22,220,54,138,137,180,40,178,72,84,132,49,59,166,122,57,18,202,3,242,178,180,36,41,23,74,79,139,61,200,78,68",101,"669eec2e4270c76bc184a38e","63e5517cd738b83025348a43","669ef30d9b40860d04e2f0a9",1,0,0,"false",2,78,"",NA,"","","","","THIRTY FOUR","A,E,I,O,S,N,U,F,R,T,H,Y",12,11,"false",NA,NA,NA,NA,NA,NA,"",NA,"",NA
"109","","instructions",25,265489,"0.0-12.0-2.2",NA,202,"22,220,54,138,137,180,40,178,72,84,132,49,59,166,122,57,18,202,3,242,178,180,36,41,23,74,79,139,61,200,78,68",101,"669eec2e4270c76bc184a38e","63e5517cd738b83025348a43","669ef30d9b40860d04e2f0a9",1,0,0,"false",2,78,"[{""page_index"":0,""viewing_time"":1575.7000000476837}]",1576.20000004768,"","","","","","",NA,NA,"",NA,NA,NA,NA,NA,NA,"",NA,"",NA
"110","","Guess_leaderboard",26,267859,"0.0-12.0-3.2",NA,202,"22,220,54,138,137,180,40,178,72,84,132,49,59,166,122,57,18,202,3,242,178,180,36,41,23,74,79,139,61,200,78,68",101,"669eec2e4270c76bc184a38e","63e5517cd738b83025348a43","669ef30d9b40860d04e2f0a9",1,0,0,"false",2,78,"",NA,"","","","","THIRTY FOUR","",NA,NA,"",1613.79999995232,51,6,2,81,30,"",NA,"",NA
"111","","instructions",27,269823,"0.0-12.0-0.3",NA,202,"22,220,54,138,137,180,40,178,72,84,132,49,59,166,122,57,18,202,3,242,178,180,36,41,23,74,79,139,61,200,78,68",101,"669eec2e4270c76bc184a38e","63e5517cd738b83025348a43","669ef30d9b40860d04e2f0a9",1,0,0,"false",2,78,"[{""page_index"":0,""viewing_time"":1963.2000000476837}]",1963.60000014305,"","","","","","",NA,NA,"",NA,NA,NA,NA,NA,NA,"",NA,"",NA
"112","","Hangman_replay",28,305086,"0.0-12.0-1.3",NA,202,"22,220,54,138,137,180,40,178,72,84,132,49,59,166,122,57,18,202,3,242,178,180,36,41,23,74,79,139,61,200,78,68",101,"669eec2e4270c76bc184a38e","63e5517cd738b83025348a43","669ef30d9b40860d04e2f0a9",1,0,0,"false",2,78,"",NA,"","","","","SHAKIRA","A,J,S,T,R,H,K,I",8,13,"false",NA,NA,NA,NA,NA,NA,"",NA,"",NA
"113","","instructions",29,306640,"0.0-12.0-2.3",NA,202,"22,220,54,138,137,180,40,178,72,84,132,49,59,166,122,57,18,202,3,242,178,180,36,41,23,74,79,139,61,200,78,68",101,"669eec2e4270c76bc184a38e","63e5517cd738b83025348a43","669ef30d9b40860d04e2f0a9",1,0,0,"false",2,78,"[{""page_index"":0,""viewing_time"":1553.7000000476837}]",1554,"","","","","","",NA,NA,"",NA,NA,NA,NA,NA,NA,"",NA,"",NA
"114","","Guess_leaderboard",30,309123,"0.0-12.0-3.3",NA,202,"22,220,54,138,137,180,40,178,72,84,132,49,59,166,122,57,18,202,3,242,178,180,36,41,23,74,79,139,61,200,78,68",101,"669eec2e4270c76bc184a38e","63e5517cd738b83025348a43","669ef30d9b40860d04e2f0a9",1,0,0,"false",2,78,"",NA,"","","","","SHAKIRA","",NA,NA,"",1729.5,35,54,3,89,54,"",NA,"",NA
"115","","instructions",31,310706,"0.0-12.0-0.4",NA,202,"22,220,54,138,137,180,40,178,72,84,132,49,59,166,122,57,18,202,3,242,178,180,36,41,23,74,79,139,61,200,78,68",101,"669eec2e4270c76bc184a38e","63e5517cd738b83025348a43","669ef30d9b40860d04e2f0a9",1,0,0,"false",2,78,"[{""page_index"":0,""viewing_time"":1580.7000000476837}]",1580.80000019073,"","","","","","",NA,NA,"",NA,NA,NA,NA,NA,NA,"",NA,"",NA
"116","","Hangman_replay",32,365793,"0.0-12.0-1.4",NA,202,"22,220,54,138,137,180,40,178,72,84,132,49,59,166,122,57,18,202,3,242,178,180,36,41,23,74,79,139,61,200,78,68",101,"669eec2e4270c76bc184a38e","63e5517cd738b83025348a43","669ef30d9b40860d04e2f0a9",1,0,0,"false",2,78,"",NA,"","","","","WRIST","C,S,W,R,I,T",6,14,"false",NA,NA,NA,NA,NA,NA,"",NA,"",NA
"117","","instructions",33,368104,"0.0-12.0-2.4",NA,202,"22,220,54,138,137,180,40,178,72,84,132,49,59,166,122,57,18,202,3,242,178,180,36,41,23,74,79,139,61,200,78,68",101,"669eec2e4270c76bc184a38e","63e5517cd738b83025348a43","669ef30d9b40860d04e2f0a9",1,0,0,"false",2,78,"[{""page_index"":0,""viewing_time"":2309.5999999046326}]",2309.89999985695,"","","","","","",NA,NA,"",NA,NA,NA,NA,NA,NA,"",NA,"",NA
"118","","Guess_leaderboard",34,370763,"0.0-12.0-3.4",NA,202,"22,220,54,138,137,180,40,178,72,84,132,49,59,166,122,57,18,202,3,242,178,180,36,41,23,74,79,139,61,200,78,68",101,"669eec2e4270c76bc184a38e","63e5517cd738b83025348a43","669ef30d9b40860d04e2f0a9",1,0,0,"false",2,78,"",NA,"","","","","WRIST","",NA,NA,"",1904.09999990463,27,94,4,9,18,"",NA,"",NA
"119","","survey-text",35,376029,"0.0-13.0",NA,202,"22,220,54,138,137,180,40,178,72,84,132,49,59,166,122,57,18,202,3,242,178,180,36,41,23,74,79,139,61,200,78,68",101,"669eec2e4270c76bc184a38e","63e5517cd738b83025348a43","669ef30d9b40860d04e2f0a9",1,0,0,"false",2,78,"",5263.60000014305,"{""Q0"":""wrist""}","","","","","",NA,NA,"",NA,NA,NA,NA,NA,NA,"wrist",NA,"",NA
"120","","survey-multi-choice",36,384209,"0.0-14.0",NA,202,"22,220,54,138,137,180,40,178,72,84,132,49,59,166,122,57,18,202,3,242,178,180,36,41,23,74,79,139,61,200,78,68",101,"669eec2e4270c76bc184a38e","63e5517cd738b83025348a43","669ef30d9b40860d04e2f0a9",1,0,0,"false",2,78,"",8178.29999995232,"{""Q0"":""2. I would be <b>second</b> out of the six of us.""}","[0]","","self-rating","","",NA,NA,"",NA,2,NA,NA,NA,NA,"",NA,"",NA
"121","","html-slider-response",37,389429,"0.0-15.0",NA,202,"22,220,54,138,137,180,40,178,72,84,132,49,59,166,122,57,18,202,3,242,178,180,36,41,23,74,79,139,61,200,78,68",101,"669eec2e4270c76bc184a38e","63e5517cd738b83025348a43","669ef30d9b40860d04e2f0a9",1,0,0,"false",2,78,"",5215.70000004768,"","","","","","",NA,NA,"",NA,NA,NA,NA,NA,NA,"","78","<p>Overall, how confident were you in your answer to this last question?</p>",78
"122","","survey-text",38,415246,"0.0-16.0",NA,202,"22,220,54,138,137,180,40,178,72,84,132,49,59,166,122,57,18,202,3,242,178,180,36,41,23,74,79,139,61,200,78,68",101,"669eec2e4270c76bc184a38e","63e5517cd738b83025348a43","669ef30d9b40860d04e2f0a9",1,0,0,"false",2,78,"",25812.5999999046,"{""Q0"":""where we rank people that do better than we do""}","","","","","",NA,NA,"",NA,NA,NA,NA,NA,NA,"",NA,"",NA
"123","","survey-text",39,423552,"0.0-17.0",NA,202,"22,220,54,138,137,180,40,178,72,84,132,49,59,166,122,57,18,202,3,242,178,180,36,41,23,74,79,139,61,200,78,68",101,"669eec2e4270c76bc184a38e","63e5517cd738b83025348a43","669ef30d9b40860d04e2f0a9",1,0,0,"false",2,78,"",8303,"{""Q0"":""I don't think so""}","","","","","",NA,NA,"",NA,NA,NA,NA,NA,NA,"",NA,"",NA
"124","","instructions",40,429867,"0.0-18.0",NA,202,"22,220,54,138,137,180,40,178,72,84,132,49,59,166,122,57,18,202,3,242,178,180,36,41,23,74,79,139,61,200,78,68",101,"669eec2e4270c76bc184a38e","63e5517cd738b83025348a43","669ef30d9b40860d04e2f0a9",1,0,0,"false",2,78,"[{""page_index"":0,""viewing_time"":6314.399999856949}]",6314.39999985695,"","","","","","",NA,NA,"",NA,NA,NA,NA,NA,NA,"",NA,"",NA
"125","true","fullscreen",0,3707,"0.0-0.0",NA,203,"22,220,54,138,137,180,40,178,72,84,132,49,59,166,122,57,18,202,3,242,178,180,36,41,23,74,79,139,61,200,78,68",101,"669eec2e4270c76bc184a38e","667f2edfcd7d7ea5954dd47e","669ef4ef435c678ef9f6031e",1,0,0,"true",3,92,"",NA,"","","","","","",NA,NA,"",NA,NA,NA,NA,NA,NA,"","","",NA
"126","","instructions",1,8289,"0.0-1.0",NA,203,"22,220,54,138,137,180,40,178,72,84,132,49,59,166,122,57,18,202,3,242,178,180,36,41,23,74,79,139,61,200,78,68",101,"669eec2e4270c76bc184a38e","667f2edfcd7d7ea5954dd47e","669ef4ef435c678ef9f6031e",1,0,0,"true",3,92,"[{""page_index"":0,""viewing_time"":4580.800000011921}]",4581,"","","","","","",NA,NA,"",NA,NA,NA,NA,NA,NA,"","","",NA
"127","","instructions",2,51901,"0.0-2.0-0.0",NA,203,"22,220,54,138,137,180,40,178,72,84,132,49,59,166,122,57,18,202,3,242,178,180,36,41,23,74,79,139,61,200,78,68",101,"669eec2e4270c76bc184a38e","667f2edfcd7d7ea5954dd47e","669ef4ef435c678ef9f6031e",1,0,0,"true",3,92,"[{""page_index"":0,""viewing_time"":43612}]",43612.0999999642,"","","","","","",NA,NA,"",NA,NA,NA,NA,NA,NA,"","","",NA
"128","","survey-multi-choice",3,64910,"0.0-2.0-1.0",NA,203,"22,220,54,138,137,180,40,178,72,84,132,49,59,166,122,57,18,202,3,242,178,180,36,41,23,74,79,139,61,200,78,68",101,"669eec2e4270c76bc184a38e","667f2edfcd7d7ea5954dd47e","669ef4ef435c678ef9f6031e",1,0,0,"true",3,92,"",13006,"{""Q0"":""... reveal the word with as <b>few letter guesses</b> as possible""}","[0]","true","multichoice_nonpretend","","",NA,NA,"",NA,NA,NA,NA,NA,NA,"","","",NA
"129","","instructions",4,67940,"0.0-3.0",NA,203,"22,220,54,138,137,180,40,178,72,84,132,49,59,166,122,57,18,202,3,242,178,180,36,41,23,74,79,139,61,200,78,68",101,"669eec2e4270c76bc184a38e","667f2edfcd7d7ea5954dd47e","669ef4ef435c678ef9f6031e",1,0,0,"true",3,92,"[{""page_index"":0,""viewing_time"":3025.800000011921}]",3026,"","","","","","",NA,NA,"",NA,NA,NA,NA,NA,NA,"","","",NA
"130","","Hangman",5,107288,"0.0-4.0",NA,203,"22,220,54,138,137,180,40,178,72,84,132,49,59,166,122,57,18,202,3,242,178,180,36,41,23,74,79,139,61,200,78,68",101,"669eec2e4270c76bc184a38e","667f2edfcd7d7ea5954dd47e","669ef4ef435c678ef9f6031e",1,0,0,"true",3,92,"",NA,"","","","","ZEBRA","E,A,F,L,O,H,B,Z,R",9,11,"false",NA,NA,NA,NA,NA,NA,"","","",NA
"131","","instructions",6,129496,"0.0-5.0",NA,203,"22,220,54,138,137,180,40,178,72,84,132,49,59,166,122,57,18,202,3,242,178,180,36,41,23,74,79,139,61,200,78,68",101,"669eec2e4270c76bc184a38e","667f2edfcd7d7ea5954dd47e","669ef4ef435c678ef9f6031e",1,0,0,"true",3,92,"[{""page_index"":0,""viewing_time"":3817},{""page_index"":1,""viewing_time"":18389}]",22206.6999999881,"","","","","","",NA,NA,"",NA,NA,NA,NA,NA,NA,"","","",NA
"132","","survey-multi-choice",7,161141,"0.0-6.0",NA,203,"22,220,54,138,137,180,40,178,72,84,132,49,59,166,122,57,18,202,3,242,178,180,36,41,23,74,79,139,61,200,78,68",101,"669eec2e4270c76bc184a38e","667f2edfcd7d7ea5954dd47e","669ef4ef435c678ef9f6031e",1,0,0,"true",3,92,"",31644.1999999881,"{""Q0"":""...from <b>a previous session</b> that is not part of the upcoming tournament.""}","[0]","true","multichoice_leaderboard","","",NA,NA,"",NA,NA,NA,NA,NA,NA,"","","",NA
"133","","instructions",8,168285,"0.0-8.0",NA,203,"22,220,54,138,137,180,40,178,72,84,132,49,59,166,122,57,18,202,3,242,178,180,36,41,23,74,79,139,61,200,78,68",101,"669eec2e4270c76bc184a38e","667f2edfcd7d7ea5954dd47e","669ef4ef435c678ef9f6031e",1,0,0,"true",3,92,"[{""page_index"":0,""viewing_time"":7142.699999988079}]",7143,"","","","","","",NA,NA,"",NA,NA,NA,NA,NA,NA,"","","",NA
"134","","survey-multi-choice",9,176152,"0.0-9.0",NA,203,"22,220,54,138,137,180,40,178,72,84,132,49,59,166,122,57,18,202,3,242,178,180,36,41,23,74,79,139,61,200,78,68",101,"669eec2e4270c76bc184a38e","667f2edfcd7d7ea5954dd47e","669ef4ef435c678ef9f6031e",1,0,0,"true",3,92,"",7864.89999997616,"{""Q0"":""...players' leaderboard position (in terms of <b>points</b>) in an <b>upcoming tournament.</b>""}","[0]","true","multichoice_tournament","","",NA,NA,"",NA,NA,NA,NA,NA,NA,"","","",NA
"135","","instructions",10,195158,"0.0-11.0",NA,203,"22,220,54,138,137,180,40,178,72,84,132,49,59,166,122,57,18,202,3,242,178,180,36,41,23,74,79,139,61,200,78,68",101,"669eec2e4270c76bc184a38e","667f2edfcd7d7ea5954dd47e","669ef4ef435c678ef9f6031e",1,0,0,"true",3,92,"[{""page_index"":0,""viewing_time"":19005}]",19005.1999999881,"","","","","","",NA,NA,"",NA,NA,NA,NA,NA,NA,"","","",NA
"136","","instructions",11,220526,"0.0-12.0-0.0",NA,203,"22,220,54,138,137,180,40,178,72,84,132,49,59,166,122,57,18,202,3,242,178,180,36,41,23,74,79,139,61,200,78,68",101,"669eec2e4270c76bc184a38e","667f2edfcd7d7ea5954dd47e","669ef4ef435c678ef9f6031e",1,0,0,"true",3,92,"[{""page_index"":0,""viewing_time"":25366.80000001192}]",25367.1000000238,"","","","","","",NA,NA,"",NA,NA,NA,NA,NA,NA,"","","",NA
"137","","type-this",12,233149,"0.0-12.0-1.0",NA,203,"22,220,54,138,137,180,40,178,72,84,132,49,59,166,122,57,18,202,3,242,178,180,36,41,23,74,79,139,61,200,78,68",101,"669eec2e4270c76bc184a38e","667f2edfcd7d7ea5954dd47e","669ef4ef435c678ef9f6031e",1,0,0,"true",3,92,"",12118.3000000119,"KENTUCKY","","","","","",NA,NA,"",NA,NA,NA,NA,NA,NA,"","KENTUCKY","",NA
"138","","Hangman_replay",13,253191,"0.0-12.0-2.0",NA,203,"22,220,54,138,137,180,40,178,72,84,132,49,59,166,122,57,18,202,3,242,178,180,36,41,23,74,79,139,61,200,78,68",101,"669eec2e4270c76bc184a38e","667f2edfcd7d7ea5954dd47e","669ef4ef435c678ef9f6031e",1,0,0,"true",3,92,"",NA,"","","","","KENTUCKY","N,E,K,T,U,C,Y",7,15,"false",NA,NA,NA,NA,NA,NA,"","","",NA
"139","","instructions",14,257064,"0.0-12.0-3.0",NA,203,"22,220,54,138,137,180,40,178,72,84,132,49,59,166,122,57,18,202,3,242,178,180,36,41,23,74,79,139,61,200,78,68",101,"669eec2e4270c76bc184a38e","667f2edfcd7d7ea5954dd47e","669ef4ef435c678ef9f6031e",1,0,0,"true",3,92,"[{""page_index"":0,""viewing_time"":3872.2999999523163}]",3872.79999995232,"","","","","","",NA,NA,"",NA,NA,NA,NA,NA,NA,"","","",NA
"140","","Guess_leaderboard",15,264463,"0.0-12.0-4.0",NA,203,"22,220,54,138,137,180,40,178,72,84,132,49,59,166,122,57,18,202,3,242,178,180,36,41,23,74,79,139,61,200,78,68",101,"669eec2e4270c76bc184a38e","667f2edfcd7d7ea5954dd47e","669ef4ef435c678ef9f6031e",1,0,0,"true",3,92,"",NA,"","","","","KENTUCKY","",NA,NA,"",6642.69999998808,8,2,0,17,9,"","","",NA
"141","","instructions",16,270428,"0.0-12.0-0.1",NA,203,"22,220,54,138,137,180,40,178,72,84,132,49,59,166,122,57,18,202,3,242,178,180,36,41,23,74,79,139,61,200,78,68",101,"669eec2e4270c76bc184a38e","667f2edfcd7d7ea5954dd47e","669ef4ef435c678ef9f6031e",1,0,0,"true",3,92,"[{""page_index"":0,""viewing_time"":5963.300000011921}]",5963.69999998808,"","","","","","",NA,NA,"",NA,NA,NA,NA,NA,NA,"","","",NA
"142","","type-this",17,275403,"0.0-12.0-1.1",NA,203,"22,220,54,138,137,180,40,178,72,84,132,49,59,166,122,57,18,202,3,242,178,180,36,41,23,74,79,139,61,200,78,68",101,"669eec2e4270c76bc184a38e","667f2edfcd7d7ea5954dd47e","669ef4ef435c678ef9f6031e",1,0,0,"true",3,92,"",4464.40000003576,"FIG","","","","","",NA,NA,"",NA,NA,NA,NA,NA,NA,"","FIG","",NA
"143","","Hangman_replay",18,300642,"0.0-12.0-2.1",NA,203,"22,220,54,138,137,180,40,178,72,84,132,49,59,166,122,57,18,202,3,242,178,180,36,41,23,74,79,139,61,200,78,68",101,"669eec2e4270c76bc184a38e","667f2edfcd7d7ea5954dd47e","669ef4ef435c678ef9f6031e",1,0,0,"true",3,92,"",NA,"","","","","FIG","G,F,I",3,15,"false",NA,NA,NA,NA,NA,NA,"","","",NA
"144","","instructions",19,303631,"0.0-12.0-3.1",NA,203,"22,220,54,138,137,180,40,178,72,84,132,49,59,166,122,57,18,202,3,242,178,180,36,41,23,74,79,139,61,200,78,68",101,"669eec2e4270c76bc184a38e","667f2edfcd7d7ea5954dd47e","669ef4ef435c678ef9f6031e",1,0,0,"true",3,92,"[{""page_index"":0,""viewing_time"":2986.7000000476837}]",2987.90000003576,"","","","","","",NA,NA,"",NA,NA,NA,NA,NA,NA,"","","",NA
"145","","Guess_leaderboard",20,312005,"0.0-12.0-4.1",NA,203,"22,220,54,138,137,180,40,178,72,84,132,49,59,166,122,57,18,202,3,242,178,180,36,41,23,74,79,139,61,200,78,68",101,"669eec2e4270c76bc184a38e","667f2edfcd7d7ea5954dd47e","669ef4ef435c678ef9f6031e",1,0,0,"true",3,92,"",NA,"","","","","FIG","",NA,NA,"",7606.19999998808,41,41,1,74,33,"","","",NA
"146","","instructions",21,314703,"0.0-12.0-0.2",NA,203,"22,220,54,138,137,180,40,178,72,84,132,49,59,166,122,57,18,202,3,242,178,180,36,41,23,74,79,139,61,200,78,68",101,"669eec2e4270c76bc184a38e","667f2edfcd7d7ea5954dd47e","669ef4ef435c678ef9f6031e",1,0,0,"true",3,92,"[{""page_index"":0,""viewing_time"":2696.099999964237}]",2696.39999997616,"","","","","","",NA,NA,"",NA,NA,NA,NA,NA,NA,"","","",NA
"147","","type-this",22,323266,"0.0-12.0-1.2",NA,203,"22,220,54,138,137,180,40,178,72,84,132,49,59,166,122,57,18,202,3,242,178,180,36,41,23,74,79,139,61,200,78,68",101,"669eec2e4270c76bc184a38e","667f2edfcd7d7ea5954dd47e","669ef4ef435c678ef9f6031e",1,0,0,"true",3,92,"",8060.19999998808,"THIRTY FOUR","","","","","",NA,NA,"",NA,NA,NA,NA,NA,NA,"","THIRTY FOUR","",NA
"148","","Hangman_replay",23,408634,"0.0-12.0-2.2",NA,203,"22,220,54,138,137,180,40,178,72,84,132,49,59,166,122,57,18,202,3,242,178,180,36,41,23,74,79,139,61,200,78,68",101,"669eec2e4270c76bc184a38e","667f2edfcd7d7ea5954dd47e","669ef4ef435c678ef9f6031e",1,0,0,"true",3,92,"",NA,"","","","","THIRTY FOUR","A,E,I,O,S,N,U,F,R,T,H,Y",12,11,"false",NA,NA,NA,NA,NA,NA,"","","",NA
"149","","instructions",24,421838,"0.0-12.0-3.2",NA,203,"22,220,54,138,137,180,40,178,72,84,132,49,59,166,122,57,18,202,3,242,178,180,36,41,23,74,79,139,61,200,78,68",101,"669eec2e4270c76bc184a38e","667f2edfcd7d7ea5954dd47e","669ef4ef435c678ef9f6031e",1,0,0,"true",3,92,"[{""page_index"":0,""viewing_time"":13202.5}]",13203,"","","","","","",NA,NA,"",NA,NA,NA,NA,NA,NA,"","","",NA
"150","","Guess_leaderboard",25,427889,"0.0-12.0-4.2",NA,203,"22,220,54,138,137,180,40,178,72,84,132,49,59,166,122,57,18,202,3,242,178,180,36,41,23,74,79,139,61,200,78,68",101,"669eec2e4270c76bc184a38e","667f2edfcd7d7ea5954dd47e","669ef4ef435c678ef9f6031e",1,0,0,"true",3,92,"",NA,"","","","","THIRTY FOUR","",NA,NA,"",5293.5,60,6,2,81,21,"","","",NA
"151","","instructions",26,429588,"0.0-12.0-0.3",NA,203,"22,220,54,138,137,180,40,178,72,84,132,49,59,166,122,57,18,202,3,242,178,180,36,41,23,74,79,139,61,200,78,68",101,"669eec2e4270c76bc184a38e","667f2edfcd7d7ea5954dd47e","669ef4ef435c678ef9f6031e",1,0,0,"true",3,92,"[{""page_index"":0,""viewing_time"":1698}]",1698.10000002384,"","","","","","",NA,NA,"",NA,NA,NA,NA,NA,NA,"","","",NA
"152","","type-this",27,434590,"0.0-12.0-1.3",NA,203,"22,220,54,138,137,180,40,178,72,84,132,49,59,166,122,57,18,202,3,242,178,180,36,41,23,74,79,139,61,200,78,68",101,"669eec2e4270c76bc184a38e","667f2edfcd7d7ea5954dd47e","669ef4ef435c678ef9f6031e",1,0,0,"true",3,92,"",4498.59999996424,"SHAKIRA","","","","","",NA,NA,"",NA,NA,NA,NA,NA,NA,"","SHAKIRA","",NA
"153","","Hangman_replay",28,469863,"0.0-12.0-2.3",NA,203,"22,220,54,138,137,180,40,178,72,84,132,49,59,166,122,57,18,202,3,242,178,180,36,41,23,74,79,139,61,200,78,68",101,"669eec2e4270c76bc184a38e","667f2edfcd7d7ea5954dd47e","669ef4ef435c678ef9f6031e",1,0,0,"true",3,92,"",NA,"","","","","SHAKIRA","A,J,S,T,R,H,K,I",8,13,"false",NA,NA,NA,NA,NA,NA,"","","",NA
"154","","instructions",29,472909,"0.0-12.0-3.3",NA,203,"22,220,54,138,137,180,40,178,72,84,132,49,59,166,122,57,18,202,3,242,178,180,36,41,23,74,79,139,61,200,78,68",101,"669eec2e4270c76bc184a38e","667f2edfcd7d7ea5954dd47e","669ef4ef435c678ef9f6031e",1,0,0,"true",3,92,"[{""page_index"":0,""viewing_time"":3045.100000023842}]",3045.19999998808,"","","","","","",NA,NA,"",NA,NA,NA,NA,NA,NA,"","","",NA
"155","","Guess_leaderboard",30,474801,"0.0-12.0-4.3",NA,203,"22,220,54,138,137,180,40,178,72,84,132,49,59,166,122,57,18,202,3,242,178,180,36,41,23,74,79,139,61,200,78,68",101,"669eec2e4270c76bc184a38e","667f2edfcd7d7ea5954dd47e","669ef4ef435c678ef9f6031e",1,0,0,"true",3,92,"",NA,"","","","","SHAKIRA","",NA,NA,"",1134.40000003576,24,54,3,89,65,"","","",NA
"156","","instructions",31,478529,"0.0-12.0-0.4",NA,203,"22,220,54,138,137,180,40,178,72,84,132,49,59,166,122,57,18,202,3,242,178,180,36,41,23,74,79,139,61,200,78,68",101,"669eec2e4270c76bc184a38e","667f2edfcd7d7ea5954dd47e","669ef4ef435c678ef9f6031e",1,0,0,"true",3,92,"[{""page_index"":0,""viewing_time"":3726.800000011921}]",3726.90000003576,"","","","","","",NA,NA,"",NA,NA,NA,NA,NA,NA,"","","",NA
"157","","type-this",32,485280,"0.0-12.0-1.4",NA,203,"22,220,54,138,137,180,40,178,72,84,132,49,59,166,122,57,18,202,3,242,178,180,36,41,23,74,79,139,61,200,78,68",101,"669eec2e4270c76bc184a38e","667f2edfcd7d7ea5954dd47e","669ef4ef435c678ef9f6031e",1,0,0,"true",3,92,"",6248.40000003576,"WRIST","","","","","",NA,NA,"",NA,NA,NA,NA,NA,NA,"","WRIST","",NA
"158","","Hangman_replay",33,540351,"0.0-12.0-2.4",NA,203,"22,220,54,138,137,180,40,178,72,84,132,49,59,166,122,57,18,202,3,242,178,180,36,41,23,74,79,139,61,200,78,68",101,"669eec2e4270c76bc184a38e","667f2edfcd7d7ea5954dd47e","669ef4ef435c678ef9f6031e",1,0,0,"true",3,92,"",NA,"","","","","WRIST","C,S,W,R,I,T",6,14,"false",NA,NA,NA,NA,NA,NA,"","","",NA
"159","","instructions",34,541564,"0.0-12.0-3.4",NA,203,"22,220,54,138,137,180,40,178,72,84,132,49,59,166,122,57,18,202,3,242,178,180,36,41,23,74,79,139,61,200,78,68",101,"669eec2e4270c76bc184a38e","667f2edfcd7d7ea5954dd47e","669ef4ef435c678ef9f6031e",1,0,0,"true",3,92,"[{""page_index"":0,""viewing_time"":1211.5999999642372}]",1211.69999998808,"","","","","","",NA,NA,"",NA,NA,NA,NA,NA,NA,"","","",NA
"160","","Guess_leaderboard",35,546503,"0.0-12.0-4.4",NA,203,"22,220,54,138,137,180,40,178,72,84,132,49,59,166,122,57,18,202,3,242,178,180,36,41,23,74,79,139,61,200,78,68",101,"669eec2e4270c76bc184a38e","667f2edfcd7d7ea5954dd47e","669ef4ef435c678ef9f6031e",1,0,0,"true",3,92,"",NA,"","","","","WRIST","",NA,NA,"",4184.5,67,94,4,9,58,"","","",NA
"161","","survey-text",36,551982,"0.0-13.0",NA,203,"22,220,54,138,137,180,40,178,72,84,132,49,59,166,122,57,18,202,3,242,178,180,36,41,23,74,79,139,61,200,78,68",101,"669eec2e4270c76bc184a38e","667f2edfcd7d7ea5954dd47e","669ef4ef435c678ef9f6031e",1,0,0,"true",3,92,"",5477.30000001192,"{""Q0"":""WRIST""}","","","","","",NA,NA,"",NA,NA,NA,NA,NA,NA,"wrist","","",NA
"162","","survey-multi-choice",37,560098,"0.0-14.0",NA,203,"22,220,54,138,137,180,40,178,72,84,132,49,59,166,122,57,18,202,3,242,178,180,36,41,23,74,79,139,61,200,78,68",101,"669eec2e4270c76bc184a38e","667f2edfcd7d7ea5954dd47e","669ef4ef435c678ef9f6031e",1,0,0,"true",3,92,"",8114.80000001192,"{""Q0"":""3. I would be <b>third</b> out of the six of us.""}","[0]","","self-rating","","",NA,NA,"",NA,3,NA,NA,NA,NA,"","","",NA
"163","","html-slider-response",38,567040,"0.0-15.0",NA,203,"22,220,54,138,137,180,40,178,72,84,132,49,59,166,122,57,18,202,3,242,178,180,36,41,23,74,79,139,61,200,78,68",101,"669eec2e4270c76bc184a38e","667f2edfcd7d7ea5954dd47e","669ef4ef435c678ef9f6031e",1,0,0,"true",3,92,"",6940.19999998808,"","","","","","",NA,NA,"",NA,NA,NA,NA,NA,NA,"","92","<p>Overall, how confident were you in your answer to this last question?</p>",92
"164","","survey-text",39,613221,"0.0-16.0",NA,203,"22,220,54,138,137,180,40,178,72,84,132,49,59,166,122,57,18,202,3,242,178,180,36,41,23,74,79,139,61,200,78,68",101,"669eec2e4270c76bc184a38e","667f2edfcd7d7ea5954dd47e","669ef4ef435c678ef9f6031e",1,0,0,"true",3,92,"",46178.6999999881,"{""Q0"":""language vocabulary, and our general knowledge of the topics.""}","","","","","",NA,NA,"",NA,NA,NA,NA,NA,NA,"","","",NA
"165","","survey-text",40,622686,"0.0-17.0",NA,203,"22,220,54,138,137,180,40,178,72,84,132,49,59,166,122,57,18,202,3,242,178,180,36,41,23,74,79,139,61,200,78,68",101,"669eec2e4270c76bc184a38e","667f2edfcd7d7ea5954dd47e","669ef4ef435c678ef9f6031e",1,0,0,"true",3,92,"",9463.5,"{""Q0"":""no, thank you anyway.""}","","","","","",NA,NA,"",NA,NA,NA,NA,NA,NA,"","","",NA
"166","","instructions",41,624990,"0.0-18.0",NA,203,"22,220,54,138,137,180,40,178,72,84,132,49,59,166,122,57,18,202,3,242,178,180,36,41,23,74,79,139,61,200,78,68",101,"669eec2e4270c76bc184a38e","667f2edfcd7d7ea5954dd47e","669ef4ef435c678ef9f6031e",1,0,0,"true",3,92,"[{""page_index"":0,""viewing_time"":2304.2000000476837}]",2304.30000001192,"","","","","","",NA,NA,"",NA,NA,NA,NA,NA,NA,"","","",NA
"167","true","fullscreen",0,13451,"0.0-0.0",NA,204,"55,131,79,47,37,118,47,35,225,247,74,83,28,190,68,93,183,61,103,101,235,230,8,120,167,223,190,205,125,74,246,225",102,"669eec2e4270c76bc184a38e","640c3e718d10af5614ee82ee","669f6e956c9756ed0c607a41",1,1,1,"false",2,86,"",NA,"","","","","","",NA,NA,"",NA,NA,NA,NA,NA,NA,"",NA,"",NA
"168","","instructions",1,23202,"0.0-1.0",NA,204,"55,131,79,47,37,118,47,35,225,247,74,83,28,190,68,93,183,61,103,101,235,230,8,120,167,223,190,205,125,74,246,225",102,"669eec2e4270c76bc184a38e","640c3e718d10af5614ee82ee","669f6e956c9756ed0c607a41",1,1,1,"false",2,86,"[{""page_index"":0,""viewing_time"":9749.899999976158}]",9750.59999996424,"","","","","","",NA,NA,"",NA,NA,NA,NA,NA,NA,"",NA,"",NA
"169","","instructions",2,136313,"0.0-2.0-0.0",NA,204,"55,131,79,47,37,118,47,35,225,247,74,83,28,190,68,93,183,61,103,101,235,230,8,120,167,223,190,205,125,74,246,225",102,"669eec2e4270c76bc184a38e","640c3e718d10af5614ee82ee","669f6e956c9756ed0c607a41",1,1,1,"false",2,86,"[{""page_index"":0,""viewing_time"":113109.59999996424}]",113110,"","","","","","",NA,NA,"",NA,NA,NA,NA,NA,NA,"",NA,"",NA
"170","","survey-multi-choice",3,160869,"0.0-2.0-1.0",NA,204,"55,131,79,47,37,118,47,35,225,247,74,83,28,190,68,93,183,61,103,101,235,230,8,120,167,223,190,205,125,74,246,225",102,"669eec2e4270c76bc184a38e","640c3e718d10af5614ee82ee","669f6e956c9756ed0c607a41",1,1,1,"false",2,86,"",24552.5999999642,"{""Q0"":""... reveal the word with as <b>few letter guesses</b> as possible""}","[0]","true","multichoice_nonpretend","","",NA,NA,"",NA,NA,NA,NA,NA,NA,"",NA,"",NA
"171","","instructions",4,166488,"0.0-3.0",NA,204,"55,131,79,47,37,118,47,35,225,247,74,83,28,190,68,93,183,61,103,101,235,230,8,120,167,223,190,205,125,74,246,225",102,"669eec2e4270c76bc184a38e","640c3e718d10af5614ee82ee","669f6e956c9756ed0c607a41",1,1,1,"false",2,86,"[{""page_index"":0,""viewing_time"":5616.5}]",5616.79999995232,"","","","","","",NA,NA,"",NA,NA,NA,NA,NA,NA,"",NA,"",NA
"172","","Hangman",5,203947,"0.0-4.0",NA,204,"55,131,79,47,37,118,47,35,225,247,74,83,28,190,68,93,183,61,103,101,235,230,8,120,167,223,190,205,125,74,246,225",102,"669eec2e4270c76bc184a38e","640c3e718d10af5614ee82ee","669f6e956c9756ed0c607a41",1,1,1,"false",2,86,"",NA,"","","","","ZEBRA","Z,E,B,R,A",5,15,"false",NA,NA,NA,NA,NA,NA,"",NA,"",NA
"173","","instructions",6,311308,"0.0-5.0",NA,204,"55,131,79,47,37,118,47,35,225,247,74,83,28,190,68,93,183,61,103,101,235,230,8,120,167,223,190,205,125,74,246,225",102,"669eec2e4270c76bc184a38e","640c3e718d10af5614ee82ee","669f6e956c9756ed0c607a41",1,1,1,"false",2,86,"[{""page_index"":0,""viewing_time"":5918.5},{""page_index"":1,""viewing_time"":101438.60000002384}]",107358.899999976,"","","","","","",NA,NA,"",NA,NA,NA,NA,NA,NA,"",NA,"",NA
"174","","survey-multi-choice",7,330692,"0.0-6.0",NA,204,"55,131,79,47,37,118,47,35,225,247,74,83,28,190,68,93,183,61,103,101,235,230,8,120,167,223,190,205,125,74,246,225",102,"669eec2e4270c76bc184a38e","640c3e718d10af5614ee82ee","669f6e956c9756ed0c607a41",1,1,1,"false",2,86,"",19380.8000000119,"{""Q0"":""...from <b>a previous session</b> that is part of the upcoming tournament.""}","[0]","false","multichoice_leaderboard","","",NA,NA,"",NA,NA,NA,NA,NA,NA,"",NA,"",NA
"175","","instructions",8,336457,"0.0-7.0-0.0",NA,204,"55,131,79,47,37,118,47,35,225,247,74,83,28,190,68,93,183,61,103,101,235,230,8,120,167,223,190,205,125,74,246,225",102,"669eec2e4270c76bc184a38e","640c3e718d10af5614ee82ee","669f6e956c9756ed0c607a41",1,1,1,"false",2,86,"[{""page_index"":0,""viewing_time"":5762.5}]",5763.09999996424,"","","","","","",NA,NA,"",NA,NA,NA,NA,NA,NA,"",NA,"",NA
"176","","survey-multi-choice",9,346421,"0.0-7.0-1.0",NA,204,"55,131,79,47,37,118,47,35,225,247,74,83,28,190,68,93,183,61,103,101,235,230,8,120,167,223,190,205,125,74,246,225",102,"669eec2e4270c76bc184a38e","640c3e718d10af5614ee82ee","669f6e956c9756ed0c607a41",1,1,1,"false",2,86,"",9960.89999997616,"{""Q0"":""...from <b>a previous session</b> that is part of the upcoming tournament.""}","[0]","false","multichoice_leaderboard","","",NA,NA,"",NA,NA,NA,NA,NA,NA,"",NA,"",NA
"177","","instructions",10,353762,"0.0-7.1-0.1",NA,204,"55,131,79,47,37,118,47,35,225,247,74,83,28,190,68,93,183,61,103,101,235,230,8,120,167,223,190,205,125,74,246,225",102,"669eec2e4270c76bc184a38e","640c3e718d10af5614ee82ee","669f6e956c9756ed0c607a41",1,1,1,"false",2,86,"[{""page_index"":0,""viewing_time"":7338.100000023842}]",7338.60000002384,"","","","","","",NA,NA,"",NA,NA,NA,NA,NA,NA,"",NA,"",NA
"178","","survey-multi-choice",11,358141,"0.0-7.1-1.1",NA,204,"55,131,79,47,37,118,47,35,225,247,74,83,28,190,68,93,183,61,103,101,235,230,8,120,167,223,190,205,125,74,246,225",102,"669eec2e4270c76bc184a38e","640c3e718d10af5614ee82ee","669f6e956c9756ed0c607a41",1,1,1,"false",2,86,"",4377,"{""Q0"":""...from the <b>upcoming tournament</b>.""}","[0]","false","multichoice_leaderboard","","",NA,NA,"",NA,NA,NA,NA,NA,NA,"",NA,"",NA
"179","","instructions",12,363297,"0.0-7.2-0.2",NA,204,"55,131,79,47,37,118,47,35,225,247,74,83,28,190,68,93,183,61,103,101,235,230,8,120,167,223,190,205,125,74,246,225",102,"669eec2e4270c76bc184a38e","640c3e718d10af5614ee82ee","669f6e956c9756ed0c607a41",1,1,1,"false",2,86,"[{""page_index"":0,""viewing_time"":5154.5}]",5154.89999997616,"","","","","","",NA,NA,"",NA,NA,NA,NA,NA,NA,"",NA,"",NA
"180","","survey-multi-choice",13,383511,"0.0-7.2-1.2",NA,204,"55,131,79,47,37,118,47,35,225,247,74,83,28,190,68,93,183,61,103,101,235,230,8,120,167,223,190,205,125,74,246,225",102,"669eec2e4270c76bc184a38e","640c3e718d10af5614ee82ee","669f6e956c9756ed0c607a41",1,1,1,"false",2,86,"",20213.1999999881,"{""Q0"":""...from <b>a previous session</b> that is not part of the upcoming tournament.""}","[0]","true","multichoice_leaderboard","","",NA,NA,"",NA,NA,NA,NA,NA,NA,"",NA,"",NA
"181","","instructions",14,409619,"0.0-8.0",NA,204,"55,131,79,47,37,118,47,35,225,247,74,83,28,190,68,93,183,61,103,101,235,230,8,120,167,223,190,205,125,74,246,225",102,"669eec2e4270c76bc184a38e","640c3e718d10af5614ee82ee","669f6e956c9756ed0c607a41",1,1,1,"false",2,86,"[{""page_index"":0,""viewing_time"":26106.700000047684}]",26107.3000000119,"","","","","","",NA,NA,"",NA,NA,NA,NA,NA,NA,"",NA,"",NA
"182","","survey-multi-choice",15,426361,"0.0-9.0",NA,204,"55,131,79,47,37,118,47,35,225,247,74,83,28,190,68,93,183,61,103,101,235,230,8,120,167,223,190,205,125,74,246,225",102,"669eec2e4270c76bc184a38e","640c3e718d10af5614ee82ee","669f6e956c9756ed0c607a41",1,1,1,"false",2,86,"",16739.8000000119,"{""Q0"":""...how well players did (in terms of <b>points</b>) in <b>previous games.</b>""}","[0]","false","multichoice_tournament","","",NA,NA,"",NA,NA,NA,NA,NA,NA,"",NA,"",NA
"183","","instructions",16,431796,"0.0-10.0-0.0",NA,204,"55,131,79,47,37,118,47,35,225,247,74,83,28,190,68,93,183,61,103,101,235,230,8,120,167,223,190,205,125,74,246,225",102,"669eec2e4270c76bc184a38e","640c3e718d10af5614ee82ee","669f6e956c9756ed0c607a41",1,1,1,"false",2,86,"[{""page_index"":0,""viewing_time"":5433.400000035763}]",5433.69999998808,"","","","","","",NA,NA,"",NA,NA,NA,NA,NA,NA,"",NA,"",NA
"184","","survey-multi-choice",17,442557,"0.0-10.0-1.0",NA,204,"55,131,79,47,37,118,47,35,225,247,74,83,28,190,68,93,183,61,103,101,235,230,8,120,167,223,190,205,125,74,246,225",102,"669eec2e4270c76bc184a38e","640c3e718d10af5614ee82ee","669f6e956c9756ed0c607a41",1,1,1,"false",2,86,"",10758.8000000119,"{""Q0"":""...players' leaderboard position (in terms of <b>points</b>) in an <b>upcoming tournament.</b>""}","[0]","true","multichoice_tournament","","",NA,NA,"",NA,NA,NA,NA,NA,NA,"",NA,"",NA
"185","","instructions",18,565331,"0.0-11.0",NA,204,"55,131,79,47,37,118,47,35,225,247,74,83,28,190,68,93,183,61,103,101,235,230,8,120,167,223,190,205,125,74,246,225",102,"669eec2e4270c76bc184a38e","640c3e718d10af5614ee82ee","669f6e956c9756ed0c607a41",1,1,1,"false",2,86,"[{""page_index"":0,""viewing_time"":122772.30000001192}]",122773,"","","","","","",NA,NA,"",NA,NA,NA,NA,NA,NA,"",NA,"",NA
"186","","instructions",19,582600,"0.0-12.0-0.0",NA,204,"55,131,79,47,37,118,47,35,225,247,74,83,28,190,68,93,183,61,103,101,235,230,8,120,167,223,190,205,125,74,246,225",102,"669eec2e4270c76bc184a38e","640c3e718d10af5614ee82ee","669f6e956c9756ed0c607a41",1,1,1,"false",2,86,"[{""page_index"":0,""viewing_time"":17266.5}]",17267.4000000358,"","","","","","",NA,NA,"",NA,NA,NA,NA,NA,NA,"",NA,"",NA
"187","","Hangman_replay",20,634895,"0.0-12.0-1.0",NA,204,"55,131,79,47,37,118,47,35,225,247,74,83,28,190,68,93,183,61,103,101,235,230,8,120,167,223,190,205,125,74,246,225",102,"669eec2e4270c76bc184a38e","640c3e718d10af5614ee82ee","669f6e956c9756ed0c607a41",1,1,1,"false",2,86,"",NA,"","","","","WRIST","H,C,W,A,R,I,S,T",8,12,"false",NA,NA,NA,NA,NA,NA,"",NA,"",NA
"188","","instructions",21,648102,"0.0-12.0-2.0",NA,204,"55,131,79,47,37,118,47,35,225,247,74,83,28,190,68,93,183,61,103,101,235,230,8,120,167,223,190,205,125,74,246,225",102,"669eec2e4270c76bc184a38e","640c3e718d10af5614ee82ee","669f6e956c9756ed0c607a41",1,1,1,"false",2,86,"[{""page_index"":0,""viewing_time"":13204.899999976158}]",13206.6999999881,"","","","","","",NA,NA,"",NA,NA,NA,NA,NA,NA,"",NA,"",NA
"189","","Guess_leaderboard",22,673890,"0.0-12.0-3.0",NA,204,"55,131,79,47,37,118,47,35,225,247,74,83,28,190,68,93,183,61,103,101,235,230,8,120,167,223,190,205,125,74,246,225",102,"669eec2e4270c76bc184a38e","640c3e718d10af5614ee82ee","669f6e956c9756ed0c607a41",1,1,1,"false",2,86,"",NA,"","","","","WRIST","",NA,NA,"",25008.8999999762,25,44,0,26,1,"",NA,"",NA
"190","","instructions",23,687948,"0.0-12.0-0.1",NA,204,"55,131,79,47,37,118,47,35,225,247,74,83,28,190,68,93,183,61,103,101,235,230,8,120,167,223,190,205,125,74,246,225",102,"669eec2e4270c76bc184a38e","640c3e718d10af5614ee82ee","669f6e956c9756ed0c607a41",1,1,1,"false",2,86,"[{""page_index"":0,""viewing_time"":14053.699999988079}]",14054.1999999881,"","","","","","",NA,NA,"",NA,NA,NA,NA,NA,NA,"",NA,"",NA
"191","","Hangman_replay",24,731289,"0.0-12.0-1.1",NA,204,"55,131,79,47,37,118,47,35,225,247,74,83,28,190,68,93,183,61,103,101,235,230,8,120,167,223,190,205,125,74,246,225",102,"669eec2e4270c76bc184a38e","640c3e718d10af5614ee82ee","669f6e956c9756ed0c607a41",1,1,1,"false",2,86,"",NA,"","","","","USAIN BOLT","B,N,W,T,G,H,D,K,L,Y,Z,F,J,A,E,R,P,O,S,V,U,M,C,I",24,0,"false",NA,NA,NA,NA,NA,NA,"",NA,"",NA
"192","","instructions",25,738915,"0.0-12.0-2.1",NA,204,"55,131,79,47,37,118,47,35,225,247,74,83,28,190,68,93,183,61,103,101,235,230,8,120,167,223,190,205,125,74,246,225",102,"669eec2e4270c76bc184a38e","640c3e718d10af5614ee82ee","669f6e956c9756ed0c607a41",1,1,1,"false",2,86,"[{""page_index"":0,""viewing_time"":7624.699999988079}]",7625.59999996424,"","","","","","",NA,NA,"",NA,NA,NA,NA,NA,NA,"",NA,"",NA
"193","","Guess_leaderboard",26,746588,"0.0-12.0-3.1",NA,204,"55,131,79,47,37,118,47,35,225,247,74,83,28,190,68,93,183,61,103,101,235,230,8,120,167,223,190,205,125,74,246,225",102,"669eec2e4270c76bc184a38e","640c3e718d10af5614ee82ee","669f6e956c9756ed0c607a41",1,1,1,"false",2,86,"",NA,"","","","","USAIN BOLT","",NA,NA,"",6910.80000001192,90,32,1,88,2,"",NA,"",NA
"194","","instructions",27,753670,"0.0-12.0-0.2",NA,204,"55,131,79,47,37,118,47,35,225,247,74,83,28,190,68,93,183,61,103,101,235,230,8,120,167,223,190,205,125,74,246,225",102,"669eec2e4270c76bc184a38e","640c3e718d10af5614ee82ee","669f6e956c9756ed0c607a41",1,1,1,"false",2,86,"[{""page_index"":0,""viewing_time"":7075.099999964237}]",7076.19999998808,"","","","","","",NA,NA,"",NA,NA,NA,NA,NA,NA,"",NA,"",NA
"195","","Hangman_replay",28,835309,"0.0-12.0-1.2",NA,204,"55,131,79,47,37,118,47,35,225,247,74,83,28,190,68,93,183,61,103,101,235,230,8,120,167,223,190,205,125,74,246,225",102,"669eec2e4270c76bc184a38e","640c3e718d10af5614ee82ee","669f6e956c9756ed0c607a41",1,1,1,"false",2,86,"",NA,"","","","","NECTARINE","E,L,N,C,T,A,R,I",8,14,"false",NA,NA,NA,NA,NA,NA,"",NA,"",NA
"196","","instructions",29,842985,"0.0-12.0-2.2",NA,204,"55,131,79,47,37,118,47,35,225,247,74,83,28,190,68,93,183,61,103,101,235,230,8,120,167,223,190,205,125,74,246,225",102,"669eec2e4270c76bc184a38e","640c3e718d10af5614ee82ee","669f6e956c9756ed0c607a41",1,1,1,"false",2,86,"[{""page_index"":0,""viewing_time"":7674.199999988079}]",7675.09999996424,"","","","","","",NA,NA,"",NA,NA,NA,NA,NA,NA,"",NA,"",NA
"197","","Guess_leaderboard",30,873951,"0.0-12.0-3.2",NA,204,"55,131,79,47,37,118,47,35,225,247,74,83,28,190,68,93,183,61,103,101,235,230,8,120,167,223,190,205,125,74,246,225",102,"669eec2e4270c76bc184a38e","640c3e718d10af5614ee82ee","669f6e956c9756ed0c607a41",1,1,1,"false",2,86,"",NA,"","","","","NECTARINE","",NA,NA,"",30205.3000000119,40,52,2,18,22,"",NA,"",NA
"198","","instructions",31,877278,"0.0-12.0-0.3",NA,204,"55,131,79,47,37,118,47,35,225,247,74,83,28,190,68,93,183,61,103,101,235,230,8,120,167,223,190,205,125,74,246,225",102,"669eec2e4270c76bc184a38e","640c3e718d10af5614ee82ee","669f6e956c9756ed0c607a41",1,1,1,"false",2,86,"[{""page_index"":0,""viewing_time"":3324.5}]",3324.79999995232,"","","","","","",NA,NA,"",NA,NA,NA,NA,NA,NA,"",NA,"",NA
"199","","Hangman_replay",32,904579,"0.0-12.0-1.3",NA,204,"55,131,79,47,37,118,47,35,225,247,74,83,28,190,68,93,183,61,103,101,235,230,8,120,167,223,190,205,125,74,246,225",102,"669eec2e4270c76bc184a38e","640c3e718d10af5614ee82ee","669f6e956c9756ed0c607a41",1,1,1,"false",2,86,"",NA,"","","","","HAWAII","M,O,E,A,S,T,R,H,W,I",10,9,"false",NA,NA,NA,NA,NA,NA,"",NA,"",NA
"200","","instructions",33,923416,"0.0-12.0-2.3",NA,204,"55,131,79,47,37,118,47,35,225,247,74,83,28,190,68,93,183,61,103,101,235,230,8,120,167,223,190,205,125,74,246,225",102,"669eec2e4270c76bc184a38e","640c3e718d10af5614ee82ee","669f6e956c9756ed0c607a41",1,1,1,"false",2,86,"[{""page_index"":0,""viewing_time"":18831.69999998808}]",18835.3000000119,"","","","","","",NA,NA,"",NA,NA,NA,NA,NA,NA,"",NA,"",NA
"201","","Guess_leaderboard",34,928784,"0.0-12.0-3.3",NA,204,"55,131,79,47,37,118,47,35,225,247,74,83,28,190,68,93,183,61,103,101,235,230,8,120,167,223,190,205,125,74,246,225",102,"669eec2e4270c76bc184a38e","640c3e718d10af5614ee82ee","669f6e956c9756ed0c607a41",1,1,1,"false",2,86,"",NA,"","","","","HAWAII","",NA,NA,"",4586.5,50,63,3,73,23,"",NA,"",NA
"202","","instructions",35,934539,"0.0-12.0-0.4",NA,204,"55,131,79,47,37,118,47,35,225,247,74,83,28,190,68,93,183,61,103,101,235,230,8,120,167,223,190,205,125,74,246,225",102,"669eec2e4270c76bc184a38e","640c3e718d10af5614ee82ee","669f6e956c9756ed0c607a41",1,1,1,"false",2,86,"[{""page_index"":0,""viewing_time"":5751.699999988079}]",5751.80000001192,"","","","","","",NA,NA,"",NA,NA,NA,NA,NA,NA,"",NA,"",NA
"203","","Hangman_replay",36,951517,"0.0-12.0-1.4",NA,204,"55,131,79,47,37,118,47,35,225,247,74,83,28,190,68,93,183,61,103,101,235,230,8,120,167,223,190,205,125,74,246,225",102,"669eec2e4270c76bc184a38e","640c3e718d10af5614ee82ee","669f6e956c9756ed0c607a41",1,1,1,"false",2,86,"",NA,"","","","","THIRTY FOUR","T,W,H,I,R,Y,F,O,U",9,14,"false",NA,NA,NA,NA,NA,NA,"",NA,"",NA
"204","","instructions",37,957534,"0.0-12.0-2.4",NA,204,"55,131,79,47,37,118,47,35,225,247,74,83,28,190,68,93,183,61,103,101,235,230,8,120,167,223,190,205,125,74,246,225",102,"669eec2e4270c76bc184a38e","640c3e718d10af5614ee82ee","669f6e956c9756ed0c607a41",1,1,1,"false",2,86,"[{""page_index"":0,""viewing_time"":6015.400000035763}]",6016.10000002384,"","","","","","",NA,NA,"",NA,NA,NA,NA,NA,NA,"",NA,"",NA
"205","","Guess_leaderboard",38,968979,"0.0-12.0-3.4",NA,204,"55,131,79,47,37,118,47,35,225,247,74,83,28,190,68,93,183,61,103,101,235,230,8,120,167,223,190,205,125,74,246,225",102,"669eec2e4270c76bc184a38e","640c3e718d10af5614ee82ee","669f6e956c9756ed0c607a41",1,1,1,"false",2,86,"",NA,"","","","","THIRTY FOUR","",NA,NA,"",10686.5999999642,8,25,4,37,29,"",NA,"",NA
"206","","survey-text",39,994786,"0.0-13.0",NA,204,"55,131,79,47,37,118,47,35,225,247,74,83,28,190,68,93,183,61,103,101,235,230,8,120,167,223,190,205,125,74,246,225",102,"669eec2e4270c76bc184a38e","640c3e718d10af5614ee82ee","669f6e956c9756ed0c607a41",1,1,1,"false",2,86,"",25803.9000000358,"{""Q0"":""THIRTY FOUR""}","","","","","",NA,NA,"",NA,NA,NA,NA,NA,NA,"thirty four",NA,"",NA
"207","","survey-multi-choice",40,1032167,"0.0-14.0",NA,204,"55,131,79,47,37,118,47,35,225,247,74,83,28,190,68,93,183,61,103,101,235,230,8,120,167,223,190,205,125,74,246,225",102,"669eec2e4270c76bc184a38e","640c3e718d10af5614ee82ee","669f6e956c9756ed0c607a41",1,1,1,"false",2,86,"",37378.5,"{""Q0"":""2. I would be <b>second</b> out of the six of us.""}","[0]","","self-rating","","",NA,NA,"",NA,2,NA,NA,NA,NA,"",NA,"",NA
"208","","html-slider-response",41,1039336,"0.0-15.0",NA,204,"55,131,79,47,37,118,47,35,225,247,74,83,28,190,68,93,183,61,103,101,235,230,8,120,167,223,190,205,125,74,246,225",102,"669eec2e4270c76bc184a38e","640c3e718d10af5614ee82ee","669f6e956c9756ed0c607a41",1,1,1,"false",2,86,"",7160.69999998808,"","","","","","",NA,NA,"",NA,NA,NA,NA,NA,NA,"","86","<p>Overall, how confident were you in your answer to this last question?</p>",86
"209","","survey-text",42,1090047,"0.0-16.0",NA,204,"55,131,79,47,37,118,47,35,225,247,74,83,28,190,68,93,183,61,103,101,235,230,8,120,167,223,190,205,125,74,246,225",102,"669eec2e4270c76bc184a38e","640c3e718d10af5614ee82ee","669f6e956c9756ed0c607a41",1,1,1,"false",2,86,"",50701.1000000238,"{""Q0"":""I have no idea what you are trying to test in this experiment.""}","","","","","",NA,NA,"",NA,NA,NA,NA,NA,NA,"",NA,"",NA
"210","","survey-text",43,1098097,"0.0-17.0",NA,204,"55,131,79,47,37,118,47,35,225,247,74,83,28,190,68,93,183,61,103,101,235,230,8,120,167,223,190,205,125,74,246,225",102,"669eec2e4270c76bc184a38e","640c3e718d10af5614ee82ee","669f6e956c9756ed0c607a41",1,1,1,"false",2,86,"",8043.80000001192,"{""Q0"":""None.""}","","","","","",NA,NA,"",NA,NA,NA,NA,NA,NA,"",NA,"",NA
"211","","instructions",44,1101152,"0.0-18.0",NA,204,"55,131,79,47,37,118,47,35,225,247,74,83,28,190,68,93,183,61,103,101,235,230,8,120,167,223,190,205,125,74,246,225",102,"669eec2e4270c76bc184a38e","640c3e718d10af5614ee82ee","669f6e956c9756ed0c607a41",1,1,1,"false",2,86,"[{""page_index"":0,""viewing_time"":3051.599999964237}]",3052.59999996424,"","","","","","",NA,NA,"",NA,NA,NA,NA,NA,NA,"",NA,"",NA
"212","true","fullscreen",0,40205,"0.0-0.0",NA,205,"55,131,79,47,37,118,47,35,225,247,74,83,28,190,68,93,183,61,103,101,235,230,8,120,167,223,190,205,125,74,246,225",102,"669eec2e4270c76bc184a38e","66914ab400af8a7d634121ab","669f734bfde88843031dc333",1,0,0,"true",2,100,"",NA,"","","","","","",NA,NA,"",NA,NA,NA,NA,NA,NA,"","","",NA
"213","","instructions",1,78144,"0.0-1.0",NA,205,"55,131,79,47,37,118,47,35,225,247,74,83,28,190,68,93,183,61,103,101,235,230,8,120,167,223,190,205,125,74,246,225",102,"669eec2e4270c76bc184a38e","66914ab400af8a7d634121ab","669f734bfde88843031dc333",1,0,0,"true",2,100,"[{""page_index"":0,""viewing_time"":37934.39999997616}]",37936.1999999881,"","","","","","",NA,NA,"",NA,NA,NA,NA,NA,NA,"","","",NA
"214","","instructions",2,275554,"0.0-2.0-0.0",NA,205,"55,131,79,47,37,118,47,35,225,247,74,83,28,190,68,93,183,61,103,101,235,230,8,120,167,223,190,205,125,74,246,225",102,"669eec2e4270c76bc184a38e","66914ab400af8a7d634121ab","669f734bfde88843031dc333",1,0,0,"true",2,100,"[{""page_index"":0,""viewing_time"":197408.5}]",197409.199999988,"","","","","","",NA,NA,"",NA,NA,NA,NA,NA,NA,"","","",NA
"215","","survey-multi-choice",3,293512,"0.0-2.0-1.0",NA,205,"55,131,79,47,37,118,47,35,225,247,74,83,28,190,68,93,183,61,103,101,235,230,8,120,167,223,190,205,125,74,246,225",102,"669eec2e4270c76bc184a38e","66914ab400af8a7d634121ab","669f734bfde88843031dc333",1,0,0,"true",2,100,"",17953.1000000238,"{""Q0"":""... reveal the word with as <b>few letter guesses</b> as possible""}","[0]","true","multichoice_nonpretend","","",NA,NA,"",NA,NA,NA,NA,NA,NA,"","","",NA
"216","","instructions",4,296940,"0.0-3.0",NA,205,"55,131,79,47,37,118,47,35,225,247,74,83,28,190,68,93,183,61,103,101,235,230,8,120,167,223,190,205,125,74,246,225",102,"669eec2e4270c76bc184a38e","66914ab400af8a7d634121ab","669f734bfde88843031dc333",1,0,0,"true",2,100,"[{""page_index"":0,""viewing_time"":3423.899999976158}]",3424.19999998808,"","","","","","",NA,NA,"",NA,NA,NA,NA,NA,NA,"","","",NA
"217","","Hangman",5,355174,"0.0-4.0",NA,205,"55,131,79,47,37,118,47,35,225,247,74,83,28,190,68,93,183,61,103,101,235,230,8,120,167,223,190,205,125,74,246,225",102,"669eec2e4270c76bc184a38e","66914ab400af8a7d634121ab","669f734bfde88843031dc333",1,0,0,"true",2,100,"",NA,"","","","","ZEBRA","S,Z,E,B,R,A",6,14,"false",NA,NA,NA,NA,NA,NA,"","","",NA
"218","","instructions",6,381373,"0.0-5.0",NA,205,"55,131,79,47,37,118,47,35,225,247,74,83,28,190,68,93,183,61,103,101,235,230,8,120,167,223,190,205,125,74,246,225",102,"669eec2e4270c76bc184a38e","66914ab400af8a7d634121ab","669f734bfde88843031dc333",1,0,0,"true",2,100,"[{""page_index"":0,""viewing_time"":5750.800000011921},{""page_index"":1,""viewing_time"":20443}]",26195.5,"","","","","","",NA,NA,"",NA,NA,NA,NA,NA,NA,"","","",NA
"219","","survey-multi-choice",7,403592,"0.0-6.0",NA,205,"55,131,79,47,37,118,47,35,225,247,74,83,28,190,68,93,183,61,103,101,235,230,8,120,167,223,190,205,125,74,246,225",102,"669eec2e4270c76bc184a38e","66914ab400af8a7d634121ab","669f734bfde88843031dc333",1,0,0,"true",2,100,"",22215.3000000119,"{""Q0"":""...from <b>a previous session</b> that is part of the upcoming tournament.""}","[0]","false","multichoice_leaderboard","","",NA,NA,"",NA,NA,NA,NA,NA,NA,"","","",NA
"220","","instructions",8,407656,"0.0-7.0-0.0",NA,205,"55,131,79,47,37,118,47,35,225,247,74,83,28,190,68,93,183,61,103,101,235,230,8,120,167,223,190,205,125,74,246,225",102,"669eec2e4270c76bc184a38e","66914ab400af8a7d634121ab","669f734bfde88843031dc333",1,0,0,"true",2,100,"[{""page_index"":0,""viewing_time"":4061.900000035763}]",4062.40000003576,"","","","","","",NA,NA,"",NA,NA,NA,NA,NA,NA,"","","",NA
"221","","survey-multi-choice",9,415570,"0.0-7.0-1.0",NA,205,"55,131,79,47,37,118,47,35,225,247,74,83,28,190,68,93,183,61,103,101,235,230,8,120,167,223,190,205,125,74,246,225",102,"669eec2e4270c76bc184a38e","66914ab400af8a7d634121ab","669f734bfde88843031dc333",1,0,0,"true",2,100,"",7911.59999996424,"{""Q0"":""...from the <b>upcoming tournament</b>.""}","[0]","false","multichoice_leaderboard","","",NA,NA,"",NA,NA,NA,NA,NA,NA,"","","",NA
"222","","instructions",10,417438,"0.0-7.1-0.1",NA,205,"55,131,79,47,37,118,47,35,225,247,74,83,28,190,68,93,183,61,103,101,235,230,8,120,167,223,190,205,125,74,246,225",102,"669eec2e4270c76bc184a38e","66914ab400af8a7d634121ab","669f734bfde88843031dc333",1,0,0,"true",2,100,"[{""page_index"":0,""viewing_time"":1864.800000011921}]",1865.30000001192,"","","","","","",NA,NA,"",NA,NA,NA,NA,NA,NA,"","","",NA
"223","","survey-multi-choice",11,419372,"0.0-7.1-1.1",NA,205,"55,131,79,47,37,118,47,35,225,247,74,83,28,190,68,93,183,61,103,101,235,230,8,120,167,223,190,205,125,74,246,225",102,"669eec2e4270c76bc184a38e","66914ab400af8a7d634121ab","669f734bfde88843031dc333",1,0,0,"true",2,100,"",1931.89999997616,"{""Q0"":""...from <b>a previous session</b> that is not part of the upcoming tournament.""}","[0]","true","multichoice_leaderboard","","",NA,NA,"",NA,NA,NA,NA,NA,NA,"","","",NA
"224","","instructions",12,431403,"0.0-8.0",NA,205,"55,131,79,47,37,118,47,35,225,247,74,83,28,190,68,93,183,61,103,101,235,230,8,120,167,223,190,205,125,74,246,225",102,"669eec2e4270c76bc184a38e","66914ab400af8a7d634121ab","669f734bfde88843031dc333",1,0,0,"true",2,100,"[{""page_index"":0,""viewing_time"":12029.600000023842}]",12030.1000000238,"","","","","","",NA,NA,"",NA,NA,NA,NA,NA,NA,"","","",NA
"225","","survey-multi-choice",13,437221,"0.0-9.0",NA,205,"55,131,79,47,37,118,47,35,225,247,74,83,28,190,68,93,183,61,103,101,235,230,8,120,167,223,190,205,125,74,246,225",102,"669eec2e4270c76bc184a38e","66914ab400af8a7d634121ab","669f734bfde88843031dc333",1,0,0,"true",2,100,"",5816,"{""Q0"":""...players' leaderboard position (in terms of <b>points</b>) in an <b>upcoming tournament.</b>""}","[0]","true","multichoice_tournament","","",NA,NA,"",NA,NA,NA,NA,NA,NA,"","","",NA
"226","","instructions",14,439471,"0.0-11.0",NA,205,"55,131,79,47,37,118,47,35,225,247,74,83,28,190,68,93,183,61,103,101,235,230,8,120,167,223,190,205,125,74,246,225",102,"669eec2e4270c76bc184a38e","66914ab400af8a7d634121ab","669f734bfde88843031dc333",1,0,0,"true",2,100,"[{""page_index"":0,""viewing_time"":2247.399999976158}]",2247.69999998808,"","","","","","",NA,NA,"",NA,NA,NA,NA,NA,NA,"","","",NA
"227","","instructions",15,459045,"0.0-12.0-0.0",NA,205,"55,131,79,47,37,118,47,35,225,247,74,83,28,190,68,93,183,61,103,101,235,230,8,120,167,223,190,205,125,74,246,225",102,"669eec2e4270c76bc184a38e","66914ab400af8a7d634121ab","669f734bfde88843031dc333",1,0,0,"true",2,100,"[{""page_index"":0,""viewing_time"":19571.69999998808}]",19572.1999999881,"","","","","","",NA,NA,"",NA,NA,NA,NA,NA,NA,"","","",NA
"228","","type-this",16,466086,"0.0-12.0-1.0",NA,205,"55,131,79,47,37,118,47,35,225,247,74,83,28,190,68,93,183,61,103,101,235,230,8,120,167,223,190,205,125,74,246,225",102,"669eec2e4270c76bc184a38e","66914ab400af8a7d634121ab","669f734bfde88843031dc333",1,0,0,"true",2,100,"",6534.30000001192,"WRIST","","","","","",NA,NA,"",NA,NA,NA,NA,NA,NA,"","WRIST","",NA
"229","","Hangman_replay",17,518374,"0.0-12.0-2.0",NA,205,"55,131,79,47,37,118,47,35,225,247,74,83,28,190,68,93,183,61,103,101,235,230,8,120,167,223,190,205,125,74,246,225",102,"669eec2e4270c76bc184a38e","66914ab400af8a7d634121ab","669f734bfde88843031dc333",1,0,0,"true",2,100,"",NA,"","","","","WRIST","H,C,W,A,R,I,S,T",8,12,"false",NA,NA,NA,NA,NA,NA,"","","",NA
"230","","instructions",18,524747,"0.0-12.0-3.0",NA,205,"55,131,79,47,37,118,47,35,225,247,74,83,28,190,68,93,183,61,103,101,235,230,8,120,167,223,190,205,125,74,246,225",102,"669eec2e4270c76bc184a38e","66914ab400af8a7d634121ab","669f734bfde88843031dc333",1,0,0,"true",2,100,"[{""page_index"":0,""viewing_time"":6369.5}]",6371.69999998808,"","","","","","",NA,NA,"",NA,NA,NA,NA,NA,NA,"","","",NA
"231","","Guess_leaderboard",19,537747,"0.0-12.0-4.0",NA,205,"55,131,79,47,37,118,47,35,225,247,74,83,28,190,68,93,183,61,103,101,235,230,8,120,167,223,190,205,125,74,246,225",102,"669eec2e4270c76bc184a38e","66914ab400af8a7d634121ab","669f734bfde88843031dc333",1,0,0,"true",2,100,"",NA,"","","","","WRIST","",NA,NA,"",12220.8000000119,52,44,0,26,26,"","","",NA
"232","","instructions",20,540741,"0.0-12.0-0.1",NA,205,"55,131,79,47,37,118,47,35,225,247,74,83,28,190,68,93,183,61,103,101,235,230,8,120,167,223,190,205,125,74,246,225",102,"669eec2e4270c76bc184a38e","66914ab400af8a7d634121ab","669f734bfde88843031dc333",1,0,0,"true",2,100,"[{""page_index"":0,""viewing_time"":2990.600000023842}]",2991.30000001192,"","","","","","",NA,NA,"",NA,NA,NA,NA,NA,NA,"","","",NA
"233","","type-this",21,549865,"0.0-12.0-1.1",NA,205,"55,131,79,47,37,118,47,35,225,247,74,83,28,190,68,93,183,61,103,101,235,230,8,120,167,223,190,205,125,74,246,225",102,"669eec2e4270c76bc184a38e","66914ab400af8a7d634121ab","669f734bfde88843031dc333",1,0,0,"true",2,100,"",8617,"USAIN BOLT","","","","","",NA,NA,"",NA,NA,NA,NA,NA,NA,"","USAIN BOLT","",NA
"234","","Hangman_replay",22,593209,"0.0-12.0-2.1",NA,205,"55,131,79,47,37,118,47,35,225,247,74,83,28,190,68,93,183,61,103,101,235,230,8,120,167,223,190,205,125,74,246,225",102,"669eec2e4270c76bc184a38e","66914ab400af8a7d634121ab","669f734bfde88843031dc333",1,0,0,"true",2,100,"",NA,"","","","","USAIN BOLT","B,N,W,T,G,H,D,K,L,Y,Z,F,J,A,E,R,P,O,S,V,U,M,C,I",24,0,"false",NA,NA,NA,NA,NA,NA,"","","",NA
"235","","instructions",23,596338,"0.0-12.0-3.1",NA,205,"55,131,79,47,37,118,47,35,225,247,74,83,28,190,68,93,183,61,103,101,235,230,8,120,167,223,190,205,125,74,246,225",102,"669eec2e4270c76bc184a38e","66914ab400af8a7d634121ab","669f734bfde88843031dc333",1,0,0,"true",2,100,"[{""page_index"":0,""viewing_time"":3126.7000000476837}]",3127.30000001192,"","","","","","",NA,NA,"",NA,NA,NA,NA,NA,NA,"","","",NA
"236","","Guess_leaderboard",24,614626,"0.0-12.0-4.1",NA,205,"55,131,79,47,37,118,47,35,225,247,74,83,28,190,68,93,183,61,103,101,235,230,8,120,167,223,190,205,125,74,246,225",102,"669eec2e4270c76bc184a38e","66914ab400af8a7d634121ab","669f734bfde88843031dc333",1,0,0,"true",2,100,"",NA,"","","","","USAIN BOLT","",NA,NA,"",17528.5,32,32,1,88,56,"","","",NA
"237","","instructions",25,625391,"0.0-12.0-0.2",NA,205,"55,131,79,47,37,118,47,35,225,247,74,83,28,190,68,93,183,61,103,101,235,230,8,120,167,223,190,205,125,74,246,225",102,"669eec2e4270c76bc184a38e","66914ab400af8a7d634121ab","669f734bfde88843031dc333",1,0,0,"true",2,100,"[{""page_index"":0,""viewing_time"":10761.800000011921}]",10762.1999999881,"","","","","","",NA,NA,"",NA,NA,NA,NA,NA,NA,"","","",NA
"238","","type-this",26,628683,"0.0-12.0-1.2",NA,205,"55,131,79,47,37,118,47,35,225,247,74,83,28,190,68,93,183,61,103,101,235,230,8,120,167,223,190,205,125,74,246,225",102,"669eec2e4270c76bc184a38e","66914ab400af8a7d634121ab","669f734bfde88843031dc333",1,0,0,"true",2,100,"",2786,"NECTARINE","","","","","",NA,NA,"",NA,NA,NA,NA,NA,NA,"","NECTARINE","",NA
"239","","Hangman_replay",27,710320,"0.0-12.0-2.2",NA,205,"55,131,79,47,37,118,47,35,225,247,74,83,28,190,68,93,183,61,103,101,235,230,8,120,167,223,190,205,125,74,246,225",102,"669eec2e4270c76bc184a38e","66914ab400af8a7d634121ab","669f734bfde88843031dc333",1,0,0,"true",2,100,"",NA,"","","","","NECTARINE","E,L,N,C,T,A,R,I",8,14,"false",NA,NA,NA,NA,NA,NA,"","","",NA
"240","","instructions",28,712581,"0.0-12.0-3.2",NA,205,"55,131,79,47,37,118,47,35,225,247,74,83,28,190,68,93,183,61,103,101,235,230,8,120,167,223,190,205,125,74,246,225",102,"669eec2e4270c76bc184a38e","66914ab400af8a7d634121ab","669f734bfde88843031dc333",1,0,0,"true",2,100,"[{""page_index"":0,""viewing_time"":2259.400000035763}]",2259.90000003576,"","","","","","",NA,NA,"",NA,NA,NA,NA,NA,NA,"","","",NA
"241","","Guess_leaderboard",29,717707,"0.0-12.0-4.2",NA,205,"55,131,79,47,37,118,47,35,225,247,74,83,28,190,68,93,183,61,103,101,235,230,8,120,167,223,190,205,125,74,246,225",102,"669eec2e4270c76bc184a38e","66914ab400af8a7d634121ab","669f734bfde88843031dc333",1,0,0,"true",2,100,"",NA,"","","","","NECTARINE","",NA,NA,"",4357.09999996424,24,52,2,18,6,"","","",NA
"242","","instructions",30,719949,"0.0-12.0-0.3",NA,205,"55,131,79,47,37,118,47,35,225,247,74,83,28,190,68,93,183,61,103,101,235,230,8,120,167,223,190,205,125,74,246,225",102,"669eec2e4270c76bc184a38e","66914ab400af8a7d634121ab","669f734bfde88843031dc333",1,0,0,"true",2,100,"[{""page_index"":0,""viewing_time"":2238.300000011921}]",2238.69999998808,"","","","","","",NA,NA,"",NA,NA,NA,NA,NA,NA,"","","",NA
"243","","type-this",31,725195,"0.0-12.0-1.3",NA,205,"55,131,79,47,37,118,47,35,225,247,74,83,28,190,68,93,183,61,103,101,235,230,8,120,167,223,190,205,125,74,246,225",102,"669eec2e4270c76bc184a38e","66914ab400af8a7d634121ab","669f734bfde88843031dc333",1,0,0,"true",2,100,"",4740.69999998808,"HAWAII","","","","","",NA,NA,"",NA,NA,NA,NA,NA,NA,"","HAWAII","",NA
"244","","Hangman_replay",32,752506,"0.0-12.0-2.3",NA,205,"55,131,79,47,37,118,47,35,225,247,74,83,28,190,68,93,183,61,103,101,235,230,8,120,167,223,190,205,125,74,246,225",102,"669eec2e4270c76bc184a38e","66914ab400af8a7d634121ab","669f734bfde88843031dc333",1,0,0,"true",2,100,"",NA,"","","","","HAWAII","M,O,E,A,S,T,R,H,W,I",10,9,"false",NA,NA,NA,NA,NA,NA,"","","",NA
"245","","instructions",33,753884,"0.0-12.0-3.3",NA,205,"55,131,79,47,37,118,47,35,225,247,74,83,28,190,68,93,183,61,103,101,235,230,8,120,167,223,190,205,125,74,246,225",102,"669eec2e4270c76bc184a38e","66914ab400af8a7d634121ab","669f734bfde88843031dc333",1,0,0,"true",2,100,"[{""page_index"":0,""viewing_time"":1376.8999999761581}]",1377.39999997616,"","","","","","",NA,NA,"",NA,NA,NA,NA,NA,NA,"","","",NA
"246","","Guess_leaderboard",34,761042,"0.0-12.0-4.3",NA,205,"55,131,79,47,37,118,47,35,225,247,74,83,28,190,68,93,183,61,103,101,235,230,8,120,167,223,190,205,125,74,246,225",102,"669eec2e4270c76bc184a38e","66914ab400af8a7d634121ab","669f734bfde88843031dc333",1,0,0,"true",2,100,"",NA,"","","","","HAWAII","",NA,NA,"",6388.69999998808,28,63,3,73,45,"","","",NA
"247","","instructions",35,768090,"0.0-12.0-0.4",NA,205,"55,131,79,47,37,118,47,35,225,247,74,83,28,190,68,93,183,61,103,101,235,230,8,120,167,223,190,205,125,74,246,225",102,"669eec2e4270c76bc184a38e","66914ab400af8a7d634121ab","669f734bfde88843031dc333",1,0,0,"true",2,100,"[{""page_index"":0,""viewing_time"":7044.600000023842}]",7045.40000003576,"","","","","","",NA,NA,"",NA,NA,NA,NA,NA,NA,"","","",NA
"248","","type-this",36,771310,"0.0-12.0-1.4",NA,205,"55,131,79,47,37,118,47,35,225,247,74,83,28,190,68,93,183,61,103,101,235,230,8,120,167,223,190,205,125,74,246,225",102,"669eec2e4270c76bc184a38e","66914ab400af8a7d634121ab","669f734bfde88843031dc333",1,0,0,"true",2,100,"",2714.59999996424,"THIRTY FOUR","","","","","",NA,NA,"",NA,NA,NA,NA,NA,NA,"","THIRTY FOUR","",NA
"249","","Hangman_replay",37,788297,"0.0-12.0-2.4",NA,205,"55,131,79,47,37,118,47,35,225,247,74,83,28,190,68,93,183,61,103,101,235,230,8,120,167,223,190,205,125,74,246,225",102,"669eec2e4270c76bc184a38e","66914ab400af8a7d634121ab","669f734bfde88843031dc333",1,0,0,"true",2,100,"",NA,"","","","","THIRTY FOUR","T,W,H,I,R,Y,F,O,U",9,14,"false",NA,NA,NA,NA,NA,NA,"","","",NA
"250","","instructions",38,790378,"0.0-12.0-3.4",NA,205,"55,131,79,47,37,118,47,35,225,247,74,83,28,190,68,93,183,61,103,101,235,230,8,120,167,223,190,205,125,74,246,225",102,"669eec2e4270c76bc184a38e","66914ab400af8a7d634121ab","669f734bfde88843031dc333",1,0,0,"true",2,100,"[{""page_index"":0,""viewing_time"":2079.900000035763}]",2080.5,"","","","","","",NA,NA,"",NA,NA,NA,NA,NA,NA,"","","",NA
"251","","Guess_leaderboard",39,794587,"0.0-12.0-4.4",NA,205,"55,131,79,47,37,118,47,35,225,247,74,83,28,190,68,93,183,61,103,101,235,230,8,120,167,223,190,205,125,74,246,225",102,"669eec2e4270c76bc184a38e","66914ab400af8a7d634121ab","669f734bfde88843031dc333",1,0,0,"true",2,100,"",NA,"","","","","THIRTY FOUR","",NA,NA,"",3449,19,25,4,37,18,"","","",NA
"252","","survey-text",40,804365,"0.0-13.0",NA,205,"55,131,79,47,37,118,47,35,225,247,74,83,28,190,68,93,183,61,103,101,235,230,8,120,167,223,190,205,125,74,246,225",102,"669eec2e4270c76bc184a38e","66914ab400af8a7d634121ab","669f734bfde88843031dc333",1,0,0,"true",2,100,"",9772.40000003576,"{""Q0"":""THIRTY FOUR""}","","","","","",NA,NA,"",NA,NA,NA,NA,NA,NA,"thirty four","","",NA
