"","success","trial_type","trial_index","time_elapsed","internal_node_id","protocol_sum","subject_identifier","subject_sum","subject_pair","STUDY_ID","PROLIFIC_PID","SESSION_ID","practice_instructions","leaderboard_instructions","bonus","reveal_word","self_rating","confidence","view_history","rt","responses","question_order","correct","test_part","word","final_keyboard_state","num_clicks","points","cheat","position_RT","position","player","i_game","true_position","distance","last_word","response","stimulus","confidence_slider_self_response"
"1","true","fullscreen",0,3917,"0.0-0.0",NA,500,"30,71,43,57,177,5,211,73,188,208,105,196,167,17,180,74,47,255,184,226,116,113,75,176,126,207,255,105,169,167,246,123",250,"66a3ed3c5d10d0e7d8a6b9da","656e0dab178ffccdaa47202e","66a3ee5c40e54dd1270e7078",1,0,0,"false",1,29,"",NA,"","","","","","",NA,NA,"",NA,NA,NA,NA,NA,NA,"",NA,"",NA
"2","","instructions",1,7128,"0.0-1.0",NA,500,"30,71,43,57,177,5,211,73,188,208,105,196,167,17,180,74,47,255,184,226,116,113,75,176,126,207,255,105,169,167,246,123",250,"66a3ed3c5d10d0e7d8a6b9da","656e0dab178ffccdaa47202e","66a3ee5c40e54dd1270e7078",1,0,0,"false",1,29,"[{""page_index"":0,""viewing_time"":3208.600000143051}]",3208.70000004768,"","","","","","",NA,NA,"",NA,NA,NA,NA,NA,NA,"",NA,"",NA
"3","","instructions",2,18703,"0.0-2.0-0.0",NA,500,"30,71,43,57,177,5,211,73,188,208,105,196,167,17,180,74,47,255,184,226,116,113,75,176,126,207,255,105,169,167,246,123",250,"66a3ed3c5d10d0e7d8a6b9da","656e0dab178ffccdaa47202e","66a3ee5c40e54dd1270e7078",1,0,0,"false",1,29,"[{""page_index"":0,""viewing_time"":11574.699999809265}]",11575.0999999046,"","","","","","",NA,NA,"",NA,NA,NA,NA,NA,NA,"",NA,"",NA
"4","","survey-multi-choice",3,34754,"0.0-2.0-1.0",NA,500,"30,71,43,57,177,5,211,73,188,208,105,196,167,17,180,74,47,255,184,226,116,113,75,176,126,207,255,105,169,167,246,123",250,"66a3ed3c5d10d0e7d8a6b9da","656e0dab178ffccdaa47202e","66a3ee5c40e54dd1270e7078",1,0,0,"false",1,29,"",16047.7999999523,"{""Q0"":""... reveal the word with as <b>few letter guesses</b> as possible""}","[0]","true","multichoice_nonpretend","","",NA,NA,"",NA,NA,NA,NA,NA,NA,"",NA,"",NA
"5","","instructions",4,36128,"0.0-3.0",NA,500,"30,71,43,57,177,5,211,73,188,208,105,196,167,17,180,74,47,255,184,226,116,113,75,176,126,207,255,105,169,167,246,123",250,"66a3ed3c5d10d0e7d8a6b9da","656e0dab178ffccdaa47202e","66a3ee5c40e54dd1270e7078",1,0,0,"false",1,29,"[{""page_index"":0,""viewing_time"":1371.5}]",1371.79999995232,"","","","","","",NA,NA,"",NA,NA,NA,NA,NA,NA,"",NA,"",NA
"6","","Hangman",5,83207,"0.0-4.0",NA,500,"30,71,43,57,177,5,211,73,188,208,105,196,167,17,180,74,47,255,184,226,116,113,75,176,126,207,255,105,169,167,246,123",250,"66a3ed3c5d10d0e7d8a6b9da","656e0dab178ffccdaa47202e","66a3ee5c40e54dd1270e7078",1,0,0,"false",1,29,"",NA,"","","","","ZEBRA","C,A,O,E,S,T,R,Z,B",9,11,"false",NA,NA,NA,NA,NA,NA,"",NA,"",NA
"7","","instructions",6,103844,"0.0-5.0",NA,500,"30,71,43,57,177,5,211,73,188,208,105,196,167,17,180,74,47,255,184,226,116,113,75,176,126,207,255,105,169,167,246,123",250,"66a3ed3c5d10d0e7d8a6b9da","656e0dab178ffccdaa47202e","66a3ee5c40e54dd1270e7078",1,0,0,"false",1,29,"[{""page_index"":0,""viewing_time"":3472.9000000953674},{""page_index"":1,""viewing_time"":17160}]",20633.7000000477,"","","","","","",NA,NA,"",NA,NA,NA,NA,NA,NA,"",NA,"",NA
"8","","survey-multi-choice",7,110960,"0.0-6.0",NA,500,"30,71,43,57,177,5,211,73,188,208,105,196,167,17,180,74,47,255,184,226,116,113,75,176,126,207,255,105,169,167,246,123",250,"66a3ed3c5d10d0e7d8a6b9da","656e0dab178ffccdaa47202e","66a3ee5c40e54dd1270e7078",1,0,0,"false",1,29,"",7114.69999980927,"{""Q0"":""...from <b>a previous session</b> that is part of the upcoming tournament.""}","[0]","false","multichoice_leaderboard","","",NA,NA,"",NA,NA,NA,NA,NA,NA,"",NA,"",NA
"9","","instructions",8,112512,"0.0-7.0-0.0",NA,500,"30,71,43,57,177,5,211,73,188,208,105,196,167,17,180,74,47,255,184,226,116,113,75,176,126,207,255,105,169,167,246,123",250,"66a3ed3c5d10d0e7d8a6b9da","656e0dab178ffccdaa47202e","66a3ee5c40e54dd1270e7078",1,0,0,"false",1,29,"[{""page_index"":0,""viewing_time"":1549.9000000953674}]",1550.10000014305,"","","","","","",NA,NA,"",NA,NA,NA,NA,NA,NA,"",NA,"",NA
"10","","survey-multi-choice",9,119024,"0.0-7.0-1.0",NA,500,"30,71,43,57,177,5,211,73,188,208,105,196,167,17,180,74,47,255,184,226,116,113,75,176,126,207,255,105,169,167,246,123",250,"66a3ed3c5d10d0e7d8a6b9da","656e0dab178ffccdaa47202e","66a3ee5c40e54dd1270e7078",1,0,0,"false",1,29,"",6511.69999980927,"{""Q0"":""...from <b>a previous session</b> that is not part of the upcoming tournament.""}","[0]","true","multichoice_leaderboard","","",NA,NA,"",NA,NA,NA,NA,NA,NA,"",NA,"",NA
"11","","instructions",10,129676,"0.0-8.0",NA,500,"30,71,43,57,177,5,211,73,188,208,105,196,167,17,180,74,47,255,184,226,116,113,75,176,126,207,255,105,169,167,246,123",250,"66a3ed3c5d10d0e7d8a6b9da","656e0dab178ffccdaa47202e","66a3ee5c40e54dd1270e7078",1,0,0,"false",1,29,"[{""page_index"":0,""viewing_time"":10649.299999952316}]",10649.5,"","","","","","",NA,NA,"",NA,NA,NA,NA,NA,NA,"",NA,"",NA
"12","","survey-multi-choice",11,138233,"0.0-9.0",NA,500,"30,71,43,57,177,5,211,73,188,208,105,196,167,17,180,74,47,255,184,226,116,113,75,176,126,207,255,105,169,167,246,123",250,"66a3ed3c5d10d0e7d8a6b9da","656e0dab178ffccdaa47202e","66a3ee5c40e54dd1270e7078",1,0,0,"false",1,29,"",8556.29999995232,"{""Q0"":""...players' leaderboard position (in terms of <b>points</b>) in an <b>upcoming tournament.</b>""}","[0]","true","multichoice_tournament","","",NA,NA,"",NA,NA,NA,NA,NA,NA,"",NA,"",NA
"13","","instructions",12,180984,"0.0-11.0",NA,500,"30,71,43,57,177,5,211,73,188,208,105,196,167,17,180,74,47,255,184,226,116,113,75,176,126,207,255,105,169,167,246,123",250,"66a3ed3c5d10d0e7d8a6b9da","656e0dab178ffccdaa47202e","66a3ee5c40e54dd1270e7078",1,0,0,"false",1,29,"[{""page_index"":0,""viewing_time"":42749.5}]",42749.6999998093,"","","","","","",NA,NA,"",NA,NA,NA,NA,NA,NA,"",NA,"",NA
"14","","instructions",13,190640,"0.0-12.0-0.0",NA,500,"30,71,43,57,177,5,211,73,188,208,105,196,167,17,180,74,47,255,184,226,116,113,75,176,126,207,255,105,169,167,246,123",250,"66a3ed3c5d10d0e7d8a6b9da","656e0dab178ffccdaa47202e","66a3ee5c40e54dd1270e7078",1,0,0,"false",1,29,"[{""page_index"":0,""viewing_time"":9655.100000143051}]",9655.29999995232,"","","","","","",NA,NA,"",NA,NA,NA,NA,NA,NA,"",NA,"",NA
"15","","Hangman_replay",14,215020,"0.0-12.0-1.0",NA,500,"30,71,43,57,177,5,211,73,188,208,105,196,167,17,180,74,47,255,184,226,116,113,75,176,126,207,255,105,169,167,246,123",250,"66a3ed3c5d10d0e7d8a6b9da","656e0dab178ffccdaa47202e","66a3ee5c40e54dd1270e7078",1,0,0,"false",1,29,"",NA,"","","","","KENTUCKY","E,I,A,O,U,M,W,R,G,H,D,B,K,N,T,C,Y",17,5,"false",NA,NA,NA,NA,NA,NA,"",NA,"",NA
"16","","instructions",15,218916,"0.0-12.0-2.0",NA,500,"30,71,43,57,177,5,211,73,188,208,105,196,167,17,180,74,47,255,184,226,116,113,75,176,126,207,255,105,169,167,246,123",250,"66a3ed3c5d10d0e7d8a6b9da","656e0dab178ffccdaa47202e","66a3ee5c40e54dd1270e7078",1,0,0,"false",1,29,"[{""page_index"":0,""viewing_time"":3895.0999999046326}]",3895.59999990463,"","","","","","",NA,NA,"",NA,NA,NA,NA,NA,NA,"",NA,"",NA
"17","","Guess_leaderboard",16,234806,"0.0-12.0-3.0",NA,500,"30,71,43,57,177,5,211,73,188,208,105,196,167,17,180,74,47,255,184,226,116,113,75,176,126,207,255,105,169,167,246,123",250,"66a3ed3c5d10d0e7d8a6b9da","656e0dab178ffccdaa47202e","66a3ee5c40e54dd1270e7078",1,0,0,"false",1,29,"",NA,"","","","","KENTUCKY","",NA,NA,"",15122.2999999523,60,91,0,89,29,"",NA,"",NA
"18","","instructions",17,249488,"0.0-12.0-0.1",NA,500,"30,71,43,57,177,5,211,73,188,208,105,196,167,17,180,74,47,255,184,226,116,113,75,176,126,207,255,105,169,167,246,123",250,"66a3ed3c5d10d0e7d8a6b9da","656e0dab178ffccdaa47202e","66a3ee5c40e54dd1270e7078",1,0,0,"false",1,29,"[{""page_index"":0,""viewing_time"":14678.599999904633}]",14678.9000000954,"","","","","","",NA,NA,"",NA,NA,NA,NA,NA,NA,"",NA,"",NA
"19","","Hangman_replay",18,302483,"0.0-12.0-1.1",NA,500,"30,71,43,57,177,5,211,73,188,208,105,196,167,17,180,74,47,255,184,226,116,113,75,176,126,207,255,105,169,167,246,123",250,"66a3ed3c5d10d0e7d8a6b9da","656e0dab178ffccdaa47202e","66a3ee5c40e54dd1270e7078",1,0,0,"false",1,29,"",NA,"","","","","FIG","A,E,O,I,S,M,T,H,N,L,R,P,C,G,F",15,3,"false",NA,NA,NA,NA,NA,NA,"",NA,"",NA
"20","","instructions",19,307394,"0.0-12.0-2.1",NA,500,"30,71,43,57,177,5,211,73,188,208,105,196,167,17,180,74,47,255,184,226,116,113,75,176,126,207,255,105,169,167,246,123",250,"66a3ed3c5d10d0e7d8a6b9da","656e0dab178ffccdaa47202e","66a3ee5c40e54dd1270e7078",1,0,0,"false",1,29,"[{""page_index"":0,""viewing_time"":4908.299999952316}]",4909,"","","","","","",NA,NA,"",NA,NA,NA,NA,NA,NA,"",NA,"",NA
"21","","Guess_leaderboard",20,311545,"0.0-12.0-3.1",NA,500,"30,71,43,57,177,5,211,73,188,208,105,196,167,17,180,74,47,255,184,226,116,113,75,176,126,207,255,105,169,167,246,123",250,"66a3ed3c5d10d0e7d8a6b9da","656e0dab178ffccdaa47202e","66a3ee5c40e54dd1270e7078",1,0,0,"false",1,29,"",NA,"","","","","FIG","",NA,NA,"",3385.90000009537,70,60,1,53,17,"",NA,"",NA
"22","","instructions",21,315181,"0.0-12.0-0.2",NA,500,"30,71,43,57,177,5,211,73,188,208,105,196,167,17,180,74,47,255,184,226,116,113,75,176,126,207,255,105,169,167,246,123",250,"66a3ed3c5d10d0e7d8a6b9da","656e0dab178ffccdaa47202e","66a3ee5c40e54dd1270e7078",1,0,0,"false",1,29,"[{""page_index"":0,""viewing_time"":3633}]",3633.09999990463,"","","","","","",NA,NA,"",NA,NA,NA,NA,NA,NA,"",NA,"",NA
"23","","Hangman_replay",22,333068,"0.0-12.0-1.2",NA,500,"30,71,43,57,177,5,211,73,188,208,105,196,167,17,180,74,47,255,184,226,116,113,75,176,126,207,255,105,169,167,246,123",250,"66a3ed3c5d10d0e7d8a6b9da","656e0dab178ffccdaa47202e","66a3ee5c40e54dd1270e7078",1,0,0,"false",1,29,"",NA,"","","","","SHAKIRA","D,V,X,Y,H,G,K,S,T,A,R,I",12,9,"false",NA,NA,NA,NA,NA,NA,"",NA,"",NA
"24","","instructions",23,334858,"0.0-12.0-2.2",NA,500,"30,71,43,57,177,5,211,73,188,208,105,196,167,17,180,74,47,255,184,226,116,113,75,176,126,207,255,105,169,167,246,123",250,"66a3ed3c5d10d0e7d8a6b9da","656e0dab178ffccdaa47202e","66a3ee5c40e54dd1270e7078",1,0,0,"false",1,29,"[{""page_index"":0,""viewing_time"":1787.2999999523163}]",1787.70000004768,"","","","","","",NA,NA,"",NA,NA,NA,NA,NA,NA,"",NA,"",NA
"25","","Guess_leaderboard",24,340107,"0.0-12.0-3.2",NA,500,"30,71,43,57,177,5,211,73,188,208,105,196,167,17,180,74,47,255,184,226,116,113,75,176,126,207,255,105,169,167,246,123",250,"66a3ed3c5d10d0e7d8a6b9da","656e0dab178ffccdaa47202e","66a3ee5c40e54dd1270e7078",1,0,0,"false",1,29,"",NA,"","","","","SHAKIRA","",NA,NA,"",4487.79999995232,48,32,2,90,42,"",NA,"",NA
"26","","instructions",25,342597,"0.0-12.0-0.3",NA,500,"30,71,43,57,177,5,211,73,188,208,105,196,167,17,180,74,47,255,184,226,116,113,75,176,126,207,255,105,169,167,246,123",250,"66a3ed3c5d10d0e7d8a6b9da","656e0dab178ffccdaa47202e","66a3ee5c40e54dd1270e7078",1,0,0,"false",1,29,"[{""page_index"":0,""viewing_time"":2487.5999999046326}]",2487.79999995232,"","","","","","",NA,NA,"",NA,NA,NA,NA,NA,NA,"",NA,"",NA
"27","","Hangman_replay",26,382716,"0.0-12.0-1.3",NA,500,"30,71,43,57,177,5,211,73,188,208,105,196,167,17,180,74,47,255,184,226,116,113,75,176,126,207,255,105,169,167,246,123",250,"66a3ed3c5d10d0e7d8a6b9da","656e0dab178ffccdaa47202e","66a3ee5c40e54dd1270e7078",1,0,0,"false",1,29,"",NA,"","","","","WRIST","N,T,A,E,I,S,W,R",8,12,"false",NA,NA,NA,NA,NA,NA,"",NA,"",NA
"28","","instructions",27,384229,"0.0-12.0-2.3",NA,500,"30,71,43,57,177,5,211,73,188,208,105,196,167,17,180,74,47,255,184,226,116,113,75,176,126,207,255,105,169,167,246,123",250,"66a3ed3c5d10d0e7d8a6b9da","656e0dab178ffccdaa47202e","66a3ee5c40e54dd1270e7078",1,0,0,"false",1,29,"[{""page_index"":0,""viewing_time"":1512.5}]",1512.69999980927,"","","","","","",NA,NA,"",NA,NA,NA,NA,NA,NA,"",NA,"",NA
"29","","Guess_leaderboard",28,388733,"0.0-12.0-3.3",NA,500,"30,71,43,57,177,5,211,73,188,208,105,196,167,17,180,74,47,255,184,226,116,113,75,176,126,207,255,105,169,167,246,123",250,"66a3ed3c5d10d0e7d8a6b9da","656e0dab178ffccdaa47202e","66a3ee5c40e54dd1270e7078",1,0,0,"false",1,29,"",NA,"","","","","WRIST","",NA,NA,"",3733.89999985695,19,35,3,44,25,"",NA,"",NA
"30","","instructions",29,390413,"0.0-12.0-0.4",NA,500,"30,71,43,57,177,5,211,73,188,208,105,196,167,17,180,74,47,255,184,226,116,113,75,176,126,207,255,105,169,167,246,123",250,"66a3ed3c5d10d0e7d8a6b9da","656e0dab178ffccdaa47202e","66a3ee5c40e54dd1270e7078",1,0,0,"false",1,29,"[{""page_index"":0,""viewing_time"":1676.9000000953674}]",1677.10000014305,"","","","","","",NA,NA,"",NA,NA,NA,NA,NA,NA,"",NA,"",NA
"31","","Hangman_replay",30,419973,"0.0-12.0-1.4",NA,500,"30,71,43,57,177,5,211,73,188,208,105,196,167,17,180,74,47,255,184,226,116,113,75,176,126,207,255,105,169,167,246,123",250,"66a3ed3c5d10d0e7d8a6b9da","656e0dab178ffccdaa47202e","66a3ee5c40e54dd1270e7078",1,0,0,"false",1,29,"",NA,"","","","","THIRTY FOUR","E,R,Y,T,H,I,F,O,U",9,14,"false",NA,NA,NA,NA,NA,NA,"",NA,"",NA
"32","","instructions",31,421633,"0.0-12.0-2.4",NA,500,"30,71,43,57,177,5,211,73,188,208,105,196,167,17,180,74,47,255,184,226,116,113,75,176,126,207,255,105,169,167,246,123",250,"66a3ed3c5d10d0e7d8a6b9da","656e0dab178ffccdaa47202e","66a3ee5c40e54dd1270e7078",1,0,0,"false",1,29,"[{""page_index"":0,""viewing_time"":1659.0999999046326}]",1659.39999985695,"","","","","","",NA,NA,"",NA,NA,NA,NA,NA,NA,"",NA,"",NA
"33","","Guess_leaderboard",32,425340,"0.0-12.0-3.4",NA,500,"30,71,43,57,177,5,211,73,188,208,105,196,167,17,180,74,47,255,184,226,116,113,75,176,126,207,255,105,169,167,246,123",250,"66a3ed3c5d10d0e7d8a6b9da","656e0dab178ffccdaa47202e","66a3ee5c40e54dd1270e7078",1,0,0,"false",1,29,"",NA,"","","","","THIRTY FOUR","",NA,NA,"",2948.5,14,53,4,24,10,"",NA,"",NA
"34","","survey-text",33,460642,"0.0-13.0",NA,500,"30,71,43,57,177,5,211,73,188,208,105,196,167,17,180,74,47,255,184,226,116,113,75,176,126,207,255,105,169,167,246,123",250,"66a3ed3c5d10d0e7d8a6b9da","656e0dab178ffccdaa47202e","66a3ee5c40e54dd1270e7078",1,0,0,"false",1,29,"",35295.9000000954,"{""Q0"":""our""}","","","","","",NA,NA,"",NA,NA,NA,NA,NA,NA,"thirty four",NA,"",NA
"35","","survey-multi-choice",34,467910,"0.0-14.0",NA,500,"30,71,43,57,177,5,211,73,188,208,105,196,167,17,180,74,47,255,184,226,116,113,75,176,126,207,255,105,169,167,246,123",250,"66a3ed3c5d10d0e7d8a6b9da","656e0dab178ffccdaa47202e","66a3ee5c40e54dd1270e7078",1,0,0,"false",1,29,"",7264.90000009537,"{""Q0"":""1. I would be <b>first</b> out of the six of us.""}","[0]","","self-rating","","",NA,NA,"",NA,1,NA,NA,NA,NA,"",NA,"",NA
"36","","html-slider-response",35,475774,"0.0-15.0",NA,500,"30,71,43,57,177,5,211,73,188,208,105,196,167,17,180,74,47,255,184,226,116,113,75,176,126,207,255,105,169,167,246,123",250,"66a3ed3c5d10d0e7d8a6b9da","656e0dab178ffccdaa47202e","66a3ee5c40e54dd1270e7078",1,0,0,"false",1,29,"",7860.5,"","","","","","",NA,NA,"",NA,NA,NA,NA,NA,NA,"","29","<p>Overall, how confident were you in your answer to this last question?</p>",29
"37","","survey-text",36,493602,"0.0-16.0",NA,500,"30,71,43,57,177,5,211,73,188,208,105,196,167,17,180,74,47,255,184,226,116,113,75,176,126,207,255,105,169,167,246,123",250,"66a3ed3c5d10d0e7d8a6b9da","656e0dab178ffccdaa47202e","66a3ee5c40e54dd1270e7078",1,0,0,"false",1,29,"",17826,"{""Q0"":""what i'm paying attention to""}","","","","","",NA,NA,"",NA,NA,NA,NA,NA,NA,"",NA,"",NA
"38","","survey-text",37,499634,"0.0-17.0",NA,500,"30,71,43,57,177,5,211,73,188,208,105,196,167,17,180,74,47,255,184,226,116,113,75,176,126,207,255,105,169,167,246,123",250,"66a3ed3c5d10d0e7d8a6b9da","656e0dab178ffccdaa47202e","66a3ee5c40e54dd1270e7078",1,0,0,"false",1,29,"",6028.59999990463,"{""Q0"":""no""}","","","","","",NA,NA,"",NA,NA,NA,NA,NA,NA,"",NA,"",NA
"39","","instructions",38,504097,"0.0-18.0",NA,500,"30,71,43,57,177,5,211,73,188,208,105,196,167,17,180,74,47,255,184,226,116,113,75,176,126,207,255,105,169,167,246,123",250,"66a3ed3c5d10d0e7d8a6b9da","656e0dab178ffccdaa47202e","66a3ee5c40e54dd1270e7078",1,0,0,"false",1,29,"[{""page_index"":0,""viewing_time"":4462.5}]",4462.70000004768,"","","","","","",NA,NA,"",NA,NA,NA,NA,NA,NA,"",NA,"",NA
"40","true","fullscreen",0,31118,"0.0-0.0",NA,501,"30,71,43,57,177,5,211,73,188,208,105,196,167,17,180,74,47,255,184,226,116,113,75,176,126,207,255,105,169,167,246,123",250,"66a3ed3c5d10d0e7d8a6b9da","5d7fec0793bb8600164dd05f","66a3f0acb9a9da7351577b7a",1,0,0,"true",3,65,"",NA,"","","","","","",NA,NA,"",NA,NA,NA,NA,NA,NA,"","","",NA
"41","","instructions",1,34754,"0.0-1.0",NA,501,"30,71,43,57,177,5,211,73,188,208,105,196,167,17,180,74,47,255,184,226,116,113,75,176,126,207,255,105,169,167,246,123",250,"66a3ed3c5d10d0e7d8a6b9da","5d7fec0793bb8600164dd05f","66a3f0acb9a9da7351577b7a",1,0,0,"true",3,65,"[{""page_index"":0,""viewing_time"":3634}]",3634.5,"","","","","","",NA,NA,"",NA,NA,NA,NA,NA,NA,"","","",NA
"42","","instructions",2,52047,"0.0-2.0-0.0",NA,501,"30,71,43,57,177,5,211,73,188,208,105,196,167,17,180,74,47,255,184,226,116,113,75,176,126,207,255,105,169,167,246,123",250,"66a3ed3c5d10d0e7d8a6b9da","5d7fec0793bb8600164dd05f","66a3f0acb9a9da7351577b7a",1,0,0,"true",3,65,"[{""page_index"":0,""viewing_time"":17291.699999809265}]",17292.0999994278,"","","","","","",NA,NA,"",NA,NA,NA,NA,NA,NA,"","","",NA
"43","","survey-multi-choice",3,67314,"0.0-2.0-1.0",NA,501,"30,71,43,57,177,5,211,73,188,208,105,196,167,17,180,74,47,255,184,226,116,113,75,176,126,207,255,105,169,167,246,123",250,"66a3ed3c5d10d0e7d8a6b9da","5d7fec0793bb8600164dd05f","66a3f0acb9a9da7351577b7a",1,0,0,"true",3,65,"",15263.1000003815,"{""Q0"":""... reveal the word with as <b>few letter guesses</b> as possible""}","[0]","true","multichoice_nonpretend","","",NA,NA,"",NA,NA,NA,NA,NA,NA,"","","",NA
"44","","instructions",4,68794,"0.0-3.0",NA,501,"30,71,43,57,177,5,211,73,188,208,105,196,167,17,180,74,47,255,184,226,116,113,75,176,126,207,255,105,169,167,246,123",250,"66a3ed3c5d10d0e7d8a6b9da","5d7fec0793bb8600164dd05f","66a3f0acb9a9da7351577b7a",1,0,0,"true",3,65,"[{""page_index"":0,""viewing_time"":1477.4000005722046}]",1477.80000019073,"","","","","","",NA,NA,"",NA,NA,NA,NA,NA,NA,"","","",NA
"45","","Hangman",5,109032,"0.0-4.0",NA,501,"30,71,43,57,177,5,211,73,188,208,105,196,167,17,180,74,47,255,184,226,116,113,75,176,126,207,255,105,169,167,246,123",250,"66a3ed3c5d10d0e7d8a6b9da","5d7fec0793bb8600164dd05f","66a3f0acb9a9da7351577b7a",1,0,0,"true",3,65,"",NA,"","","","","ZEBRA","T,I,A,N,E,O,C,B,Z,R",10,10,"false",NA,NA,NA,NA,NA,NA,"","","",NA
"46","","instructions",6,131681,"0.0-5.0",NA,501,"30,71,43,57,177,5,211,73,188,208,105,196,167,17,180,74,47,255,184,226,116,113,75,176,126,207,255,105,169,167,246,123",250,"66a3ed3c5d10d0e7d8a6b9da","5d7fec0793bb8600164dd05f","66a3f0acb9a9da7351577b7a",1,0,0,"true",3,65,"[{""page_index"":0,""viewing_time"":2283.5},{""page_index"":1,""viewing_time"":20362.400000572205}]",22647,"","","","","","",NA,NA,"",NA,NA,NA,NA,NA,NA,"","","",NA
"47","","survey-multi-choice",7,158079,"0.0-6.0",NA,501,"30,71,43,57,177,5,211,73,188,208,105,196,167,17,180,74,47,255,184,226,116,113,75,176,126,207,255,105,169,167,246,123",250,"66a3ed3c5d10d0e7d8a6b9da","5d7fec0793bb8600164dd05f","66a3f0acb9a9da7351577b7a",1,0,0,"true",3,65,"",26395.8000001907,"{""Q0"":""...from <b>a previous session</b> that is part of the upcoming tournament.""}","[0]","false","multichoice_leaderboard","","",NA,NA,"",NA,NA,NA,NA,NA,NA,"","","",NA
"48","","instructions",8,159609,"0.0-7.0-0.0",NA,501,"30,71,43,57,177,5,211,73,188,208,105,196,167,17,180,74,47,255,184,226,116,113,75,176,126,207,255,105,169,167,246,123",250,"66a3ed3c5d10d0e7d8a6b9da","5d7fec0793bb8600164dd05f","66a3f0acb9a9da7351577b7a",1,0,0,"true",3,65,"[{""page_index"":0,""viewing_time"":1528.2000007629395}]",1528.5,"","","","","","",NA,NA,"",NA,NA,NA,NA,NA,NA,"","","",NA
"49","","survey-multi-choice",9,161630,"0.0-7.0-1.0",NA,501,"30,71,43,57,177,5,211,73,188,208,105,196,167,17,180,74,47,255,184,226,116,113,75,176,126,207,255,105,169,167,246,123",250,"66a3ed3c5d10d0e7d8a6b9da","5d7fec0793bb8600164dd05f","66a3f0acb9a9da7351577b7a",1,0,0,"true",3,65,"",2019.39999961853,"{""Q0"":""...from <b>a previous session</b> that is not part of the upcoming tournament.""}","[0]","true","multichoice_leaderboard","","",NA,NA,"",NA,NA,NA,NA,NA,NA,"","","",NA
"50","","instructions",10,172557,"0.0-8.0",NA,501,"30,71,43,57,177,5,211,73,188,208,105,196,167,17,180,74,47,255,184,226,116,113,75,176,126,207,255,105,169,167,246,123",250,"66a3ed3c5d10d0e7d8a6b9da","5d7fec0793bb8600164dd05f","66a3f0acb9a9da7351577b7a",1,0,0,"true",3,65,"[{""page_index"":0,""viewing_time"":10925.39999961853}]",10925.6999998093,"","","","","","",NA,NA,"",NA,NA,NA,NA,NA,NA,"","","",NA
"51","","survey-multi-choice",11,179275,"0.0-9.0",NA,501,"30,71,43,57,177,5,211,73,188,208,105,196,167,17,180,74,47,255,184,226,116,113,75,176,126,207,255,105,169,167,246,123",250,"66a3ed3c5d10d0e7d8a6b9da","5d7fec0793bb8600164dd05f","66a3f0acb9a9da7351577b7a",1,0,0,"true",3,65,"",6715.60000038147,"{""Q0"":""...players' leaderboard position (in terms of <b>points</b>) in an <b>upcoming tournament.</b>""}","[0]","true","multichoice_tournament","","",NA,NA,"",NA,NA,NA,NA,NA,NA,"","","",NA
"52","","instructions",12,191276,"0.0-11.0",NA,501,"30,71,43,57,177,5,211,73,188,208,105,196,167,17,180,74,47,255,184,226,116,113,75,176,126,207,255,105,169,167,246,123",250,"66a3ed3c5d10d0e7d8a6b9da","5d7fec0793bb8600164dd05f","66a3f0acb9a9da7351577b7a",1,0,0,"true",3,65,"[{""page_index"":0,""viewing_time"":11999}]",11999.5,"","","","","","",NA,NA,"",NA,NA,NA,NA,NA,NA,"","","",NA
"53","","instructions",13,208238,"0.0-12.0-0.0",NA,501,"30,71,43,57,177,5,211,73,188,208,105,196,167,17,180,74,47,255,184,226,116,113,75,176,126,207,255,105,169,167,246,123",250,"66a3ed3c5d10d0e7d8a6b9da","5d7fec0793bb8600164dd05f","66a3f0acb9a9da7351577b7a",1,0,0,"true",3,65,"[{""page_index"":0,""viewing_time"":16959.900000572205}]",16960.1999998093,"","","","","","",NA,NA,"",NA,NA,NA,NA,NA,NA,"","","",NA
"54","","type-this",14,213897,"0.0-12.0-1.0",NA,501,"30,71,43,57,177,5,211,73,188,208,105,196,167,17,180,74,47,255,184,226,116,113,75,176,126,207,255,105,169,167,246,123",250,"66a3ed3c5d10d0e7d8a6b9da","5d7fec0793bb8600164dd05f","66a3f0acb9a9da7351577b7a",1,0,0,"true",3,65,"",5155.30000019073,"KENTUCKY","","","","","",NA,NA,"",NA,NA,NA,NA,NA,NA,"","KENTUCKY","",NA
"55","","Hangman_replay",15,238267,"0.0-12.0-2.0",NA,501,"30,71,43,57,177,5,211,73,188,208,105,196,167,17,180,74,47,255,184,226,116,113,75,176,126,207,255,105,169,167,246,123",250,"66a3ed3c5d10d0e7d8a6b9da","5d7fec0793bb8600164dd05f","66a3f0acb9a9da7351577b7a",1,0,0,"true",3,65,"",NA,"","","","","KENTUCKY","E,I,A,O,U,M,W,R,G,H,D,B,K,N,T,C,Y",17,5,"false",NA,NA,NA,NA,NA,NA,"","","",NA
"56","","instructions",16,243012,"0.0-12.0-3.0",NA,501,"30,71,43,57,177,5,211,73,188,208,105,196,167,17,180,74,47,255,184,226,116,113,75,176,126,207,255,105,169,167,246,123",250,"66a3ed3c5d10d0e7d8a6b9da","5d7fec0793bb8600164dd05f","66a3f0acb9a9da7351577b7a",1,0,0,"true",3,65,"[{""page_index"":0,""viewing_time"":4742.599999427795}]",4743.89999961853,"","","","","","",NA,NA,"",NA,NA,NA,NA,NA,NA,"","","",NA
"57","","Guess_leaderboard",17,249413,"0.0-12.0-4.0",NA,501,"30,71,43,57,177,5,211,73,188,208,105,196,167,17,180,74,47,255,184,226,116,113,75,176,126,207,255,105,169,167,246,123",250,"66a3ed3c5d10d0e7d8a6b9da","5d7fec0793bb8600164dd05f","66a3f0acb9a9da7351577b7a",1,0,0,"true",3,65,"",NA,"","","","","KENTUCKY","",NA,NA,"",5630.5999994278,60,91,0,89,29,"","","",NA
"58","","instructions",18,255557,"0.0-12.0-0.1",NA,501,"30,71,43,57,177,5,211,73,188,208,105,196,167,17,180,74,47,255,184,226,116,113,75,176,126,207,255,105,169,167,246,123",250,"66a3ed3c5d10d0e7d8a6b9da","5d7fec0793bb8600164dd05f","66a3f0acb9a9da7351577b7a",1,0,0,"true",3,65,"[{""page_index"":0,""viewing_time"":6141.799999237061}]",6142.29999923706,"","","","","","",NA,NA,"",NA,NA,NA,NA,NA,NA,"","","",NA
"59","","type-this",19,258926,"0.0-12.0-1.1",NA,501,"30,71,43,57,177,5,211,73,188,208,105,196,167,17,180,74,47,255,184,226,116,113,75,176,126,207,255,105,169,167,246,123",250,"66a3ed3c5d10d0e7d8a6b9da","5d7fec0793bb8600164dd05f","66a3f0acb9a9da7351577b7a",1,0,0,"true",3,65,"",2864.5999994278,"FIG","","","","","",NA,NA,"",NA,NA,NA,NA,NA,NA,"","FIG","",NA
"60","","Hangman_replay",20,311882,"0.0-12.0-2.1",NA,501,"30,71,43,57,177,5,211,73,188,208,105,196,167,17,180,74,47,255,184,226,116,113,75,176,126,207,255,105,169,167,246,123",250,"66a3ed3c5d10d0e7d8a6b9da","5d7fec0793bb8600164dd05f","66a3f0acb9a9da7351577b7a",1,0,0,"true",3,65,"",NA,"","","","","FIG","A,E,O,I,S,M,T,H,N,L,R,P,C,G,F",15,3,"false",NA,NA,NA,NA,NA,NA,"","","",NA
"61","","instructions",21,313305,"0.0-12.0-3.1",NA,501,"30,71,43,57,177,5,211,73,188,208,105,196,167,17,180,74,47,255,184,226,116,113,75,176,126,207,255,105,169,167,246,123",250,"66a3ed3c5d10d0e7d8a6b9da","5d7fec0793bb8600164dd05f","66a3f0acb9a9da7351577b7a",1,0,0,"true",3,65,"[{""page_index"":0,""viewing_time"":1420.5999994277954}]",1421.0999994278,"","","","","","",NA,NA,"",NA,NA,NA,NA,NA,NA,"","","",NA
"62","","Guess_leaderboard",22,317412,"0.0-12.0-4.1",NA,501,"30,71,43,57,177,5,211,73,188,208,105,196,167,17,180,74,47,255,184,226,116,113,75,176,126,207,255,105,169,167,246,123",250,"66a3ed3c5d10d0e7d8a6b9da","5d7fec0793bb8600164dd05f","66a3f0acb9a9da7351577b7a",1,0,0,"true",3,65,"",NA,"","","","","FIG","",NA,NA,"",3352.29999923706,40,60,1,53,13,"","","",NA
"63","","instructions",23,323032,"0.0-12.0-0.2",NA,501,"30,71,43,57,177,5,211,73,188,208,105,196,167,17,180,74,47,255,184,226,116,113,75,176,126,207,255,105,169,167,246,123",250,"66a3ed3c5d10d0e7d8a6b9da","5d7fec0793bb8600164dd05f","66a3f0acb9a9da7351577b7a",1,0,0,"true",3,65,"[{""page_index"":0,""viewing_time"":5618.800000190735}]",5619.19999980927,"","","","","","",NA,NA,"",NA,NA,NA,NA,NA,NA,"","","",NA
"64","","type-this",24,328658,"0.0-12.0-1.2",NA,501,"30,71,43,57,177,5,211,73,188,208,105,196,167,17,180,74,47,255,184,226,116,113,75,176,126,207,255,105,169,167,246,123",250,"66a3ed3c5d10d0e7d8a6b9da","5d7fec0793bb8600164dd05f","66a3f0acb9a9da7351577b7a",1,0,0,"true",3,65,"",5122.5,"SHAKIRA","","","","","",NA,NA,"",NA,NA,NA,NA,NA,NA,"","SHAKIRA","",NA
"65","","Hangman_replay",25,346516,"0.0-12.0-2.2",NA,501,"30,71,43,57,177,5,211,73,188,208,105,196,167,17,180,74,47,255,184,226,116,113,75,176,126,207,255,105,169,167,246,123",250,"66a3ed3c5d10d0e7d8a6b9da","5d7fec0793bb8600164dd05f","66a3f0acb9a9da7351577b7a",1,0,0,"true",3,65,"",NA,"","","","","SHAKIRA","D,V,X,Y,H,G,K,S,T,A,R,I",12,9,"false",NA,NA,NA,NA,NA,NA,"","","",NA
"66","","instructions",26,347716,"0.0-12.0-3.2",NA,501,"30,71,43,57,177,5,211,73,188,208,105,196,167,17,180,74,47,255,184,226,116,113,75,176,126,207,255,105,169,167,246,123",250,"66a3ed3c5d10d0e7d8a6b9da","5d7fec0793bb8600164dd05f","66a3f0acb9a9da7351577b7a",1,0,0,"true",3,65,"[{""page_index"":0,""viewing_time"":1198.2999992370605}]",1198.79999923706,"","","","","","",NA,NA,"",NA,NA,NA,NA,NA,NA,"","","",NA
"67","","Guess_leaderboard",27,353028,"0.0-12.0-4.2",NA,501,"30,71,43,57,177,5,211,73,188,208,105,196,167,17,180,74,47,255,184,226,116,113,75,176,126,207,255,105,169,167,246,123",250,"66a3ed3c5d10d0e7d8a6b9da","5d7fec0793bb8600164dd05f","66a3f0acb9a9da7351577b7a",1,0,0,"true",3,65,"",NA,"","","","","SHAKIRA","",NA,NA,"",4543.60000038147,55,32,2,90,35,"","","",NA
"68","","instructions",28,355657,"0.0-12.0-0.3",NA,501,"30,71,43,57,177,5,211,73,188,208,105,196,167,17,180,74,47,255,184,226,116,113,75,176,126,207,255,105,169,167,246,123",250,"66a3ed3c5d10d0e7d8a6b9da","5d7fec0793bb8600164dd05f","66a3f0acb9a9da7351577b7a",1,0,0,"true",3,65,"[{""page_index"":0,""viewing_time"":2627.199999809265}]",2627.80000019073,"","","","","","",NA,NA,"",NA,NA,NA,NA,NA,NA,"","","",NA
"69","","type-this",29,362912,"0.0-12.0-1.3",NA,501,"30,71,43,57,177,5,211,73,188,208,105,196,167,17,180,74,47,255,184,226,116,113,75,176,126,207,255,105,169,167,246,123",250,"66a3ed3c5d10d0e7d8a6b9da","5d7fec0793bb8600164dd05f","66a3f0acb9a9da7351577b7a",1,0,0,"true",3,65,"",6750.39999961853,"WRIST","","","","","",NA,NA,"",NA,NA,NA,NA,NA,NA,"","WRIST","",NA
"70","","Hangman_replay",30,403015,"0.0-12.0-2.3",NA,501,"30,71,43,57,177,5,211,73,188,208,105,196,167,17,180,74,47,255,184,226,116,113,75,176,126,207,255,105,169,167,246,123",250,"66a3ed3c5d10d0e7d8a6b9da","5d7fec0793bb8600164dd05f","66a3f0acb9a9da7351577b7a",1,0,0,"true",3,65,"",NA,"","","","","WRIST","N,T,A,E,I,S,W,R",8,12,"false",NA,NA,NA,NA,NA,NA,"","","",NA
"71","","instructions",31,404016,"0.0-12.0-3.3",NA,501,"30,71,43,57,177,5,211,73,188,208,105,196,167,17,180,74,47,255,184,226,116,113,75,176,126,207,255,105,169,167,246,123",250,"66a3ed3c5d10d0e7d8a6b9da","5d7fec0793bb8600164dd05f","66a3f0acb9a9da7351577b7a",1,0,0,"true",3,65,"[{""page_index"":0,""viewing_time"":999.4000005722046}]",999.5,"","","","","","",NA,NA,"",NA,NA,NA,NA,NA,NA,"","","",NA
"72","","Guess_leaderboard",32,408412,"0.0-12.0-4.3",NA,501,"30,71,43,57,177,5,211,73,188,208,105,196,167,17,180,74,47,255,184,226,116,113,75,176,126,207,255,105,169,167,246,123",250,"66a3ed3c5d10d0e7d8a6b9da","5d7fec0793bb8600164dd05f","66a3f0acb9a9da7351577b7a",1,0,0,"true",3,65,"",NA,"","","","","WRIST","",NA,NA,"",3628,11,35,3,44,33,"","","",NA
"73","","instructions",33,414518,"0.0-12.0-0.4",NA,501,"30,71,43,57,177,5,211,73,188,208,105,196,167,17,180,74,47,255,184,226,116,113,75,176,126,207,255,105,169,167,246,123",250,"66a3ed3c5d10d0e7d8a6b9da","5d7fec0793bb8600164dd05f","66a3f0acb9a9da7351577b7a",1,0,0,"true",3,65,"[{""page_index"":0,""viewing_time"":6103.699999809265}]",6104.10000038147,"","","","","","",NA,NA,"",NA,NA,NA,NA,NA,NA,"","","",NA
"74","","type-this",34,421871,"0.0-12.0-1.4",NA,501,"30,71,43,57,177,5,211,73,188,208,105,196,167,17,180,74,47,255,184,226,116,113,75,176,126,207,255,105,169,167,246,123",250,"66a3ed3c5d10d0e7d8a6b9da","5d7fec0793bb8600164dd05f","66a3f0acb9a9da7351577b7a",1,0,0,"true",3,65,"",6848.70000076294,"THIRTY FOUR","","","","","",NA,NA,"",NA,NA,NA,NA,NA,NA,"","THIRTY FOUR","",NA
"75","","Hangman_replay",35,451431,"0.0-12.0-2.4",NA,501,"30,71,43,57,177,5,211,73,188,208,105,196,167,17,180,74,47,255,184,226,116,113,75,176,126,207,255,105,169,167,246,123",250,"66a3ed3c5d10d0e7d8a6b9da","5d7fec0793bb8600164dd05f","66a3f0acb9a9da7351577b7a",1,0,0,"true",3,65,"",NA,"","","","","THIRTY FOUR","E,R,Y,T,H,I,F,O,U",9,14,"false",NA,NA,NA,NA,NA,NA,"","","",NA
"76","","instructions",36,452403,"0.0-12.0-3.4",NA,501,"30,71,43,57,177,5,211,73,188,208,105,196,167,17,180,74,47,255,184,226,116,113,75,176,126,207,255,105,169,167,246,123",250,"66a3ed3c5d10d0e7d8a6b9da","5d7fec0793bb8600164dd05f","66a3f0acb9a9da7351577b7a",1,0,0,"true",3,65,"[{""page_index"":0,""viewing_time"":970.6999998092651}]",971.099999427795,"","","","","","",NA,NA,"",NA,NA,NA,NA,NA,NA,"","","",NA
"77","","Guess_leaderboard",37,456745,"0.0-12.0-4.4",NA,501,"30,71,43,57,177,5,211,73,188,208,105,196,167,17,180,74,47,255,184,226,116,113,75,176,126,207,255,105,169,167,246,123",250,"66a3ed3c5d10d0e7d8a6b9da","5d7fec0793bb8600164dd05f","66a3f0acb9a9da7351577b7a",1,0,0,"true",3,65,"",NA,"","","","","THIRTY FOUR","",NA,NA,"",3575.30000019073,6,53,4,24,18,"","","",NA
"78","","survey-text",38,461572,"0.0-13.0",NA,501,"30,71,43,57,177,5,211,73,188,208,105,196,167,17,180,74,47,255,184,226,116,113,75,176,126,207,255,105,169,167,246,123",250,"66a3ed3c5d10d0e7d8a6b9da","5d7fec0793bb8600164dd05f","66a3f0acb9a9da7351577b7a",1,0,0,"true",3,65,"",4822.80000019073,"{""Q0"":""THIRTY FOUR""}","","","","","",NA,NA,"",NA,NA,NA,NA,NA,NA,"thirty four","","",NA
"79","","survey-multi-choice",39,468553,"0.0-14.0",NA,501,"30,71,43,57,177,5,211,73,188,208,105,196,167,17,180,74,47,255,184,226,116,113,75,176,126,207,255,105,169,167,246,123",250,"66a3ed3c5d10d0e7d8a6b9da","5d7fec0793bb8600164dd05f","66a3f0acb9a9da7351577b7a",1,0,0,"true",3,65,"",6979,"{""Q0"":""3. I would be <b>third</b> out of the six of us.""}","[0]","","self-rating","","",NA,NA,"",NA,3,NA,NA,NA,NA,"","","",NA
"80","","html-slider-response",40,471548,"0.0-15.0",NA,501,"30,71,43,57,177,5,211,73,188,208,105,196,167,17,180,74,47,255,184,226,116,113,75,176,126,207,255,105,169,167,246,123",250,"66a3ed3c5d10d0e7d8a6b9da","5d7fec0793bb8600164dd05f","66a3f0acb9a9da7351577b7a",1,0,0,"true",3,65,"",2992.5,"","","","","","",NA,NA,"",NA,NA,NA,NA,NA,NA,"","65","<p>Overall, how confident were you in your answer to this last question?</p>",65
"81","","survey-text",41,504157,"0.0-16.0",NA,501,"30,71,43,57,177,5,211,73,188,208,105,196,167,17,180,74,47,255,184,226,116,113,75,176,126,207,255,105,169,167,246,123",250,"66a3ed3c5d10d0e7d8a6b9da","5d7fec0793bb8600164dd05f","66a3f0acb9a9da7351577b7a",1,0,0,"true",3,65,"",32605.1000003815,"{""Q0"":""Our perception of strategy vs speed vs actual results for one round (points)""}","","","","","",NA,NA,"",NA,NA,NA,NA,NA,NA,"","","",NA
"82","","survey-text",42,505423,"0.0-17.0",NA,501,"30,71,43,57,177,5,211,73,188,208,105,196,167,17,180,74,47,255,184,226,116,113,75,176,126,207,255,105,169,167,246,123",250,"66a3ed3c5d10d0e7d8a6b9da","5d7fec0793bb8600164dd05f","66a3f0acb9a9da7351577b7a",1,0,0,"true",3,65,"",1264.29999923706,"{""Q0"":""""}","","","","","",NA,NA,"",NA,NA,NA,NA,NA,NA,"","","",NA
"83","","instructions",43,511219,"0.0-18.0",NA,501,"30,71,43,57,177,5,211,73,188,208,105,196,167,17,180,74,47,255,184,226,116,113,75,176,126,207,255,105,169,167,246,123",250,"66a3ed3c5d10d0e7d8a6b9da","5d7fec0793bb8600164dd05f","66a3f0acb9a9da7351577b7a",1,0,0,"true",3,65,"[{""page_index"":0,""viewing_time"":5795}]",5795.39999961853,"","","","","","",NA,NA,"",NA,NA,NA,NA,NA,NA,"","","",NA
"84","true","fullscreen",0,2564,"0.0-0.0",NA,502,"199,93,63,31,91,205,105,20,208,51,28,229,236,23,192,219,143,32,112,162,212,40,95,142,63,241,28,108,161,145,104,255",251,"66a3ed3c5d10d0e7d8a6b9da","61004e962509f21ce295df3d","66a3f2f88500773057c304f5",1,1,0,"false",3,79,"",NA,"","","","","","",NA,NA,"",NA,NA,NA,NA,NA,NA,"",NA,"",NA
"85","","instructions",1,7447,"0.0-1.0",NA,502,"199,93,63,31,91,205,105,20,208,51,28,229,236,23,192,219,143,32,112,162,212,40,95,142,63,241,28,108,161,145,104,255",251,"66a3ed3c5d10d0e7d8a6b9da","61004e962509f21ce295df3d","66a3f2f88500773057c304f5",1,1,0,"false",3,79,"[{""page_index"":0,""viewing_time"":4882.599999904633}]",4882.69999980927,"","","","","","",NA,NA,"",NA,NA,NA,NA,NA,NA,"",NA,"",NA
"86","","instructions",2,38079,"0.0-2.0-0.0",NA,502,"199,93,63,31,91,205,105,20,208,51,28,229,236,23,192,219,143,32,112,162,212,40,95,142,63,241,28,108,161,145,104,255",251,"66a3ed3c5d10d0e7d8a6b9da","61004e962509f21ce295df3d","66a3f2f88500773057c304f5",1,1,0,"false",3,79,"[{""page_index"":0,""viewing_time"":30630.900000095367}]",30631.2000000477,"","","","","","",NA,NA,"",NA,NA,NA,NA,NA,NA,"",NA,"",NA
"87","","survey-multi-choice",3,43937,"0.0-2.0-1.0",NA,502,"199,93,63,31,91,205,105,20,208,51,28,229,236,23,192,219,143,32,112,162,212,40,95,142,63,241,28,108,161,145,104,255",251,"66a3ed3c5d10d0e7d8a6b9da","61004e962509f21ce295df3d","66a3f2f88500773057c304f5",1,1,0,"false",3,79,"",5857.20000004768,"{""Q0"":""... reveal the word with as <b>few letter guesses</b> as possible""}","[0]","true","multichoice_nonpretend","","",NA,NA,"",NA,NA,NA,NA,NA,NA,"",NA,"",NA
"88","","instructions",4,44795,"0.0-3.0",NA,502,"199,93,63,31,91,205,105,20,208,51,28,229,236,23,192,219,143,32,112,162,212,40,95,142,63,241,28,108,161,145,104,255",251,"66a3ed3c5d10d0e7d8a6b9da","61004e962509f21ce295df3d","66a3f2f88500773057c304f5",1,1,0,"false",3,79,"[{""page_index"":0,""viewing_time"":857.0999999046326}]",857.299999952316,"","","","","","",NA,NA,"",NA,NA,NA,NA,NA,NA,"",NA,"",NA
"89","","Hangman",5,139105,"0.0-4.0",NA,502,"199,93,63,31,91,205,105,20,208,51,28,229,236,23,192,219,143,32,112,162,212,40,95,142,63,241,28,108,161,145,104,255",251,"66a3ed3c5d10d0e7d8a6b9da","61004e962509f21ce295df3d","66a3f2f88500773057c304f5",1,1,0,"false",3,79,"",NA,"","","","","ZEBRA","E,S,N,R,A,Z,B",7,13,"false",NA,NA,NA,NA,NA,NA,"",NA,"",NA
"90","","instructions",6,159810,"0.0-5.0",NA,502,"199,93,63,31,91,205,105,20,208,51,28,229,236,23,192,219,143,32,112,162,212,40,95,142,63,241,28,108,161,145,104,255",251,"66a3ed3c5d10d0e7d8a6b9da","61004e962509f21ce295df3d","66a3f2f88500773057c304f5",1,1,0,"false",3,79,"[{""page_index"":0,""viewing_time"":4292},{""page_index"":1,""viewing_time"":16411.299999952316}]",20703.7000000477,"","","","","","",NA,NA,"",NA,NA,NA,NA,NA,NA,"",NA,"",NA
"91","","survey-multi-choice",7,165572,"0.0-6.0",NA,502,"199,93,63,31,91,205,105,20,208,51,28,229,236,23,192,219,143,32,112,162,212,40,95,142,63,241,28,108,161,145,104,255",251,"66a3ed3c5d10d0e7d8a6b9da","61004e962509f21ce295df3d","66a3f2f88500773057c304f5",1,1,0,"false",3,79,"",5760.70000004768,"{""Q0"":""""}","[0]","false","multichoice_leaderboard","","",NA,NA,"",NA,NA,NA,NA,NA,NA,"",NA,"",NA
"92","","instructions",8,167766,"0.0-7.0-0.0",NA,502,"199,93,63,31,91,205,105,20,208,51,28,229,236,23,192,219,143,32,112,162,212,40,95,142,63,241,28,108,161,145,104,255",251,"66a3ed3c5d10d0e7d8a6b9da","61004e962509f21ce295df3d","66a3f2f88500773057c304f5",1,1,0,"false",3,79,"[{""page_index"":0,""viewing_time"":2193.5}]",2193.69999980927,"","","","","","",NA,NA,"",NA,NA,NA,NA,NA,NA,"",NA,"",NA
"93","","survey-multi-choice",9,177728,"0.0-7.0-1.0",NA,502,"199,93,63,31,91,205,105,20,208,51,28,229,236,23,192,219,143,32,112,162,212,40,95,142,63,241,28,108,161,145,104,255",251,"66a3ed3c5d10d0e7d8a6b9da","61004e962509f21ce295df3d","66a3f2f88500773057c304f5",1,1,0,"false",3,79,"",9961.59999990463,"{""Q0"":""...from <b>a previous session</b> that is not part of the upcoming tournament.""}","[0]","true","multichoice_leaderboard","","",NA,NA,"",NA,NA,NA,NA,NA,NA,"",NA,"",NA
"94","","instructions",10,181715,"0.0-8.0",NA,502,"199,93,63,31,91,205,105,20,208,51,28,229,236,23,192,219,143,32,112,162,212,40,95,142,63,241,28,108,161,145,104,255",251,"66a3ed3c5d10d0e7d8a6b9da","61004e962509f21ce295df3d","66a3f2f88500773057c304f5",1,1,0,"false",3,79,"[{""page_index"":0,""viewing_time"":3985.7999999523163}]",3985.89999985695,"","","","","","",NA,NA,"",NA,NA,NA,NA,NA,NA,"",NA,"",NA
"95","","survey-multi-choice",11,194374,"0.0-9.0",NA,502,"199,93,63,31,91,205,105,20,208,51,28,229,236,23,192,219,143,32,112,162,212,40,95,142,63,241,28,108,161,145,104,255",251,"66a3ed3c5d10d0e7d8a6b9da","61004e962509f21ce295df3d","66a3f2f88500773057c304f5",1,1,0,"false",3,79,"",12658.7999999523,"{""Q0"":""...how well players did (in terms of <b>points</b>) in <b>previous games.</b>""}","[0]","false","multichoice_tournament","","",NA,NA,"",NA,NA,NA,NA,NA,NA,"",NA,"",NA
"96","","instructions",12,199978,"0.0-10.0-0.0",NA,502,"199,93,63,31,91,205,105,20,208,51,28,229,236,23,192,219,143,32,112,162,212,40,95,142,63,241,28,108,161,145,104,255",251,"66a3ed3c5d10d0e7d8a6b9da","61004e962509f21ce295df3d","66a3f2f88500773057c304f5",1,1,0,"false",3,79,"[{""page_index"":0,""viewing_time"":5603.400000095367}]",5603.70000004768,"","","","","","",NA,NA,"",NA,NA,NA,NA,NA,NA,"",NA,"",NA
"97","","survey-multi-choice",13,207190,"0.0-10.0-1.0",NA,502,"199,93,63,31,91,205,105,20,208,51,28,229,236,23,192,219,143,32,112,162,212,40,95,142,63,241,28,108,161,145,104,255",251,"66a3ed3c5d10d0e7d8a6b9da","61004e962509f21ce295df3d","66a3f2f88500773057c304f5",1,1,0,"false",3,79,"",7211.20000004768,"{""Q0"":""...players' leaderboard position (in terms of <b>points</b>) in an <b>upcoming tournament.</b>""}","[0]","true","multichoice_tournament","","",NA,NA,"",NA,NA,NA,NA,NA,NA,"",NA,"",NA
"98","","instructions",14,218501,"0.0-11.0",NA,502,"199,93,63,31,91,205,105,20,208,51,28,229,236,23,192,219,143,32,112,162,212,40,95,142,63,241,28,108,161,145,104,255",251,"66a3ed3c5d10d0e7d8a6b9da","61004e962509f21ce295df3d","66a3f2f88500773057c304f5",1,1,0,"false",3,79,"[{""page_index"":0,""viewing_time"":11310.5}]",11310.7000000477,"","","","","","",NA,NA,"",NA,NA,NA,NA,NA,NA,"",NA,"",NA
"99","","instructions",15,227792,"0.0-12.0-0.0",NA,502,"199,93,63,31,91,205,105,20,208,51,28,229,236,23,192,219,143,32,112,162,212,40,95,142,63,241,28,108,161,145,104,255",251,"66a3ed3c5d10d0e7d8a6b9da","61004e962509f21ce295df3d","66a3f2f88500773057c304f5",1,1,0,"false",3,79,"[{""page_index"":0,""viewing_time"":9290.100000143051}]",9290.20000004768,"","","","","","",NA,NA,"",NA,NA,NA,NA,NA,NA,"",NA,"",NA
"100","","Hangman_replay",16,264473,"0.0-12.0-1.0",NA,502,"199,93,63,31,91,205,105,20,208,51,28,229,236,23,192,219,143,32,112,162,212,40,95,142,63,241,28,108,161,145,104,255",251,"66a3ed3c5d10d0e7d8a6b9da","61004e962509f21ce295df3d","66a3f2f88500773057c304f5",1,1,0,"false",3,79,"",NA,"","","","","THIRTY FOUR","E,I,H,T,Y,R,F,O,U",9,14,"false",NA,NA,NA,NA,NA,NA,"",NA,"",NA
"101","","instructions",17,273196,"0.0-12.0-2.0",NA,502,"199,93,63,31,91,205,105,20,208,51,28,229,236,23,192,219,143,32,112,162,212,40,95,142,63,241,28,108,161,145,104,255",251,"66a3ed3c5d10d0e7d8a6b9da","61004e962509f21ce295df3d","66a3f2f88500773057c304f5",1,1,0,"false",3,79,"[{""page_index"":0,""viewing_time"":8720.700000047684}]",8721.09999990463,"","","","","","",NA,NA,"",NA,NA,NA,NA,NA,NA,"",NA,"",NA
"102","","Guess_leaderboard",18,280069,"0.0-12.0-3.0",NA,502,"199,93,63,31,91,205,105,20,208,51,28,229,236,23,192,219,143,32,112,162,212,40,95,142,63,241,28,108,161,145,104,255",251,"66a3ed3c5d10d0e7d8a6b9da","61004e962509f21ce295df3d","66a3f2f88500773057c304f5",1,1,0,"false",3,79,"",NA,"","","","","THIRTY FOUR","",NA,NA,"",6103.09999990463,41,70,0,37,4,"",NA,"",NA
"103","","instructions",19,283352,"0.0-12.0-0.1",NA,502,"199,93,63,31,91,205,105,20,208,51,28,229,236,23,192,219,143,32,112,162,212,40,95,142,63,241,28,108,161,145,104,255",251,"66a3ed3c5d10d0e7d8a6b9da","61004e962509f21ce295df3d","66a3f2f88500773057c304f5",1,1,0,"false",3,79,"[{""page_index"":0,""viewing_time"":3282.300000190735}]",3282.5,"","","","","","",NA,NA,"",NA,NA,NA,NA,NA,NA,"",NA,"",NA
"104","","Hangman_replay",20,318687,"0.0-12.0-1.1",NA,502,"199,93,63,31,91,205,105,20,208,51,28,229,236,23,192,219,143,32,112,162,212,40,95,142,63,241,28,108,161,145,104,255",251,"66a3ed3c5d10d0e7d8a6b9da","61004e962509f21ce295df3d","66a3f2f88500773057c304f5",1,1,0,"false",3,79,"",NA,"","","","","THUMB","E,A,I,O,U,C,B,T,H,M",10,10,"false",NA,NA,NA,NA,NA,NA,"",NA,"",NA
"105","","instructions",21,319646,"0.0-12.0-2.1",NA,502,"199,93,63,31,91,205,105,20,208,51,28,229,236,23,192,219,143,32,112,162,212,40,95,142,63,241,28,108,161,145,104,255",251,"66a3ed3c5d10d0e7d8a6b9da","61004e962509f21ce295df3d","66a3f2f88500773057c304f5",1,1,0,"false",3,79,"[{""page_index"":0,""viewing_time"":958.2999999523163}]",958.5,"","","","","","",NA,NA,"",NA,NA,NA,NA,NA,NA,"",NA,"",NA
"106","","Guess_leaderboard",22,322334,"0.0-12.0-3.1",NA,502,"199,93,63,31,91,205,105,20,208,51,28,229,236,23,192,219,143,32,112,162,212,40,95,142,63,241,28,108,161,145,104,255",251,"66a3ed3c5d10d0e7d8a6b9da","61004e962509f21ce295df3d","66a3f2f88500773057c304f5",1,1,0,"false",3,79,"",NA,"","","","","THUMB","",NA,NA,"",1923.29999995232,77,95,1,67,10,"",NA,"",NA
"107","","instructions",23,328762,"0.0-12.0-0.2",NA,502,"199,93,63,31,91,205,105,20,208,51,28,229,236,23,192,219,143,32,112,162,212,40,95,142,63,241,28,108,161,145,104,255",251,"66a3ed3c5d10d0e7d8a6b9da","61004e962509f21ce295df3d","66a3f2f88500773057c304f5",1,1,0,"false",3,79,"[{""page_index"":0,""viewing_time"":6426.899999856949}]",6427,"","","","","","",NA,NA,"",NA,NA,NA,NA,NA,NA,"",NA,"",NA
"108","","Hangman_replay",24,383718,"0.0-12.0-1.2",NA,502,"199,93,63,31,91,205,105,20,208,51,28,229,236,23,192,219,143,32,112,162,212,40,95,142,63,241,28,108,161,145,104,255",251,"66a3ed3c5d10d0e7d8a6b9da","61004e962509f21ce295df3d","66a3f2f88500773057c304f5",1,1,0,"false",3,79,"",NA,"","","","","HAWAII","K,A,H,W,I",5,14,"false",NA,NA,NA,NA,NA,NA,"",NA,"",NA
"109","","instructions",25,384738,"0.0-12.0-2.2",NA,502,"199,93,63,31,91,205,105,20,208,51,28,229,236,23,192,219,143,32,112,162,212,40,95,142,63,241,28,108,161,145,104,255",251,"66a3ed3c5d10d0e7d8a6b9da","61004e962509f21ce295df3d","66a3f2f88500773057c304f5",1,1,0,"false",3,79,"[{""page_index"":0,""viewing_time"":1019.5}]",1019.59999990463,"","","","","","",NA,NA,"",NA,NA,NA,NA,NA,NA,"",NA,"",NA
"110","","Guess_leaderboard",26,387248,"0.0-12.0-3.2",NA,502,"199,93,63,31,91,205,105,20,208,51,28,229,236,23,192,219,143,32,112,162,212,40,95,142,63,241,28,108,161,145,104,255",251,"66a3ed3c5d10d0e7d8a6b9da","61004e962509f21ce295df3d","66a3f2f88500773057c304f5",1,1,0,"false",3,79,"",NA,"","","","","HAWAII","",NA,NA,"",1757.90000009537,52,27,2,56,4,"",NA,"",NA
"111","","instructions",27,388122,"0.0-12.0-0.3",NA,502,"199,93,63,31,91,205,105,20,208,51,28,229,236,23,192,219,143,32,112,162,212,40,95,142,63,241,28,108,161,145,104,255",251,"66a3ed3c5d10d0e7d8a6b9da","61004e962509f21ce295df3d","66a3f2f88500773057c304f5",1,1,0,"false",3,79,"[{""page_index"":0,""viewing_time"":873.2999999523163}]",873.399999856949,"","","","","","",NA,NA,"",NA,NA,NA,NA,NA,NA,"",NA,"",NA
"112","","Hangman_replay",28,413233,"0.0-12.0-1.3",NA,502,"199,93,63,31,91,205,105,20,208,51,28,229,236,23,192,219,143,32,112,162,212,40,95,142,63,241,28,108,161,145,104,255",251,"66a3ed3c5d10d0e7d8a6b9da","61004e962509f21ce295df3d","66a3f2f88500773057c304f5",1,1,0,"false",3,79,"",NA,"","","","","USAIN BOLT","E,A,O,U,M,S,I,N,B,L,T",11,13,"false",NA,NA,NA,NA,NA,NA,"",NA,"",NA
"113","","instructions",29,414249,"0.0-12.0-2.3",NA,502,"199,93,63,31,91,205,105,20,208,51,28,229,236,23,192,219,143,32,112,162,212,40,95,142,63,241,28,108,161,145,104,255",251,"66a3ed3c5d10d0e7d8a6b9da","61004e962509f21ce295df3d","66a3f2f88500773057c304f5",1,1,0,"false",3,79,"[{""page_index"":0,""viewing_time"":1015.4000000953674}]",1015.5,"","","","","","",NA,NA,"",NA,NA,NA,NA,NA,NA,"",NA,"",NA
"114","","Guess_leaderboard",30,416948,"0.0-12.0-3.3",NA,502,"199,93,63,31,91,205,105,20,208,51,28,229,236,23,192,219,143,32,112,162,212,40,95,142,63,241,28,108,161,145,104,255",251,"66a3ed3c5d10d0e7d8a6b9da","61004e962509f21ce295df3d","66a3f2f88500773057c304f5",1,1,0,"false",3,79,"",NA,"","","","","USAIN BOLT","",NA,NA,"",1941.09999990463,40,12,3,71,31,"",NA,"",NA
"115","","instructions",31,418841,"0.0-12.0-0.4",NA,502,"199,93,63,31,91,205,105,20,208,51,28,229,236,23,192,219,143,32,112,162,212,40,95,142,63,241,28,108,161,145,104,255",251,"66a3ed3c5d10d0e7d8a6b9da","61004e962509f21ce295df3d","66a3f2f88500773057c304f5",1,1,0,"false",3,79,"[{""page_index"":0,""viewing_time"":1892.2999999523163}]",1892.39999985695,"","","","","","",NA,NA,"",NA,NA,NA,NA,NA,NA,"",NA,"",NA
"116","","Hangman_replay",32,461665,"0.0-12.0-1.4",NA,502,"199,93,63,31,91,205,105,20,208,51,28,229,236,23,192,219,143,32,112,162,212,40,95,142,63,241,28,108,161,145,104,255",251,"66a3ed3c5d10d0e7d8a6b9da","61004e962509f21ce295df3d","66a3f2f88500773057c304f5",1,1,0,"false",3,79,"",NA,"","","","","NECTARINE","A,I,D,T,S,N,M,L,K,J,O,P,Q,R,U,E,C",17,5,"false",NA,NA,NA,NA,NA,NA,"",NA,"",NA
"117","","instructions",33,463246,"0.0-12.0-2.4",NA,502,"199,93,63,31,91,205,105,20,208,51,28,229,236,23,192,219,143,32,112,162,212,40,95,142,63,241,28,108,161,145,104,255",251,"66a3ed3c5d10d0e7d8a6b9da","61004e962509f21ce295df3d","66a3f2f88500773057c304f5",1,1,0,"false",3,79,"[{""page_index"":0,""viewing_time"":1580.5999999046326}]",1580.79999995232,"","","","","","",NA,NA,"",NA,NA,NA,NA,NA,NA,"",NA,"",NA
"118","","Guess_leaderboard",34,466213,"0.0-12.0-3.4",NA,502,"199,93,63,31,91,205,105,20,208,51,28,229,236,23,192,219,143,32,112,162,212,40,95,142,63,241,28,108,161,145,104,255",251,"66a3ed3c5d10d0e7d8a6b9da","61004e962509f21ce295df3d","66a3f2f88500773057c304f5",1,1,0,"false",3,79,"",NA,"","","","","NECTARINE","",NA,NA,"",2213.70000004768,91,49,4,46,45,"",NA,"",NA
"119","","survey-text",35,483751,"0.0-13.0",NA,502,"199,93,63,31,91,205,105,20,208,51,28,229,236,23,192,219,143,32,112,162,212,40,95,142,63,241,28,108,161,145,104,255",251,"66a3ed3c5d10d0e7d8a6b9da","61004e962509f21ce295df3d","66a3f2f88500773057c304f5",1,1,0,"false",3,79,"",17533.8000001907,"{""Q0"":""nectarine""}","","","","","",NA,NA,"",NA,NA,NA,NA,NA,NA,"nectarine",NA,"",NA
"120","","survey-multi-choice",36,491327,"0.0-14.0",NA,502,"199,93,63,31,91,205,105,20,208,51,28,229,236,23,192,219,143,32,112,162,212,40,95,142,63,241,28,108,161,145,104,255",251,"66a3ed3c5d10d0e7d8a6b9da","61004e962509f21ce295df3d","66a3f2f88500773057c304f5",1,1,0,"false",3,79,"",7575.39999985695,"{""Q0"":""3. I would be <b>third</b> out of the six of us.""}","[0]","","self-rating","","",NA,NA,"",NA,3,NA,NA,NA,NA,"",NA,"",NA
"121","","html-slider-response",37,494363,"0.0-15.0",NA,502,"199,93,63,31,91,205,105,20,208,51,28,229,236,23,192,219,143,32,112,162,212,40,95,142,63,241,28,108,161,145,104,255",251,"66a3ed3c5d10d0e7d8a6b9da","61004e962509f21ce295df3d","66a3f2f88500773057c304f5",1,1,0,"false",3,79,"",3035,"","","","","","",NA,NA,"",NA,NA,NA,NA,NA,NA,"","79","<p>Overall, how confident were you in your answer to this last question?</p>",79
"122","","survey-text",38,562814,"0.0-16.0",NA,502,"199,93,63,31,91,205,105,20,208,51,28,229,236,23,192,219,143,32,112,162,212,40,95,142,63,241,28,108,161,145,104,255",251,"66a3ed3c5d10d0e7d8a6b9da","61004e962509f21ce295df3d","66a3f2f88500773057c304f5",1,1,0,"false",3,79,"",68449.5999999046,"{""Q0"":""Maybe to see how people behave when they are unable to figure out words. Such as just giving up and pressing random letters until they find something or actually trying to calculate the best way to approach it.""}","","","","","",NA,NA,"",NA,NA,NA,NA,NA,NA,"",NA,"",NA
"123","","survey-text",39,567704,"0.0-17.0",NA,502,"199,93,63,31,91,205,105,20,208,51,28,229,236,23,192,219,143,32,112,162,212,40,95,142,63,241,28,108,161,145,104,255",251,"66a3ed3c5d10d0e7d8a6b9da","61004e962509f21ce295df3d","66a3f2f88500773057c304f5",1,1,0,"false",3,79,"",4888.69999980927,"{""Q0"":""n/a""}","","","","","",NA,NA,"",NA,NA,NA,NA,NA,NA,"",NA,"",NA
"124","","instructions",40,573236,"0.0-18.0",NA,502,"199,93,63,31,91,205,105,20,208,51,28,229,236,23,192,219,143,32,112,162,212,40,95,142,63,241,28,108,161,145,104,255",251,"66a3ed3c5d10d0e7d8a6b9da","61004e962509f21ce295df3d","66a3f2f88500773057c304f5",1,1,0,"false",3,79,"[{""page_index"":0,""viewing_time"":5531.799999952316}]",5532,"","","","","","",NA,NA,"",NA,NA,NA,NA,NA,NA,"",NA,"",NA
"125","true","fullscreen",0,3817,"0.0-0.0",NA,503,"199,93,63,31,91,205,105,20,208,51,28,229,236,23,192,219,143,32,112,162,212,40,95,142,63,241,28,108,161,145,104,255",251,"66a3ed3c5d10d0e7d8a6b9da","5bac1d9dc1155b0001175e55","66a3f565bacbb4c2013c8b2b",1,0,0,"true",2,100,"",NA,"","","","","","",NA,NA,"",NA,NA,NA,NA,NA,NA,"","","",NA
"126","","instructions",1,8747,"0.0-1.0",NA,503,"199,93,63,31,91,205,105,20,208,51,28,229,236,23,192,219,143,32,112,162,212,40,95,142,63,241,28,108,161,145,104,255",251,"66a3ed3c5d10d0e7d8a6b9da","5bac1d9dc1155b0001175e55","66a3f565bacbb4c2013c8b2b",1,0,0,"true",2,100,"[{""page_index"":0,""viewing_time"":4928.5}]",4929,"","","","","","",NA,NA,"",NA,NA,NA,NA,NA,NA,"","","",NA
"127","","instructions",2,29140,"0.0-2.0-0.0",NA,503,"199,93,63,31,91,205,105,20,208,51,28,229,236,23,192,219,143,32,112,162,212,40,95,142,63,241,28,108,161,145,104,255",251,"66a3ed3c5d10d0e7d8a6b9da","5bac1d9dc1155b0001175e55","66a3f565bacbb4c2013c8b2b",1,0,0,"true",2,100,"[{""page_index"":0,""viewing_time"":20389.89999999851}]",20390.700000003,"","","","","","",NA,NA,"",NA,NA,NA,NA,NA,NA,"","","",NA
"128","","survey-multi-choice",3,37451,"0.0-2.0-1.0",NA,503,"199,93,63,31,91,205,105,20,208,51,28,229,236,23,192,219,143,32,112,162,212,40,95,142,63,241,28,108,161,145,104,255",251,"66a3ed3c5d10d0e7d8a6b9da","5bac1d9dc1155b0001175e55","66a3f565bacbb4c2013c8b2b",1,0,0,"true",2,100,"",8308.60000000149,"{""Q0"":""... reveal the word with as <b>few letter guesses</b> as possible""}","[0]","true","multichoice_nonpretend","","",NA,NA,"",NA,NA,NA,NA,NA,NA,"","","",NA
"129","","instructions",4,39467,"0.0-3.0",NA,503,"199,93,63,31,91,205,105,20,208,51,28,229,236,23,192,219,143,32,112,162,212,40,95,142,63,241,28,108,161,145,104,255",251,"66a3ed3c5d10d0e7d8a6b9da","5bac1d9dc1155b0001175e55","66a3f565bacbb4c2013c8b2b",1,0,0,"true",2,100,"[{""page_index"":0,""viewing_time"":2013.0999999940395}]",2013.89999999851,"","","","","","",NA,NA,"",NA,NA,NA,NA,NA,NA,"","","",NA
"130","","Hangman",5,64367,"0.0-4.0",NA,503,"199,93,63,31,91,205,105,20,208,51,28,229,236,23,192,219,143,32,112,162,212,40,95,142,63,241,28,108,161,145,104,255",251,"66a3ed3c5d10d0e7d8a6b9da","5bac1d9dc1155b0001175e55","66a3f565bacbb4c2013c8b2b",1,0,0,"true",2,100,"",NA,"","","","","ZEBRA","E,A,R,Z,B",5,15,"false",NA,NA,NA,NA,NA,NA,"","","",NA
"131","","instructions",6,81931,"0.0-5.0",NA,503,"199,93,63,31,91,205,105,20,208,51,28,229,236,23,192,219,143,32,112,162,212,40,95,142,63,241,28,108,161,145,104,255",251,"66a3ed3c5d10d0e7d8a6b9da","5bac1d9dc1155b0001175e55","66a3f565bacbb4c2013c8b2b",1,0,0,"true",2,100,"[{""page_index"":0,""viewing_time"":3367.9000000059605},{""page_index"":1,""viewing_time"":14191.09999999404}]",17560.200000003,"","","","","","",NA,NA,"",NA,NA,NA,NA,NA,NA,"","","",NA
"132","","survey-multi-choice",7,96140,"0.0-6.0",NA,503,"199,93,63,31,91,205,105,20,208,51,28,229,236,23,192,219,143,32,112,162,212,40,95,142,63,241,28,108,161,145,104,255",251,"66a3ed3c5d10d0e7d8a6b9da","5bac1d9dc1155b0001175e55","66a3f565bacbb4c2013c8b2b",1,0,0,"true",2,100,"",14205.200000003,"{""Q0"":""...from <b>a previous session</b> that is part of the upcoming tournament.""}","[0]","false","multichoice_leaderboard","","",NA,NA,"",NA,NA,NA,NA,NA,NA,"","","",NA
"133","","instructions",8,97938,"0.0-7.0-0.0",NA,503,"199,93,63,31,91,205,105,20,208,51,28,229,236,23,192,219,143,32,112,162,212,40,95,142,63,241,28,108,161,145,104,255",251,"66a3ed3c5d10d0e7d8a6b9da","5bac1d9dc1155b0001175e55","66a3f565bacbb4c2013c8b2b",1,0,0,"true",2,100,"[{""page_index"":0,""viewing_time"":1796.8000000044703}]",1797.20000000298,"","","","","","",NA,NA,"",NA,NA,NA,NA,NA,NA,"","","",NA
"134","","survey-multi-choice",9,103450,"0.0-7.0-1.0",NA,503,"199,93,63,31,91,205,105,20,208,51,28,229,236,23,192,219,143,32,112,162,212,40,95,142,63,241,28,108,161,145,104,255",251,"66a3ed3c5d10d0e7d8a6b9da","5bac1d9dc1155b0001175e55","66a3f565bacbb4c2013c8b2b",1,0,0,"true",2,100,"",5508.39999999851,"{""Q0"":""...from <b>a previous session</b> that is not part of the upcoming tournament.""}","[0]","true","multichoice_leaderboard","","",NA,NA,"",NA,NA,NA,NA,NA,NA,"","","",NA
"135","","instructions",10,121394,"0.0-8.0",NA,503,"199,93,63,31,91,205,105,20,208,51,28,229,236,23,192,219,143,32,112,162,212,40,95,142,63,241,28,108,161,145,104,255",251,"66a3ed3c5d10d0e7d8a6b9da","5bac1d9dc1155b0001175e55","66a3f565bacbb4c2013c8b2b",1,0,0,"true",2,100,"[{""page_index"":0,""viewing_time"":17941}]",17941.3999999985,"","","","","","",NA,NA,"",NA,NA,NA,NA,NA,NA,"","","",NA
"136","","survey-multi-choice",11,133551,"0.0-9.0",NA,503,"199,93,63,31,91,205,105,20,208,51,28,229,236,23,192,219,143,32,112,162,212,40,95,142,63,241,28,108,161,145,104,255",251,"66a3ed3c5d10d0e7d8a6b9da","5bac1d9dc1155b0001175e55","66a3f565bacbb4c2013c8b2b",1,0,0,"true",2,100,"",12154.3000000045,"{""Q0"":""...players' leaderboard position (in terms of <b>points</b>) in an <b>upcoming tournament.</b>""}","[0]","true","multichoice_tournament","","",NA,NA,"",NA,NA,NA,NA,NA,NA,"","","",NA
"137","","instructions",12,149597,"0.0-11.0",NA,503,"199,93,63,31,91,205,105,20,208,51,28,229,236,23,192,219,143,32,112,162,212,40,95,142,63,241,28,108,161,145,104,255",251,"66a3ed3c5d10d0e7d8a6b9da","5bac1d9dc1155b0001175e55","66a3f565bacbb4c2013c8b2b",1,0,0,"true",2,100,"[{""page_index"":0,""viewing_time"":16042.89999999851}]",16043.1000000015,"","","","","","",NA,NA,"",NA,NA,NA,NA,NA,NA,"","","",NA
"138","","instructions",13,175971,"0.0-12.0-0.0",NA,503,"199,93,63,31,91,205,105,20,208,51,28,229,236,23,192,219,143,32,112,162,212,40,95,142,63,241,28,108,161,145,104,255",251,"66a3ed3c5d10d0e7d8a6b9da","5bac1d9dc1155b0001175e55","66a3f565bacbb4c2013c8b2b",1,0,0,"true",2,100,"[{""page_index"":0,""viewing_time"":26370.90000000596}]",26371.3000000045,"","","","","","",NA,NA,"",NA,NA,NA,NA,NA,NA,"","","",NA
"139","","type-this",14,186201,"0.0-12.0-1.0",NA,503,"199,93,63,31,91,205,105,20,208,51,28,229,236,23,192,219,143,32,112,162,212,40,95,142,63,241,28,108,161,145,104,255",251,"66a3ed3c5d10d0e7d8a6b9da","5bac1d9dc1155b0001175e55","66a3f565bacbb4c2013c8b2b",1,0,0,"true",2,100,"",9712.79999999702,"THIRTY FOUR","","","","","",NA,NA,"",NA,NA,NA,NA,NA,NA,"","THIRTY FOUR","",NA
"140","","Hangman_replay",15,222892,"0.0-12.0-2.0",NA,503,"199,93,63,31,91,205,105,20,208,51,28,229,236,23,192,219,143,32,112,162,212,40,95,142,63,241,28,108,161,145,104,255",251,"66a3ed3c5d10d0e7d8a6b9da","5bac1d9dc1155b0001175e55","66a3f565bacbb4c2013c8b2b",1,0,0,"true",2,100,"",NA,"","","","","THIRTY FOUR","E,I,H,T,Y,R,F,O,U",9,14,"false",NA,NA,NA,NA,NA,NA,"","","",NA
"141","","instructions",16,226616,"0.0-12.0-3.0",NA,503,"199,93,63,31,91,205,105,20,208,51,28,229,236,23,192,219,143,32,112,162,212,40,95,142,63,241,28,108,161,145,104,255",251,"66a3ed3c5d10d0e7d8a6b9da","5bac1d9dc1155b0001175e55","66a3f565bacbb4c2013c8b2b",1,0,0,"true",2,100,"[{""page_index"":0,""viewing_time"":3721}]",3721.89999999851,"","","","","","",NA,NA,"",NA,NA,NA,NA,NA,NA,"","","",NA
"142","","Guess_leaderboard",17,234855,"0.0-12.0-4.0",NA,503,"199,93,63,31,91,205,105,20,208,51,28,229,236,23,192,219,143,32,112,162,212,40,95,142,63,241,28,108,161,145,104,255",251,"66a3ed3c5d10d0e7d8a6b9da","5bac1d9dc1155b0001175e55","66a3f565bacbb4c2013c8b2b",1,0,0,"true",2,100,"",NA,"","","","","THIRTY FOUR","",NA,NA,"",7474.5,10,70,0,37,27,"","","",NA
"143","","instructions",18,246585,"0.0-12.0-0.1",NA,503,"199,93,63,31,91,205,105,20,208,51,28,229,236,23,192,219,143,32,112,162,212,40,95,142,63,241,28,108,161,145,104,255",251,"66a3ed3c5d10d0e7d8a6b9da","5bac1d9dc1155b0001175e55","66a3f565bacbb4c2013c8b2b",1,0,0,"true",2,100,"[{""page_index"":0,""viewing_time"":11726.79999999702}]",11727.6999999955,"","","","","","",NA,NA,"",NA,NA,NA,NA,NA,NA,"","","",NA
"144","","type-this",19,254157,"0.0-12.0-1.1",NA,503,"199,93,63,31,91,205,105,20,208,51,28,229,236,23,192,219,143,32,112,162,212,40,95,142,63,241,28,108,161,145,104,255",251,"66a3ed3c5d10d0e7d8a6b9da","5bac1d9dc1155b0001175e55","66a3f565bacbb4c2013c8b2b",1,0,0,"true",2,100,"",7049.10000000149,"THUMB","","","","","",NA,NA,"",NA,NA,NA,NA,NA,NA,"","THUMB","",NA
"145","","Hangman_replay",20,289584,"0.0-12.0-2.1",NA,503,"199,93,63,31,91,205,105,20,208,51,28,229,236,23,192,219,143,32,112,162,212,40,95,142,63,241,28,108,161,145,104,255",251,"66a3ed3c5d10d0e7d8a6b9da","5bac1d9dc1155b0001175e55","66a3f565bacbb4c2013c8b2b",1,0,0,"true",2,100,"",NA,"","","","","THUMB","E,A,I,O,U,C,B,T,H,M",10,10,"false",NA,NA,NA,NA,NA,NA,"","","",NA
"146","","instructions",21,291636,"0.0-12.0-3.1",NA,503,"199,93,63,31,91,205,105,20,208,51,28,229,236,23,192,219,143,32,112,162,212,40,95,142,63,241,28,108,161,145,104,255",251,"66a3ed3c5d10d0e7d8a6b9da","5bac1d9dc1155b0001175e55","66a3f565bacbb4c2013c8b2b",1,0,0,"true",2,100,"[{""page_index"":0,""viewing_time"":2050.10000000149}]",2050.79999999702,"","","","","","",NA,NA,"",NA,NA,NA,NA,NA,NA,"","","",NA
"147","","Guess_leaderboard",22,296038,"0.0-12.0-4.1",NA,503,"199,93,63,31,91,205,105,20,208,51,28,229,236,23,192,219,143,32,112,162,212,40,95,142,63,241,28,108,161,145,104,255",251,"66a3ed3c5d10d0e7d8a6b9da","5bac1d9dc1155b0001175e55","66a3f565bacbb4c2013c8b2b",1,0,0,"true",2,100,"",NA,"","","","","THUMB","",NA,NA,"",3639,11,95,1,67,56,"","","",NA
"148","","instructions",23,305348,"0.0-12.0-0.2",NA,503,"199,93,63,31,91,205,105,20,208,51,28,229,236,23,192,219,143,32,112,162,212,40,95,142,63,241,28,108,161,145,104,255",251,"66a3ed3c5d10d0e7d8a6b9da","5bac1d9dc1155b0001175e55","66a3f565bacbb4c2013c8b2b",1,0,0,"true",2,100,"[{""page_index"":0,""viewing_time"":9306.80000000447}]",9307.20000000298,"","","","","","",NA,NA,"",NA,NA,NA,NA,NA,NA,"","","",NA
"149","","type-this",24,312088,"0.0-12.0-1.2",NA,503,"199,93,63,31,91,205,105,20,208,51,28,229,236,23,192,219,143,32,112,162,212,40,95,142,63,241,28,108,161,145,104,255",251,"66a3ed3c5d10d0e7d8a6b9da","5bac1d9dc1155b0001175e55","66a3f565bacbb4c2013c8b2b",1,0,0,"true",2,100,"",6229.39999999851,"HAWAII","","","","","",NA,NA,"",NA,NA,NA,NA,NA,NA,"","HAWAII","",NA
"150","","Hangman_replay",25,367082,"0.0-12.0-2.2",NA,503,"199,93,63,31,91,205,105,20,208,51,28,229,236,23,192,219,143,32,112,162,212,40,95,142,63,241,28,108,161,145,104,255",251,"66a3ed3c5d10d0e7d8a6b9da","5bac1d9dc1155b0001175e55","66a3f565bacbb4c2013c8b2b",1,0,0,"true",2,100,"",NA,"","","","","HAWAII","K,A,H,W,I",5,14,"false",NA,NA,NA,NA,NA,NA,"","","",NA
"151","","instructions",26,369010,"0.0-12.0-3.2",NA,503,"199,93,63,31,91,205,105,20,208,51,28,229,236,23,192,219,143,32,112,162,212,40,95,142,63,241,28,108,161,145,104,255",251,"66a3ed3c5d10d0e7d8a6b9da","5bac1d9dc1155b0001175e55","66a3f565bacbb4c2013c8b2b",1,0,0,"true",2,100,"[{""page_index"":0,""viewing_time"":1906.6999999955297}]",1907.79999999702,"","","","","","",NA,NA,"",NA,NA,NA,NA,NA,NA,"","","",NA
"152","","Guess_leaderboard",27,373249,"0.0-12.0-4.2",NA,503,"199,93,63,31,91,205,105,20,208,51,28,229,236,23,192,219,143,32,112,162,212,40,95,142,63,241,28,108,161,145,104,255",251,"66a3ed3c5d10d0e7d8a6b9da","5bac1d9dc1155b0001175e55","66a3f565bacbb4c2013c8b2b",1,0,0,"true",2,100,"",NA,"","","","","HAWAII","",NA,NA,"",3455.69999999553,12,27,2,56,44,"","","",NA
"153","","instructions",28,379769,"0.0-12.0-0.3",NA,503,"199,93,63,31,91,205,105,20,208,51,28,229,236,23,192,219,143,32,112,162,212,40,95,142,63,241,28,108,161,145,104,255",251,"66a3ed3c5d10d0e7d8a6b9da","5bac1d9dc1155b0001175e55","66a3f565bacbb4c2013c8b2b",1,0,0,"true",2,100,"[{""page_index"":0,""viewing_time"":6517.19999999553}]",6517.89999999851,"","","","","","",NA,NA,"",NA,NA,NA,NA,NA,NA,"","","",NA
"154","","type-this",29,389178,"0.0-12.0-1.3",NA,503,"199,93,63,31,91,205,105,20,208,51,28,229,236,23,192,219,143,32,112,162,212,40,95,142,63,241,28,108,161,145,104,255",251,"66a3ed3c5d10d0e7d8a6b9da","5bac1d9dc1155b0001175e55","66a3f565bacbb4c2013c8b2b",1,0,0,"true",2,100,"",8882.5,"USAIN BOLT","","","","","",NA,NA,"",NA,NA,NA,NA,NA,NA,"","USAIN BOLT","",NA
"155","","Hangman_replay",30,414293,"0.0-12.0-2.3",NA,503,"199,93,63,31,91,205,105,20,208,51,28,229,236,23,192,219,143,32,112,162,212,40,95,142,63,241,28,108,161,145,104,255",251,"66a3ed3c5d10d0e7d8a6b9da","5bac1d9dc1155b0001175e55","66a3f565bacbb4c2013c8b2b",1,0,0,"true",2,100,"",NA,"","","","","USAIN BOLT","E,A,O,U,M,S,I,N,B,L,T",11,13,"false",NA,NA,NA,NA,NA,NA,"","","",NA
"156","","instructions",31,416150,"0.0-12.0-3.3",NA,503,"199,93,63,31,91,205,105,20,208,51,28,229,236,23,192,219,143,32,112,162,212,40,95,142,63,241,28,108,161,145,104,255",251,"66a3ed3c5d10d0e7d8a6b9da","5bac1d9dc1155b0001175e55","66a3f565bacbb4c2013c8b2b",1,0,0,"true",2,100,"[{""page_index"":0,""viewing_time"":1855.6000000014901}]",1856,"","","","","","",NA,NA,"",NA,NA,NA,NA,NA,NA,"","","",NA
"157","","Guess_leaderboard",32,420311,"0.0-12.0-4.3",NA,503,"199,93,63,31,91,205,105,20,208,51,28,229,236,23,192,219,143,32,112,162,212,40,95,142,63,241,28,108,161,145,104,255",251,"66a3ed3c5d10d0e7d8a6b9da","5bac1d9dc1155b0001175e55","66a3f565bacbb4c2013c8b2b",1,0,0,"true",2,100,"",NA,"","","","","USAIN BOLT","",NA,NA,"",3356.09999999404,7,12,3,71,64,"","","",NA
"158","","instructions",33,426038,"0.0-12.0-0.4",NA,503,"199,93,63,31,91,205,105,20,208,51,28,229,236,23,192,219,143,32,112,162,212,40,95,142,63,241,28,108,161,145,104,255",251,"66a3ed3c5d10d0e7d8a6b9da","5bac1d9dc1155b0001175e55","66a3f565bacbb4c2013c8b2b",1,0,0,"true",2,100,"[{""page_index"":0,""viewing_time"":5711.5}]",5712.10000000149,"","","","","","",NA,NA,"",NA,NA,NA,NA,NA,NA,"","","",NA
"159","","type-this",34,432790,"0.0-12.0-1.4",NA,503,"199,93,63,31,91,205,105,20,208,51,28,229,236,23,192,219,143,32,112,162,212,40,95,142,63,241,28,108,161,145,104,255",251,"66a3ed3c5d10d0e7d8a6b9da","5bac1d9dc1155b0001175e55","66a3f565bacbb4c2013c8b2b",1,0,0,"true",2,100,"",6225.29999999702,"NECTARINE","","","","","",NA,NA,"",NA,NA,NA,NA,NA,NA,"","NECTARINE","",NA
"160","","Hangman_replay",35,475728,"0.0-12.0-2.4",NA,503,"199,93,63,31,91,205,105,20,208,51,28,229,236,23,192,219,143,32,112,162,212,40,95,142,63,241,28,108,161,145,104,255",251,"66a3ed3c5d10d0e7d8a6b9da","5bac1d9dc1155b0001175e55","66a3f565bacbb4c2013c8b2b",1,0,0,"true",2,100,"",NA,"","","","","NECTARINE","A,I,D,T,S,N,M,L,K,J,O,P,Q,R,U,E,C",17,5,"false",NA,NA,NA,NA,NA,NA,"","","",NA
"161","","instructions",36,477187,"0.0-12.0-3.4",NA,503,"199,93,63,31,91,205,105,20,208,51,28,229,236,23,192,219,143,32,112,162,212,40,95,142,63,241,28,108,161,145,104,255",251,"66a3ed3c5d10d0e7d8a6b9da","5bac1d9dc1155b0001175e55","66a3f565bacbb4c2013c8b2b",1,0,0,"true",2,100,"[{""page_index"":0,""viewing_time"":1457.2999999970198}]",1457.70000000298,"","","","","","",NA,NA,"",NA,NA,NA,NA,NA,NA,"","","",NA
"162","","Guess_leaderboard",37,480788,"0.0-12.0-4.4",NA,503,"199,93,63,31,91,205,105,20,208,51,28,229,236,23,192,219,143,32,112,162,212,40,95,142,63,241,28,108,161,145,104,255",251,"66a3ed3c5d10d0e7d8a6b9da","5bac1d9dc1155b0001175e55","66a3f565bacbb4c2013c8b2b",1,0,0,"true",2,100,"",NA,"","","","","NECTARINE","",NA,NA,"",2804.60000000149,39,49,4,46,7,"","","",NA
"163","","survey-text",38,489891,"0.0-13.0",NA,503,"199,93,63,31,91,205,105,20,208,51,28,229,236,23,192,219,143,32,112,162,212,40,95,142,63,241,28,108,161,145,104,255",251,"66a3ed3c5d10d0e7d8a6b9da","5bac1d9dc1155b0001175e55","66a3f565bacbb4c2013c8b2b",1,0,0,"true",2,100,"",9094.5,"{""Q0"":""NECTARINE""}","","","","","",NA,NA,"",NA,NA,NA,NA,NA,NA,"nectarine","","",NA
"164","","survey-multi-choice",39,510235,"0.0-14.0",NA,503,"199,93,63,31,91,205,105,20,208,51,28,229,236,23,192,219,143,32,112,162,212,40,95,142,63,241,28,108,161,145,104,255",251,"66a3ed3c5d10d0e7d8a6b9da","5bac1d9dc1155b0001175e55","66a3f565bacbb4c2013c8b2b",1,0,0,"true",2,100,"",20340.1999999955,"{""Q0"":""2. I would be <b>second</b> out of the six of us.""}","[0]","","self-rating","","",NA,NA,"",NA,2,NA,NA,NA,NA,"","","",NA
"165","","html-slider-response",40,514197,"0.0-15.0",NA,503,"199,93,63,31,91,205,105,20,208,51,28,229,236,23,192,219,143,32,112,162,212,40,95,142,63,241,28,108,161,145,104,255",251,"66a3ed3c5d10d0e7d8a6b9da","5bac1d9dc1155b0001175e55","66a3f565bacbb4c2013c8b2b",1,0,0,"true",2,100,"",3958.79999999702,"","","","","","",NA,NA,"",NA,NA,NA,NA,NA,NA,"","100","<p>Overall, how confident were you in your answer to this last question?</p>",100
"166","","survey-text",41,536019,"0.0-16.0",NA,503,"199,93,63,31,91,205,105,20,208,51,28,229,236,23,192,219,143,32,112,162,212,40,95,142,63,241,28,108,161,145,104,255",251,"66a3ed3c5d10d0e7d8a6b9da","5bac1d9dc1155b0001175e55","66a3f565bacbb4c2013c8b2b",1,0,0,"true",2,100,"",21814.200000003,"{""Q0"":""I'm not really sure.""}","","","","","",NA,NA,"",NA,NA,NA,NA,NA,NA,"","","",NA
"167","","survey-text",42,552660,"0.0-17.0",NA,503,"199,93,63,31,91,205,105,20,208,51,28,229,236,23,192,219,143,32,112,162,212,40,95,142,63,241,28,108,161,145,104,255",251,"66a3ed3c5d10d0e7d8a6b9da","5bac1d9dc1155b0001175e55","66a3f565bacbb4c2013c8b2b",1,0,0,"true",2,100,"",16628.200000003,"{""Q0"":""I answered to the best of my ability.""}","","","","","",NA,NA,"",NA,NA,NA,NA,NA,NA,"","","",NA
"168","","instructions",43,562955,"0.0-18.0",NA,503,"199,93,63,31,91,205,105,20,208,51,28,229,236,23,192,219,143,32,112,162,212,40,95,142,63,241,28,108,161,145,104,255",251,"66a3ed3c5d10d0e7d8a6b9da","5bac1d9dc1155b0001175e55","66a3f565bacbb4c2013c8b2b",1,0,0,"true",2,100,"[{""page_index"":0,""viewing_time"":10293.29999999702}]",10293.6999999955,"","","","","","",NA,NA,"",NA,NA,NA,NA,NA,NA,"","","",NA
"169","true","fullscreen",0,3497,"0.0-0.0",NA,504,"214,229,162,11,48,248,114,22,178,199,88,245,231,162,60,67,125,188,61,250,28,203,23,124,71,77,225,82,187,14,247,49",252,"66a3ed3c5d10d0e7d8a6b9da","6690315bfff7b15d27055428","66a4140f59ac61947b9edd65",1,0,0,"false",2,100,"",NA,"","","","","","",NA,NA,"",NA,NA,NA,NA,NA,NA,"",NA,"",NA
"170","","instructions",1,6616,"0.0-1.0",NA,504,"214,229,162,11,48,248,114,22,178,199,88,245,231,162,60,67,125,188,61,250,28,203,23,124,71,77,225,82,187,14,247,49",252,"66a3ed3c5d10d0e7d8a6b9da","6690315bfff7b15d27055428","66a4140f59ac61947b9edd65",1,0,0,"false",2,100,"[{""page_index"":0,""viewing_time"":3118.9000000059605}]",3119.10000000894,"","","","","","",NA,NA,"",NA,NA,NA,NA,NA,NA,"",NA,"",NA
"171","","instructions",2,26144,"0.0-2.0-0.0",NA,504,"214,229,162,11,48,248,114,22,178,199,88,245,231,162,60,67,125,188,61,250,28,203,23,124,71,77,225,82,187,14,247,49",252,"66a3ed3c5d10d0e7d8a6b9da","6690315bfff7b15d27055428","66a4140f59ac61947b9edd65",1,0,0,"false",2,100,"[{""page_index"":0,""viewing_time"":19527.70000000298}]",19527.799999997,"","","","","","",NA,NA,"",NA,NA,NA,NA,NA,NA,"",NA,"",NA
"172","","survey-multi-choice",3,34047,"0.0-2.0-1.0",NA,504,"214,229,162,11,48,248,114,22,178,199,88,245,231,162,60,67,125,188,61,250,28,203,23,124,71,77,225,82,187,14,247,49",252,"66a3ed3c5d10d0e7d8a6b9da","6690315bfff7b15d27055428","66a4140f59ac61947b9edd65",1,0,0,"false",2,100,"",7902.29999999702,"{""Q0"":""... reveal the word with as <b>few letter guesses</b> as possible""}","[0]","true","multichoice_nonpretend","","",NA,NA,"",NA,NA,NA,NA,NA,NA,"",NA,"",NA
"173","","instructions",4,35353,"0.0-3.0",NA,504,"214,229,162,11,48,248,114,22,178,199,88,245,231,162,60,67,125,188,61,250,28,203,23,124,71,77,225,82,187,14,247,49",252,"66a3ed3c5d10d0e7d8a6b9da","6690315bfff7b15d27055428","66a4140f59ac61947b9edd65",1,0,0,"false",2,100,"[{""page_index"":0,""viewing_time"":1305.2000000029802}]",1305.29999999702,"","","","","","",NA,NA,"",NA,NA,NA,NA,NA,NA,"",NA,"",NA
"174","","Hangman",5,57347,"0.0-4.0",NA,504,"214,229,162,11,48,248,114,22,178,199,88,245,231,162,60,67,125,188,61,250,28,203,23,124,71,77,225,82,187,14,247,49",252,"66a3ed3c5d10d0e7d8a6b9da","6690315bfff7b15d27055428","66a4140f59ac61947b9edd65",1,0,0,"false",2,100,"",NA,"","","","","ZEBRA","B,C,S,D,E,R,Z,A",8,12,"false",NA,NA,NA,NA,NA,NA,"",NA,"",NA
"175","","instructions",6,80546,"0.0-5.0",NA,504,"214,229,162,11,48,248,114,22,178,199,88,245,231,162,60,67,125,188,61,250,28,203,23,124,71,77,225,82,187,14,247,49",252,"66a3ed3c5d10d0e7d8a6b9da","6690315bfff7b15d27055428","66a4140f59ac61947b9edd65",1,0,0,"false",2,100,"[{""page_index"":0,""viewing_time"":8629.5},{""page_index"":1,""viewing_time"":14569}]",23198.8000000119,"","","","","","",NA,NA,"",NA,NA,NA,NA,NA,NA,"",NA,"",NA
"176","","survey-multi-choice",7,89223,"0.0-6.0",NA,504,"214,229,162,11,48,248,114,22,178,199,88,245,231,162,60,67,125,188,61,250,28,203,23,124,71,77,225,82,187,14,247,49",252,"66a3ed3c5d10d0e7d8a6b9da","6690315bfff7b15d27055428","66a4140f59ac61947b9edd65",1,0,0,"false",2,100,"",8675.29999999702,"{""Q0"":""...from <b>a previous session</b> that is not part of the upcoming tournament.""}","[0]","true","multichoice_leaderboard","","",NA,NA,"",NA,NA,NA,NA,NA,NA,"",NA,"",NA
"177","","instructions",8,93000,"0.0-8.0",NA,504,"214,229,162,11,48,248,114,22,178,199,88,245,231,162,60,67,125,188,61,250,28,203,23,124,71,77,225,82,187,14,247,49",252,"66a3ed3c5d10d0e7d8a6b9da","6690315bfff7b15d27055428","66a4140f59ac61947b9edd65",1,0,0,"false",2,100,"[{""page_index"":0,""viewing_time"":3776.199999988079}]",3776.29999999702,"","","","","","",NA,NA,"",NA,NA,NA,NA,NA,NA,"",NA,"",NA
"178","","survey-multi-choice",9,101982,"0.0-9.0",NA,504,"214,229,162,11,48,248,114,22,178,199,88,245,231,162,60,67,125,188,61,250,28,203,23,124,71,77,225,82,187,14,247,49",252,"66a3ed3c5d10d0e7d8a6b9da","6690315bfff7b15d27055428","66a4140f59ac61947b9edd65",1,0,0,"false",2,100,"",8981.80000001192,"{""Q0"":""...players' leaderboard position (in terms of <b>points</b>) in an <b>upcoming tournament.</b>""}","[0]","true","multichoice_tournament","","",NA,NA,"",NA,NA,NA,NA,NA,NA,"",NA,"",NA
"179","","instructions",10,112143,"0.0-11.0",NA,504,"214,229,162,11,48,248,114,22,178,199,88,245,231,162,60,67,125,188,61,250,28,203,23,124,71,77,225,82,187,14,247,49",252,"66a3ed3c5d10d0e7d8a6b9da","6690315bfff7b15d27055428","66a4140f59ac61947b9edd65",1,0,0,"false",2,100,"[{""page_index"":0,""viewing_time"":10161.09999999404}]",10161.299999997,"","","","","","",NA,NA,"",NA,NA,NA,NA,NA,NA,"",NA,"",NA
"180","","instructions",11,118344,"0.0-12.0-0.0",NA,504,"214,229,162,11,48,248,114,22,178,199,88,245,231,162,60,67,125,188,61,250,28,203,23,124,71,77,225,82,187,14,247,49",252,"66a3ed3c5d10d0e7d8a6b9da","6690315bfff7b15d27055428","66a4140f59ac61947b9edd65",1,0,0,"false",2,100,"[{""page_index"":0,""viewing_time"":6199.4000000059605}]",6199.70000000298,"","","","","","",NA,NA,"",NA,NA,NA,NA,NA,NA,"",NA,"",NA
"181","","Hangman_replay",12,135491,"0.0-12.0-1.0",NA,504,"214,229,162,11,48,248,114,22,178,199,88,245,231,162,60,67,125,188,61,250,28,203,23,124,71,77,225,82,187,14,247,49",252,"66a3ed3c5d10d0e7d8a6b9da","6690315bfff7b15d27055428","66a4140f59ac61947b9edd65",1,0,0,"false",2,100,"",NA,"","","","","SHAKIRA","A,J,S,T,K,B,C,L,U,V,M,D,E,N,W,X,O,F,G,P,Y,Z,Q,H,I,R",26,-5,"false",NA,NA,NA,NA,NA,NA,"",NA,"",NA
"182","","instructions",13,138139,"0.0-12.0-2.0",NA,504,"214,229,162,11,48,248,114,22,178,199,88,245,231,162,60,67,125,188,61,250,28,203,23,124,71,77,225,82,187,14,247,49",252,"66a3ed3c5d10d0e7d8a6b9da","6690315bfff7b15d27055428","66a4140f59ac61947b9edd65",1,0,0,"false",2,100,"[{""page_index"":0,""viewing_time"":2646.7999999970198}]",2646.89999999106,"","","","","","",NA,NA,"",NA,NA,NA,NA,NA,NA,"",NA,"",NA
"183","","Guess_leaderboard",14,146440,"0.0-12.0-3.0",NA,504,"214,229,162,11,48,248,114,22,178,199,88,245,231,162,60,67,125,188,61,250,28,203,23,124,71,77,225,82,187,14,247,49",252,"66a3ed3c5d10d0e7d8a6b9da","6690315bfff7b15d27055428","66a4140f59ac61947b9edd65",1,0,0,"false",2,100,"",NA,"","","","","SHAKIRA","",NA,NA,"",7543.20000000298,95,66,0,92,3,"",NA,"",NA
"184","","instructions",15,153231,"0.0-12.0-0.1",NA,504,"214,229,162,11,48,248,114,22,178,199,88,245,231,162,60,67,125,188,61,250,28,203,23,124,71,77,225,82,187,14,247,49",252,"66a3ed3c5d10d0e7d8a6b9da","6690315bfff7b15d27055428","66a4140f59ac61947b9edd65",1,0,0,"false",2,100,"[{""page_index"":0,""viewing_time"":6789.899999991059}]",6790.09999999404,"","","","","","",NA,NA,"",NA,NA,NA,NA,NA,NA,"",NA,"",NA
"185","","Hangman_replay",16,163576,"0.0-12.0-1.1",NA,504,"214,229,162,11,48,248,114,22,178,199,88,245,231,162,60,67,125,188,61,250,28,203,23,124,71,77,225,82,187,14,247,49",252,"66a3ed3c5d10d0e7d8a6b9da","6690315bfff7b15d27055428","66a4140f59ac61947b9edd65",1,0,0,"false",2,100,"",NA,"","","","","FIG","I,G,F",3,15,"false",NA,NA,NA,NA,NA,NA,"",NA,"",NA
"186","","instructions",17,165002,"0.0-12.0-2.1",NA,504,"214,229,162,11,48,248,114,22,178,199,88,245,231,162,60,67,125,188,61,250,28,203,23,124,71,77,225,82,187,14,247,49",252,"66a3ed3c5d10d0e7d8a6b9da","6690315bfff7b15d27055428","66a4140f59ac61947b9edd65",1,0,0,"false",2,100,"[{""page_index"":0,""viewing_time"":1426}]",1426.09999999404,"","","","","","",NA,NA,"",NA,NA,NA,NA,NA,NA,"",NA,"",NA
"187","","Guess_leaderboard",18,173525,"0.0-12.0-3.1",NA,504,"214,229,162,11,48,248,114,22,178,199,88,245,231,162,60,67,125,188,61,250,28,203,23,124,71,77,225,82,187,14,247,49",252,"66a3ed3c5d10d0e7d8a6b9da","6690315bfff7b15d27055428","66a4140f59ac61947b9edd65",1,0,0,"false",2,100,"",NA,"","","","","FIG","",NA,NA,"",7762.09999999404,30,67,1,3,27,"",NA,"",NA
"188","","instructions",19,178576,"0.0-12.0-0.2",NA,504,"214,229,162,11,48,248,114,22,178,199,88,245,231,162,60,67,125,188,61,250,28,203,23,124,71,77,225,82,187,14,247,49",252,"66a3ed3c5d10d0e7d8a6b9da","6690315bfff7b15d27055428","66a4140f59ac61947b9edd65",1,0,0,"false",2,100,"[{""page_index"":0,""viewing_time"":5050.5}]",5050.60000000894,"","","","","","",NA,NA,"",NA,NA,NA,NA,NA,NA,"",NA,"",NA
"189","","Hangman_replay",20,226272,"0.0-12.0-1.2",NA,504,"214,229,162,11,48,248,114,22,178,199,88,245,231,162,60,67,125,188,61,250,28,203,23,124,71,77,225,82,187,14,247,49",252,"66a3ed3c5d10d0e7d8a6b9da","6690315bfff7b15d27055428","66a4140f59ac61947b9edd65",1,0,0,"false",2,100,"",NA,"","","","","WRIST","E,A,O,I,H,L,T,S,R,W",10,10,"false",NA,NA,NA,NA,NA,NA,"",NA,"",NA
"190","","instructions",21,232680,"0.0-12.0-2.2",NA,504,"214,229,162,11,48,248,114,22,178,199,88,245,231,162,60,67,125,188,61,250,28,203,23,124,71,77,225,82,187,14,247,49",252,"66a3ed3c5d10d0e7d8a6b9da","6690315bfff7b15d27055428","66a4140f59ac61947b9edd65",1,0,0,"false",2,100,"[{""page_index"":0,""viewing_time"":6407.800000011921}]",6408,"","","","","","",NA,NA,"",NA,NA,NA,NA,NA,NA,"",NA,"",NA
"191","","Guess_leaderboard",22,237975,"0.0-12.0-3.2",NA,504,"214,229,162,11,48,248,114,22,178,199,88,245,231,162,60,67,125,188,61,250,28,203,23,124,71,77,225,82,187,14,247,49",252,"66a3ed3c5d10d0e7d8a6b9da","6690315bfff7b15d27055428","66a4140f59ac61947b9edd65",1,0,0,"false",2,100,"",NA,"","","","","WRIST","",NA,NA,"",4526.5,45,98,2,22,23,"",NA,"",NA
"192","","instructions",23,243887,"0.0-12.0-0.3",NA,504,"214,229,162,11,48,248,114,22,178,199,88,245,231,162,60,67,125,188,61,250,28,203,23,124,71,77,225,82,187,14,247,49",252,"66a3ed3c5d10d0e7d8a6b9da","6690315bfff7b15d27055428","66a4140f59ac61947b9edd65",1,0,0,"false",2,100,"[{""page_index"":0,""viewing_time"":5911.4000000059605}]",5911.5,"","","","","","",NA,NA,"",NA,NA,NA,NA,NA,NA,"",NA,"",NA
"193","","Hangman_replay",24,281114,"0.0-12.0-1.3",NA,504,"214,229,162,11,48,248,114,22,178,199,88,245,231,162,60,67,125,188,61,250,28,203,23,124,71,77,225,82,187,14,247,49",252,"66a3ed3c5d10d0e7d8a6b9da","6690315bfff7b15d27055428","66a4140f59ac61947b9edd65",1,0,0,"false",2,100,"",NA,"","","","","HAWAII","A,H,W,I",4,15,"false",NA,NA,NA,NA,NA,NA,"",NA,"",NA
"194","","instructions",25,282594,"0.0-12.0-2.3",NA,504,"214,229,162,11,48,248,114,22,178,199,88,245,231,162,60,67,125,188,61,250,28,203,23,124,71,77,225,82,187,14,247,49",252,"66a3ed3c5d10d0e7d8a6b9da","6690315bfff7b15d27055428","66a4140f59ac61947b9edd65",1,0,0,"false",2,100,"[{""page_index"":0,""viewing_time"":1479.2000000029802}]",1479.40000000596,"","","","","","",NA,NA,"",NA,NA,NA,NA,NA,NA,"",NA,"",NA
"195","","Guess_leaderboard",26,286992,"0.0-12.0-3.3",NA,504,"214,229,162,11,48,248,114,22,178,199,88,245,231,162,60,67,125,188,61,250,28,203,23,124,71,77,225,82,187,14,247,49",252,"66a3ed3c5d10d0e7d8a6b9da","6690315bfff7b15d27055428","66a4140f59ac61947b9edd65",1,0,0,"false",2,100,"",NA,"","","","","HAWAII","",NA,NA,"",3638.5,5,73,3,23,18,"",NA,"",NA
"196","","instructions",27,290812,"0.0-12.0-0.4",NA,504,"214,229,162,11,48,248,114,22,178,199,88,245,231,162,60,67,125,188,61,250,28,203,23,124,71,77,225,82,187,14,247,49",252,"66a3ed3c5d10d0e7d8a6b9da","6690315bfff7b15d27055428","66a4140f59ac61947b9edd65",1,0,0,"false",2,100,"[{""page_index"":0,""viewing_time"":3818.9000000059605}]",3819.10000000894,"","","","","","",NA,NA,"",NA,NA,NA,NA,NA,NA,"",NA,"",NA
"197","","Hangman_replay",28,320348,"0.0-12.0-1.4",NA,504,"214,229,162,11,48,248,114,22,178,199,88,245,231,162,60,67,125,188,61,250,28,203,23,124,71,77,225,82,187,14,247,49",252,"66a3ed3c5d10d0e7d8a6b9da","6690315bfff7b15d27055428","66a4140f59ac61947b9edd65",1,0,0,"false",2,100,"",NA,"","","","","THIRTY FOUR","E,R,Y,T,H,I,F,O,U",9,14,"false",NA,NA,NA,NA,NA,NA,"",NA,"",NA
"198","","instructions",29,322249,"0.0-12.0-2.4",NA,504,"214,229,162,11,48,248,114,22,178,199,88,245,231,162,60,67,125,188,61,250,28,203,23,124,71,77,225,82,187,14,247,49",252,"66a3ed3c5d10d0e7d8a6b9da","6690315bfff7b15d27055428","66a4140f59ac61947b9edd65",1,0,0,"false",2,100,"[{""page_index"":0,""viewing_time"":1900.6000000089407}]",1900.70000000298,"","","","","","",NA,NA,"",NA,NA,NA,NA,NA,NA,"",NA,"",NA
"199","","Guess_leaderboard",30,326559,"0.0-12.0-3.4",NA,504,"214,229,162,11,48,248,114,22,178,199,88,245,231,162,60,67,125,188,61,250,28,203,23,124,71,77,225,82,187,14,247,49",252,"66a3ed3c5d10d0e7d8a6b9da","6690315bfff7b15d27055428","66a4140f59ac61947b9edd65",1,0,0,"false",2,100,"",NA,"","","","","THIRTY FOUR","",NA,NA,"",3546.20000000298,2,53,4,24,22,"",NA,"",NA
"200","","survey-text",31,339219,"0.0-13.0",NA,504,"214,229,162,11,48,248,114,22,178,199,88,245,231,162,60,67,125,188,61,250,28,203,23,124,71,77,225,82,187,14,247,49",252,"66a3ed3c5d10d0e7d8a6b9da","6690315bfff7b15d27055428","66a4140f59ac61947b9edd65",1,0,0,"false",2,100,"",12658.5,"{""Q0"":""Thirty Four""}","","","","","",NA,NA,"",NA,NA,NA,NA,NA,NA,"thirty four",NA,"",NA
"201","","survey-multi-choice",32,354724,"0.0-14.0",NA,504,"214,229,162,11,48,248,114,22,178,199,88,245,231,162,60,67,125,188,61,250,28,203,23,124,71,77,225,82,187,14,247,49",252,"66a3ed3c5d10d0e7d8a6b9da","6690315bfff7b15d27055428","66a4140f59ac61947b9edd65",1,0,0,"false",2,100,"",15504.400000006,"{""Q0"":""2. I would be <b>second</b> out of the six of us.""}","[0]","","self-rating","","",NA,NA,"",NA,2,NA,NA,NA,NA,"",NA,"",NA
"202","","html-slider-response",33,357900,"0.0-15.0",NA,504,"214,229,162,11,48,248,114,22,178,199,88,245,231,162,60,67,125,188,61,250,28,203,23,124,71,77,225,82,187,14,247,49",252,"66a3ed3c5d10d0e7d8a6b9da","6690315bfff7b15d27055428","66a4140f59ac61947b9edd65",1,0,0,"false",2,100,"",3174.90000000596,"","","","","","",NA,NA,"",NA,NA,NA,NA,NA,NA,"","100","<p>Overall, how confident were you in your answer to this last question?</p>",100
"203","","survey-text",34,428820,"0.0-16.0",NA,504,"214,229,162,11,48,248,114,22,178,199,88,245,231,162,60,67,125,188,61,250,28,203,23,124,71,77,225,82,187,14,247,49",252,"66a3ed3c5d10d0e7d8a6b9da","6690315bfff7b15d27055428","66a4140f59ac61947b9edd65",1,0,0,"false",2,100,"",70918.8999999911,"{""Q0"":""I can't tell""}","","","","","",NA,NA,"",NA,NA,NA,NA,NA,NA,"",NA,"",NA
"204","","survey-text",35,435326,"0.0-17.0",NA,504,"214,229,162,11,48,248,114,22,178,199,88,245,231,162,60,67,125,188,61,250,28,203,23,124,71,77,225,82,187,14,247,49",252,"66a3ed3c5d10d0e7d8a6b9da","6690315bfff7b15d27055428","66a4140f59ac61947b9edd65",1,0,0,"false",2,100,"",6505,"{""Q0"":""""}","","","","","",NA,NA,"",NA,NA,NA,NA,NA,NA,"",NA,"",NA
"205","","instructions",36,445100,"0.0-18.0",NA,504,"214,229,162,11,48,248,114,22,178,199,88,245,231,162,60,67,125,188,61,250,28,203,23,124,71,77,225,82,187,14,247,49",252,"66a3ed3c5d10d0e7d8a6b9da","6690315bfff7b15d27055428","66a4140f59ac61947b9edd65",1,0,0,"false",2,100,"[{""page_index"":0,""viewing_time"":9773.59999999404}]",9773.79999999702,"","","","","","",NA,NA,"",NA,NA,NA,NA,NA,NA,"",NA,"",NA
"206","true","fullscreen",0,3958,"0.0-0.0",NA,505,"214,229,162,11,48,248,114,22,178,199,88,245,231,162,60,67,125,188,61,250,28,203,23,124,71,77,225,82,187,14,247,49",252,"66a3ed3c5d10d0e7d8a6b9da","668557c57d3089ceba4a2d09","66a415f0b663c61a28970eb7",1,0,0,"true",3,86,"",NA,"","","","","","",NA,NA,"",NA,NA,NA,NA,NA,NA,"","","",NA
"207","","instructions",1,10292,"0.0-1.0",NA,505,"214,229,162,11,48,248,114,22,178,199,88,245,231,162,60,67,125,188,61,250,28,203,23,124,71,77,225,82,187,14,247,49",252,"66a3ed3c5d10d0e7d8a6b9da","668557c57d3089ceba4a2d09","66a415f0b663c61a28970eb7",1,0,0,"true",3,86,"[{""page_index"":0,""viewing_time"":6331.9000000059605}]",6332.19999998808,"","","","","","",NA,NA,"",NA,NA,NA,NA,NA,NA,"","","",NA
"208","","instructions",2,34795,"0.0-2.0-0.0",NA,505,"214,229,162,11,48,248,114,22,178,199,88,245,231,162,60,67,125,188,61,250,28,203,23,124,71,77,225,82,187,14,247,49",252,"66a3ed3c5d10d0e7d8a6b9da","668557c57d3089ceba4a2d09","66a415f0b663c61a28970eb7",1,0,0,"true",3,86,"[{""page_index"":0,""viewing_time"":24502.70000001788}]",24503.1000000238,"","","","","","",NA,NA,"",NA,NA,NA,NA,NA,NA,"","","",NA
"209","","survey-multi-choice",3,47197,"0.0-2.0-1.0",NA,505,"214,229,162,11,48,248,114,22,178,199,88,245,231,162,60,67,125,188,61,250,28,203,23,124,71,77,225,82,187,14,247,49",252,"66a3ed3c5d10d0e7d8a6b9da","668557c57d3089ceba4a2d09","66a415f0b663c61a28970eb7",1,0,0,"true",3,86,"",12399.099999994,"{""Q0"":""... reveal the word with as <b>few letter guesses</b> as possible""}","[0]","true","multichoice_nonpretend","","",NA,NA,"",NA,NA,NA,NA,NA,NA,"","","",NA
"210","","instructions",4,49253,"0.0-3.0",NA,505,"214,229,162,11,48,248,114,22,178,199,88,245,231,162,60,67,125,188,61,250,28,203,23,124,71,77,225,82,187,14,247,49",252,"66a3ed3c5d10d0e7d8a6b9da","668557c57d3089ceba4a2d09","66a415f0b663c61a28970eb7",1,0,0,"true",3,86,"[{""page_index"":0,""viewing_time"":2055.2000000178814}]",2055.5,"","","","","","",NA,NA,"",NA,NA,NA,NA,NA,NA,"","","",NA
"211","","Hangman",5,82598,"0.0-4.0",NA,505,"214,229,162,11,48,248,114,22,178,199,88,245,231,162,60,67,125,188,61,250,28,203,23,124,71,77,225,82,187,14,247,49",252,"66a3ed3c5d10d0e7d8a6b9da","668557c57d3089ceba4a2d09","66a415f0b663c61a28970eb7",1,0,0,"true",3,86,"",NA,"","","","","ZEBRA","R,D,E,B,Z,A",6,14,"false",NA,NA,NA,NA,NA,NA,"","","",NA
"212","","instructions",6,107192,"0.0-5.0",NA,505,"214,229,162,11,48,248,114,22,178,199,88,245,231,162,60,67,125,188,61,250,28,203,23,124,71,77,225,82,187,14,247,49",252,"66a3ed3c5d10d0e7d8a6b9da","668557c57d3089ceba4a2d09","66a415f0b663c61a28970eb7",1,0,0,"true",3,86,"[{""page_index"":0,""viewing_time"":5317.0999999940395},{""page_index"":1,""viewing_time"":19275.5}]",24593.400000006,"","","","","","",NA,NA,"",NA,NA,NA,NA,NA,NA,"","","",NA
"213","","survey-multi-choice",7,115543,"0.0-6.0",NA,505,"214,229,162,11,48,248,114,22,178,199,88,245,231,162,60,67,125,188,61,250,28,203,23,124,71,77,225,82,187,14,247,49",252,"66a3ed3c5d10d0e7d8a6b9da","668557c57d3089ceba4a2d09","66a415f0b663c61a28970eb7",1,0,0,"true",3,86,"",8349.30000001192,"{""Q0"":""...from <b>a previous session</b> that is part of the upcoming tournament.""}","[0]","false","multichoice_leaderboard","","",NA,NA,"",NA,NA,NA,NA,NA,NA,"","","",NA
"214","","instructions",8,118502,"0.0-7.0-0.0",NA,505,"214,229,162,11,48,248,114,22,178,199,88,245,231,162,60,67,125,188,61,250,28,203,23,124,71,77,225,82,187,14,247,49",252,"66a3ed3c5d10d0e7d8a6b9da","668557c57d3089ceba4a2d09","66a415f0b663c61a28970eb7",1,0,0,"true",3,86,"[{""page_index"":0,""viewing_time"":2957.5}]",2957.80000001192,"","","","","","",NA,NA,"",NA,NA,NA,NA,NA,NA,"","","",NA
"215","","survey-multi-choice",9,125162,"0.0-7.0-1.0",NA,505,"214,229,162,11,48,248,114,22,178,199,88,245,231,162,60,67,125,188,61,250,28,203,23,124,71,77,225,82,187,14,247,49",252,"66a3ed3c5d10d0e7d8a6b9da","668557c57d3089ceba4a2d09","66a415f0b663c61a28970eb7",1,0,0,"true",3,86,"",6658.90000000596,"{""Q0"":""...from <b>a previous session</b> that is part of the upcoming tournament.""}","[0]","false","multichoice_leaderboard","","",NA,NA,"",NA,NA,NA,NA,NA,NA,"","","",NA
"216","","instructions",10,127424,"0.0-7.1-0.1",NA,505,"214,229,162,11,48,248,114,22,178,199,88,245,231,162,60,67,125,188,61,250,28,203,23,124,71,77,225,82,187,14,247,49",252,"66a3ed3c5d10d0e7d8a6b9da","668557c57d3089ceba4a2d09","66a415f0b663c61a28970eb7",1,0,0,"true",3,86,"[{""page_index"":0,""viewing_time"":2260.2999999821186}]",2260.69999998808,"","","","","","",NA,NA,"",NA,NA,NA,NA,NA,NA,"","","",NA
"217","","survey-multi-choice",11,139335,"0.0-7.1-1.1",NA,505,"214,229,162,11,48,248,114,22,178,199,88,245,231,162,60,67,125,188,61,250,28,203,23,124,71,77,225,82,187,14,247,49",252,"66a3ed3c5d10d0e7d8a6b9da","668557c57d3089ceba4a2d09","66a415f0b663c61a28970eb7",1,0,0,"true",3,86,"",11909.599999994,"{""Q0"":""...from the <b>upcoming tournament</b>.""}","[0]","false","multichoice_leaderboard","","",NA,NA,"",NA,NA,NA,NA,NA,NA,"","","",NA
"218","","instructions",12,141006,"0.0-7.2-0.2",NA,505,"214,229,162,11,48,248,114,22,178,199,88,245,231,162,60,67,125,188,61,250,28,203,23,124,71,77,225,82,187,14,247,49",252,"66a3ed3c5d10d0e7d8a6b9da","668557c57d3089ceba4a2d09","66a415f0b663c61a28970eb7",1,0,0,"true",3,86,"[{""page_index"":0,""viewing_time"":1670.5999999940395}]",1670.80000001192,"","","","","","",NA,NA,"",NA,NA,NA,NA,NA,NA,"","","",NA
"219","","survey-multi-choice",13,145706,"0.0-7.2-1.2",NA,505,"214,229,162,11,48,248,114,22,178,199,88,245,231,162,60,67,125,188,61,250,28,203,23,124,71,77,225,82,187,14,247,49",252,"66a3ed3c5d10d0e7d8a6b9da","668557c57d3089ceba4a2d09","66a415f0b663c61a28970eb7",1,0,0,"true",3,86,"",4698.5,"{""Q0"":""...from <b>a previous session</b> that is not part of the upcoming tournament.""}","[0]","true","multichoice_leaderboard","","",NA,NA,"",NA,NA,NA,NA,NA,NA,"","","",NA
"220","","instructions",14,175951,"0.0-8.0",NA,505,"214,229,162,11,48,248,114,22,178,199,88,245,231,162,60,67,125,188,61,250,28,203,23,124,71,77,225,82,187,14,247,49",252,"66a3ed3c5d10d0e7d8a6b9da","668557c57d3089ceba4a2d09","66a415f0b663c61a28970eb7",1,0,0,"true",3,86,"[{""page_index"":0,""viewing_time"":30243.80000001192}]",30244,"","","","","","",NA,NA,"",NA,NA,NA,NA,NA,NA,"","","",NA
"221","","survey-multi-choice",15,183055,"0.0-9.0",NA,505,"214,229,162,11,48,248,114,22,178,199,88,245,231,162,60,67,125,188,61,250,28,203,23,124,71,77,225,82,187,14,247,49",252,"66a3ed3c5d10d0e7d8a6b9da","668557c57d3089ceba4a2d09","66a415f0b663c61a28970eb7",1,0,0,"true",3,86,"",7103.09999999404,"{""Q0"":""...players' leaderboard position (in terms of <b>points</b>) in an <b>upcoming tournament.</b>""}","[0]","true","multichoice_tournament","","",NA,NA,"",NA,NA,NA,NA,NA,NA,"","","",NA
"222","","instructions",16,193031,"0.0-11.0",NA,505,"214,229,162,11,48,248,114,22,178,199,88,245,231,162,60,67,125,188,61,250,28,203,23,124,71,77,225,82,187,14,247,49",252,"66a3ed3c5d10d0e7d8a6b9da","668557c57d3089ceba4a2d09","66a415f0b663c61a28970eb7",1,0,0,"true",3,86,"[{""page_index"":0,""viewing_time"":9974.59999999404}]",9974.90000000596,"","","","","","",NA,NA,"",NA,NA,NA,NA,NA,NA,"","","",NA
"223","","instructions",17,217830,"0.0-12.0-0.0",NA,505,"214,229,162,11,48,248,114,22,178,199,88,245,231,162,60,67,125,188,61,250,28,203,23,124,71,77,225,82,187,14,247,49",252,"66a3ed3c5d10d0e7d8a6b9da","668557c57d3089ceba4a2d09","66a415f0b663c61a28970eb7",1,0,0,"true",3,86,"[{""page_index"":0,""viewing_time"":24798.09999999404}]",24798.5,"","","","","","",NA,NA,"",NA,NA,NA,NA,NA,NA,"","","",NA
"224","","type-this",18,226556,"0.0-12.0-1.0",NA,505,"214,229,162,11,48,248,114,22,178,199,88,245,231,162,60,67,125,188,61,250,28,203,23,124,71,77,225,82,187,14,247,49",252,"66a3ed3c5d10d0e7d8a6b9da","668557c57d3089ceba4a2d09","66a415f0b663c61a28970eb7",1,0,0,"true",3,86,"",8222.40000000596,"SHAKIRA","","","","","",NA,NA,"",NA,NA,NA,NA,NA,NA,"","SHAKIRA","",NA
"225","","Hangman_replay",19,243709,"0.0-12.0-2.0",NA,505,"214,229,162,11,48,248,114,22,178,199,88,245,231,162,60,67,125,188,61,250,28,203,23,124,71,77,225,82,187,14,247,49",252,"66a3ed3c5d10d0e7d8a6b9da","668557c57d3089ceba4a2d09","66a415f0b663c61a28970eb7",1,0,0,"true",3,86,"",NA,"","","","","SHAKIRA","A,J,S,T,K,B,C,L,U,V,M,D,E,N,W,X,O,F,G,P,Y,Z,Q,H,I,R",26,-5,"false",NA,NA,NA,NA,NA,NA,"","","",NA
"226","","instructions",20,248586,"0.0-12.0-3.0",NA,505,"214,229,162,11,48,248,114,22,178,199,88,245,231,162,60,67,125,188,61,250,28,203,23,124,71,77,225,82,187,14,247,49",252,"66a3ed3c5d10d0e7d8a6b9da","668557c57d3089ceba4a2d09","66a415f0b663c61a28970eb7",1,0,0,"true",3,86,"[{""page_index"":0,""viewing_time"":4876.0999999940395}]",4876.80000001192,"","","","","","",NA,NA,"",NA,NA,NA,NA,NA,NA,"","","",NA
"227","","Guess_leaderboard",21,255911,"0.0-12.0-4.0",NA,505,"214,229,162,11,48,248,114,22,178,199,88,245,231,162,60,67,125,188,61,250,28,203,23,124,71,77,225,82,187,14,247,49",252,"66a3ed3c5d10d0e7d8a6b9da","668557c57d3089ceba4a2d09","66a415f0b663c61a28970eb7",1,0,0,"true",3,86,"",NA,"","","","","SHAKIRA","",NA,NA,"",6553,95,66,0,92,3,"","","",NA
"228","","instructions",22,262111,"0.0-12.0-0.1",NA,505,"214,229,162,11,48,248,114,22,178,199,88,245,231,162,60,67,125,188,61,250,28,203,23,124,71,77,225,82,187,14,247,49",252,"66a3ed3c5d10d0e7d8a6b9da","668557c57d3089ceba4a2d09","66a415f0b663c61a28970eb7",1,0,0,"true",3,86,"[{""page_index"":0,""viewing_time"":6197.799999982119}]",6198.09999999404,"","","","","","",NA,NA,"",NA,NA,NA,NA,NA,NA,"","","",NA
"229","","type-this",23,266815,"0.0-12.0-1.1",NA,505,"214,229,162,11,48,248,114,22,178,199,88,245,231,162,60,67,125,188,61,250,28,203,23,124,71,77,225,82,187,14,247,49",252,"66a3ed3c5d10d0e7d8a6b9da","668557c57d3089ceba4a2d09","66a415f0b663c61a28970eb7",1,0,0,"true",3,86,"",4201.10000002384,"FIG","","","","","",NA,NA,"",NA,NA,NA,NA,NA,NA,"","FIG","",NA
"230","","Hangman_replay",24,277172,"0.0-12.0-2.1",NA,505,"214,229,162,11,48,248,114,22,178,199,88,245,231,162,60,67,125,188,61,250,28,203,23,124,71,77,225,82,187,14,247,49",252,"66a3ed3c5d10d0e7d8a6b9da","668557c57d3089ceba4a2d09","66a415f0b663c61a28970eb7",1,0,0,"true",3,86,"",NA,"","","","","FIG","I,G,F",3,15,"false",NA,NA,NA,NA,NA,NA,"","","",NA
"231","","instructions",25,278951,"0.0-12.0-3.1",NA,505,"214,229,162,11,48,248,114,22,178,199,88,245,231,162,60,67,125,188,61,250,28,203,23,124,71,77,225,82,187,14,247,49",252,"66a3ed3c5d10d0e7d8a6b9da","668557c57d3089ceba4a2d09","66a415f0b663c61a28970eb7",1,0,0,"true",3,86,"[{""page_index"":0,""viewing_time"":1778.300000011921}]",1778.59999999404,"","","","","","",NA,NA,"",NA,NA,NA,NA,NA,NA,"","","",NA
"232","","Guess_leaderboard",26,281821,"0.0-12.0-4.1",NA,505,"214,229,162,11,48,248,114,22,178,199,88,245,231,162,60,67,125,188,61,250,28,203,23,124,71,77,225,82,187,14,247,49",252,"66a3ed3c5d10d0e7d8a6b9da","668557c57d3089ceba4a2d09","66a415f0b663c61a28970eb7",1,0,0,"true",3,86,"",NA,"","","","","FIG","",NA,NA,"",2110.90000000596,1,67,1,3,2,"","","",NA
"233","","instructions",27,287434,"0.0-12.0-0.2",NA,505,"214,229,162,11,48,248,114,22,178,199,88,245,231,162,60,67,125,188,61,250,28,203,23,124,71,77,225,82,187,14,247,49",252,"66a3ed3c5d10d0e7d8a6b9da","668557c57d3089ceba4a2d09","66a415f0b663c61a28970eb7",1,0,0,"true",3,86,"[{""page_index"":0,""viewing_time"":5611.5}]",5611.80000001192,"","","","","","",NA,NA,"",NA,NA,NA,NA,NA,NA,"","","",NA
"234","","type-this",28,292509,"0.0-12.0-1.2",NA,505,"214,229,162,11,48,248,114,22,178,199,88,245,231,162,60,67,125,188,61,250,28,203,23,124,71,77,225,82,187,14,247,49",252,"66a3ed3c5d10d0e7d8a6b9da","668557c57d3089ceba4a2d09","66a415f0b663c61a28970eb7",1,0,0,"true",3,86,"",4572.59999999404,"WRIST","","","","","",NA,NA,"",NA,NA,NA,NA,NA,NA,"","WRIST","",NA
"235","","Hangman_replay",29,340212,"0.0-12.0-2.2",NA,505,"214,229,162,11,48,248,114,22,178,199,88,245,231,162,60,67,125,188,61,250,28,203,23,124,71,77,225,82,187,14,247,49",252,"66a3ed3c5d10d0e7d8a6b9da","668557c57d3089ceba4a2d09","66a415f0b663c61a28970eb7",1,0,0,"true",3,86,"",NA,"","","","","WRIST","E,A,O,I,H,L,T,S,R,W",10,10,"false",NA,NA,NA,NA,NA,NA,"","","",NA
"236","","instructions",30,342787,"0.0-12.0-3.2",NA,505,"214,229,162,11,48,248,114,22,178,199,88,245,231,162,60,67,125,188,61,250,28,203,23,124,71,77,225,82,187,14,247,49",252,"66a3ed3c5d10d0e7d8a6b9da","668557c57d3089ceba4a2d09","66a415f0b663c61a28970eb7",1,0,0,"true",3,86,"[{""page_index"":0,""viewing_time"":2574.300000011921}]",2574.80000001192,"","","","","","",NA,NA,"",NA,NA,NA,NA,NA,NA,"","","",NA
"237","","Guess_leaderboard",31,346328,"0.0-12.0-4.2",NA,505,"214,229,162,11,48,248,114,22,178,199,88,245,231,162,60,67,125,188,61,250,28,203,23,124,71,77,225,82,187,14,247,49",252,"66a3ed3c5d10d0e7d8a6b9da","668557c57d3089ceba4a2d09","66a415f0b663c61a28970eb7",1,0,0,"true",3,86,"",NA,"","","","","WRIST","",NA,NA,"",2781.59999999404,49,98,2,22,27,"","","",NA
"238","","instructions",32,348989,"0.0-12.0-0.3",NA,505,"214,229,162,11,48,248,114,22,178,199,88,245,231,162,60,67,125,188,61,250,28,203,23,124,71,77,225,82,187,14,247,49",252,"66a3ed3c5d10d0e7d8a6b9da","668557c57d3089ceba4a2d09","66a415f0b663c61a28970eb7",1,0,0,"true",3,86,"[{""page_index"":0,""viewing_time"":2659.9000000059605}]",2660.09999999404,"","","","","","",NA,NA,"",NA,NA,NA,NA,NA,NA,"","","",NA
"239","","type-this",33,354542,"0.0-12.0-1.3",NA,505,"214,229,162,11,48,248,114,22,178,199,88,245,231,162,60,67,125,188,61,250,28,203,23,124,71,77,225,82,187,14,247,49",252,"66a3ed3c5d10d0e7d8a6b9da","668557c57d3089ceba4a2d09","66a415f0b663c61a28970eb7",1,0,0,"true",3,86,"",5049.80000001192,"HAWAII","","","","","",NA,NA,"",NA,NA,NA,NA,NA,NA,"","HAWAII","",NA
"240","","Hangman_replay",34,391781,"0.0-12.0-2.3",NA,505,"214,229,162,11,48,248,114,22,178,199,88,245,231,162,60,67,125,188,61,250,28,203,23,124,71,77,225,82,187,14,247,49",252,"66a3ed3c5d10d0e7d8a6b9da","668557c57d3089ceba4a2d09","66a415f0b663c61a28970eb7",1,0,0,"true",3,86,"",NA,"","","","","HAWAII","A,H,W,I",4,15,"false",NA,NA,NA,NA,NA,NA,"","","",NA
"241","","instructions",35,394035,"0.0-12.0-3.3",NA,505,"214,229,162,11,48,248,114,22,178,199,88,245,231,162,60,67,125,188,61,250,28,203,23,124,71,77,225,82,187,14,247,49",252,"66a3ed3c5d10d0e7d8a6b9da","668557c57d3089ceba4a2d09","66a415f0b663c61a28970eb7",1,0,0,"true",3,86,"[{""page_index"":0,""viewing_time"":2253.5}]",2253.69999998808,"","","","","","",NA,NA,"",NA,NA,NA,NA,NA,NA,"","","",NA
"242","","Guess_leaderboard",36,398730,"0.0-12.0-4.3",NA,505,"214,229,162,11,48,248,114,22,178,199,88,245,231,162,60,67,125,188,61,250,28,203,23,124,71,77,225,82,187,14,247,49",252,"66a3ed3c5d10d0e7d8a6b9da","668557c57d3089ceba4a2d09","66a415f0b663c61a28970eb7",1,0,0,"true",3,86,"",NA,"","","","","HAWAII","",NA,NA,"",3935.59999999404,15,73,3,23,8,"","","",NA
"243","","instructions",37,401267,"0.0-12.0-0.4",NA,505,"214,229,162,11,48,248,114,22,178,199,88,245,231,162,60,67,125,188,61,250,28,203,23,124,71,77,225,82,187,14,247,49",252,"66a3ed3c5d10d0e7d8a6b9da","668557c57d3089ceba4a2d09","66a415f0b663c61a28970eb7",1,0,0,"true",3,86,"[{""page_index"":0,""viewing_time"":2535.9000000059605}]",2536.10000002384,"","","","","","",NA,NA,"",NA,NA,NA,NA,NA,NA,"","","",NA
"244","","type-this",38,408424,"0.0-12.0-1.4",NA,505,"214,229,162,11,48,248,114,22,178,199,88,245,231,162,60,67,125,188,61,250,28,203,23,124,71,77,225,82,187,14,247,49",252,"66a3ed3c5d10d0e7d8a6b9da","668557c57d3089ceba4a2d09","66a415f0b663c61a28970eb7",1,0,0,"true",3,86,"",6653.90000000596,"THIRTY FOUR","","","","","",NA,NA,"",NA,NA,NA,NA,NA,NA,"","THIRTY FOUR","",NA
"245","","Hangman_replay",39,437964,"0.0-12.0-2.4",NA,505,"214,229,162,11,48,248,114,22,178,199,88,245,231,162,60,67,125,188,61,250,28,203,23,124,71,77,225,82,187,14,247,49",252,"66a3ed3c5d10d0e7d8a6b9da","668557c57d3089ceba4a2d09","66a415f0b663c61a28970eb7",1,0,0,"true",3,86,"",NA,"","","","","THIRTY FOUR","E,R,Y,T,H,I,F,O,U",9,14,"false",NA,NA,NA,NA,NA,NA,"","","",NA
"246","","instructions",40,439776,"0.0-12.0-3.4",NA,505,"214,229,162,11,48,248,114,22,178,199,88,245,231,162,60,67,125,188,61,250,28,203,23,124,71,77,225,82,187,14,247,49",252,"66a3ed3c5d10d0e7d8a6b9da","668557c57d3089ceba4a2d09","66a415f0b663c61a28970eb7",1,0,0,"true",3,86,"[{""page_index"":0,""viewing_time"":1810.5}]",1810.69999998808,"","","","","","",NA,NA,"",NA,NA,NA,NA,NA,NA,"","","",NA
"247","","Guess_leaderboard",41,444531,"0.0-12.0-4.4",NA,505,"214,229,162,11,48,248,114,22,178,199,88,245,231,162,60,67,125,188,61,250,28,203,23,124,71,77,225,82,187,14,247,49",252,"66a3ed3c5d10d0e7d8a6b9da","668557c57d3089ceba4a2d09","66a415f0b663c61a28970eb7",1,0,0,"true",3,86,"",NA,"","","","","THIRTY FOUR","",NA,NA,"",3996.79999998212,4,53,4,24,20,"","","",NA
"248","","survey-text",42,451245,"0.0-13.0",NA,505,"214,229,162,11,48,248,114,22,178,199,88,245,231,162,60,67,125,188,61,250,28,203,23,124,71,77,225,82,187,14,247,49",252,"66a3ed3c5d10d0e7d8a6b9da","668557c57d3089ceba4a2d09","66a415f0b663c61a28970eb7",1,0,0,"true",3,86,"",6711.39999997616,"{""Q0"":""THIRTY FOUR""}","","","","","",NA,NA,"",NA,NA,NA,NA,NA,NA,"thirty four","","",NA
"249","","survey-multi-choice",43,467263,"0.0-14.0",NA,505,"214,229,162,11,48,248,114,22,178,199,88,245,231,162,60,67,125,188,61,250,28,203,23,124,71,77,225,82,187,14,247,49",252,"66a3ed3c5d10d0e7d8a6b9da","668557c57d3089ceba4a2d09","66a415f0b663c61a28970eb7",1,0,0,"true",3,86,"",16016.8999999762,"{""Q0"":""3. I would be <b>third</b> out of the six of us.""}","[0]","","self-rating","","",NA,NA,"",NA,3,NA,NA,NA,NA,"","","",NA
