[{"success":true,"trial_type":"fullscreen","trial_index":0,"time_elapsed":7885,"internal_node_id":"0.0-0.0","protocol_sum":"","subject_identifier":123,"subject_sum":[208,41,250,58,149,225,116,161,153,52,133,127,83,94,185,66,125,150,114,24,163,110,160,20,183,10,215,4,188,108,141,28],"subject_pair":61,"STUDY_ID":"669a702db1122fc5150a13ce","PROLIFIC_PID":"668c3e0bcd20a4a22d1c47ca","SESSION_ID":"669b125475f22207e8e8dcd4","practice_instructions":1,"leaderboard_instructions":0,"bonus":0,"reveal_word":true,"self_rating":"5","confidence":"100"},{"view_history":"[{\"page_index\":0,\"viewing_time\":6257}]","rt":6257,"trial_type":"instructions","trial_index":1,"time_elapsed":14146,"internal_node_id":"0.0-1.0","protocol_sum":"","subject_identifier":123,"subject_sum":[208,41,250,58,149,225,116,161,153,52,133,127,83,94,185,66,125,150,114,24,163,110,160,20,183,10,215,4,188,108,141,28],"subject_pair":61,"STUDY_ID":"669a702db1122fc5150a13ce","PROLIFIC_PID":"668c3e0bcd20a4a22d1c47ca","SESSION_ID":"669b125475f22207e8e8dcd4","practice_instructions":1,"leaderboard_instructions":0,"bonus":0,"reveal_word":true,"self_rating":"5","confidence":"100"},{"view_history":"[{\"page_index\":0,\"viewing_time\":9300}]","rt":9300,"trial_type":"instructions","trial_index":2,"time_elapsed":23447,"internal_node_id":"0.0-2.0-0.0","protocol_sum":"","subject_identifier":123,"subject_sum":[208,41,250,58,149,225,116,161,153,52,133,127,83,94,185,66,125,150,114,24,163,110,160,20,183,10,215,4,188,108,141,28],"subject_pair":61,"STUDY_ID":"669a702db1122fc5150a13ce","PROLIFIC_PID":"668c3e0bcd20a4a22d1c47ca","SESSION_ID":"669b125475f22207e8e8dcd4","practice_instructions":1,"leaderboard_instructions":0,"bonus":0,"reveal_word":true,"self_rating":"5","confidence":"100"},{"rt":13101,"responses":"{\"Q0\":\"... reveal the word with as <b>few letter guesses</b> as possible\"}","question_order":"[0]","trial_type":"survey-multi-choice","trial_index":3,"time_elapsed":36551,"internal_node_id":"0.0-2.0-1.0","protocol_sum":"","subject_identifier":123,"subject_sum":[208,41,250,58,149,225,116,161,153,52,133,127,83,94,185,66,125,150,114,24,163,110,160,20,183,10,215,4,188,108,141,28],"subject_pair":61,"correct":true,"test_part":"multichoice_nonpretend","STUDY_ID":"669a702db1122fc5150a13ce","PROLIFIC_PID":"668c3e0bcd20a4a22d1c47ca","SESSION_ID":"669b125475f22207e8e8dcd4","practice_instructions":1,"leaderboard_instructions":0,"bonus":0,"reveal_word":true,"self_rating":"5","confidence":"100"},{"view_history":"[{\"page_index\":0,\"viewing_time\":1532}]","rt":1532,"trial_type":"instructions","trial_index":4,"time_elapsed":38086,"internal_node_id":"0.0-3.0","protocol_sum":"","subject_identifier":123,"subject_sum":[208,41,250,58,149,225,116,161,153,52,133,127,83,94,185,66,125,150,114,24,163,110,160,20,183,10,215,4,188,108,141,28],"subject_pair":61,"STUDY_ID":"669a702db1122fc5150a13ce","PROLIFIC_PID":"668c3e0bcd20a4a22d1c47ca","SESSION_ID":"669b125475f22207e8e8dcd4","practice_instructions":1,"leaderboard_instructions":0,"bonus":0,"reveal_word":true,"self_rating":"5","confidence":"100"},{"word":"ZEBRA","click_log":{"letter":["","D","A","N","H","R","T","K","S","P","F","Z","E","B"],"t":[0,2264,4419,6010,8693,10192,14126,15179,17257,18624,19635,21147,23441,26021],"hit":[null,0,1,0,0,1,0,0,0,0,0,1,1,1],"asked":["","D","DA","DAN","DANH","DANHR","DANHRT","DANHRTK","DANHRTKS","DANHRTKSP","DANHRTKSPF","DANHRTKSPFZ","DANHRTKSPFZE","DANHRTKSPFZEB"],"word_state":["_____","_____","____A","____A","____A","___RA","___RA","___RA","___RA","___RA","___RA","Z__RA","ZE_RA","ZEBRA"]},"hover_log":{"letter":["?","?","?","?","?","?","J","K","K","?","L","?","M","N","N","N","N","?","?","?","?","?","?","?","O","O","O","O","O","O","O","O","O","O","O","O","O","O","O","O","O","O","O","O","O","O","O","O","O","O","O","O","O","O","O","O","O","O","O","O","O","O","O","O","O","O","O","O","O","?","?","N","N","N","N","N","?","?","?","?","?","?","D","D","D","D","D","D","D","D","D","D","D","D","D","D","D","D","D","D","D","D","D","D","D","D","D","D","D","D","D","D","D","D","D","D","D","D","D","D","D","D","D","D","D","D","D","D","D","D","D","D","D","D","D","D","D","D","D","D","D","D","D","D","D","D","D","D","D","D","D","D","D","D","D","D","D","D","D","D","D","D","D","D","D","D","D","D","D","D","D","D","D","D","D","D","D","D","D","?","?","?","?","?","?","?","?","?","?","?","?","?","?","?","?","?","?","B","B","B","B","?","?","?","?","?","A","A","A","A","A","A","A","A","A","A","A","A","A","A","A","A","A","A","A","A","A","A","A","A","A","A","A","A","A","A","A","A","A","A","A","A","A","A","A","A","A","A","A","A","A","A","A","A","A","A","A","A","A","A","A","A","?","?","?","?","?","?","?","L","L","L","L","L","L","L","L","L","L","L","?","M","M","M","M","M","M","M","M","M","M","M","M","?","?","?","?","N","N","N","N","N","N","N","N","N","N","N","N","N","N","N","N","N","N","N","N","N","N","N","N","N","N","N","N","N","N","N","N","N","N","N","N","N","N","N","N","N","N","N","N","N","N","N","N","N","N","N","N","N","N","N","N","N","N","N","N","N","N","N","N","N","N","N","N","N","N","N","N","N","N","N","N","N","N","N","N","N","N","N","N","N","N","N","N","N","N","N","N","N","N","N","N","N","N","N","N","?","?","?","?","?","?","?","?","?","?","G","?","H","H","H","H","H","H","H","H","H","H","H","H","H","H","H","H","H","H","H","H","H","H","H","H","H","H","H","H","H","H","H","H","H","H","H","H","H","H","H","H","H","H","H","H","H","H","H","H","H","H","H","H","H","H","H","H","H","H","H","H","H","H","H","H","H","H","H","H","H","H","H","H","H","H","H","H","H","H","H","H","H","H","H","H","H","H","H","H","H","H","H","H","H","H","H","H","?","?","?","?","Q","Q","Q","Q","Q","Q","Q","Q","Q","Q","Q","Q","Q","Q","Q","Q","?","?","?","R","R","R","R","R","R","R","R","R","R","R","R","R","R","R","R","R","R","R","R","R","R","R","R","R","R","R","R","R","R","R","R","R","R","R","R","R","R","R","R","R","R","R","R","R","R","R","R","R","R","R","R","R","R","R","R","R","R","R","R","R","R","R","R","R","R","R","R","R","R","R","R","R","R","R","R","R","R","R","R","R","R","R","R","R","R","R","R","R","R","R","R","R","?","?","?","?","?","?","?","?","?","?","?","?","?","?","?","?","?","?","?","Z","Z","Z","Z","Z","Z","Z","Z","Z","Z","?","?","?","?","?","?","?","?","?","?","?","?","?","?","?","?","?","?","?","?","W","W","V","V","V","V","V","V","V","V","V","V","V","V","V","V","V","V","V","V","V","V","V","V","V","V","V","V","V","V","V","V","V","V","V","V","V","V","V","V","V","V","?","U","U","U","U","U","U","U","U","U","U","U","U","U","U","U","U","U","U","U","U","U","U","U","U","U","U","U","U","U","U","U","U","U","U","U","U","U","U","U","U","U","U","U","?","?","?","T","T","T","T","T","T","T","T","T","T","T","T","T","T","T","T","T","T","T","T","T","T","T","T","T","T","T","T","T","T","T","T","T","T","T","T","T","T","T","T","T","T","T","T","T","T","T","T","T","T","T","T","T","T","T","T","?","?","?","?","K","K","K","K","K","K","K","K","K","K","K","K","K","K","K","K","K","K","K","K","K","K","K","K","K","K","K","K","K","K","K","K","K","K","K","K","K","K","K","K","K","K","?","L","L","L","L","L","L","?","?","?","?","M","M","M","M","M","M","M","M","M","M","?","?","?","?","?","?","?","?","?","?","?","?","?","?","?","?","?","?","?","?","?","?","?","?","?","?","?","?","?","?","?","?","?","L","L","L","L","L","L","L","L","L","?","?","?","?","?","?","?","?","?","?","?","?","?","?","?","?","?","S","S","S","S","S","S","S","S","S","S","S","S","S","S","S","S","S","S","S","S","S","S","S","S","S","S","S","S","S","S","S","S","S","S","S","S","S","S","S","S","S","S","S","S","S","T","T","U","U","V","V","?","?","?","?","?","?","?","?","?","?","?","O","O","O","O","O","O","O","O","O","O","O","O","O","O","O","O","O","O","O","?","?","?","P","P","P","P","P","P","P","P","P","P","P","P","P","P","P","P","P","P","P","P","P","P","P","P","P","P","P","P","P","P","P","P","P","P","P","P","P","P","P","P","P","P","P","P","?","?","?","?","?","?","?","?","?","?","?","?","?","?","?","?","?","?","F","F","F","F","F","F","F","F","F","F","F","F","F","F","F","F","F","F","F","F","F","F","F","F","F","F","F","F","F","F","F","F","F","F","F","F","F","F","F","F","?","?","?","?","?","?","?","O","O","O","O","O","O","O","O","O","O","O","O","O","O","?","?","?","?","?","?","?","?","Y","Y","Y","Y","Y","?","?","Z","Z","Z","Z","Z","Z","Z","Z","Z","Z","Z","Z","Z","Z","Z","Z","Z","Z","Z","Z","Z","Z","Z","Z","Z","Z","Z","Z","Z","Z","Z","Z","Z","Z","Z","Z","Z","Z","Z","Z","Z","Z","Z","Z","Z","Z","Z","Z","Z","Z","Z","Z","Z","Z","Z","Z","Z","Z","Z","Z","Z","Z","Z","Z","Z","Z","Z","Z","Z","Z","Z","Z","Z","Z","?","?","?","?","?","?","Y","Y","Y","Y","X","X","?","?","?","L","L","L","L","L","L","L","L","L","?","?","?","?","?","?","?","?","?","?","?","?","?","?","?","?","?","C","C","C","C","?","D","D","D","D","D","D","D","D","D","D","D","D","?","?","E","E","E","E","E","E","E","E","E","E","E","E","E","E","E","E","E","E","E","E","E","E","E","E","E","E","E","E","E","E","E","?","?","?","N","N","N","N","N","N","N","?","?","?","?","?","?","M","M","?","?","?","?","?","?","?","?","?","?","?","?","?","?","?","?","?","M","M","M","M","M","N","N","N","N","?","?","?","?","?","F","F","F","F","F","F","F","F","F","?","?","?","N","N","N","?","?","?","?","?","?","?","?","?","?","?","?","?","?","?","?","?","?","?","?","?","?","?","?","L","L","L","L","L","L","?","?","?","?","?","?","?","?","?","?","?","?","?","?","?","?","?","?","?","?","?","?","?","?","?","B","B","B","B","B","B","B","B","B","B","B","B","B","B","B","B","B","B","B","B","B","B","B","B","B","B","B","B","?","C","E","F","G","?","?","?","?","?","?","?","?","?","?","?","?","?","?","?","?","?","?","?","?","?","?","?","J","J","J","J","J","J","J","J","J","J","J","J","J","J","J","J","J","K","?","?","?","?","?","?","?","?","?","?","?","?","?","?","?","?","?","?","?","?","?","?","?","?","?","?","?","?","?","?","?","?","?","?","?","?","?","?","?","?","?","?","?","?","?","?","?","?"],"t":[65,247,349,364,379,413,454,462,485,503,520,535,553,595,615,628,644,683,693,712,727,745,764,777,809,823,841,858,877,895,911,937,958,975,991,1009,1025,1043,1058,1074,1091,1111,1127,1144,1158,1175,1190,1208,1240,1256,1274,1297,1310,1324,1343,1356,1374,1391,1406,1424,1440,1457,1481,1505,1526,1542,1558,1577,1590,1606,1626,1644,1657,1673,1701,1730,1742,1759,1775,1793,1809,1826,1844,1872,1891,1907,1922,1940,1972,1990,2008,2024,2041,2058,2073,2092,2107,2123,2142,2158,2174,2191,2208,2225,2242,2277,2291,2335,2357,2372,2390,2407,2425,2439,2456,2476,2492,2508,2523,2543,2557,2576,2592,2609,2622,2638,2656,2675,2689,2707,2724,2740,2759,2776,2791,2806,2825,2840,2857,2872,2890,2915,2941,2957,2974,2990,3007,3025,3041,3056,3072,3090,3107,3124,3144,3155,3176,3190,3207,3223,3251,3273,3290,3305,3323,3340,3356,3374,3390,3407,3422,3439,3466,3484,3504,3521,3542,3555,3573,3593,3608,3625,3643,3658,3675,3692,3707,3725,3742,3758,3776,3792,3809,3825,3840,3856,3874,3903,3925,3945,3959,3973,3993,4007,4038,4054,4072,4089,4107,4125,4141,4160,4175,4191,4210,4225,4239,4257,4284,4305,4323,4339,4357,4374,4389,4408,4434,4440,4457,4473,4488,4508,4521,4540,4557,4573,4589,4607,4624,4644,4661,4676,4689,4708,4725,4742,4756,4774,4796,4823,4838,4858,4873,4892,4906,4924,4941,4955,4972,4989,5009,5028,5044,5060,5078,5091,5110,5140,5161,5178,5190,5208,5230,5242,5256,5273,5307,5324,5340,5359,5389,5409,5426,5442,5458,5477,5493,5510,5534,5558,5576,5592,5609,5640,5661,5677,5692,5712,5732,5759,5774,5794,5810,5825,5844,5856,5871,5888,5916,5938,5955,5972,5992,6007,6025,6040,6056,6072,6090,6106,6123,6138,6157,6170,6188,6204,6222,6241,6255,6274,6288,6304,6322,6340,6357,6372,6393,6405,6422,6439,6455,6473,6492,6505,6523,6539,6555,6573,6604,6622,6640,6655,6672,6689,6705,6724,6739,6755,6773,6788,6805,6820,6837,6855,6870,6892,6906,6923,6939,6955,6971,6989,7005,7022,7038,7057,7078,7104,7121,7139,7155,7170,7187,7203,7221,7240,7257,7271,7289,7307,7324,7338,7356,7385,7406,7424,7440,7457,7474,7496,7511,7523,7539,7566,7591,7607,7627,7645,7658,7673,7688,7709,7722,7738,7754,7770,7788,7804,7821,7839,7853,7871,7889,7906,7922,7938,7953,7970,7989,8005,8022,8038,8054,8071,8087,8104,8120,8137,8155,8174,8190,8205,8222,8242,8255,8271,8292,8323,8337,8355,8371,8389,8404,8419,8438,8454,8471,8488,8505,8523,8538,8556,8574,8589,8605,8622,8638,8654,8671,8687,8703,8720,8737,8757,8771,8790,8802,8826,8854,8870,8887,8904,8920,8937,8955,8972,8989,9003,9021,9038,9055,9073,9089,9105,9121,9137,9154,9170,9187,9203,9221,9239,9255,9272,9288,9305,9324,9357,9371,9389,9405,9426,9439,9456,9473,9494,9507,9523,9538,9573,9594,9607,9622,9639,9657,9691,9705,9724,9744,9757,9773,9791,9804,9823,9848,9874,9888,9903,9922,9938,9954,9972,9987,10005,10025,10039,10070,10088,10103,10120,10138,10161,10187,10205,10220,10246,10270,10287,10304,10322,10338,10355,10372,10389,10406,10420,10437,10460,10473,10489,10505,10541,10547,10563,10581,10597,10614,10646,10671,10686,10707,10722,10738,10755,10771,10787,10804,10821,10838,10856,10878,10903,10922,10936,10957,10976,10997,11021,11038,11055,11072,11090,11105,11122,11138,11154,11172,11189,11205,11223,11238,11253,11271,11288,11313,11338,11354,11376,11389,11404,11423,11439,11456,11471,11488,11503,11522,11537,11555,11571,11588,11605,11622,11638,11654,11672,11689,11705,11721,11739,11755,11777,11789,11810,11828,11838,11856,11872,11888,11905,11920,11938,11955,11969,11987,12002,12020,12038,12054,12074,12089,12105,12119,12138,12159,12175,12193,12205,12223,12241,12257,12274,12342,12369,12385,12403,12419,12436,12453,12470,12489,12506,12521,12535,12552,12570,12586,12603,12620,12637,12653,12670,12685,12702,12719,12736,12753,12770,12787,12803,12820,12836,12853,12869,12886,12903,12919,12938,12955,12971,12989,13005,13023,13039,13057,13076,13091,13106,13120,13138,13156,13170,13187,13215,13235,13252,13270,13288,13304,13321,13337,13353,13370,13386,13410,13437,13452,13468,13486,13503,13522,13537,13553,13569,13585,13603,13619,13635,13653,13670,13687,13703,13720,13739,13752,13770,13787,13806,13820,13836,13852,13870,13887,13904,13921,13937,13952,13969,13986,14002,14018,14037,14052,14070,14086,14103,14118,14136,14152,14168,14185,14202,14219,14235,14252,14269,14286,14302,14318,14335,14352,14370,14385,14402,14418,14435,14452,14468,14485,14503,14520,14536,14553,14571,14587,14604,14620,14636,14652,14668,14684,14702,14719,14737,14753,14772,14790,14804,14820,14836,14853,14871,14891,14906,14919,14935,14952,14967,14986,15003,15020,15037,15054,15070,15087,15102,15122,15135,15154,15169,15187,15204,15220,15237,15254,15270,15286,15305,15327,15339,15353,15371,15387,15404,15417,15454,15469,15489,15502,15520,15540,15554,15587,15596,15609,15637,15654,15670,15686,15702,15718,15736,15753,15770,15788,15804,15820,15836,15853,15868,15884,15903,15920,15935,15952,15970,15989,16004,16025,16037,16054,16072,16085,16103,16121,16135,16153,16170,16186,16202,16220,16235,16252,16267,16285,16302,16317,16334,16355,16370,16387,16405,16420,16439,16453,16470,16494,16504,16528,16552,16568,16585,16601,16621,16636,16654,16670,16689,16705,16721,16742,16759,16771,16790,16813,16835,16852,16869,16885,16902,16920,16937,16954,16969,16985,17001,17018,17034,17053,17068,17084,17101,17119,17136,17152,17169,17185,17202,17218,17234,17251,17268,17285,17302,17320,17335,17351,17367,17384,17403,17418,17434,17452,17468,17487,17502,17521,17536,17551,17569,17586,17602,17619,17634,17653,17672,17689,17704,17722,17741,17755,17772,17787,17802,17820,17842,17871,17888,17905,17919,17937,17951,17972,17989,18004,18021,18036,18052,18069,18096,18116,18134,18151,18167,18187,18205,18220,18242,18255,18270,18286,18302,18335,18353,18371,18388,18402,18419,18436,18466,18486,18502,18519,18536,18552,18570,18585,18601,18618,18635,18651,18668,18693,18719,18738,18752,18769,18784,18801,18819,18835,18850,18868,18884,18902,18918,18935,18951,18968,18984,19000,19017,19034,19050,19067,19084,19102,19120,19137,19153,19170,19187,19206,19218,19234,19252,19268,19284,19302,19319,19334,19351,19371,19386,19403,19419,19437,19451,19467,19484,19503,19517,19536,19552,19569,19583,19600,19617,19633,19652,19668,19685,19700,19717,19733,19751,19767,19784,19802,19817,19834,19851,19867,19883,19900,19917,19933,19951,19967,19984,20001,20017,20035,20051,20070,20085,20105,20119,20137,20151,20168,20183,20202,20219,20236,20256,20268,20290,20305,20323,20336,20354,20387,20401,20422,20438,20454,20471,20491,20502,20523,20537,20578,20601,20619,20634,20656,20672,20686,20706,20723,20739,20754,20781,20788,20809,20834,20851,20868,20886,20900,20919,20933,20950,20969,20984,21001,21017,21034,21050,21067,21085,21100,21117,21134,21151,21168,21184,21201,21216,21233,21250,21266,21283,21300,21316,21333,21351,21367,21385,21403,21419,21434,21453,21469,21485,21501,21518,21532,21549,21566,21584,21600,21617,21634,21650,21668,21684,21702,21722,21736,21753,21766,21784,21801,21819,21834,21851,21868,21885,21900,21917,21934,21951,21968,21984,22001,22018,22034,22052,22071,22087,22102,22118,22138,22160,22172,22189,22203,22222,22241,22268,22283,22301,22318,22337,22353,22369,22391,22410,22421,22439,22453,22468,22486,22501,22518,22536,22551,22567,22586,22601,22618,22645,22667,22687,22699,22719,22732,22757,22773,22788,22802,22824,22839,22852,22869,22885,22923,22949,22966,22983,23004,23019,23037,23053,23067,23088,23100,23117,23135,23152,23168,23184,23199,23217,23236,23250,23267,23284,23302,23319,23347,23367,23383,23404,23419,23435,23452,23466,23484,23500,23516,23534,23550,23566,23602,23617,23635,23655,23676,23684,23701,23735,23752,23770,23784,23801,23817,23834,23859,23887,23901,23920,23933,23952,23969,23985,24008,24017,24033,24050,24068,24083,24112,24134,24153,24169,24186,24199,24215,24234,24250,24271,24285,24303,24320,24337,24353,24369,24387,24403,24430,24442,24464,24486,24505,24522,24535,24561,24582,24602,24616,24634,24650,24667,24686,24703,24719,24735,24760,24770,24791,24815,24832,24850,24870,24882,24901,24919,24936,24952,24968,24984,25000,25016,25032,25050,25067,25087,25103,25118,25134,25151,25183,25199,25217,25236,25253,25272,25283,25301,25317,25333,25354,25384,25401,25416,25440,25467,25482,25498,25517,25531,25551,25569,25586,25603,25616,25632,25678,25698,25717,25733,25752,25766,25785,25803,25824,25841,25857,25885,25899,25919,25935,25950,25968,25984,26001,26030,26051,26069,26086,26103,26119,26134,26150,26169,26184,26201,26236,26251,26268,26285,26307,26322,26367,26373,26395,26407,26422,26436,26455,26470,26486,26502,26519,26532,26551,26587,26601,26617,26651,26668,26687,26709,26719,26740,26756,26769,26787,26804,26840,26852,26869,26885,26901,26917,26934,26967,26985,27001,27020,27033,27050,27086,27101,27117,27133,27155,27170,27190,27218,27234,27253,27270,27288,27311,27332,27352,27367,27385,27401,27421,27445,27456,27475,27489,27501,27519,27541,27554,27569,27582,27618,27634,27650,27669,27683,27702,27719,27733,27757,27767,27784,27801,27833,27848,27867,27884,27903,27918,27935,27956,27972,27993,28007,28024,28041],"hit":[null],"x":[-2.0408163265306123,-2.0408163265306123,-2.0408163265306123,-2.0408163265306123,-2.0408163265306123,-2.0408163265306123,0.023809523809523808,0.08843537414965986,0.1360544217687075,0.22448979591836735,0.272108843537415,0.3469387755102041,0.40476190476190477,0.5272108843537415,0.5510204081632653,0.5850340136054422,0.6054421768707483,0.6326530612244898,0.6326530612244898,0.6394557823129252,0.6462585034013606,0.6462585034013606,0.6496598639455783,0.6530612244897959,0.6598639455782312,0.6598639455782312,0.6598639455782312,0.6598639455782312,0.6598639455782312,0.6598639455782312,0.6598639455782312,0.6598639455782312,0.6598639455782312,0.6598639455782312,0.6598639455782312,0.6598639455782312,0.6598639455782312,0.6598639455782312,0.6598639455782312,0.6598639455782312,0.6598639455782312,0.6598639455782312,0.6598639455782312,0.6598639455782312,0.6598639455782312,0.6598639455782312,0.6598639455782312,0.6598639455782312,0.6598639455782312,0.6598639455782312,0.6598639455782312,0.6598639455782312,0.6598639455782312,0.6598639455782312,0.6598639455782312,0.6598639455782312,0.6598639455782312,0.6598639455782312,0.6598639455782312,0.6598639455782312,0.6598639455782312,0.6598639455782312,0.6598639455782312,0.6598639455782312,0.6598639455782312,0.6598639455782312,0.6598639455782312,0.6598639455782312,0.6564625850340136,0.6496598639455783,0.6394557823129252,0.6258503401360545,0.6156462585034014,0.5986394557823129,0.5850340136054422,0.5612244897959183,0.5306122448979592,0.5068027210884354,0.4931972789115646,0.48639455782312924,0.47619047619047616,0.46598639455782315,0.4557823129251701,0.445578231292517,0.4421768707482993,0.4421768707482993,0.4421768707482993,0.4421768707482993,0.4421768707482993,0.4421768707482993,0.4421768707482993,0.4421768707482993,0.4421768707482993,0.4421768707482993,0.4421768707482993,0.4421768707482993,0.4421768707482993,0.4421768707482993,0.4421768707482993,0.4421768707482993,0.4421768707482993,0.4421768707482993,0.4421768707482993,0.4421768707482993,0.4421768707482993,0.4421768707482993,0.4421768707482993,0.4421768707482993,0.4421768707482993,0.4421768707482993,0.4421768707482993,0.4421768707482993,0.4421768707482993,0.4421768707482993,0.4421768707482993,0.4421768707482993,0.4421768707482993,0.4421768707482993,0.4421768707482993,0.4421768707482993,0.4421768707482993,0.4421768707482993,0.4421768707482993,0.4421768707482993,0.4421768707482993,0.4421768707482993,0.4421768707482993,0.4421768707482993,0.4421768707482993,0.4421768707482993,0.4421768707482993,0.4421768707482993,0.4421768707482993,0.4421768707482993,0.4421768707482993,0.4421768707482993,0.4421768707482993,0.4421768707482993,0.4421768707482993,0.4421768707482993,0.4421768707482993,0.4421768707482993,0.4421768707482993,0.4421768707482993,0.4421768707482993,0.4421768707482993,0.4421768707482993,0.4421768707482993,0.4421768707482993,0.4421768707482993,0.4421768707482993,0.4421768707482993,0.4421768707482993,0.4421768707482993,0.4421768707482993,0.4421768707482993,0.4421768707482993,0.4421768707482993,0.4421768707482993,0.4421768707482993,0.4421768707482993,0.4421768707482993,0.4421768707482993,0.4421768707482993,0.4421768707482993,0.4421768707482993,0.4421768707482993,0.4421768707482993,0.4421768707482993,0.4421768707482993,0.4421768707482993,0.4421768707482993,0.4421768707482993,0.4421768707482993,0.4421768707482993,0.4421768707482993,0.4421768707482993,0.43537414965986393,0.42857142857142855,0.41836734693877553,0.40476190476190477,0.3945578231292517,0.3843537414965986,0.3707482993197279,0.36054421768707484,0.3469387755102041,0.3333333333333333,0.3197278911564626,0.30612244897959184,0.2891156462585034,0.272108843537415,0.25170068027210885,0.22789115646258504,0.19727891156462585,0.17346938775510204,0.14965986394557823,0.1360544217687075,0.11904761904761904,0.10884353741496598,0.09863945578231292,0.09183673469387756,0.08843537414965986,0.08503401360544217,0.08163265306122448,0.06802721088435375,0.061224489795918366,0.05442176870748299,0.05102040816326531,0.04421768707482993,0.04081632653061224,0.03741496598639456,0.030612244897959183,0.030612244897959183,0.027210884353741496,0.027210884353741496,0.027210884353741496,0.027210884353741496,0.027210884353741496,0.027210884353741496,0.027210884353741496,0.027210884353741496,0.027210884353741496,0.027210884353741496,0.027210884353741496,0.027210884353741496,0.027210884353741496,0.027210884353741496,0.027210884353741496,0.027210884353741496,0.027210884353741496,0.027210884353741496,0.027210884353741496,0.027210884353741496,0.027210884353741496,0.027210884353741496,0.027210884353741496,0.027210884353741496,0.027210884353741496,0.027210884353741496,0.027210884353741496,0.027210884353741496,0.027210884353741496,0.027210884353741496,0.027210884353741496,0.027210884353741496,0.027210884353741496,0.027210884353741496,0.027210884353741496,0.027210884353741496,0.027210884353741496,0.027210884353741496,0.027210884353741496,0.027210884353741496,0.027210884353741496,0.027210884353741496,0.027210884353741496,0.027210884353741496,0.027210884353741496,0.027210884353741496,0.027210884353741496,0.027210884353741496,0.047619047619047616,0.06462585034013606,0.08843537414965986,0.11564625850340136,0.14285714285714285,0.16326530612244897,0.22448979591836735,0.25170068027210885,0.2687074829931973,0.2857142857142857,0.2925170068027211,0.29931972789115646,0.30612244897959184,0.30612244897959184,0.30612244897959184,0.30952380952380953,0.3197278911564626,0.3231292517006803,0.3333333333333333,0.36054421768707484,0.37755102040816324,0.4013605442176871,0.41496598639455784,0.4217687074829932,0.42857142857142855,0.4421768707482993,0.445578231292517,0.45918367346938777,0.46938775510204084,0.46938775510204084,0.47619047619047616,0.48299319727891155,0.4897959183673469,0.4965986394557823,0.4965986394557823,0.5034013605442177,0.5136054421768708,0.5170068027210885,0.5238095238095238,0.5238095238095238,0.5272108843537415,0.5306122448979592,0.5306122448979592,0.5374149659863946,0.5374149659863946,0.5374149659863946,0.5374149659863946,0.5374149659863946,0.5374149659863946,0.5374149659863946,0.5374149659863946,0.5374149659863946,0.5374149659863946,0.5374149659863946,0.5374149659863946,0.5374149659863946,0.5374149659863946,0.5374149659863946,0.5374149659863946,0.5374149659863946,0.5374149659863946,0.5374149659863946,0.5374149659863946,0.5374149659863946,0.5374149659863946,0.5374149659863946,0.5374149659863946,0.5374149659863946,0.5374149659863946,0.5374149659863946,0.5374149659863946,0.5374149659863946,0.5374149659863946,0.5374149659863946,0.5374149659863946,0.5374149659863946,0.5374149659863946,0.5374149659863946,0.5374149659863946,0.5374149659863946,0.5374149659863946,0.5374149659863946,0.5374149659863946,0.5374149659863946,0.5374149659863946,0.5374149659863946,0.5374149659863946,0.5374149659863946,0.5374149659863946,0.5374149659863946,0.5374149659863946,0.5374149659863946,0.5374149659863946,0.5374149659863946,0.5374149659863946,0.5374149659863946,0.5374149659863946,0.5374149659863946,0.5374149659863946,0.5374149659863946,0.5374149659863946,0.5374149659863946,0.5374149659863946,0.5374149659863946,0.5374149659863946,0.5374149659863946,0.5374149659863946,0.5374149659863946,0.5374149659863946,0.5374149659863946,0.5374149659863946,0.5374149659863946,0.5374149659863946,0.5374149659863946,0.5374149659863946,0.5374149659863946,0.5374149659863946,0.5374149659863946,0.5374149659863946,0.5374149659863946,0.5374149659863946,0.5374149659863946,0.5374149659863946,0.5374149659863946,0.5374149659863946,0.5374149659863946,0.5374149659863946,0.5408163265306123,0.5510204081632653,0.5578231292517006,0.564625850340136,0.5714285714285714,0.5850340136054422,0.5918367346938775,0.5952380952380952,0.5986394557823129,0.6054421768707483,0.6190476190476191,0.6326530612244898,0.6598639455782312,0.673469387755102,0.6870748299319728,0.7040816326530612,0.7278911564625851,0.7551020408163265,0.8095238095238095,0.8775510204081632,0.9319727891156463,0.9591836734693877,0.9659863945578231,0.9659863945578231,0.9659863945578231,0.9659863945578231,0.9659863945578231,0.9659863945578231,0.9659863945578231,0.9659863945578231,0.9659863945578231,0.9659863945578231,0.9659863945578231,0.9659863945578231,0.9659863945578231,0.9659863945578231,0.9659863945578231,0.9659863945578231,0.9659863945578231,0.9659863945578231,0.9659863945578231,0.9659863945578231,0.9659863945578231,0.9659863945578231,0.9659863945578231,0.9659863945578231,0.9659863945578231,0.9659863945578231,0.9659863945578231,0.9659863945578231,0.9659863945578231,0.9659863945578231,0.9659863945578231,0.9659863945578231,0.9659863945578231,0.9659863945578231,0.9659863945578231,0.9659863945578231,0.9659863945578231,0.9659863945578231,0.9659863945578231,0.9659863945578231,0.9659863945578231,0.9659863945578231,0.9659863945578231,0.9659863945578231,0.9659863945578231,0.9659863945578231,0.9659863945578231,0.9659863945578231,0.9659863945578231,0.9659863945578231,0.9659863945578231,0.9659863945578231,0.9659863945578231,0.9659863945578231,0.9659863945578231,0.9659863945578231,0.9659863945578231,0.9659863945578231,0.9659863945578231,0.9659863945578231,0.9659863945578231,0.9659863945578231,0.9659863945578231,0.9659863945578231,0.9659863945578231,0.9659863945578231,0.9659863945578231,0.9659863945578231,0.9659863945578231,0.9659863945578231,0.9659863945578231,0.9659863945578231,0.9659863945578231,0.9659863945578231,0.9659863945578231,0.9659863945578231,0.9659863945578231,0.9659863945578231,0.9659863945578231,0.9659863945578231,0.9659863945578231,0.9659863945578231,0.9659863945578231,0.9659863945578231,0.9659863945578231,0.9659863945578231,0.9659863945578231,0.9659863945578231,0.9659863945578231,0.9659863945578231,0.9659863945578231,0.9659863945578231,0.9659863945578231,0.9659863945578231,0.9659863945578231,0.9659863945578231,0.9659863945578231,0.9659863945578231,0.9659863945578231,0.9659863945578231,0.9659863945578231,0.9659863945578231,0.9659863945578231,0.9659863945578231,0.9727891156462585,0.9727891156462585,0.9727891156462585,0.9761904761904762,0.9761904761904762,0.9761904761904762,0.9897959183673469,1.0136054421768708,1.0272108843537415,1.0408163265306123,1.0408163265306123,1.0612244897959184,1.0680272108843538,1.0816326530612246,1.0850340136054422,1.0850340136054422,1.08843537414966,1.08843537414966,1.08843537414966,1.08843537414966,1.08843537414966,1.08843537414966,1.08843537414966,1.08843537414966,1.08843537414966,1.08843537414966,1.08843537414966,1.08843537414966,1.08843537414966,1.098639455782313,1.1088435374149659,1.1156462585034013,1.1224489795918366,1.1224489795918366,1.1224489795918366,1.1224489795918366,1.1224489795918366,1.1224489795918366,1.1224489795918366,1.1224489795918366,1.1224489795918366,1.1224489795918366,1.1224489795918366,1.1224489795918366,1.1224489795918366,1.1224489795918366,1.1224489795918366,1.1224489795918366,1.1224489795918366,1.1224489795918366,1.1224489795918366,1.1224489795918366,1.1224489795918366,1.1224489795918366,1.1224489795918366,1.1224489795918366,1.1224489795918366,1.1224489795918366,1.1224489795918366,1.1224489795918366,1.1224489795918366,1.1224489795918366,1.1224489795918366,1.1224489795918366,1.1224489795918366,1.1224489795918366,1.1224489795918366,1.1224489795918366,1.1224489795918366,1.1224489795918366,1.1224489795918366,1.1224489795918366,1.1224489795918366,1.1224489795918366,1.1224489795918366,1.1224489795918366,1.1224489795918366,1.1224489795918366,1.1224489795918366,1.1224489795918366,1.1224489795918366,1.1224489795918366,1.1224489795918366,1.1224489795918366,1.1224489795918366,1.1224489795918366,1.1224489795918366,1.1224489795918366,1.1224489795918366,1.1224489795918366,1.1224489795918366,1.1224489795918366,1.1224489795918366,1.1224489795918366,1.1224489795918366,1.1224489795918366,1.1224489795918366,1.1224489795918366,1.1224489795918366,1.1224489795918366,1.1224489795918366,1.1224489795918366,1.1224489795918366,1.1156462585034013,1.1088435374149659,1.098639455782313,1.0918367346938775,1.0816326530612246,1.0782312925170068,1.0782312925170068,1.0782312925170068,1.0782312925170068,1.0782312925170068,1.0782312925170068,1.0782312925170068,1.0782312925170068,1.0782312925170068,1.0782312925170068,1.0782312925170068,1.0748299319727892,1.0714285714285714,1.0680272108843538,1.064625850340136,1.0578231292517006,1.054421768707483,1.0510204081632653,1.0476190476190477,1.0442176870748299,1.0408163265306123,1.0374149659863945,1.0374149659863945,1.034013605442177,1.034013605442177,1.034013605442177,1.030612244897959,1.030612244897959,1.030612244897959,1.030612244897959,1.0272108843537415,1.0238095238095237,1.0204081632653061,1.0170068027210883,1.010204081632653,0.9965986394557823,0.9863945578231292,0.9761904761904762,0.9659863945578231,0.9523809523809523,0.9285714285714286,0.9013605442176871,0.8741496598639455,0.826530612244898,0.7857142857142857,0.7380952380952381,0.6938775510204082,0.6394557823129252,0.5816326530612245,0.5476190476190477,0.4489795918367347,0.43537414965986393,0.42857142857142855,0.42517006802721086,0.4217687074829932,0.41836734693877553,0.41836734693877553,0.41496598639455784,0.41496598639455784,0.41156462585034015,0.40816326530612246,0.40816326530612246,0.40476190476190477,0.40476190476190477,0.40476190476190477,0.40476190476190477,0.40476190476190477,0.40476190476190477,0.40476190476190477,0.40476190476190477,0.40476190476190477,0.40476190476190477,0.40476190476190477,0.40476190476190477,0.40476190476190477,0.40476190476190477,0.40476190476190477,0.40476190476190477,0.40476190476190477,0.40476190476190477,0.40476190476190477,0.40476190476190477,0.40476190476190477,0.40476190476190477,0.40476190476190477,0.40476190476190477,0.40476190476190477,0.4013605442176871,0.3945578231292517,0.3843537414965986,0.36394557823129253,0.3435374149659864,0.32653061224489793,0.30612244897959184,0.2925170068027211,0.2789115646258503,0.2687074829931973,0.2585034013605442,0.25170068027210885,0.25170068027210885,0.25170068027210885,0.25170068027210885,0.25170068027210885,0.25170068027210885,0.25170068027210885,0.25170068027210885,0.25170068027210885,0.25170068027210885,0.25170068027210885,0.25170068027210885,0.25170068027210885,0.25170068027210885,0.25170068027210885,0.25170068027210885,0.25170068027210885,0.25170068027210885,0.25170068027210885,0.25170068027210885,0.25170068027210885,0.25170068027210885,0.25170068027210885,0.25170068027210885,0.25170068027210885,0.25170068027210885,0.25170068027210885,0.25170068027210885,0.25170068027210885,0.25170068027210885,0.25170068027210885,0.25170068027210885,0.25170068027210885,0.25170068027210885,0.24489795918367346,0.23469387755102042,0.21768707482993196,0.2108843537414966,0.20408163265306123,0.19727891156462585,0.19047619047619047,0.1836734693877551,0.17687074829931973,0.17346938775510204,0.17006802721088435,0.16666666666666666,0.16326530612244897,0.16326530612244897,0.16326530612244897,0.16326530612244897,0.16326530612244897,0.16326530612244897,0.16326530612244897,0.16326530612244897,0.16326530612244897,0.16326530612244897,0.16326530612244897,0.16326530612244897,0.16326530612244897,0.16326530612244897,0.16326530612244897,0.16326530612244897,0.16326530612244897,0.16326530612244897,0.16326530612244897,0.16326530612244897,0.16326530612244897,0.16326530612244897,0.16326530612244897,0.16326530612244897,0.16326530612244897,0.16326530612244897,0.16326530612244897,0.16326530612244897,0.16326530612244897,0.16326530612244897,0.16326530612244897,0.16326530612244897,0.16326530612244897,0.16326530612244897,0.16326530612244897,0.16326530612244897,0.16326530612244897,0.16326530612244897,0.16326530612244897,0.16326530612244897,0.16326530612244897,0.16326530612244897,0.16326530612244897,0.16326530612244897,0.16326530612244897,0.16326530612244897,0.16326530612244897,0.1598639455782313,0.1598639455782313,0.1598639455782313,0.1564625850340136,0.1564625850340136,0.1564625850340136,0.1564625850340136,0.1564625850340136,0.15306122448979592,0.15306122448979592,0.15306122448979592,0.15306122448979592,0.15306122448979592,0.15306122448979592,0.15306122448979592,0.15306122448979592,0.15306122448979592,0.15306122448979592,0.15306122448979592,0.15306122448979592,0.15306122448979592,0.15306122448979592,0.15306122448979592,0.15306122448979592,0.15306122448979592,0.15306122448979592,0.15306122448979592,0.15306122448979592,0.15306122448979592,0.15306122448979592,0.15306122448979592,0.15306122448979592,0.15306122448979592,0.15306122448979592,0.15306122448979592,0.15306122448979592,0.15306122448979592,0.15306122448979592,0.15306122448979592,0.15306122448979592,0.15306122448979592,0.15306122448979592,0.15306122448979592,0.15306122448979592,0.15306122448979592,0.1564625850340136,0.17006802721088435,0.19727891156462585,0.22448979591836735,0.25510204081632654,0.282312925170068,0.29591836734693877,0.3197278911564626,0.3333333333333333,0.336734693877551,0.3469387755102041,0.35374149659863946,0.36054421768707484,0.36394557823129253,0.3741496598639456,0.38095238095238093,0.3877551020408163,0.3877551020408163,0.3877551020408163,0.3877551020408163,0.3877551020408163,0.3877551020408163,0.3877551020408163,0.3877551020408163,0.38095238095238093,0.36394557823129253,0.35034013605442177,0.3401360544217687,0.3299319727891156,0.3231292517006803,0.3197278911564626,0.3129251700680272,0.3129251700680272,0.30612244897959184,0.29931972789115646,0.2925170068027211,0.2925170068027211,0.2891156462585034,0.2891156462585034,0.2891156462585034,0.2891156462585034,0.2891156462585034,0.2891156462585034,0.2891156462585034,0.2891156462585034,0.2891156462585034,0.2891156462585034,0.2891156462585034,0.2891156462585034,0.2857142857142857,0.2857142857142857,0.2857142857142857,0.2857142857142857,0.2857142857142857,0.282312925170068,0.2789115646258503,0.2755102040816326,0.2687074829931973,0.2653061224489796,0.2619047619047619,0.2585034013605442,0.25170068027210885,0.24489795918367346,0.24149659863945577,0.23469387755102042,0.23129251700680273,0.22448979591836735,0.21768707482993196,0.2108843537414966,0.20068027210884354,0.1836734693877551,0.16666666666666666,0.14285714285714285,0.12585034013605442,0.1054421768707483,0.09183673469387756,0.07482993197278912,0.061224489795918366,0.05102040816326531,0.04421768707482993,0.03741496598639456,0.034013605442176874,0.030612244897959183,0.027210884353741496,0.023809523809523808,0.017006802721088437,0.013605442176870748,0.01020408163265306,0.006802721088435374,0.006802721088435374,0.006802721088435374,0.006802721088435374,0.006802721088435374,0.006802721088435374,0.003401360544217687,0.003401360544217687,0.003401360544217687,0.003401360544217687,0.003401360544217687,0.003401360544217687,0.003401360544217687,0.003401360544217687,0.003401360544217687,0.003401360544217687,0.003401360544217687,0.003401360544217687,0.003401360544217687,0.003401360544217687,0.003401360544217687,0.003401360544217687,0.003401360544217687,0.003401360544217687,0.003401360544217687,0.003401360544217687,0.003401360544217687,0.003401360544217687,0.003401360544217687,0.003401360544217687,0.003401360544217687,0.003401360544217687,0.003401360544217687,0.003401360544217687,0.003401360544217687,0.003401360544217687,0.003401360544217687,0.006802721088435374,0.02040816326530612,0.047619047619047616,0.11564625850340136,0.17687074829931973,0.24149659863945577,0.3197278911564626,0.4013605442176871,0.46258503401360546,0.4897959183673469,0.5,0.5102040816326531,0.5136054421768708,0.5408163265306123,0.5578231292517006,0.5850340136054422,0.608843537414966,0.6258503401360545,0.6462585034013606,0.6598639455782312,0.6666666666666666,0.673469387755102,0.6768707482993197,0.6802721088435374,0.6870748299319728,0.6870748299319728,0.6870748299319728,0.6870748299319728,0.6870748299319728,0.6870748299319728,0.6870748299319728,0.6870748299319728,0.6938775510204082,0.7006802721088435,0.717687074829932,0.7414965986394558,0.7551020408163265,0.7687074829931972,0.7721088435374149,0.782312925170068,0.7891156462585034,0.7959183673469388,0.8027210884353742,0.8095238095238095,0.8231292517006803,0.8299319727891157,0.8537414965986394,0.8571428571428571,0.8639455782312925,0.8639455782312925,0.8639455782312925,0.8639455782312925,0.8639455782312925,0.8639455782312925,0.8639455782312925,0.8639455782312925,0.8639455782312925,0.8639455782312925,0.8639455782312925,0.8639455782312925,0.8639455782312925,0.8639455782312925,0.8639455782312925,0.8639455782312925,0.8639455782312925,0.8639455782312925,0.8639455782312925,0.8639455782312925,0.8639455782312925,0.8639455782312925,0.8639455782312925,0.8639455782312925,0.8639455782312925,0.8639455782312925,0.8639455782312925,0.8639455782312925,0.8639455782312925,0.8639455782312925,0.8639455782312925,0.8639455782312925,0.8639455782312925,0.8639455782312925,0.8639455782312925,0.8537414965986394,0.8401360544217688,0.826530612244898,0.8163265306122449,0.8095238095238095,0.8027210884353742,0.7993197278911565,0.7959183673469388,0.7925170068027211,0.7857142857142857,0.7789115646258503,0.7755102040816326,0.7721088435374149,0.7687074829931972,0.7653061224489796,0.7619047619047619,0.7585034013605442,0.7551020408163265,0.7517006802721088,0.7448979591836735,0.7448979591836735,0.7414965986394558,0.7414965986394558,0.7414965986394558,0.7380952380952381,0.7380952380952381,0.7380952380952381,0.7380952380952381,0.7380952380952381,0.7380952380952381,0.7380952380952381,0.7380952380952381,0.7380952380952381,0.7380952380952381,0.7380952380952381,0.7380952380952381,0.7380952380952381,0.7380952380952381,0.7380952380952381,0.7380952380952381,0.7380952380952381,0.7380952380952381,0.7380952380952381,0.7380952380952381,0.7380952380952381,0.7380952380952381,0.7380952380952381,0.7380952380952381,0.7380952380952381,0.7380952380952381,0.7380952380952381,0.7380952380952381,0.7380952380952381,0.7380952380952381,0.7380952380952381,0.7380952380952381,0.7380952380952381,0.7380952380952381,0.7380952380952381,0.7380952380952381,0.7380952380952381,0.7380952380952381,0.7380952380952381,0.7380952380952381,0.7380952380952381,0.7346938775510204,0.7346938775510204,0.7312925170068028,0.7278911564625851,0.7278911564625851,0.7278911564625851,0.7244897959183674,0.7244897959183674,0.7244897959183674,0.7210884353741497,0.7210884353741497,0.7210884353741497,0.717687074829932,0.717687074829932,0.717687074829932,0.717687074829932,0.7278911564625851,0.7414965986394558,0.7551020408163265,0.7721088435374149,0.782312925170068,0.7959183673469388,0.8027210884353742,0.8129251700680272,0.826530612244898,0.8401360544217688,0.8537414965986394,0.8639455782312925,0.8775510204081632,0.8979591836734694,0.9183673469387755,0.9455782312925171,0.9727891156462585,0.9863945578231292,1,1.0034013605442176,1.0034013605442176,1.0136054421768708,1.0170068027210883,1.0272108843537415,1.030612244897959,1.034013605442177,1.034013605442177,1.034013605442177,1.034013605442177,1.034013605442177,1.034013605442177,1.034013605442177,1.034013605442177,1.034013605442177,1.034013605442177,1.034013605442177,1.034013605442177,1.034013605442177,1.034013605442177,1.034013605442177,1.034013605442177,1.034013605442177,1.034013605442177,1.034013605442177,1.034013605442177,1.034013605442177,1.034013605442177,1.034013605442177,1.034013605442177,1.034013605442177,1.034013605442177,1.034013605442177,1.034013605442177,1.034013605442177,1.034013605442177,1.034013605442177,1.034013605442177,1.034013605442177,1.034013605442177,1.034013605442177,1.034013605442177,1.034013605442177,1.034013605442177,1.034013605442177,1.034013605442177,1.034013605442177,1.034013605442177,1.030612244897959,1.0272108843537415,1.0238095238095237,1.0204081632653061,1.0170068027210883,1.0136054421768708,1.010204081632653,1.010204081632653,1.010204081632653,1.0068027210884354,1.0034013605442176,1,0.9965986394557823,0.9863945578231292,0.9795918367346939,0.9727891156462585,0.9659863945578231,0.9591836734693877,0.95578231292517,0.9523809523809523,0.9489795918367347,0.9455782312925171,0.9421768707482994,0.9387755102040817,0.9387755102040817,0.935374149659864,0.9319727891156463,0.9285714285714286,0.9183673469387755,0.9081632653061225,0.8877551020408163,0.8571428571428571,0.826530612244898,0.7517006802721088,0.6904761904761905,0.5952380952380952,0.47959183673469385,0.3163265306122449,0.2687074829931973,0.25510204081632654,0.25170068027210885,0.24829931972789115,0.24489795918367346,0.24149659863945577,0.23809523809523808,0.23469387755102042,0.23469387755102042,0.23469387755102042,0.23469387755102042,0.23469387755102042,0.23469387755102042,0.23469387755102042,0.23469387755102042,0.23469387755102042,0.23129251700680273,0.23129251700680273,0.22789115646258504,0.22789115646258504,0.22789115646258504,0.22789115646258504,0.22789115646258504,0.22789115646258504,0.22789115646258504,0.23129251700680273,0.24149659863945577,0.25510204081632654,0.2857142857142857,0.3197278911564626,0.35374149659863946,0.391156462585034,0.41496598639455784,0.4217687074829932,0.42857142857142855,0.42857142857142855,0.4557823129251701,0.46258503401360546,0.46938775510204084,0.46938775510204084,0.47278911564625853,0.48299319727891155,0.48299319727891155,0.4965986394557823,0.5102040816326531,0.5136054421768708,0.5170068027210885,0.5170068027210885,0.5170068027210885,0.5170068027210885,0.5170068027210885,0.5170068027210885,0.5170068027210885,0.5238095238095238,0.5238095238095238,0.5238095238095238,0.5306122448979592,0.5374149659863946,0.5510204081632653,0.5544217687074829,0.5578231292517006,0.5578231292517006,0.5578231292517006,0.5578231292517006,0.5578231292517006,0.5578231292517006,0.5578231292517006,0.5578231292517006,0.5578231292517006,0.5578231292517006,0.5578231292517006,0.5578231292517006,0.5578231292517006,0.5578231292517006,0.5578231292517006,0.5544217687074829,0.5510204081632653,0.5476190476190477,0.54421768707483,0.5408163265306123,0.5374149659863946,0.5306122448979592,0.5272108843537415,0.5238095238095238,0.5204081632653061,0.5136054421768708,0.5102040816326531,0.5068027210884354,0.5034013605442177,0.5,0.4965986394557823,0.4931972789115646,0.48639455782312924,0.47619047619047616,0.46938775510204084,0.46258503401360546,0.45918367346938777,0.4557823129251701,0.4557823129251701,0.4557823129251701,0.4557823129251701,0.4557823129251701,0.4489795918367347,0.4387755102040816,0.42517006802721086,0.41156462585034015,0.3979591836734694,0.391156462585034,0.3877551020408163,0.3843537414965986,0.3843537414965986,0.3843537414965986,0.3843537414965986,0.391156462585034,0.4217687074829932,0.47619047619047616,0.5170068027210885,0.5680272108843537,0.5952380952380952,0.6224489795918368,0.6496598639455783,0.6598639455782312,0.6666666666666666,0.6870748299319728,0.7006802721088435,0.7074829931972789,0.7142857142857143,0.7142857142857143,0.7142857142857143,0.7142857142857143,0.7142857142857143,0.7142857142857143,0.7142857142857143,0.7040816326530612,0.6836734693877551,0.6564625850340136,0.6258503401360545,0.5952380952380952,0.5578231292517006,0.5340136054421769,0.5068027210884354,0.4897959183673469,0.48299319727891155,0.47959183673469385,0.47278911564625853,0.46598639455782315,0.46258503401360546,0.45918367346938777,0.4557823129251701,0.4523809523809524,0.4489795918367347,0.445578231292517,0.445578231292517,0.4421768707482993,0.4421768707482993,0.4421768707482993,0.4387755102040816,0.43537414965986393,0.42857142857142855,0.41156462585034015,0.3877551020408163,0.36054421768707484,0.3333333333333333,0.3197278911564626,0.30272108843537415,0.2891156462585034,0.272108843537415,0.2585034013605442,0.25510204081632654,0.24829931972789115,0.24149659863945577,0.23469387755102042,0.23129251700680273,0.22789115646258504,0.22448979591836735,0.22448979591836735,0.22448979591836735,0.22448979591836735,0.22108843537414966,0.22108843537414966,0.22108843537414966,0.22108843537414966,0.21768707482993196,0.21428571428571427,0.2108843537414966,0.2108843537414966,0.2108843537414966,0.2108843537414966,0.2108843537414966,0.20748299319727892,0.20748299319727892,0.20408163265306123,0.20068027210884354,0.19387755102040816,0.19047619047619047,0.1870748299319728,0.1836734693877551,0.17346938775510204,0.1564625850340136,0.14625850340136054,0.14625850340136054,0.14625850340136054,0.14625850340136054,0.14625850340136054,0.14625850340136054,0.14625850340136054,0.14625850340136054,0.14625850340136054,0.14625850340136054,0.14625850340136054,0.14625850340136054,0.14625850340136054,0.14625850340136054,0.14625850340136054,0.14625850340136054,0.14625850340136054,0.14625850340136054,0.14625850340136054,0.14625850340136054,0.14625850340136054,0.1564625850340136,0.1598639455782313,0.1836734693877551,0.22448979591836735,0.30612244897959184,0.5782312925170068,0.7312925170068028,0.891156462585034,1.054421768707483,1.1768707482993197,1.2925170068027212,1.3673469387755102,1.41156462585034,1.435374149659864,1.435374149659864,1.435374149659864,1.435374149659864,1.435374149659864,1.435374149659864,1.435374149659864,1.4319727891156462,1.4081632653061225,1.336734693877551,1.2380952380952381,1.0952380952380953,0.9591836734693877,0.8027210884353742,0.6428571428571429,0.4931972789115646,0.336734693877551,0.0782312925170068,0.04081632653061224,0.017006802721088437,0.01020408163265306,0.006802721088435374,0.006802721088435374,0.006802721088435374,0.006802721088435374,0.003401360544217687,0.003401360544217687,0.003401360544217687,0.003401360544217687,0.003401360544217687,0.003401360544217687,0.003401360544217687,0.003401360544217687,0.006802721088435374,0.034013605442176874,0.10204081632653061,0.21768707482993196,0.46938775510204084,0.6054421768707483,0.7040816326530612,0.8027210884353742,0.8673469387755102,0.9081632653061225,0.9387755102040817,0.9455782312925171,0.9455782312925171,0.9523809523809523,0.9625850340136054,0.9727891156462585,0.9863945578231292,0.9897959183673469,1.0136054421768708,1.0170068027210883,1.034013605442177,1.0442176870748299,1.0476190476190477,1.054421768707483,1.0578231292517006,1.0612244897959184,1.0680272108843538,1.0680272108843538,1.0680272108843538,1.0680272108843538,1.0680272108843538,1.0680272108843538,1.0680272108843538,1.0680272108843538,1.0680272108843538,1.0680272108843538,1.0680272108843538,1.0680272108843538,1.0680272108843538,1.0680272108843538,1.0680272108843538,1.0680272108843538,1.0714285714285714,1.08843537414966,1.1258503401360545,1.183673469387755,1.2653061224489797,1.370748299319728,1.4829931972789117,1.5476190476190477,1.5918367346938775],"y":[-3.4285714285714284,-3.4285714285714284,-3.4285714285714284,-3.4285714285714284,-3.4285714285714284,-3.4285714285714284,0.5095238095238095,0.5190476190476191,0.5285714285714286,0.5380952380952381,0.5380952380952381,0.5476190476190477,0.5571428571428572,0.5571428571428572,0.5571428571428572,0.5476190476190477,0.5380952380952381,0.5285714285714286,0.5095238095238095,0.5095238095238095,0.5,0.5,0.5,0.5,0.49047619047619045,0.49047619047619045,0.49047619047619045,0.49047619047619045,0.49047619047619045,0.49047619047619045,0.49047619047619045,0.49047619047619045,0.49047619047619045,0.49047619047619045,0.49047619047619045,0.49047619047619045,0.49047619047619045,0.49047619047619045,0.49047619047619045,0.49047619047619045,0.49047619047619045,0.49047619047619045,0.49047619047619045,0.49047619047619045,0.49047619047619045,0.49047619047619045,0.49047619047619045,0.49047619047619045,0.49047619047619045,0.49047619047619045,0.49047619047619045,0.49047619047619045,0.49047619047619045,0.49047619047619045,0.49047619047619045,0.49047619047619045,0.49047619047619045,0.49047619047619045,0.49047619047619045,0.49047619047619045,0.49047619047619045,0.49047619047619045,0.49047619047619045,0.49047619047619045,0.49047619047619045,0.49047619047619045,0.49047619047619045,0.49047619047619045,0.49047619047619045,0.49047619047619045,0.49047619047619045,0.49047619047619045,0.4714285714285714,0.46190476190476193,0.4238095238095238,0.3476190476190476,0.28095238095238095,0.23333333333333334,0.19523809523809524,0.19523809523809524,0.16666666666666666,0.14761904761904762,0.11904761904761904,0.09047619047619047,0.09047619047619047,0.08095238095238096,0.08095238095238096,0.08095238095238096,0.08095238095238096,0.08095238095238096,0.08095238095238096,0.08095238095238096,0.08095238095238096,0.08095238095238096,0.08095238095238096,0.08095238095238096,0.08095238095238096,0.08095238095238096,0.08095238095238096,0.08095238095238096,0.08095238095238096,0.08095238095238096,0.08095238095238096,0.08095238095238096,0.08095238095238096,0.08095238095238096,0.08095238095238096,0.08095238095238096,0.08095238095238096,0.08095238095238096,0.08095238095238096,0.08095238095238096,0.08095238095238096,0.08095238095238096,0.08095238095238096,0.08095238095238096,0.08095238095238096,0.08095238095238096,0.08095238095238096,0.08095238095238096,0.08095238095238096,0.08095238095238096,0.08095238095238096,0.08095238095238096,0.08095238095238096,0.08095238095238096,0.08095238095238096,0.08095238095238096,0.08095238095238096,0.08095238095238096,0.08095238095238096,0.08095238095238096,0.08095238095238096,0.08095238095238096,0.08095238095238096,0.08095238095238096,0.08095238095238096,0.08095238095238096,0.08095238095238096,0.08095238095238096,0.08095238095238096,0.08095238095238096,0.08095238095238096,0.08095238095238096,0.08095238095238096,0.08095238095238096,0.08095238095238096,0.08095238095238096,0.08095238095238096,0.08095238095238096,0.08095238095238096,0.08095238095238096,0.08095238095238096,0.08095238095238096,0.08095238095238096,0.08095238095238096,0.08095238095238096,0.08095238095238096,0.08095238095238096,0.08095238095238096,0.08095238095238096,0.08095238095238096,0.08095238095238096,0.08095238095238096,0.08095238095238096,0.08095238095238096,0.08095238095238096,0.08095238095238096,0.08095238095238096,0.08095238095238096,0.08095238095238096,0.08095238095238096,0.08095238095238096,0.08095238095238096,0.08095238095238096,0.08095238095238096,0.09047619047619047,0.11904761904761904,0.14761904761904762,0.1761904761904762,0.20476190476190476,0.22380952380952382,0.23333333333333334,0.23333333333333334,0.24285714285714285,0.2523809523809524,0.2523809523809524,0.2523809523809524,0.2523809523809524,0.2619047619047619,0.2619047619047619,0.2619047619047619,0.24285714285714285,0.23333333333333334,0.22380952380952382,0.19523809523809524,0.16666666666666666,0.12857142857142856,0.11904761904761904,0.08095238095238096,0.08095238095238096,0.07142857142857142,0.04285714285714286,0.04285714285714286,0.014285714285714285,0.004761904761904762,0.004761904761904762,0.004761904761904762,0.004761904761904762,0.004761904761904762,0.004761904761904762,0.004761904761904762,0.004761904761904762,0.004761904761904762,0.004761904761904762,0.004761904761904762,0.004761904761904762,0.004761904761904762,0.004761904761904762,0.004761904761904762,0.004761904761904762,0.004761904761904762,0.004761904761904762,0.004761904761904762,0.004761904761904762,0.004761904761904762,0.004761904761904762,0.004761904761904762,0.004761904761904762,0.004761904761904762,0.004761904761904762,0.004761904761904762,0.004761904761904762,0.004761904761904762,0.004761904761904762,0.004761904761904762,0.004761904761904762,0.004761904761904762,0.004761904761904762,0.004761904761904762,0.004761904761904762,0.004761904761904762,0.004761904761904762,0.004761904761904762,0.004761904761904762,0.004761904761904762,0.004761904761904762,0.004761904761904762,0.004761904761904762,0.004761904761904762,0.004761904761904762,0.004761904761904762,0.004761904761904762,0.004761904761904762,0.004761904761904762,0.004761904761904762,0.004761904761904762,0.004761904761904762,0.004761904761904762,0.004761904761904762,0.023809523809523808,0.07142857142857142,0.10952380952380952,0.14761904761904762,0.18571428571428572,0.22380952380952382,0.24285714285714285,0.30952380952380953,0.3380952380952381,0.35714285714285715,0.3761904761904762,0.38571428571428573,0.3952380952380952,0.40476190476190477,0.40476190476190477,0.4142857142857143,0.4238095238095238,0.44285714285714284,0.4523809523809524,0.4714285714285714,0.5,0.5190476190476191,0.5285714285714286,0.5285714285714286,0.5285714285714286,0.5285714285714286,0.5285714285714286,0.5285714285714286,0.5285714285714286,0.5285714285714286,0.5285714285714286,0.5285714285714286,0.5285714285714286,0.5095238095238095,0.5095238095238095,0.5095238095238095,0.5095238095238095,0.5,0.5,0.5,0.5,0.5,0.49047619047619045,0.49047619047619045,0.49047619047619045,0.49047619047619045,0.49047619047619045,0.49047619047619045,0.49047619047619045,0.49047619047619045,0.49047619047619045,0.49047619047619045,0.49047619047619045,0.49047619047619045,0.49047619047619045,0.49047619047619045,0.49047619047619045,0.49047619047619045,0.49047619047619045,0.49047619047619045,0.49047619047619045,0.49047619047619045,0.49047619047619045,0.49047619047619045,0.49047619047619045,0.49047619047619045,0.49047619047619045,0.49047619047619045,0.49047619047619045,0.49047619047619045,0.49047619047619045,0.49047619047619045,0.49047619047619045,0.49047619047619045,0.49047619047619045,0.49047619047619045,0.49047619047619045,0.49047619047619045,0.49047619047619045,0.49047619047619045,0.49047619047619045,0.49047619047619045,0.49047619047619045,0.49047619047619045,0.49047619047619045,0.49047619047619045,0.49047619047619045,0.49047619047619045,0.49047619047619045,0.49047619047619045,0.49047619047619045,0.49047619047619045,0.49047619047619045,0.49047619047619045,0.49047619047619045,0.49047619047619045,0.49047619047619045,0.49047619047619045,0.49047619047619045,0.49047619047619045,0.49047619047619045,0.49047619047619045,0.49047619047619045,0.49047619047619045,0.49047619047619045,0.49047619047619045,0.49047619047619045,0.49047619047619045,0.49047619047619045,0.49047619047619045,0.49047619047619045,0.49047619047619045,0.49047619047619045,0.49047619047619045,0.49047619047619045,0.49047619047619045,0.49047619047619045,0.49047619047619045,0.49047619047619045,0.49047619047619045,0.49047619047619045,0.49047619047619045,0.49047619047619045,0.49047619047619045,0.49047619047619045,0.49047619047619045,0.49047619047619045,0.49047619047619045,0.49047619047619045,0.4714285714285714,0.46190476190476193,0.46190476190476193,0.4523809523809524,0.4238095238095238,0.4142857142857143,0.38571428571428573,0.3761904761904762,0.3476190476190476,0.3380952380952381,0.30952380952380953,0.2714285714285714,0.24285714285714285,0.23333333333333334,0.20476190476190476,0.19523809523809524,0.18571428571428572,0.15714285714285714,0.14761904761904762,0.11904761904761904,0.09047619047619047,0.09047619047619047,0.09047619047619047,0.08095238095238096,0.08095238095238096,0.08095238095238096,0.08095238095238096,0.08095238095238096,0.08095238095238096,0.08095238095238096,0.08095238095238096,0.08095238095238096,0.08095238095238096,0.08095238095238096,0.08095238095238096,0.08095238095238096,0.08095238095238096,0.08095238095238096,0.08095238095238096,0.08095238095238096,0.08095238095238096,0.08095238095238096,0.08095238095238096,0.08095238095238096,0.08095238095238096,0.08095238095238096,0.08095238095238096,0.08095238095238096,0.08095238095238096,0.08095238095238096,0.08095238095238096,0.08095238095238096,0.08095238095238096,0.08095238095238096,0.08095238095238096,0.08095238095238096,0.08095238095238096,0.08095238095238096,0.08095238095238096,0.08095238095238096,0.08095238095238096,0.08095238095238096,0.08095238095238096,0.08095238095238096,0.08095238095238096,0.08095238095238096,0.08095238095238096,0.08095238095238096,0.08095238095238096,0.08095238095238096,0.08095238095238096,0.08095238095238096,0.08095238095238096,0.08095238095238096,0.08095238095238096,0.08095238095238096,0.08095238095238096,0.08095238095238096,0.08095238095238096,0.08095238095238096,0.08095238095238096,0.08095238095238096,0.08095238095238096,0.08095238095238096,0.08095238095238096,0.08095238095238096,0.08095238095238096,0.08095238095238096,0.08095238095238096,0.08095238095238096,0.08095238095238096,0.08095238095238096,0.08095238095238096,0.08095238095238096,0.08095238095238096,0.08095238095238096,0.08095238095238096,0.08095238095238096,0.08095238095238096,0.08095238095238096,0.08095238095238096,0.08095238095238096,0.08095238095238096,0.08095238095238096,0.08095238095238096,0.08095238095238096,0.08095238095238096,0.08095238095238096,0.08095238095238096,0.08095238095238096,0.08095238095238096,0.08095238095238096,0.08095238095238096,0.08095238095238096,0.08095238095238096,0.1,0.14761904761904762,0.20476190476190476,0.30952380952380953,0.35714285714285715,0.3952380952380952,0.43333333333333335,0.4523809523809524,0.5,0.5285714285714286,0.5666666666666667,0.5761904761904761,0.5857142857142857,0.5952380952380952,0.5952380952380952,0.5952380952380952,0.5952380952380952,0.5761904761904761,0.5761904761904761,0.5666666666666667,0.5666666666666667,0.5380952380952381,0.5380952380952381,0.5380952380952381,0.5285714285714286,0.5285714285714286,0.5285714285714286,0.5285714285714286,0.5285714285714286,0.5285714285714286,0.5285714285714286,0.5285714285714286,0.5095238095238095,0.5095238095238095,0.5095238095238095,0.5095238095238095,0.5095238095238095,0.5095238095238095,0.5095238095238095,0.5095238095238095,0.5095238095238095,0.5095238095238095,0.5095238095238095,0.5095238095238095,0.5095238095238095,0.5095238095238095,0.5095238095238095,0.5095238095238095,0.5095238095238095,0.5095238095238095,0.5095238095238095,0.5095238095238095,0.5095238095238095,0.5095238095238095,0.5095238095238095,0.5095238095238095,0.5095238095238095,0.5095238095238095,0.5095238095238095,0.5095238095238095,0.5095238095238095,0.5095238095238095,0.5095238095238095,0.5095238095238095,0.5095238095238095,0.5095238095238095,0.5095238095238095,0.5095238095238095,0.5095238095238095,0.5095238095238095,0.5095238095238095,0.5095238095238095,0.5095238095238095,0.5095238095238095,0.5095238095238095,0.5095238095238095,0.5095238095238095,0.5095238095238095,0.5095238095238095,0.5095238095238095,0.5095238095238095,0.5095238095238095,0.5095238095238095,0.5095238095238095,0.5095238095238095,0.5095238095238095,0.5095238095238095,0.5095238095238095,0.5095238095238095,0.5095238095238095,0.5095238095238095,0.5095238095238095,0.5095238095238095,0.5095238095238095,0.5095238095238095,0.5095238095238095,0.5095238095238095,0.5095238095238095,0.5095238095238095,0.5095238095238095,0.5095238095238095,0.5095238095238095,0.5095238095238095,0.5095238095238095,0.5095238095238095,0.5095238095238095,0.5095238095238095,0.5095238095238095,0.5095238095238095,0.5095238095238095,0.5095238095238095,0.5095238095238095,0.5095238095238095,0.5190476190476191,0.5380952380952381,0.5571428571428572,0.5761904761904761,0.5857142857142857,0.5857142857142857,0.5857142857142857,0.5857142857142857,0.5857142857142857,0.5857142857142857,0.5857142857142857,0.5857142857142857,0.5857142857142857,0.5857142857142857,0.5857142857142857,0.5857142857142857,0.6047619047619047,0.6333333333333333,0.6714285714285714,0.7095238095238096,0.7476190476190476,0.8047619047619048,0.8523809523809524,0.919047619047619,0.9952380952380953,1.0142857142857142,1.061904761904762,1.0809523809523809,1.1095238095238096,1.119047619047619,1.1285714285714286,1.138095238095238,1.138095238095238,1.1476190476190475,1.1571428571428573,1.1666666666666667,1.1666666666666667,1.1761904761904762,1.1857142857142857,1.2047619047619047,1.2142857142857142,1.2142857142857142,1.223809523809524,1.223809523809524,1.2333333333333334,1.2333333333333334,1.2333333333333334,1.2333333333333334,1.223809523809524,1.1952380952380952,1.1857142857142857,1.1571428571428573,1.138095238095238,1.1095238095238096,1.0809523809523809,1.0238095238095237,0.9952380952380953,0.9952380952380953,0.9952380952380953,0.9952380952380953,0.9857142857142858,0.9857142857142858,0.9857142857142858,0.9666666666666667,0.9666666666666667,0.9666666666666667,0.9666666666666667,0.9666666666666667,0.9666666666666667,0.9666666666666667,0.9666666666666667,0.9666666666666667,0.9666666666666667,0.9666666666666667,0.9666666666666667,0.9666666666666667,0.9666666666666667,0.9666666666666667,0.9666666666666667,0.9666666666666667,0.9666666666666667,0.9666666666666667,0.9666666666666667,0.9666666666666667,0.9666666666666667,0.9666666666666667,0.9666666666666667,0.9666666666666667,0.9666666666666667,0.9666666666666667,0.9666666666666667,0.9666666666666667,0.9666666666666667,0.9666666666666667,0.9761904761904762,0.9857142857142858,0.9952380952380953,1.0047619047619047,1.0142857142857142,1.0238095238095237,1.0238095238095237,1.0238095238095237,1.0238095238095237,1.0238095238095237,1.0238095238095237,1.0238095238095237,1.0238095238095237,1.0238095238095237,1.0238095238095237,1.0238095238095237,1.0238095238095237,1.0238095238095237,1.0238095238095237,1.0238095238095237,1.0238095238095237,1.0238095238095237,1.0238095238095237,1.0238095238095237,1.0238095238095237,1.0238095238095237,1.0238095238095237,1.0238095238095237,1.0238095238095237,1.0238095238095237,1.0238095238095237,1.0238095238095237,1.0238095238095237,1.0238095238095237,1.0238095238095237,1.0238095238095237,1.0238095238095237,1.0238095238095237,1.0238095238095237,1.0238095238095237,1.0238095238095237,1.0238095238095237,1.0238095238095237,1.0238095238095237,1.0238095238095237,1.0047619047619047,0.9952380952380953,0.9952380952380953,0.9952380952380953,0.9857142857142858,0.9666666666666667,0.9666666666666667,0.9571428571428572,0.9571428571428572,0.9571428571428572,0.9571428571428572,0.9571428571428572,0.9476190476190476,0.9476190476190476,0.9476190476190476,0.9476190476190476,0.9476190476190476,0.9476190476190476,0.9476190476190476,0.9476190476190476,0.9476190476190476,0.9476190476190476,0.9476190476190476,0.9476190476190476,0.9476190476190476,0.9476190476190476,0.9476190476190476,0.9476190476190476,0.9476190476190476,0.9476190476190476,0.9476190476190476,0.9476190476190476,0.9476190476190476,0.9476190476190476,0.9476190476190476,0.9476190476190476,0.9476190476190476,0.9476190476190476,0.9476190476190476,0.9476190476190476,0.9476190476190476,0.9476190476190476,0.9476190476190476,0.9476190476190476,0.9476190476190476,0.9476190476190476,0.9476190476190476,0.9476190476190476,0.9476190476190476,0.9476190476190476,0.9476190476190476,0.9476190476190476,0.9476190476190476,0.9476190476190476,0.9476190476190476,0.9476190476190476,0.9476190476190476,0.919047619047619,0.8809523809523809,0.8333333333333334,0.7952380952380952,0.7285714285714285,0.6904761904761905,0.6523809523809524,0.6142857142857143,0.5761904761904761,0.5476190476190477,0.5380952380952381,0.5095238095238095,0.5,0.5,0.5,0.5,0.5,0.5,0.5,0.5,0.5,0.5,0.5,0.5,0.5,0.5,0.5,0.5,0.5,0.5,0.5,0.5,0.5,0.5,0.5,0.5,0.5,0.5,0.5,0.5,0.5,0.5,0.5,0.5,0.5,0.5,0.5,0.5,0.49047619047619045,0.49047619047619045,0.49047619047619045,0.49047619047619045,0.49047619047619045,0.49047619047619045,0.49047619047619045,0.4714285714285714,0.4714285714285714,0.46190476190476193,0.46190476190476193,0.4523809523809524,0.43333333333333335,0.4238095238095238,0.4238095238095238,0.4238095238095238,0.4238095238095238,0.4238095238095238,0.4238095238095238,0.4238095238095238,0.4238095238095238,0.38571428571428573,0.3476190476190476,0.3380952380952381,0.319047619047619,0.30952380952380953,0.30952380952380953,0.3,0.28095238095238095,0.2714285714285714,0.2714285714285714,0.24285714285714285,0.23333333333333334,0.22380952380952382,0.22380952380952382,0.22380952380952382,0.22380952380952382,0.22380952380952382,0.22380952380952382,0.22380952380952382,0.22380952380952382,0.22380952380952382,0.22380952380952382,0.22380952380952382,0.22380952380952382,0.22380952380952382,0.22380952380952382,0.22380952380952382,0.22380952380952382,0.22380952380952382,0.23333333333333334,0.2619047619047619,0.2904761904761905,0.319047619047619,0.35714285714285715,0.38571428571428573,0.40476190476190477,0.4238095238095238,0.44285714285714284,0.46190476190476193,0.48095238095238096,0.5,0.5285714285714286,0.5476190476190477,0.5761904761904761,0.5952380952380952,0.6428571428571429,0.6904761904761905,0.7285714285714285,0.7666666666666667,0.7857142857142857,0.8047619047619048,0.8142857142857143,0.8238095238095238,0.8333333333333334,0.8428571428571429,0.8428571428571429,0.8428571428571429,0.8523809523809524,0.8523809523809524,0.8523809523809524,0.861904761904762,0.8714285714285714,0.8809523809523809,0.8904761904761904,0.9,0.9095238095238095,0.9095238095238095,0.919047619047619,0.9380952380952381,0.9571428571428572,0.9666666666666667,0.9761904761904762,0.9857142857142858,0.9857142857142858,0.9857142857142858,0.9857142857142858,0.9857142857142858,0.9857142857142858,0.9857142857142858,0.9857142857142858,0.9857142857142858,0.9857142857142858,0.9952380952380953,0.9952380952380953,0.9952380952380953,0.9952380952380953,0.9952380952380953,0.9952380952380953,0.9952380952380953,0.9952380952380953,0.9952380952380953,0.9952380952380953,0.9952380952380953,0.9952380952380953,0.9952380952380953,0.9952380952380953,0.9952380952380953,0.9952380952380953,0.9952380952380953,0.9952380952380953,0.9952380952380953,0.9952380952380953,0.9952380952380953,0.9952380952380953,0.9857142857142858,0.9666666666666667,0.9571428571428572,0.9285714285714286,0.919047619047619,0.8904761904761904,0.8809523809523809,0.8809523809523809,0.8809523809523809,0.8809523809523809,0.8428571428571429,0.8142857142857143,0.7666666666666667,0.719047619047619,0.680952380952381,0.6142857142857143,0.5761904761904761,0.5476190476190477,0.5380952380952381,0.5285714285714286,0.5095238095238095,0.5,0.5,0.5,0.5,0.5,0.5,0.5,0.5,0.5,0.5,0.49047619047619045,0.49047619047619045,0.4714285714285714,0.4714285714285714,0.4714285714285714,0.4714285714285714,0.4714285714285714,0.4714285714285714,0.4714285714285714,0.4714285714285714,0.48095238095238096,0.49047619047619045,0.5095238095238095,0.5095238095238095,0.5095238095238095,0.5095238095238095,0.5095238095238095,0.5095238095238095,0.5095238095238095,0.5095238095238095,0.5095238095238095,0.5095238095238095,0.5095238095238095,0.5095238095238095,0.5095238095238095,0.5095238095238095,0.5095238095238095,0.5095238095238095,0.5095238095238095,0.5095238095238095,0.5095238095238095,0.5095238095238095,0.5095238095238095,0.5095238095238095,0.5095238095238095,0.5095238095238095,0.5095238095238095,0.5095238095238095,0.5095238095238095,0.5095238095238095,0.5095238095238095,0.5095238095238095,0.5095238095238095,0.5095238095238095,0.5095238095238095,0.5095238095238095,0.5095238095238095,0.5095238095238095,0.5,0.46190476190476193,0.4238095238095238,0.38571428571428573,0.35714285714285715,0.3380952380952381,0.30952380952380953,0.30952380952380953,0.28095238095238095,0.2714285714285714,0.2714285714285714,0.24285714285714285,0.23333333333333334,0.23333333333333334,0.22380952380952382,0.20476190476190476,0.19523809523809524,0.19523809523809524,0.18571428571428572,0.15714285714285714,0.15714285714285714,0.14761904761904762,0.12857142857142856,0.12857142857142856,0.12857142857142856,0.12857142857142856,0.12857142857142856,0.12857142857142856,0.12857142857142856,0.12857142857142856,0.12857142857142856,0.12857142857142856,0.12857142857142856,0.12857142857142856,0.12857142857142856,0.12857142857142856,0.12857142857142856,0.12857142857142856,0.12857142857142856,0.12857142857142856,0.12857142857142856,0.12857142857142856,0.12857142857142856,0.12857142857142856,0.12857142857142856,0.12857142857142856,0.12857142857142856,0.12857142857142856,0.12857142857142856,0.12857142857142856,0.12857142857142856,0.12857142857142856,0.12857142857142856,0.12857142857142856,0.12857142857142856,0.12857142857142856,0.12857142857142856,0.12857142857142856,0.12857142857142856,0.12857142857142856,0.12857142857142856,0.1380952380952381,0.16666666666666666,0.20476190476190476,0.23333333333333334,0.2714285714285714,0.3,0.319047619047619,0.3380952380952381,0.36666666666666664,0.38571428571428573,0.40476190476190477,0.4238095238095238,0.43333333333333335,0.44285714285714284,0.4523809523809524,0.4714285714285714,0.5095238095238095,0.5285714285714286,0.5476190476190477,0.5666666666666667,0.6047619047619047,0.6428571428571429,0.6904761904761905,0.7380952380952381,0.7666666666666667,0.7857142857142857,0.7952380952380952,0.8047619047619048,0.8142857142857143,0.8333333333333334,0.8523809523809524,0.861904761904762,0.8714285714285714,0.8809523809523809,0.8904761904761904,0.9,0.9285714285714286,0.9571428571428572,0.9761904761904762,0.9952380952380953,1.0047619047619047,1.0142857142857142,1.0142857142857142,1.0238095238095237,1.0333333333333334,1.042857142857143,1.042857142857143,1.042857142857143,1.042857142857143,1.042857142857143,1.042857142857143,1.042857142857143,1.042857142857143,1.042857142857143,1.042857142857143,1.042857142857143,1.042857142857143,1.042857142857143,1.042857142857143,1.042857142857143,1.042857142857143,1.042857142857143,1.042857142857143,1.042857142857143,1.042857142857143,1.042857142857143,1.042857142857143,1.042857142857143,1.042857142857143,1.042857142857143,1.042857142857143,1.042857142857143,1.042857142857143,1.042857142857143,1.042857142857143,1.042857142857143,1.042857142857143,1.042857142857143,1.042857142857143,1.042857142857143,1.042857142857143,1.042857142857143,1.042857142857143,1.042857142857143,1.042857142857143,1.042857142857143,1.042857142857143,1.042857142857143,1.042857142857143,1.0333333333333334,1.0333333333333334,1.0333333333333334,1.0333333333333334,1.0333333333333334,1.0333333333333334,1.0333333333333334,1.0333333333333334,1.0333333333333334,1.0333333333333334,1.0333333333333334,1.0238095238095237,1.0238095238095237,1.0238095238095237,1.0238095238095237,1.0238095238095237,1.0238095238095237,1.0238095238095237,1.0238095238095237,1.0238095238095237,1.0238095238095237,1.0238095238095237,1.0238095238095237,1.0238095238095237,1.0238095238095237,1.0238095238095237,1.0238095238095237,1.0238095238095237,1.0238095238095237,1.0238095238095237,1.0238095238095237,0.9952380952380953,0.9571428571428572,0.9095238095238095,0.8428571428571429,0.7761904761904762,0.680952380952381,0.6428571428571429,0.6238095238095238,0.6142857142857143,0.6142857142857143,0.5857142857142857,0.5476190476190477,0.5,0.43333333333333335,0.4142857142857143,0.38571428571428573,0.3761904761904762,0.3476190476190476,0.3380952380952381,0.319047619047619,0.30952380952380953,0.28095238095238095,0.2619047619047619,0.23333333333333334,0.22380952380952382,0.20476190476190476,0.19523809523809524,0.16666666666666666,0.15714285714285714,0.11904761904761904,0.11904761904761904,0.08095238095238096,0.07142857142857142,0.04285714285714286,0.03333333333333333,0.004761904761904762,0.004761904761904762,-0.004761904761904762,-0.023809523809523808,-0.023809523809523808,-0.023809523809523808,-0.023809523809523808,-0.004761904761904762,0.014285714285714285,0.014285714285714285,0.023809523809523808,0.023809523809523808,0.03333333333333333,0.03333333333333333,0.03333333333333333,0.03333333333333333,0.03333333333333333,0.03333333333333333,0.03333333333333333,0.03333333333333333,0.03333333333333333,0.03333333333333333,0.03333333333333333,0.03333333333333333,0.03333333333333333,0.03333333333333333,0.03333333333333333,0.03333333333333333,0.03333333333333333,0.03333333333333333,0.03333333333333333,0.03333333333333333,0.03333333333333333,0.03333333333333333,0.03333333333333333,0.03333333333333333,0.03333333333333333,0.03333333333333333,0.03333333333333333,0.03333333333333333,0.03333333333333333,0.03333333333333333,0.03333333333333333,0.03333333333333333,0.03333333333333333,0.09047619047619047,0.15714285714285714,0.20476190476190476,0.2714285714285714,0.319047619047619,0.3761904761904762,0.40476190476190477,0.46190476190476193,0.4714285714285714,0.49047619047619045,0.49047619047619045,0.5,0.5,0.5,0.5,0.5,0.5,0.49047619047619045,0.46190476190476193,0.4142857142857143,0.3761904761904762,0.3476190476190476,0.3380952380952381,0.319047619047619,0.319047619047619,0.319047619047619,0.319047619047619,0.319047619047619,0.30952380952380953,0.30952380952380953,0.30952380952380953,0.319047619047619,0.319047619047619,0.32857142857142857,0.3380952380952381,0.3476190476190476,0.3761904761904762,0.4142857142857143,0.4523809523809524,0.48095238095238096,0.5,0.5190476190476191,0.5190476190476191,0.5,0.49047619047619045,0.46190476190476193,0.4142857142857143,0.38571428571428573,0.3380952380952381,0.24285714285714285,0.16666666666666666,0.11904761904761904,0.10952380952380952,0.10952380952380952,0.10952380952380952,0.10952380952380952,0.10952380952380952,0.10952380952380952,0.10952380952380952,0.12857142857142856,0.18571428571428572,0.24285714285714285,0.319047619047619,0.40476190476190477,0.49047619047619045,0.5571428571428572,0.6238095238095238,0.6714285714285714,0.680952380952381,0.7095238095238096,0.719047619047619,0.7380952380952381,0.7571428571428571,0.7666666666666667,0.7857142857142857,0.7952380952380952,0.8047619047619048,0.8142857142857143,0.8142857142857143,0.8238095238095238,0.8238095238095238,0.8238095238095238,0.8238095238095238,0.8238095238095238,0.8142857142857143,0.7952380952380952,0.7666666666666667,0.7285714285714285,0.6904761904761905,0.680952380952381,0.6523809523809524,0.6142857142857143,0.5476190476190477,0.5,0.4714285714285714,0.4238095238095238,0.38571428571428573,0.3380952380952381,0.3,0.2619047619047619,0.23333333333333334,0.23333333333333334,0.22380952380952382,0.20476190476190476,0.20476190476190476,0.20476190476190476,0.19523809523809524,0.19523809523809524,0.18571428571428572,0.15714285714285714,0.15714285714285714,0.15714285714285714,0.15714285714285714,0.15714285714285714,0.14761904761904762,0.14761904761904762,0.12857142857142856,0.12857142857142856,0.11904761904761904,0.11904761904761904,0.11904761904761904,0.09047619047619047,0.08095238095238096,0.04285714285714286,0.004761904761904762,-0.004761904761904762,-0.004761904761904762,-0.004761904761904762,-0.004761904761904762,-0.004761904761904762,-0.004761904761904762,-0.004761904761904762,-0.004761904761904762,-0.004761904761904762,-0.004761904761904762,-0.004761904761904762,-0.004761904761904762,-0.004761904761904762,-0.004761904761904762,-0.004761904761904762,-0.004761904761904762,-0.004761904761904762,-0.004761904761904762,-0.004761904761904762,-0.004761904761904762,-0.004761904761904762,-0.004761904761904762,-0.004761904761904762,-0.004761904761904762,-0.004761904761904762,0.014285714285714285,0.06190476190476191,0.1,0.12857142857142856,0.15714285714285714,0.1761904761904762,0.20476190476190476,0.21428571428571427,0.22380952380952382,0.23333333333333334,0.23333333333333334,0.23333333333333334,0.23333333333333334,0.23333333333333334,0.23333333333333334,0.23333333333333334,0.23333333333333334,0.23333333333333334,0.2523809523809524,0.2619047619047619,0.28095238095238095,0.28095238095238095,0.28095238095238095,0.3,0.319047619047619,0.3476190476190476,0.3952380952380952,0.40476190476190477,0.4142857142857143,0.4142857142857143,0.4142857142857143,0.4142857142857143,0.4142857142857143,0.4142857142857143,0.4142857142857143,0.4238095238095238,0.4238095238095238,0.4238095238095238,0.4238095238095238,0.4238095238095238,0.4238095238095238,0.4238095238095238,0.4238095238095238,0.4238095238095238,0.4142857142857143,0.38571428571428573,0.3476190476190476,0.319047619047619,0.30952380952380953,0.3,0.3,0.3,0.3,0.3,0.3,0.3,0.3,0.3,0.28095238095238095,0.28095238095238095,0.28095238095238095,0.28095238095238095,0.28095238095238095,0.28095238095238095,0.28095238095238095,0.28095238095238095,0.28095238095238095,0.28095238095238095,0.28095238095238095,0.28095238095238095,0.28095238095238095,0.28095238095238095,0.28095238095238095,0.28095238095238095,0.28095238095238095,0.28095238095238095,0.28095238095238095,0.28095238095238095,0.28095238095238095,0.28095238095238095,0.28095238095238095,0.28095238095238095,0.28095238095238095,0.28095238095238095,0.28095238095238095,0.28095238095238095,0.2714285714285714,0.23333333333333334,0.20476190476190476,0.18571428571428572,0.14761904761904762,0.11904761904761904,0.09047619047619047]},"final_keyboard_state":["D","A","N","H","R","T","K","S","P","F","Z","E","B"],"num_clicks":13,"points":7,"cheat":false,"trial_type":"Hangman","trial_index":5,"time_elapsed":66189,"internal_node_id":"0.0-4.0","protocol_sum":"","subject_identifier":123,"subject_sum":[208,41,250,58,149,225,116,161,153,52,133,127,83,94,185,66,125,150,114,24,163,110,160,20,183,10,215,4,188,108,141,28],"subject_pair":61,"STUDY_ID":"669a702db1122fc5150a13ce","PROLIFIC_PID":"668c3e0bcd20a4a22d1c47ca","SESSION_ID":"669b125475f22207e8e8dcd4","practice_instructions":1,"leaderboard_instructions":0,"bonus":0,"reveal_word":true,"self_rating":"5","confidence":"100"},{"view_history":"[{\"page_index\":0,\"viewing_time\":2694},{\"page_index\":1,\"viewing_time\":7696}]","rt":10390,"trial_type":"instructions","trial_index":6,"time_elapsed":76582,"internal_node_id":"0.0-5.0","protocol_sum":"","subject_identifier":123,"subject_sum":[208,41,250,58,149,225,116,161,153,52,133,127,83,94,185,66,125,150,114,24,163,110,160,20,183,10,215,4,188,108,141,28],"subject_pair":61,"STUDY_ID":"669a702db1122fc5150a13ce","PROLIFIC_PID":"668c3e0bcd20a4a22d1c47ca","SESSION_ID":"669b125475f22207e8e8dcd4","practice_instructions":1,"leaderboard_instructions":0,"bonus":0,"reveal_word":true,"self_rating":"5","confidence":"100"},{"rt":7501,"responses":"{\"Q0\":\"...from <b>a previous session</b> that is not part of the upcoming tournament.\"}","question_order":"[0]","trial_type":"survey-multi-choice","trial_index":7,"time_elapsed":84084,"internal_node_id":"0.0-6.0","protocol_sum":"","subject_identifier":123,"subject_sum":[208,41,250,58,149,225,116,161,153,52,133,127,83,94,185,66,125,150,114,24,163,110,160,20,183,10,215,4,188,108,141,28],"subject_pair":61,"correct":true,"test_part":"multichoice_leaderboard","STUDY_ID":"669a702db1122fc5150a13ce","PROLIFIC_PID":"668c3e0bcd20a4a22d1c47ca","SESSION_ID":"669b125475f22207e8e8dcd4","practice_instructions":1,"leaderboard_instructions":0,"bonus":0,"reveal_word":true,"self_rating":"5","confidence":"100"},{"view_history":"[{\"page_index\":0,\"viewing_time\":21504}]","rt":21504,"trial_type":"instructions","trial_index":8,"time_elapsed":105589,"internal_node_id":"0.0-8.0","protocol_sum":"","subject_identifier":123,"subject_sum":[208,41,250,58,149,225,116,161,153,52,133,127,83,94,185,66,125,150,114,24,163,110,160,20,183,10,215,4,188,108,141,28],"subject_pair":61,"STUDY_ID":"669a702db1122fc5150a13ce","PROLIFIC_PID":"668c3e0bcd20a4a22d1c47ca","SESSION_ID":"669b125475f22207e8e8dcd4","practice_instructions":1,"leaderboard_instructions":0,"bonus":0,"reveal_word":true,"self_rating":"5","confidence":"100"},{"rt":31082,"responses":"{\"Q0\":\"...players' leaderboard position (in terms of <b>points</b>) in an <b>upcoming tournament.</b>\"}","question_order":"[0]","trial_type":"survey-multi-choice","trial_index":9,"time_elapsed":136672,"internal_node_id":"0.0-9.0","protocol_sum":"","subject_identifier":123,"subject_sum":[208,41,250,58,149,225,116,161,153,52,133,127,83,94,185,66,125,150,114,24,163,110,160,20,183,10,215,4,188,108,141,28],"subject_pair":61,"correct":true,"test_part":"multichoice_tournament","STUDY_ID":"669a702db1122fc5150a13ce","PROLIFIC_PID":"668c3e0bcd20a4a22d1c47ca","SESSION_ID":"669b125475f22207e8e8dcd4","practice_instructions":1,"leaderboard_instructions":0,"bonus":0,"reveal_word":true,"self_rating":"5","confidence":"100"},{"view_history":"[{\"page_index\":0,\"viewing_time\":20811}]","rt":20811,"trial_type":"instructions","trial_index":10,"time_elapsed":157482,"internal_node_id":"0.0-11.0","protocol_sum":"","subject_identifier":123,"subject_sum":[208,41,250,58,149,225,116,161,153,52,133,127,83,94,185,66,125,150,114,24,163,110,160,20,183,10,215,4,188,108,141,28],"subject_pair":61,"STUDY_ID":"669a702db1122fc5150a13ce","PROLIFIC_PID":"668c3e0bcd20a4a22d1c47ca","SESSION_ID":"669b125475f22207e8e8dcd4","practice_instructions":1,"leaderboard_instructions":0,"bonus":0,"reveal_word":true,"self_rating":"5","confidence":"100"},{"view_history":"[{\"page_index\":0,\"viewing_time\":23683}]","rt":23683,"trial_type":"instructions","trial_index":11,"time_elapsed":181166,"internal_node_id":"0.0-12.0-0.0","protocol_sum":"","subject_identifier":123,"subject_sum":[208,41,250,58,149,225,116,161,153,52,133,127,83,94,185,66,125,150,114,24,163,110,160,20,183,10,215,4,188,108,141,28],"subject_pair":61,"STUDY_ID":"669a702db1122fc5150a13ce","PROLIFIC_PID":"668c3e0bcd20a4a22d1c47ca","SESSION_ID":"669b125475f22207e8e8dcd4","practice_instructions":1,"leaderboard_instructions":0,"bonus":0,"reveal_word":true,"self_rating":"5","confidence":"100"},{"rt":3983,"response":"FIG","responses":["FIG"],"trial_type":"type-this","trial_index":12,"time_elapsed":185663,"internal_node_id":"0.0-12.0-1.0","protocol_sum":"","subject_identifier":123,"subject_sum":[208,41,250,58,149,225,116,161,153,52,133,127,83,94,185,66,125,150,114,24,163,110,160,20,183,10,215,4,188,108,141,28],"subject_pair":61,"STUDY_ID":"669a702db1122fc5150a13ce","PROLIFIC_PID":"668c3e0bcd20a4a22d1c47ca","SESSION_ID":"669b125475f22207e8e8dcd4","practice_instructions":1,"leaderboard_instructions":0,"bonus":0,"reveal_word":true,"self_rating":"5","confidence":"100"},{"word":"FIG","click_log":{"letter":["","F","I","G"],"t":[0,15347,16730,17480],"hit":[null,1,1,1],"asked":["","F","FI","FIG"],"word_state":["___","F__","FI_","FIG"]},"hover_log":{"letter":["?","?","?","?","?","?","?","?","?","?","?","?","?","?","?","?","?","?","?","?","?","?","?","?","?","?","?","?","?","?","?","?","?","?","?","?","?","?","?","?","?","?","?","?","?","?","?","?","?","?","?","?","?","?","?","?","?","?","?","?","?","?","K","?","?","?","?","?","?","?","?","?","?","?","?","?","?","?","?","?","?","?","?","?","?","?","?","?","?","?","?","?","?","?","?","?","?","?","?","?","?","?","?","?","?","?","C","?","?","?","?","?","?","?","?","?","?","?","?","?","?","?","?","?","?","?","?","?","?","?","?","?","?","?","?","?","?","?","?","?","?","?","?","?","?","?","?","?","?","?","?","?","?","?","?","?","?","?","?","?","?","?","?","?","?","?","?","?","?","?","?","?","?","?","?","?","?","?","?","?","?","?","?","?","?","?","?","?","?","?","?","?","?","?","?","?","?","?","?","?","?","?","?","?","?","?","?","?","?","?","?","?","?","?","?","?","?","?","?","?","?","?","?","?","?","?","?","?","?","?","?","?","?","?","?","?","?","?","?","?","?","?","?","?","?","?","?","?","?","?","?","?","?","?","?","?","?","?","?","?","?","?","?","?","?","?","?","?","?","?","?","?","?","?","?","?","?","?","?","?","?","?","?","?","?","?","?","?","?","?","?","?","?","?","?","?","?","?","?","?","?","?","?","?","?","?","?","?","?","?","?","?","?","?","?","?","?","?","?","?","?","?","?","?","?","?","?","?","?","?","?","?","?","?","?","?","?","?","?","?","?","?","?","?","?","?","?","?","?","?","?","?","?","?","?","?","?","?","?","?","?","?","?","?","?","?","?","?","?","?","?","?","?","?","?","?","?","?","?","?","?","?","?","?","?","?","?","?","?","?","?","?","?","?","?","?","?","?","?","?","?","?","?","?","?","?","?","?","?","?","?","?","?","?","?","?","?","?","?","?","?","?","?","?","?","?","?","?","?","?","?","?","?","?","?","?","?","?","?","?","?","?","?","?","?","?","?","?","?","?","?","?","?","?","?","?","?","?","?","?","?","?","?","?","?","?","?","?","?","?","?","?","?","?","?","?","?","?","?","?","?","?","?","?","?","?","?","?","?","?","?","?","?","?","?","?","?","?","?","?","?","?","?","?","?","?","?","?","?","?","?","?","?","?","?","?","?","?","?","?","?","?","?","?","?","?","?","?","?","?","?","?","?","?","?","?","?","?","?","?","?","?","?","?","?","?","?","?","?","?","?","?","?","?","?","?","?","?","?","?","?","?","?","?","?","?","?","?","?","?","?","?","?","?","?","?","?","?","?","?","?","?","?","?","?","?","?","?","?","?","?","?","?","?","?","?","?","?","?","?","?","?","?","?","?","?","?","?","?","?","?","?","?","?","?","?","?","?","?","?","?","?","?","?","?","?","?","?","?","?","?","?","?","?","?","?","?","?","?","?","?","?","?","?","?","?","?","?","?","?","?","?","?","?","?","?","?","?","?","?","?","?","?","?","?","?","?","?","?","?","?","?","?","?","?","?","?","?","?","?","?","?","?","?","?","?","?","?","?","?","?","?","?","?","?","?","?","?","?","?","?","?","?","?","?","?","?","?","?","?","?","?","?","?","?","?","?","?","?","?","?","?","?","?","?","?","?","?","?","?","?","?","?","?","?","?","?","?","?","?","?","?","?","?","?","?","?","?","?","?","?","?","?","?","?","?","?","?","?","?","?","?","?","?","?","?","?","?","?","?","?","?","?","?","?","?","?","?","?","?","?","?","?","?","?","?","?","?","?","?","?","?","?","?","?","?","?","?","?","?","?","?","?","?","?","?","?","?","?","?","?","?","?","?","?","?","?","?","?","?","?","?","?","?","?","?","?","?","?","?","?","?","?","?","?","?","?","?","?","?","?","?","?","?","?","?","?","?","?","?","?","?","?","?","?","?","?","?","?","?","?","?","?","?","?","?","?","?","?","?","?","?","?","?","?","?","?","?","?","?","?","?","?","?","?","?","?","?","?","?","?","?","?","?","?","?","?","?","?","?","?","?","?","?","?","?","?","?","?","?","?","?","?","?","?","?","?","?","?","?","?","?","?","?","?","?","?","?","?","?","?","?","?","?","?","?","?","?","?","?","?","?","?","?","?","?","?","?","?","?","?","?","?","?","?","?","?","?","?","?","?","?","?","?","?","?","?","?","?","?","?","?","?","?","?","?","?","?","?","?","?","?","?","?","?","?","?","?","?","?","?","?","?","?","?","?","?","?","?","?","?","?","?","?","?","?","?","?","?","?","?","?","?","?","?","?","?","?","?","?","?","?","?","?","?","?","?","?","?","?","?","?","?","?","?","?","?","?","?","?","?","?","?","?","?","?","?","?","?","?","?","?","?","?","?","?","?","?","?","?","?","?","?","?","?","?","?","?","?","?","?","?","?","?","?","?","?","?","?","?","?","?","?","?","?","?","?","?","?","?","?","?","?","?","?","?","?","?","?","?","?","?","?","?","?","?","?","?","?","?","?","?","?","?","?","?","?","?","?","?","?","?","?","?","?","?","?","?","?","?","?","?","?","?","?","?","?","?","?","?","?","?","?","?","?","?","?","?","?","?","?","?","?","?","?","?","?","?","?","?","?","?","?","?","?","?","?","?","?","?","?","?","?","?","?","?","?","?","?","?","?","?","?","?","?","?","?","?","?","?","?","?","?","?","?","?","?","?","?","?","?","?","?","?","?","?","?","?","?","?","?","?","?","?","?","?","?","?","?","?","?","?","?","?","?","?","?","?","?","?","?","?","?","?","?","?","?","?","?","?","?","?","?","?","?","?","?","?","?","?","?","?","?","?","?","?","?","?","?","?","?","?","?","?","?","?","?","?","?","?","?","?","?","?","?","?","?","?","?","?","?","?","?","?","?","?","?","?","?","?","?","?","?","?","?","?","?","?","?","?","?","?","?","?","?","?","?","?","?","?","?","?","?","?","?","?","?","?","?","?","?","?","?","?","?","?","?","?","?","?","?","?","?","?","?","?","?","?","?","?","?","?","?","?","?","?","?","?","?","?","?","?","?","?","?","?","?","?","?","?","?","?","?","?","?","?","?","?","?","?","?","?","?","?","?","?","?","?","?","?","?","?","?","?","?","?","?","?","?","?","?","?","?","?","?","?","?","?","?","?","?","?","?","?","?","?","?","?","?","?","?","?","?","?","?","?","?","?","?","?","?","?","?","?","?","?","?","?","?","?","?","?","?","?","?","?","?","?","?","?","?","?","?","?","?","?","?","?","?","?","?","?","?","?","?","?","?","?","?","?","?","?","?","?","?","?","?","?","?","?","?","?","?","?","?","?","?","?","?","?","?","?","?","?","?","?","?","?","?","?","?","?","?","?","?","?","?","?","?","?","?","?","?","?","?","?","?","?","?","?","?","?","?","?","?","?","?","?","?","?","?","?","?","?","?","?","?","?","?","?","?","?","?","?","?","?","?","?","?","?","?","?","?","?","?","?","?","?","?","?","?","?","?","?","?","?","?","?","?","?","?","?","?","?","?","?","?","?","?","?","?","?","?","?","?","?","?","?","?","?","?","?","?","?","?","?","?","?","?","?","?","?","?","?","?","?","?","?","?","?","?","?","?","?","?","?","?","?","?","?","?","?","?","?","?","?","?","?","?","?","?","?","?","?","?","?","?","?","?","?","?","?","?","?","?","?","?","?","?","?","?","?","?","?","?","?","?","?","?","?","?","?","?","?","?","?","?","?","?","?","?","?","?","?","?","?","?","?","?","?","?","?","?","?","?","?","?","?","?","?","?","?","?","?","?","?","?","?","?","?","?","?","?","?","?","?","?","?","?","?","?","?","?","?","?","?","?","?","?","?","?","?","?","?","?","?","?","?","?","?","?","?","?","?","?","?","?","?","?","?","?","?","?","?","?","?","?","?","?","?","?","?","?","?","?","?","?","?","?","?","?","?","?","?","?","?","?","?","?","?","?","?","?","?","?","?","?","?","?","?","?","?","?","?","?","?","?","?","?","?","?","?","?","?","?","?","?","?","?","?","?","?","?","?","?","?","?","?","?","?","?","?","?","?","?","?","?","?","?","?","?","?","?","?","?","?","?","?","?","?","?","?","?","?","?","?","?","?","?","?","?","?","?","?","?","?","?","?","?","?","?","?","?","?","?","?","?","?","?","?","?","?","?","?","?","?","?","?","?","?","?","?","?","?","?","?","?","?","?","?","?","?","?","?","?","?","?","?","?","?","?","?","?","?","?","?","?","?","?","?","?","?","?","?","?","?","?","?","?","?","?","?","?","?","?","?","?","?","?","?","?","?","?","?","?","?","?","?","?","?","?","?","?","?","?","?","?","?","?","?","?","?","?","?","?","?","?","?","?","?","?","?","?","?","?","?","?","?","?","?","?","?","?","?","?","?","?","?","?","?","?","?","?","?","?","?","?","?","?","?","?","?","?","?","?","?","?","?","?","?","?","?","?","?","?","?","?","?","?","?","?","?","?","?","?","?","?","?","?","?","?","?","?","?","?","?","?","?","?","?","?","?","?","?","?","?","?","?","?","?","?","?","?","?","?","?","?","?","?","?","?","?","?","?","?","?","?","?","?","?","?","?","?","?","?","?","?","?","?","?","?","?","?","?","?","?","?","?","?","?","?","?","?","?","?","?","?","?","?","?","?","?","?","?","?","?","?","?","?","?","?","?","?","?","?","?","?","?","?","?","?","?","?","?","?","?","?","?","?","?","?","?","?","?","?","?","?","?","?","?","?","?","?","?","?","?","?","?","?","?","?","?","?","?","?","?","?","?","?","?","?","?","?","?","?","?","?","?","?","?","?","?","?","?","?","?","?","?","?","?","?","?","?","?","?","?","?","?","?","?","?","?","?","?","?","?","?","?","?","?","?","?","?","?","?","?","?","?","?","?","?","?","?","?","?","?","?","?","?","?","?","?","?","?","?","?","?","?","?","?","?","?","?","?","?","?","?","?","?","?","?","?","?","?","?","?","?","?","?","?","?","?","?","?","?","?","?","?","?","?","?","?","?","?","?","?","?","?","?","?","?","?","?","?","?","?","?","?","?","?","?","?","?","?","?","?","?","?","?","?","?","?","?","?","?","?","?","?","?","?","?","?","?","?","?","?","?","?","?","?","?","?","?","?","?","?","?","?","?","?","?","?","?","?","?","?","?","?","?","?","?","?","?","?","?","?","?","?","?","?","?","?","?","?","?","?","?","?","?","?","?","?","?","?","?","?","?","?","?","?","?","?","?","?","?","?","?","?","?","?","?","?","?","?","?","?","?","?","?","?","?","?","?","?","?","?","?","?","?","?","?","?","?","?","?","?","?","?","?","?","?","?","?","?","?","?","?","?","?","?","?","?","?","?","?","?","?","?","?","?","?","?","?","?","?","?","?","?","?","?","?","?","?","?","?","?","?","?","?","?","?","?","?","?","?","?","?","?","?","?","?","?","?","?","?","?","?","?","?","?","?","?","?","?","?","?","?","?","?","?","?","?","?","?","?","?","?","?","?","?","?","?","?","?","?","?","?","?","?","?","?","?","?","?","?","?","?","?","?","?","?","?","?","?","?","?","?","?","?","?","?","?","?","?","?","?","?","?","?","?","?","?","?","?","?","?","?","?","?","?","?","?","?","?","?","?","?","?","?","?","?","?","?","?","?","?","?","?","?","?","?","?","?","?","?","?","?","?","?","?","?","?","?","?","?","?","?","?","?","?","?","?","?","?","?","?","?","?","?","?","?","?","?","?","?","?","?","?","?","?","?","?","?","?","?","?","?","?","?","?","?","?","?","?","?","?","?","?","?","?","?","?","?","?","?","?","?","?","?","?","?","?","?","?","?","?","?","?","?","?","?","?","?","?","?","?","?","?","?","?","?","?","?","?","?","?","?","?","?","?","?","?","?","?","?","?","?","?","?","?","?","?","?","?","?","?","?","?","?","?","?","?","?","?","?","?","?","?","?","?","?","?","?","?","?","?","?","?","?","?","?","?","?","?","?","?","?","?","?","?","?","?","?","?","?","?","?","?","?","?","?","?","?","?","?","?","?","?","?","?","?","?","?","?","?","?","?","?","?","?","?","?","?","?","?","?","?","?","?","?","?","?","?","?","?","?","?","?","?","?","?","?","?","?","?","?","?","?","?","?","?","?","?","?","?","?","?","?","?","?","?","?","?","?","?","?","?","?","?","?","?","?","?","?","?","?","?","?","?","?","?","?","?","?","?","?","?","?","?","?","?","?","?","?","?","?","?","?","?","?","?","?","?","?","?","?","?","?","?","?","?","?","?","?","?","?","?","?","?","?","?","?","?","?","?","?","?","?","?","?","?","?","?","?","?","?","?","?","?","?","?","?","?","?","?","?","?","?","?","?","?","?","?","?","?","?","?","?","?","?","?","?","?","?","?","?","?","?","?","?","?","?","?","?","?","?","?","?","?","?","?","?","?","?","?","?","?","?","?","?","?","?","?","?","?","?","?","?","?","?","?","?","?","?","?","?","?","?","?","?","?","?","?","?","?","?","?","?","?","?","?","?","?","?","?","?","?","?","?","?","?","?","?","?","?","?","?","?","?","?","?","?","?","?","?","?","?","?","?","?","?","?","?","?","?","?","?","?","?","?","?","?","?","?","?","?","?","?","?","?","?","?","?","?","?","?","?","?","?","?","?","?","?","?","?","?","?","?","?","?","?","?","?","?","?","?","?","?","?","?","?","?","?","?","?","?","?","?","?","?","?","?","?","?","?","?","?","?","?","?","?","?","?","?","?","?","?","?","?","?","?","?","?","?","?","?","?","?","?","?","?","?","?","?","?","?","?","?","?","?","?","?","?","?","?","?","?","?","?","?","?","?","?","?","?","?","?","?","?","?","?","?","?","?","?","?","?","?","?","?","?","?","?","?","?","?","?","?","?","?","?","?","?","?","?","?","?","?","?","?","?","?","?","?","?","?","?","?","?","?","?","?","?","?","?","?","?","?","?","?","?","?","?","?","?","?","?","?","?","?","?","?","?","?","?","?","?","?","?","?","?","?","?","?","?","?","?","?","?","?","?","?","?","?","?","?","?","?","?","?","?","?","?","?","?","?","?","?","?","?","?","?","?","?","?","?","?","?","?","?","?","?","?","?","?","?","?","?","?","?","?","?","?","?","?","?","?","?","?","?","?","?","?","?","?","?","?","?","?","?","?","?","?","?","?","?","?","?","?","?","?","?","?","?","?","?","?","?","?","?","?","?","?","?","?","?","?","?","?","?","?","?","?","?","?","?","?","?","?","?","?","?","?","?","?","?","?","?","?","?","?","?","?","?","?","?","?","?","?","?","?","?","?","?","?","?","?","?","?","?","?","?","?","?","?","?","?","?","?","?","?","?","?","?","?","?","?","?","?","?","?","?","?","?","?","?","?","?","?","?","?","?","?","?","?","?","?","?","?","?","?","?","?","?","?","?","?","?","?","?","?","?","?","?","?","?","?","?","?","?","?","?","?","?","?","?","?","?","?","?","?","?","?","?","?","?","?","?","?","?","?","?","?","?","?","?","?","?","?","?","?","?","?","?","?","?","?","?","?","?","?","?","?","?","?","?","?","?","?","?","?","?","?","?","?","?","?","?","?","?","?","?","?","?","?","?","?","?","?","?","?","?","?","?","?","?","?","?","?","?","?","?","?","?","?","?","?","?","?","?","?","?","?","?","?","?","?","?","?","?","?","?","?","?","?","?","?","?","?","?","?","?","?","?","?","?","?","?","?","?","?","?","?","?","?","?","?","?","?","?","?","?","?","?","?","?","?","?","?","?","?","?","?","?","?","?","?","?","?","?","?","?","?","?","?","?","?","?","?","?","?","?","?","?","?","?","?","?","?","?","?","?","?","?","?","?","?","?","?","?","?","?","?","?","?","?","?","?","?","?","?","?","?","?","?","?","?","?","?","?","?","?","?","?","?","?","?","?","?","?","?","?","?","?","?","?","?","?","?","?","?","?","?","?","?","?","?","?","?","?","?","?","?","?","?","?","?","?","?","?","?","?","?","?","?","?","?","?","?","?","?","?","?","?","?","?","?","?","?","?","?","?","?","?","?","?","?","?","?","?","?","?","?","?","?","?","?","?","?","?","?","?","?","?","?","?","?","?","?","?","?","?","?","?","?","?","?","?","?","?","?","?","?","?","?","?","?","?","?","?","?","?","?","?","?","?","?","?","?","?","?","?","?","?","?","?","?","?","?","?","?","?","?","?","?","?","?","?","?","?","?","?","?","?","?","?","?","?","?","?","?","?","?","?","?","?","?","?","?","?","?","?","?","?","?","?","?","?","?","?","?","?","?","?","?","?","?","?","?","?","?","?","?","?","?","?","?","?","?","?","?","?","?","?","?","?","?","?","?","?","?","?","?","?","?","?","?","?","?","?","?","?","?","?","?","?","?","?","?","?","?","?","?","?","?","?","?","?","?","?","?","?","?","?","?","?","?","?","?","?","?","?","?","?","?","?","?","?","?","?","?","?","?","?","?","?","?","?","?","?","?","?","?","?","?","?","?","?","?","?","?","?","?","?","?","?","?","?","?","?","?","?","?","?","?","?","?","?","?","?","?","?","?","?","?","?","?","?","?","?","?","?","?","?","?","?","?","?","?","?","?","?","?","?","?","?","?","?","?","?","?","?","?","?","?","?","?","?","?","?","?","?","?","?","?","?","?","?","?","?","?","?","?","?","?","?","?","?","?","?","?","?","?","?","?","?","?","?","?","?","?","?","?","?","?","?","?","?","?","?","?","?","?","?","?","?","?","?","?","?","?","?","?","?","?","?","?","?","?","?","?","?","?","?","?","?","?","?","?","?","?","?","?","?","?","?","?","?","?","?","?","?","?","?","?","?","?","?","?","?","?","?","?","?","?","?","?","?","?","?","?","?","?","?","?","?","?","?","?","?","?","?","?","?","?","?","?","?","?","?","?","?","?","?","?","?","?","?","?","?","?","?","?","?","?","?","?","?","?","?","?","?","?","?","?","?","?","?","?","?","?","?","?","?","?","?","?","?","?","?","?","?","?","?","?","?","?","?","?","?","?","?","?","?","?","?","?","?","?","?","?","?","?","?","?","?","?","?","?","?","?","?","?","?","?","?","?","?","?","?","?","?","?","?","?","?","?","?","?","?","?","?","?","?","?","?","?","?","?","?","?","?","?","?","?","?","?","?","?","?","?","?","?","?","?","?","?","?","?","?","?","?","?","?","?","?","?","?","?","?","?","?",