[{"success":true,"trial_type":"fullscreen","trial_index":0,"time_elapsed":3714,"internal_node_id":"0.0-0.0","protocol_sum":"","subject_identifier":303,"subject_sum":[142,97,43,209,245,209,50,163,57,87,91,141,175,183,132,44,100,97,78,86,188,243,213,171,101,160,188,75,52,50,148,7],"subject_pair":151,"STUDY_ID":"66a0b3911f23dfc7665bb169","PROLIFIC_PID":"663f61d2cf3a8a2d551183d7","SESSION_ID":"66a103502b2ec54e3f9249dc","practice_instructions":1,"leaderboard_instructions":0,"bonus":0,"reveal_word":true,"self_rating":"2","confidence":"76"},{"view_history":"[{\"page_index\":0,\"viewing_time\":5066.5}]","rt":5066.799999952316,"trial_type":"instructions","trial_index":1,"time_elapsed":8781,"internal_node_id":"0.0-1.0","protocol_sum":"","subject_identifier":303,"subject_sum":[142,97,43,209,245,209,50,163,57,87,91,141,175,183,132,44,100,97,78,86,188,243,213,171,101,160,188,75,52,50,148,7],"subject_pair":151,"STUDY_ID":"66a0b3911f23dfc7665bb169","PROLIFIC_PID":"663f61d2cf3a8a2d551183d7","SESSION_ID":"66a103502b2ec54e3f9249dc","practice_instructions":1,"leaderboard_instructions":0,"bonus":0,"reveal_word":true,"self_rating":"2","confidence":"76"},{"view_history":"[{\"page_index\":0,\"viewing_time\":13195.5}]","rt":13195.799999952316,"trial_type":"instructions","trial_index":2,"time_elapsed":21978,"internal_node_id":"0.0-2.0-0.0","protocol_sum":"","subject_identifier":303,"subject_sum":[142,97,43,209,245,209,50,163,57,87,91,141,175,183,132,44,100,97,78,86,188,243,213,171,101,160,188,75,52,50,148,7],"subject_pair":151,"STUDY_ID":"66a0b3911f23dfc7665bb169","PROLIFIC_PID":"663f61d2cf3a8a2d551183d7","SESSION_ID":"66a103502b2ec54e3f9249dc","practice_instructions":1,"leaderboard_instructions":0,"bonus":0,"reveal_word":true,"self_rating":"2","confidence":"76"},{"rt":6164.799999952316,"responses":"{\"Q0\":\"... reveal the word with as <b>few letter guesses</b> as possible\"}","question_order":"[0]","trial_type":"survey-multi-choice","trial_index":3,"time_elapsed":28144,"internal_node_id":"0.0-2.0-1.0","protocol_sum":"","subject_identifier":303,"subject_sum":[142,97,43,209,245,209,50,163,57,87,91,141,175,183,132,44,100,97,78,86,188,243,213,171,101,160,188,75,52,50,148,7],"subject_pair":151,"correct":true,"test_part":"multichoice_nonpretend","STUDY_ID":"66a0b3911f23dfc7665bb169","PROLIFIC_PID":"663f61d2cf3a8a2d551183d7","SESSION_ID":"66a103502b2ec54e3f9249dc","practice_instructions":1,"leaderboard_instructions":0,"bonus":0,"reveal_word":true,"self_rating":"2","confidence":"76"},{"view_history":"[{\"page_index\":0,\"viewing_time\":1573}]","rt":1573.2000000476837,"trial_type":"instructions","trial_index":4,"time_elapsed":29718,"internal_node_id":"0.0-3.0","protocol_sum":"","subject_identifier":303,"subject_sum":[142,97,43,209,245,209,50,163,57,87,91,141,175,183,132,44,100,97,78,86,188,243,213,171,101,160,188,75,52,50,148,7],"subject_pair":151,"STUDY_ID":"66a0b3911f23dfc7665bb169","PROLIFIC_PID":"663f61d2cf3a8a2d551183d7","SESSION_ID":"66a103502b2ec54e3f9249dc","practice_instructions":1,"leaderboard_instructions":0,"bonus":0,"reveal_word":true,"self_rating":"2","confidence":"76"},{"word":"ZEBRA","click_log":{"letter":["","D","A","S","R","B","O","E","Z"],"t":[0,1669.2999999523163,3146.0999999046326,7266.099999904633,9135.900000095367,11754.700000047684,13221.799999952316,18388,19305.299999952316],"hit":[null,0,1,0,1,1,0,1,1],"asked":["","D","DA","DAS","DASR","DASRB","DASRBO","DASRBOE","DASRBOEZ"],"word_state":["_____","_____","____A","____A","___RA","__BRA","__BRA","_EBRA","ZEBRA"]},"hover_log":{"letter":["?","?","?","?","?","?","?","?","?","?","?","?","?","?","?","?","?","?","?","?","?","?","?","?","?","?","?","?","?","?","?","?","?","?","?","?","?","?","?","?","?","?","?","?","J","J","?","?","?","?","?","?","?","?","?","?","C","C","C","C","C","C","C","C","C","C","C","C","C","C","C","C","C","C","?","?","?","?","?","D","D","D","D","D","D","D","D","D","D","D","D","D","D","D","D","D","D","D","D","D","D","D","D","D","D","D","D","D","D","D","D","D","D","D","D","D","D","D","D","D","D","D","D","D","D","D","D","D","D","D","D","D","D","D","?","?","?","?","?","?","?","?","L","L","L","L","L","L","L","L","L","L","L","L","?","?","?","K","K","?","?","?","?","?","?","?","?","?","?","?","A","A","A","A","A","A","A","A","A","A","A","A","A","A","A","A","A","A","A","A","A","A","A","A","A","A","A","A","A","A","A","A","A","A","A","A","A","A","A","A","A","A","A","A","A","B","?","?","M","?","?","O","?","?","?","?","?","?","?","?","?","?","?","?","Y","Y","Y","Y","Y","Y","Y","Y","Y","Y","Y","Y","Y","Y","Y","Y","Y","Y","Y","Y","Y","Y","Y","Y","Y","Y","Y","Y","Y","Y","Y","Y","Y","Y","Y","Y","Y","Y","Y","Y","Y","Y","Y","Y","Y","Y","Y","Y","Y","Y","Y","Y","Y","Y","Y","Y","Y","Y","Y","Y","Y","Y","Y","?","?","W","?","?","?","?","L","L","L","L","L","L","L","L","L","L","L","L","L","?","?","?","?","?","?","?","?","?","?","?","?","?","?","?","?","?","?","?","?","?","?","?","?","?","?","?","?","?","?","N","N","O","?","P","?","?","?","?","?","?","?","?","?","?","?","?","Q","Q","?","Y","?","X","?","?","?","?","?","?","?","?","?","?","?","S","S","S","S","S","S","S","S","S","S","S","S","S","S","S","S","S","S","S","S","S","S","S","S","S","S","S","?","?","?","?","?","?","?","?","?","S","S","S","S","S","S","S","S","S","S","S","S","S","S","S","S","S","S","S","S","S","S","S","S","S","S","S","S","S","S","S","S","S","S","S","S","S","S","S","S","S","S","S","S","S","S","S","S","S","S","S","S","S","S","S","S","S","S","S","S","S","S","S","S","S","S","S","S","S","S","S","S","?","?","T","T","T","T","T","T","T","U","U","U","?","V","V","?","?","?","?","W","W","?","?","?","?","?","?","Q","Q","Q","Q","Q","Q","?","?","?","?","?","?","?","?","?","R","R","R","R","R","R","R","R","R","R","R","R","R","R","R","R","R","R","R","R","R","R","R","R","R","R","R","R","R","R","R","R","Q","Q","Q","Q","Q","?","?","?","?","?","?","?","P","P","P","P","P","P","P","P","P","P","P","P","P","P","P","P","P","P","P","P","P","P","P","P","P","P","P","P","P","P","P","P","P","P","P","P","P","P","P","P","P","P","P","P","P","P","P","P","P","P","P","P","P","P","P","P","P","P","P","P","P","P","P","P","P","P","P","P","P","P","P","P","P","P","P","P","P","P","?","O","O","O","O","O","O","O","?","?","?","N","N","N","N","M","M","?","L","?","K","K","K","?","?","?","?","?","?","?","?","?","?","?","?","?","?","?","?","?","?","B","B","B","B","B","B","B","B","B","B","B","B","B","B","B","B","B","B","B","B","B","B","B","B","B","B","B","B","B","B","B","B","B","B","B","B","B","B","B","B","B","B","B","B","B","B","B","B","B","B","B","B","B","B","?","?","?","?","?","?","?","?","?","?","?","?","M","M","N","N","N","?","O","O","O","O","O","O","O","O","O","O","O","O","O","O","O","O","O","O","O","O","O","O","O","O","O","O","O","O","O","O","O","O","O","O","O","O","O","O","O","O","O","O","O","O","O","O","O","O","O","O","O","O","O","O","O","O","O","O","O","O","O","O","O","O","O","O","O","O","O","O","O","O","O","O","O","O","O","O","O","O","O","?","N","N","N","N","N","?","M","M","M","M","M","M","M","M","M","M","M","?","?","?","?","?","?","?","?","?","?","?","?","?","?","?","?","?","?","?","?","?","?","?","?","?","?","?","?","?","?","?","?","?","?","?","?","?","?","?","?","?","?","?","?","?","?","?","?","?","?","?","?","?","?","?","?","?","?","?","?","?","?","?","?","?","?","?","?","?","?","?","?","?","?","?","?","?","?","?","?","?","?","?","?","?","?","?","?","?","?","?","?","?","?","?","?","?","?","?","?","?","?","?","?","?","?","?","?","?","?","?","?","?","?","?","?","?","?","?","?","?","?","?","?","?","?","?","?","?","?","?","?","?","?","?","?","?","?","?","?","?","?","?","?","?","?","?","?","?","?","?","?","?","?","?","?","?","?","?","?","?","?","?","?","?","?","?","?","?","?","?","?","?","?","?","?","?","?","?","?","?","M","M","M","?","?","?","N","N","N","N","N","N","N","N","N","?","?","?","?","?","D","D","D","D","?","?","?","?","?","?","D","D","D","D","D","D","?","E","E","E","E","E","E","E","E","E","E","E","E","E","E","E","E","E","E","E","E","E","E","E","E","E","E","E","E","E","E","E","E","E","E","E","E","E","E","?","?","?","P","P","?","?","?","?","?","Z","Z","Z","Z","Z","Z","Z","Z","Z","Z","Z","Z","Z","Z","Z","Z","Z","Z","Z","Z","Z","Z","Z","Z","Z","Z","Z","Z","Z","Z","Z","Z","Z","Z","Z","Z","Z","Z","Z","Z","Z","Z","Z","Z","Z","Z","Z","Z","Z","Z","Z","Z","Z","Z","Z","Z","Z","Z","Z","Z","Z","Z","Y","Y","?","X","X","X","?","?","W","W","W","W","W","W","W","W","W","?","?","?","?","?","?","?","?","?","?","?","?","?","?","?","?","?","?","?","?","?","?","?","?","U","U","U","U","U","U","U","U","?","?","?","?","?","?","?","?","?","?","?","?","?","?","?","?","?","?","?","?","?","?","?","?","?","?","?","?","?","?","?","?","?","?","?"],"t":[30,43,60,74,92,108,125,140,160,174,191,207,225,240,257,274,290,308,325,341,357,375,390,408,423,440,456,474,490,506,523,541,556,573,590,608,624,640,656,673,690,707,724,741,758,774,790,807,824,842,858,875,892,908,924,941,957,975,992,1008,1025,1042,1057,1073,1090,1107,1125,1141,1160,1174,1191,1209,1225,1242,1259,1274,1292,1308,1325,1342,1356,1374,1390,1407,1424,1440,1459,1475,1491,1507,1525,1543,1558,1574,1591,1607,1623,1642,1657,1674,1691,1708,1724,1742,1757,1775,1791,1808,1823,1841,1858,1874,1890,1907,1923,1941,1957,1973,1991,2007,2024,2040,2057,2074,2091,2107,2124,2140,2158,2175,2192,2208,2226,2241,2259,2276,2291,2307,2324,2342,2358,2376,2392,2407,2425,2440,2457,2474,2492,2509,2524,2540,2557,2574,2590,2608,2623,2642,2657,2675,2690,2707,2726,2743,2759,2775,2791,2807,2824,2840,2858,2875,2892,2908,2923,2941,2957,2975,2991,3007,3024,3040,3057,3073,3092,3107,3125,3140,3158,3175,3190,3208,3224,3241,3257,3273,3290,3307,3324,3341,3357,3375,3391,3407,3424,3440,3457,3474,3491,3507,3525,3540,3558,3575,3591,3609,3625,3641,3658,3674,3691,3707,3724,3742,3759,3775,3793,3807,3824,3840,3858,3875,3891,3908,3926,3940,3957,3976,3991,4007,4024,4040,4057,4074,4092,4108,4123,4140,4157,4174,4190,4206,4223,4241,4259,4273,4290,4307,4323,4340,4356,4374,4390,4407,4423,4440,4457,4473,4490,4506,4524,4541,4556,4573,4591,4607,4623,4640,4657,4674,4691,4707,4723,4740,4756,4774,4790,4808,4823,4841,4857,4874,4891,4908,4924,4941,4959,4974,4990,5007,5023,5042,5057,5075,5092,5107,5123,5140,5157,5175,5190,5208,5225,5241,5257,5274,5290,5307,5325,5341,5357,5374,5390,5407,5425,5440,5457,5475,5490,5507,5524,5541,5559,5575,5592,5608,5625,5642,5658,5675,5690,5707,5724,5742,5758,5774,5792,5808,5824,5840,5859,5875,5891,5906,5925,5941,5956,5974,5990,6006,6024,6042,6057,6074,6092,6107,6124,6141,6157,6175,6190,6207,6223,6240,6257,6275,6292,6308,6324,6341,6359,6375,6392,6407,6424,6442,6457,6473,6491,6508,6523,6540,6557,6573,6590,6607,6624,6640,6659,6674,6691,6708,6724,6740,6758,6774,6790,6807,6824,6840,6857,6875,6891,6906,6924,6940,6959,6974,6991,7008,7025,7041,7058,7074,7090,7107,7124,7140,7157,7174,7191,7207,7224,7240,7259,7274,7290,7306,7325,7341,7360,7375,7391,7408,7423,7440,7457,7474,7490,7507,7524,7540,7558,7575,7590,7608,7624,7641,7656,7674,7691,7707,7723,7741,7758,7775,7789,7808,7824,7841,7858,7873,7891,7908,7925,7940,7957,7975,7992,8008,8025,8042,8056,8075,8090,8107,8124,8140,8157,8174,8191,8209,8225,8241,8258,8274,8291,8307,8324,8341,8357,8375,8391,8408,8424,8441,8457,8474,8490,8508,8525,8540,8558,8574,8592,8607,8623,8642,8657,8674,8690,8708,8724,8742,8757,8775,8791,8807,8823,8841,8857,8876,8890,8908,8923,8941,8959,8975,8991,9007,9023,9041,9057,9074,9090,9108,9123,9142,9157,9174,9191,9207,9223,9242,9259,9275,9291,9308,9324,9340,9357,9373,9392,9408,9424,9441,9457,9473,9490,9507,9524,9540,9557,9574,9592,9607,9624,9641,9659,9674,9692,9707,9724,9740,9758,9775,9790,9807,9824,9841,9858,9874,9890,9908,9925,9942,9957,9973,9991,10007,10024,10040,10058,10074,10090,10106,10125,10141,10157,10173,10190,10206,10223,10241,10257,10274,10291,10306,10323,10340,10359,10374,10391,10407,10424,10441,10459,10475,10490,10507,10524,10541,10559,10573,10591,10607,10624,10640,10659,10673,10691,10707,10723,10741,10757,10774,10791,10806,10824,10841,10857,10875,10892,10908,10923,10940,10957,10975,10991,11007,11023,11041,11058,11074,11091,11108,11126,11141,11157,11174,11191,11207,11224,11240,11258,11275,11290,11308,11324,11341,11356,11374,11390,11407,11424,11440,11457,11473,11492,11508,11525,11542,11558,11574,11592,11608,11625,11641,11657,11674,11691,11708,11724,11741,11757,11774,11791,11808,11824,11841,11858,11874,11892,11907,11924,11940,11959,11973,11992,12008,12025,12043,12059,12074,12093,12107,12124,12142,12158,12174,12191,12208,12225,12242,12257,12275,12290,12308,12323,12341,12356,12374,12390,12408,12425,12441,12460,12474,12490,12507,12525,12541,12557,12574,12590,12608,12624,12641,12657,12675,12692,12707,12726,12741,12757,12774,12790,12807,12825,12841,12859,12874,12890,12908,12925,12941,12959,12974,12991,13007,13023,13041,13057,13074,13090,13107,13123,13141,13158,13174,13191,13207,13225,13240,13257,13275,13291,13308,13324,13341,13359,13373,13390,13406,13424,13441,13459,13475,13490,13506,13524,13540,13559,13575,13592,13607,13624,13641,13657,13674,13691,13707,13724,13743,13758,13774,13791,13807,13824,13841,13858,13875,13891,13907,13924,13941,13958,13975,13991,14008,14025,14041,14057,14075,14090,14107,14124,14140,14160,14176,14192,14206,14224,14240,14260,14274,14292,14306,14325,14342,14359,14375,14392,14409,14424,14442,14456,14474,14491,14507,14525,14541,14557,14573,14592,14607,14623,14641,14659,14675,14690,14707,14725,14741,14757,14773,14792,14808,14824,14841,14859,14873,14891,14908,14924,14940,14957,14973,14990,15008,15025,15040,15057,15073,15093,15107,15124,15142,15158,15173,15190,15207,15225,15241,15259,15274,15291,15308,15323,15340,15360,15374,15390,15407,15423,15442,15457,15475,15491,15508,15524,15541,15558,15575,15591,15608,15625,15642,15658,15674,15691,15708,15725,15741,15758,15774,15791,15808,15824,15841,15858,15874,15892,15908,15925,15941,15958,15975,15991,16008,16025,16041,16058,16074,16091,16108,16125,16142,16158,16174,16191,16208,16225,16243,16259,16274,16292,16308,16324,16341,16358,16374,16392,16407,16426,16441,16462,16490,16507,16525,16541,16558,16573,16590,16606,16623,16640,16656,16673,16690,16707,16723,16740,16757,16773,16790,16806,16823,16840,16856,16873,16890,16906,16923,16940,16956,16973,16991,17007,17024,17040,17057,17073,17090,17106,17123,17140,17156,17173,17190,17207,17224,17240,17257,17273,17290,17307,17323,17339,17356,17373,17389,17407,17424,17440,17457,17473,17491,17506,17523,17540,17556,17573,17590,17606,17623,17640,17656,17673,17690,17707,17723,17740,17757,17773,17790,17807,17823,17841,17856,17874,17890,17907,17923,17940,17956,17973,17990,18007,18024,18040,18057,18073,18090,18107,18123,18140,18156,18173,18190,18206,18224,18240,18257,18273,18290,18306,18323,18340,18356,18374,18390,18406,18423,18440,18456,18473,18490,18507,18524,18540,18558,18573,18590,18606,18623,18640,18656,18673,18690,18707,18723,18740,18756,18773,18790,18806,18823,18840,18856,18874,18890,18906,18923,18940,18956,18973,18990,19006,19024,19040,19056,19073,19090,19107,19123,19140,19156,19173,19190,19207,19223,19240,19257,19274,19290,19309,19323,19340,19356,19373,19390,19407,19423,19440,19456,19474,19490,19506,19524,19540,19556,19573,19590,19607,19623,19640,19657,19673,19690,19706,19723,19740,19756,19773,19790,19806,19823,19841,19856,19873,19890,19906,19923,19940,19957,19974,19990,20007,20024,20040,20058,20073,20090,20106,20123,20140,20157,20173,20190,20206,20224,20240,20257,20273,20290,20307,20324,20340,20357,20373,20390,20407,20423,20440,20458,20473,20490,20506,20524,20540,20556,20573,20590,20606,20623,20640,20657,20673,20690,20707,20723,20740,20756,20773,20790,20807,20823,20840,20857,20873,20890,20906,20923,20940,20957,20973,20990,21007,21023,21040,21057,21073,21090,21107,21123,21140,21158,21173,21190,21207,21223,21240,21258,21274,21290,21308],"hit":[null],"x":[-1.8299319727891157,-1.8299319727891157,-1.8299319727891157,-1.8299319727891157,-1.8299319727891157,-1.8299319727891157,-1.8299319727891157,-1.8299319727891157,-1.8299319727891157,-1.8299319727891157,-1.8299319727891157,-1.8299319727891157,-1.8299319727891157,-1.8299319727891157,-1.8299319727891157,-1.8299319727891157,-1.8299319727891157,-1.8299319727891157,-1.8299319727891157,-1.8299319727891157,-1.8299319727891157,-1.8299319727891157,-1.8299319727891157,-1.8299319727891157,-1.8299319727891157,-1.8299319727891157,-1.8299319727891157,-1.8299319727891157,-1.8299319727891157,-1.8299319727891157,-1.8299319727891157,-1.8299319727891157,-1.8299319727891157,-1.8299319727891157,-1.8299319727891157,-1.8299319727891157,-1.8299319727891157,-1.8299319727891157,-1.8299319727891157,-1.8299319727891157,-1.8299319727891157,-1.8299319727891157,-1.8299319727891157,-1.8299319727891157,-0.031471963743774256,-0.0008597188458150746,0.07737157367119173,0.10458245802493323,0.12499062129023934,0.14539878455554547,0.16920830836506928,0.17941238999772233,0.19982055326302847,0.21002463489568152,0.23043279816098763,0.2406368797936407,0.25424232197051144,0.2644464036031645,0.2678477641473822,0.2712491246915999,0.2746504852358176,0.2780518457800353,0.28485456686847066,0.28485456686847066,0.28485456686847066,0.291657287956906,0.2950586485011237,0.30186136958955906,0.30526273013377675,0.30526273013377675,0.3222695328548652,0.3290722539433006,0.33587497503173597,0.3426776961201713,0.3494804172086067,0.35288177775282437,0.35968449884125975,0.36648721992969513,0.3698885804739128,0.3732899410181305,0.3766913015623482,0.3800926621065659,0.3868953831950013,0.3868953831950013,0.3936981042834366,0.400500825371872,0.40730354646030736,0.40730354646030736,0.41750762809296044,0.41750762809296044,0.4209089886371781,0.4209089886371781,0.4209089886371781,0.4243103491813958,0.4243103491813958,0.4243103491813958,0.4243103491813958,0.4243103491813958,0.4243103491813958,0.4243103491813958,0.4243103491813958,0.4243103491813958,0.4243103491813958,0.4243103491813958,0.4243103491813958,0.4243103491813958,0.4243103491813958,0.4243103491813958,0.4243103491813958,0.4243103491813958,0.4243103491813958,0.4243103491813958,0.4243103491813958,0.4243103491813958,0.4243103491813958,0.4243103491813958,0.4243103491813958,0.4243103491813958,0.4243103491813958,0.4243103491813958,0.4277117097256135,0.4277117097256135,0.4277117097256135,0.4277117097256135,0.4311130702698312,0.4311130702698312,0.4345144308140489,0.4345144308140489,0.4345144308140489,0.4345144308140489,0.4345144308140489,0.4345144308140489,0.4311130702698312,0.4243103491813958,0.4209089886371781,0.41750762809296044,0.41410626754874275,0.40730354646030736,0.3970994648276543,0.3834940226507836,0.35968449884125975,0.3426776961201713,0.3222695328548652,0.31206545122221213,0.30186136958955906,0.291657287956906,0.28145320632425297,0.2746504852358176,0.2644464036031645,0.2610450430589468,0.25424232197051144,0.2440382403378584,0.23723551924942302,0.23043279816098763,0.2202287165283346,0.21002463489568152,0.19982055326302847,0.17601102945350466,0.15560286618819852,0.1317933423786747,0.11478653965758628,0.10798381856915092,0.09777973693649784,0.09097701584806248,0.08757565530384478,0.07737157367119173,0.06716749203853867,0.06036477095010329,0.050160689317450234,0.04675932877323254,0.03995660768479717,0.03995660768479717,0.033153886596361794,0.02975252605214411,0.02975252605214411,0.026351165507926422,0.019548444419491048,0.019548444419491048,0.01614708387527336,0.012745723331055673,0.009344362786837987,0.009344362786837987,0.009344362786837987,0.009344362786837987,0.009344362786837987,0.009344362786837987,0.009344362786837987,0.009344362786837987,0.009344362786837987,0.009344362786837987,0.009344362786837987,0.009344362786837987,0.009344362786837987,0.009344362786837987,0.009344362786837987,0.009344362786837987,0.009344362786837987,0.009344362786837987,0.009344362786837987,0.009344362786837987,0.009344362786837987,0.009344362786837987,0.009344362786837987,0.009344362786837987,0.009344362786837987,0.009344362786837987,0.009344362786837987,0.012745723331055673,0.012745723331055673,0.012745723331055673,0.01614708387527336,0.019548444419491048,0.022949804963708735,0.02975252605214411,0.04335796822901486,0.12839198183445705,0.25764368251472913,0.3698885804739128,0.4481198729909196,0.509344362786838,0.6385960634671101,0.6896164716303754,0.7270314376167699,0.7678477641473822,0.7848545668684707,0.7984600090453414,0.8052627301337768,0.8086640906779945,0.8120654512222122,0.8120654512222122,0.8120654512222122,0.8154668117664299,0.8188681723106475,0.8188681723106475,0.8222695328548651,0.8222695328548651,0.8222695328548651,0.8222695328548651,0.8222695328548651,0.8222695328548651,0.8222695328548651,0.8222695328548651,0.8222695328548651,0.8222695328548651,0.8222695328548651,0.8222695328548651,0.8222695328548651,0.8222695328548651,0.8222695328548651,0.8222695328548651,0.8222695328548651,0.8222695328548651,0.8222695328548651,0.8222695328548651,0.8222695328548651,0.8222695328548651,0.8222695328548651,0.8222695328548651,0.8222695328548651,0.8222695328548651,0.8222695328548651,0.8222695328548651,0.8222695328548651,0.8222695328548651,0.8222695328548651,0.8222695328548651,0.8222695328548651,0.8222695328548651,0.8222695328548651,0.8222695328548651,0.8222695328548651,0.8222695328548651,0.8222695328548651,0.8222695328548651,0.8222695328548651,0.8222695328548651,0.8222695328548651,0.8222695328548651,0.8222695328548651,0.8222695328548651,0.8222695328548651,0.8222695328548651,0.8222695328548651,0.8222695328548651,0.8222695328548651,0.8222695328548651,0.8222695328548651,0.8222695328548651,0.8222695328548651,0.8222695328548651,0.8222695328548651,0.8222695328548651,0.8222695328548651,0.8222695328548651,0.8222695328548651,0.8222695328548651,0.8222695328548651,0.7882559274126884,0.6181879002018039,0.5501606893174502,0.4855348389773142,0.4277117097256135,0.3766913015623482,0.3324736144875183,0.31206545122221213,0.29846000904534137,0.28485456686847066,0.2780518457800353,0.2746504852358176,0.2712491246915999,0.2644464036031645,0.2644464036031645,0.2610450430589468,0.2610450430589468,0.25424232197051144,0.25424232197051144,0.25084096142629375,0.2440382403378584,0.23723551924942302,0.22703143761676997,0.2168273559841169,0.2134259954398992,0.21002463489568152,0.19982055326302847,0.19982055326302847,0.19641919271881078,0.1896164716303754,0.1896164716303754,0.18281375054194002,0.17941238999772233,0.16920830836506928,0.1658069478208516,0.1624055872766339,0.15560286618819852,0.15220150564398086,0.14880014509976316,0.14539878455554547,0.14199742401132778,0.14199742401132778,0.1385960634671101,0.1385960634671101,0.1385960634671101,0.14199742401132778,0.14539878455554547,0.1624055872766339,0.23383415870520532,0.3290722539433006,0.5263511655079264,0.5943783763922802,0.6998205532630285,0.8052627301337768,0.8800926621065659,0.9481198729909196,1.029752526052144,1.053562049861668,1.0671674920385386,1.0671674920385386,1.0671674920385386,1.0671674920385386,1.0671674920385386,1.0671674920385386,1.0671674920385386,1.0671674920385386,1.0603647709501034,1.0263511655079265,0.9889361995215319,0.9209089886371781,0.8426776961201713,0.7780518457800353,0.7100246348956816,0.6351947029228924,0.5569634104058856,0.4413171519024843,0.35968449884125975,0.3222695328548652,0.2202287165283346,0.17941238999772233,0.14539878455554547,0.09437837639228017,0.06716749203853867,0.05356204986166792,0.03995660768479717,0.036555247140579485,0.026351165507926422,0.022949804963708735,0.019548444419491048,0.019548444419491048,0.019548444419491048,0.01614708387527336,0.01614708387527336,0.01614708387527336,0.01614708387527336,0.01614708387527336,0.01614708387527336,0.01614708387527336,0.019548444419491048,0.019548444419491048,0.022949804963708735,0.026351165507926422,0.02975252605214411,0.036555247140579485,0.03995660768479717,0.04335796822901486,0.04675932877323254,0.050160689317450234,0.05356204986166792,0.05696341040588561,0.05696341040588561,0.06376613149432098,0.06376613149432098,0.06376613149432098,0.06716749203853867,0.06716749203853867,0.06716749203853867,0.06716749203853867,0.06716749203853867,0.06376613149432098,0.05696341040588561,0.05696341040588561,0.04675932877323254,0.04335796822901486,0.03995660768479717,0.033153886596361794,0.02975252605214411,0.019548444419491048,0.01614708387527336,0.009344362786837987,0.0025416416984026125,0.0025416416984026125,0.0025416416984026125,0.0025416416984026125,0.0025416416984026125,0.0025416416984026125,0.0025416416984026125,0.0025416416984026125,0.0025416416984026125,0.0025416416984026125,0.0025416416984026125,0.0025416416984026125,0.0025416416984026125,0.0025416416984026125,0.0025416416984026125,0.0025416416984026125,0.0025416416984026125,0.0025416416984026125,0.0025416416984026125,0.0025416416984026125,0.0025416416984026125,0.0025416416984026125,0.0025416416984026125,0.0025416416984026125,0.0025416416984026125,0.0025416416984026125,0.0025416416984026125,0.0025416416984026125,0.0025416416984026125,0.0025416416984026125,0.0025416416984026125,0.0025416416984026125,0.0025416416984026125,0.0025416416984026125,0.0025416416984026125,0.0025416416984026125,0.0025416416984026125,0.0025416416984026125,0.0025416416984026125,0.0025416416984026125,0.0025416416984026125,0.0025416416984026125,0.0025416416984026125,0.0025416416984026125,0.0025416416984026125,0.0025416416984026125,0.0025416416984026125,0.0025416416984026125,0.005943002242620299,0.009344362786837987,0.012745723331055673,0.01614708387527336,0.019548444419491048,0.022949804963708735,0.02975252605214411,0.02975252605214411,0.033153886596361794,0.036555247140579485,0.03995660768479717,0.04335796822901486,0.04675932877323254,0.05356204986166792,0.06036477095010329,0.06716749203853867,0.08757565530384478,0.10458245802493323,0.12158926074602167,0.1385960634671101,0.14199742401132778,0.1624055872766339,0.1896164716303754,0.23723551924942302,0.30186136958955906,0.3324736144875183,0.35968449884125975,0.4209089886371781,0.46852803625622574,0.4957389206099672,0.509344362786838,0.5161470838752734,0.5263511655079264,0.5467593287732325,0.5671674920385387,0.6488001450997631,0.7100246348956816,0.791657287956906,0.8562831382970421,0.8936981042834367,0.9447185124467019,0.9855348389773142,0.999140281154185,1.0059430022426203,1.0127457233310557,1.0229498049637087,1.0263511655079265,1.0399566076847973,1.0433579682290148,1.0569634104058856,1.063766131494321,1.0705688525827564,1.0807729342154093,1.0875756553038447,1.0909770158480625,1.0977797369364979,1.1011810974807155,1.1045824580249333,1.1045824580249333,1.1079838185691508,1.1113851791133686,1.1113851791133686,1.1147865396575862,1.1147865396575862,1.1147865396575862,1.1147865396575862,1.1147865396575862,1.1147865396575862,1.1147865396575862,1.1147865396575862,1.1147865396575862,1.1147865396575862,1.1147865396575862,1.1147865396575862,1.1147865396575862,1.1147865396575862,1.1147865396575862,1.1147865396575862,1.1147865396575862,1.1147865396575862,1.1147865396575862,1.1147865396575862,1.1147865396575862,1.1147865396575862,1.1147865396575862,1.1147865396575862,1.1147865396575862,1.1045824580249333,1.0467593287732326,1.0025416416984025,0.9753307573446611,0.954922594079355,0.9481198729909196,0.9413171519024842,0.9345144308140488,0.9345144308140488,0.9277117097256135,0.9277117097256135,0.9243103491813958,0.9175076280929604,0.9107049070045251,0.9073035464603074,0.900500825371872,0.8970994648276543,0.8970994648276543,0.890296743739219,0.890296743739219,0.8868953831950013,0.8868953831950013,0.8834940226507836,0.8834940226507836,0.8800926621065659,0.8800926621065659,0.8800926621065659,0.8800926621065659,0.8800926621065659,0.8800926621065659,0.8800926621065659,0.8800926621065659,0.8800926621065659,0.8800926621065659,0.8800926621065659,0.8800926621065659,0.8800926621065659,0.8800926621065659,0.8800926621065659,0.8800926621065659,0.8800926621065659,0.8800926621065659,0.8800926621065659,0.8800926621065659,0.8800926621065659,0.8800926621065659,0.8800926621065659,0.8800926621065659,0.8800926621065659,0.8800926621065659,0.8800926621065659,0.8800926621065659,0.8800926621065659,0.8800926621065659,0.8800926621065659,0.8800926621065659,0.8800926621065659,0.8800926621065659,0.8800926621065659,0.8800926621065659,0.8800926621065659,0.8800926621065659,0.8800926621065659,0.8800926621065659,0.8800926621065659,0.8800926621065659,0.8800926621065659,0.8800926621065659,0.8800926621065659,0.8800926621065659,0.8800926621065659,0.8800926621065659,0.8800926621065659,0.8800926621065659,0.8800926621065659,0.8800926621065659,0.8800926621065659,0.8800926621065659,0.8766913015623482,0.8732899410181305,0.8698885804739128,0.8630858593854774,0.8596844988412597,0.8562831382970421,0.8494804172086067,0.8426776961201713,0.8392763355759536,0.8290722539433005,0.8222695328548651,0.8120654512222122,0.8018613695895591,0.791657287956906,0.7712491246915999,0.7474396008820761,0.7270314376167699,0.7032219138072462,0.6862151110861577,0.6760110294535047,0.6624055872766339,0.6522015056439808,0.6488001450997631,0.6317933423786747,0.6215892607460216,0.5943783763922802,0.5773715736711917,0.5501606893174502,0.4753307573446611,0.41410626754874275,0.35288177775282437,0.2644464036031645,0.19982055326302847,0.1590042267324162,0.14880014509976316,0.14199742401132778,0.1385960634671101,0.12839198183445705,0.12499062129023934,0.12499062129023934,0.12499062129023934,0.12499062129023934,0.12499062129023934,0.12499062129023934,0.12499062129023934,0.12499062129023934,0.12839198183445705,0.1351947029228924,0.1385960634671101,0.14199742401132778,0.14199742401132778,0.14539878455554547,0.15220150564398086,0.15220150564398086,0.15220150564398086,0.15220150564398086,0.15220150564398086,0.15220150564398086,0.15220150564398086,0.15220150564398086,0.15220150564398086,0.15220150564398086,0.15220150564398086,0.15220150564398086,0.15220150564398086,0.15220150564398086,0.15220150564398086,0.15220150564398086,0.15220150564398086,0.15220150564398086,0.15220150564398086,0.15220150564398086,0.15220150564398086,0.15220150564398086,0.15220150564398086,0.15220150564398086,0.15220150564398086,0.15220150564398086,0.15220150564398086,0.15220150564398086,0.15220150564398086,0.15220150564398086,0.15220150564398086,0.15220150564398086,0.15220150564398086,0.15220150564398086,0.15220150564398086,0.15220150564398086,0.15220150564398086,0.15220150564398086,0.15220150564398086,0.15220150564398086,0.15220150564398086,0.15220150564398086,0.15220150564398086,0.15220150564398086,0.15220150564398086,0.15220150564398086,0.15220150564398086,0.15220150564398086,0.15220150564398086,0.15560286618819852,0.1590042267324162,0.1624055872766339,0.1658069478208516,0.17260966890928697,0.1862151110861577,0.1930178321745931,0.21002463489568152,0.2168273559841169,0.22703143761676997,0.23723551924942302,0.2474396008820761,0.25424232197051144,0.2644464036031645,0.2746504852358176,0.28485456686847066,0.29846000904534137,0.3222695328548652,0.3698885804739128,0.4039021859160897,0.454922594079355,0.5161470838752734,0.5535620498616679,0.5841742947596271,0.6317933423786747,0.6624055872766339,0.6760110294535047,0.6862151110861577,0.6896164716303754,0.6930178321745931,0.6964191927188108,0.6998205532630285,0.7032219138072462,0.7066232743514639,0.7100246348956816,0.7100246348956816,0.7134259954398993,0.7168273559841168,0.7202287165283345,0.7202287165283345,0.7236300770725522,0.7236300770725522,0.7236300770725522,0.7236300770725522,0.7236300770725522,0.7236300770725522,0.7236300770725522,0.7236300770725522,0.7236300770725522,0.7236300770725522,0.7236300770725522,0.7236300770725522,0.7236300770725522,0.7236300770725522,0.7236300770725522,0.7236300770725522,0.7236300770725522,0.7236300770725522,0.7236300770725522,0.7236300770725522,0.7236300770725522,0.7236300770725522,0.7236300770725522,0.7236300770725522,0.7236300770725522,0.7236300770725522,0.7236300770725522,0.7236300770725522,0.7236300770725522,0.7236300770725522,0.7236300770725522,0.7236300770725522,0.7236300770725522,0.7236300770725522,0.7236300770725522,0.7236300770725522,0.7236300770725522,0.7236300770725522,0.7236300770725522,0.7236300770725522,0.7236300770725522,0.7236300770725522,0.7236300770725522,0.7236300770725522,0.7236300770725522,0.7236300770725522,0.7236300770725522,0.7236300770725522,0.7236300770725522,0.7236300770725522,0.7236300770725522,0.7236300770725522,0.7236300770725522,0.7236300770725522,0.7236300770725522,0.7236300770725522,0.7236300770725522,0.7236300770725522,0.7236300770725522,0.7236300770725522,0.7236300770725522,0.7236300770725522,0.7236300770725522,0.7236300770725522,0.7134259954398993,0.68281375054194,0.6453987845555454,0.607983818569151,0.5807729342154094,0.5569634104058856,0.5297525260521441,0.5161470838752734,0.4923375600657495,0.4821334784330965,0.47192939680044343,0.4515212335351373,0.4413171519024843,0.4345144308140489,0.4243103491813958,0.41750762809296044,0.40730354646030736,0.3970994648276543,0.3868953831950013,0.3868953831950013,0.3800926621065659,0.3800926621065659,0.3732899410181305,0.3698885804739128,0.36648721992969513,0.36308585938547744,0.36308585938547744,0.35968449884125975,0.35968449884125975,0.35968449884125975,0.35968449884125975,0.35968449884125975,0.35968449884125975,0.35968449884125975,0.35968449884125975,0.35968449884125975,0.35968449884125975,0.35968449884125975,0.35968449884125975,0.35968449884125975,0.35968449884125975,0.35968449884125975,0.35968449884125975,0.35968449884125975,0.35968449884125975,0.35968449884125975,0.35968449884125975,0.35968449884125975,0.35968449884125975,0.35968449884125975,0.35968449884125975,0.35968449884125975,0.35968449884125975,0.35968449884125975,0.35968449884125975,0.35968449884125975,0.35968449884125975,0.35968449884125975,0.35968449884125975,0.35968449884125975,0.35968449884125975,0.35968449884125975,0.35968449884125975,0.35968449884125975,0.35968449884125975,0.35968449884125975,0.35968449884125975,0.35968449884125975,0.35968449884125975,0.35968449884125975,0.35968449884125975,0.35968449884125975,0.35968449884125975,0.35968449884125975,0.35968449884125975,0.35968449884125975,0.35968449884125975,0.35968449884125975,0.35968449884125975,0.35968449884125975,0.35968449884125975,0.35968449884125975,0.35968449884125975,0.35968449884125975,0.35968449884125975,0.35968449884125975,0.35968449884125975,0.35968449884125975,0.35968449884125975,0.35968449884125975,0.35968449884125975,0.35968449884125975,0.35968449884125975,0.35968449884125975,0.35968449884125975,0.35968449884125975,0.35968449884125975,0.35968449884125975,0.35968449884125975,0.35968449884125975,0.35968449884125975,0.35968449884125975,0.35968449884125975,0.35968449884125975,0.35968449884125975,0.35968449884125975,0.35968449884125975,0.35968449884125975,0.35968449884125975,0.35968449884125975,0.35968449884125975,0.35968449884125975,0.35968449884125975,0.35968449884125975,0.35968449884125975,0.35968449884125975,0.35968449884125975,0.35968449884125975,0.35968449884125975,0.35968449884125975,0.35968449884125975,0.35968449884125975,0.35968449884125975,0.35968449884125975,0.35968449884125975,0.35968449884125975,0.35968449884125975,0.35968449884125975,0.35968449884125975,0.35968449884125975,0.35968449884125975,0.35968449884125975,0.35968449884125975,0.35968449884125975,0.35968449884125975,0.35968449884125975,0.35968449884125975,0.35968449884125975,0.35968449884125975,0.35968449884125975,0.35968449884125975,0.35968449884125975,0.35968449884125975,0.35968449884125975,0.35968449884125975,0.35968449884125975,0.35968449884125975,0.35968449884125975,0.35968449884125975,0.35968449884125975,0.35968449884125975,0.35968449884125975,0.35968449884125975,0.35968449884125975,0.35968449884125975,0.35968449884125975,0.35968449884125975,0.35968449884125975,0.35968449884125975,0.35968449884125975,0.35968449884125975,0.35968449884125975,0.35968449884125975,0.35968449884125975,0.35968449884125975,0.35968449884125975,0.35968449884125975,0.35968449884125975,0.35968449884125975,0.35968449884125975,0.35968449884125975,0.35968449884125975,0.35968449884125975,0.35968449884125975,0.35968449884125975,0.35968449884125975,0.35968449884125975,0.35968449884125975,0.35968449884125975,0.35968449884125975,0.35968449884125975,0.35968449884125975,0.35968449884125975,0.35968449884125975,0.35968449884125975,0.35968449884125975,0.35968449884125975,0.35968449884125975,0.35968449884125975,0.35968449884125975,0.35968449884125975,0.35968449884125975,0.35968449884125975,0.35968449884125975,0.35968449884125975,0.35968449884125975,0.35968449884125975,0.35968449884125975,0.35968449884125975,0.36308585938547744,0.36308585938547744,0.3732899410181305,0.3868953831950013,0.4243103491813958,0.4821334784330965,0.5059430022426203,0.5297525260521441,0.5399566076847971,0.5433579682290148,0.5467593287732325,0.5501606893174502,0.5535620498616679,0.5535620498616679,0.5535620498616679,0.5535620498616679,0.5535620498616679,0.5501606893174502,0.5399566076847971,0.5127457233310557,0.4923375600657495,0.454922594079355,0.4277117097256135,0.4039021859160897,0.3868953831950013,0.3800926621065659,0.3698885804739128,0.3698885804739128,0.3698885804739128,0.36648721992969513,0.36648721992969513,0.36648721992969513,0.3698885804739128,0.3868953831950013,0.41410626754874275,0.454922594079355,0.46852803625622574,0.4855348389773142,0.509344362786838,0.519548444419491,0.5297525260521441,0.5399566076847971,0.5467593287732325,0.5501606893174502,0.5535620498616679,0.5569634104058856,0.5603647709501033,0.563766131494321,0.5671674920385387,0.5671674920385387,0.5705688525827564,0.5705688525827564,0.573970213126974,0.573970213126974,0.573970213126974,0.573970213126974,0.573970213126974,0.573970213126974,0.573970213126974,0.573970213126974,0.573970213126974,0.573970213126974,0.573970213126974,0.573970213126974,0.573970213126974,0.573970213126974,0.573970213126974,0.573970213126974,0.573970213126974,0.573970213126974,0.573970213126974,0.573970213126974,0.573970213126974,0.573970213126974,0.573970213126974,0.573970213126974,0.5773715736711917,0.6147865396575863,0.6794123899977224,0.7644464036031645,0.8120654512222122,0.8630858593854774,0.9209089886371781,0.9379157913582665,0.965126675712008,0.9889361995215319,0.999140281154185,1.0059430022426203,1.0161470838752733,1.0229498049637087,1.0229498049637087,1.029752526052144,1.029752526052144,1.0331538865963619,1.0331538865963619,1.0365552471405794,1.0365552471405794,1.0399566076847973,1.0399566076847973,1.0399566076847973,1.0399566076847973,1.0399566076847973,1.0399566076847973,1.0399566076847973,1.0399566076847973,1.0399566076847973,1.0399566076847973,1.0399566076847973,1.0399566076847973,1.0399566076847973,1.0399566076847973,1.0399566076847973,1.0399566076847973,1.0399566076847973,1.0399566076847973,1.0399566076847973,1.0399566076847973,1.0399566076847973,1.0399566076847973,1.0399566076847973,1.0399566076847973,1.0399566076847973,1.0399566076847973,1.0399566076847973,1.0399566076847973,1.0399566076847973,1.0399566076847973,1.0399566076847973,1.0399566076847973,1.0399566076847973,1.0399566076847973,1.0399566076847973,1.0399566076847973,1.0399566076847973,1.0399566076847973,1.0365552471405794,1.0365552471405794,1.0365552471405794,1.0365552471405794,1.0331538865963619,1.0331538865963619,1.029752526052144,1.029752526052144,1.0263511655079265,1.0229498049637087,1.019548444419491,1.009344362786838,0.999140281154185,0.9685280362562257,0.9107049070045251,0.8596844988412597,0.791657287956906,0.7440382403378584,0.7032219138072462,0.6590042267324162,0.6419974240113278,0.6351947029228924,0.6147865396575863,0.6113851791133686,0.5943783763922802,0.5875756553038448,0.5841742947596271,0.573970213126974,0.5705688525827564,0.5671674920385387,0.5569634104058856,0.5535620498616679,0.5501606893174502,0.5433579682290148,0.5399566076847971,0.5399566076847971,0.5331538865963618,0.5297525260521441,0.519548444419491,0.5161470838752734,0.5059430022426203,0.4855348389773142,0.4753307573446611,0.46512667571200805,0.4413171519024843,0.4311130702698312,0.41750762809296044,0.40730354646030736,0.3970994648276543,0.3800926621065659,0.3698885804739128,0.35968449884125975,0.346079056664389,0.33587497503173597,0.3290722539433006,0.3154668117664298,0.30866409067799444,0.30186136958955906,0.28825592741268835,0.2780518457800353,0.2610450430589468,0.2474396008820761,0.23723551924942302,0.22363007707255228,0.2134259954398992,0.19982055326302847,0.1930178321745931,0.1862151110861577,0.17941238999772233,0.16920830836506928,0.1658069478208516,0.1590042267324162,0.15220150564398086,0.14880014509976316,0.14199742401132778,0.14199742401132778,0.14199742401132778,0.14199742401132778,0.14199742401132778,0.14539878455554547,0.15220150564398086,0.1658069478208516,0.17601102945350466,0.19641919271881078,0.20662327435146383,0.22363007707255228,0.23723551924942302,0.2474396008820761,0.2610450430589468,0.2678477641473822,0.2780518457800353,0.291657287956906,0.30186136958955906,0.31206545122221213,0.31206545122221213,0.3324736144875183,0.346079056664389,0.35288177775282437],"y":[-3.1547619047619047,-3.1547619047619047,-3.1547619047619047,-3.1547619047619047,-3.1547619047619047,-3.1547619047619047,-3.1547619047619047,-3.1547619047619047,-3.1547619047619047,-3.1547619047619047,-3.1547619047619047,-3.1547619047619047,-3.1547619047619047,-3.1547619047619047,-3.1547619047619047,-3.1547619047619047,-3.1547619047619047,-3.1547619047619047,-3.1547619047619047,-3.1547619047619047,-3.1547619047619047,-3.1547619047619047,-3.1547619047619047,-3.1547619047619047,-3.1547619047619047,-3.1547619047619047,-3.1547619047619047,-3.1547619047619047,-3.1547619047619047,-3.1547619047619047,-3.1547619047619047,-3.1547619047619047,-3.1547619047619047,-3.1547619047619047,-3.1547619047619047,-3.1547619047619047,-3.1547619047619047,-3.1547619047619047,-3.1547619047619047,-3.1547619047619047,-3.1547619047619047,-3.1547619047619047,-3.1547619047619047,-3.1547619047619047,0.5519126528785342,0.48524598621186754,0.35191265287853424,0.3042936052594866,0.2661983671642485,0.2185793195452009,0.19953170049758184,0.19000789097377233,0.17096027192615326,0.16143646240234374,0.1423888433547247,0.1328650338309152,0.11381741478329613,0.11381741478329613,0.11381741478329613,0.10429360525948661,0.10429360525948661,0.10429360525948661,0.10429360525948661,0.10429360525948661,0.10429360525948661,0.09476979573567708,0.09476979573567708,0.08524598621186756,0.08524598621186756,0.08524598621186756,0.06619836716424851,0.06619836716424851,0.05667455764043899,0.04715074811662946,0.03762693859281994,0.03762693859281994,0.028103129069010416,0.028103129069010416,0.028103129069010416,0.018579319545200892,0.009055510021391369,0.009055510021391369,0.009055510021391369,0.009055510021391369,0.009055510021391369,-0.00046829950241815475,-0.00046829950241815475,-0.00046829950241815475,-0.00046829950241815475,-0.00046829950241815475,-0.00046829950241815475,-0.00046829950241815475,-0.00046829950241815475,-0.00046829950241815475,-0.00046829950241815475,-0.00046829950241815475,-0.00046829950241815475,-0.00046829950241815475,-0.00046829950241815475,-0.00046829950241815475,-0.00046829950241815475,-0.00046829950241815475,-0.00046829950241815475,-0.00046829950241815475,-0.00046829950241815475,-0.00046829950241815475,-0.00046829950241815475,-0.00046829950241815475,-0.00046829950241815475,-0.00046829950241815475,-0.00046829950241815475,-0.00046829950241815475,-0.00046829950241815475,-0.00046829950241815475,-0.00046829950241815475,-0.00046829950241815475,-0.00046829950241815475,-0.00046829950241815475,-0.00046829950241815475,-0.00046829950241815475,-0.00046829950241815475,-0.00046829950241815475,-0.00046829950241815475,0.009055510021391369,0.009055510021391369,0.009055510021391369,0.009055510021391369,0.018579319545200892,0.028103129069010416,0.03762693859281994,0.06619836716424851,0.08524598621186756,0.11381741478329613,0.1423888433547247,0.19000789097377233,0.19953170049758184,0.2185793195452009,0.24715074811662946,0.2852459862118676,0.3042936052594866,0.35191265287853424,0.3709602719261533,0.3900078909737723,0.39953170049758185,0.4185793195452009,0.42810312906901044,0.42810312906901044,0.4376269385928199,0.44715074811662947,0.44715074811662947,0.44715074811662947,0.45667455764043896,0.45667455764043896,0.45667455764043896,0.45667455764043896,0.45667455764043896,0.44715074811662947,0.4185793195452009,0.3709602719261533,0.3328650338309152,0.3042936052594866,0.27572217668805804,0.24715074811662946,0.22810312906901042,0.2185793195452009,0.19000789097377233,0.17096027192615326,0.16143646240234374,0.1423888433547247,0.12334122430710566,0.11381741478329613,0.10429360525948661,0.09476979573567708,0.08524598621186756,0.08524598621186756,0.07572217668805803,0.06619836716424851,0.06619836716424851,0.06619836716424851,0.05667455764043899,0.05667455764043899,0.05667455764043899,0.05667455764043899,0.05667455764043899,0.05667455764043899,0.05667455764043899,0.05667455764043899,0.05667455764043899,0.05667455764043899,0.05667455764043899,0.05667455764043899,0.05667455764043899,0.05667455764043899,0.05667455764043899,0.05667455764043899,0.05667455764043899,0.05667455764043899,0.05667455764043899,0.05667455764043899,0.05667455764043899,0.05667455764043899,0.05667455764043899,0.05667455764043899,0.05667455764043899,0.05667455764043899,0.05667455764043899,0.05667455764043899,0.05667455764043899,0.05667455764043899,0.05667455764043899,0.05667455764043899,0.05667455764043899,0.05667455764043899,0.06619836716424851,0.06619836716424851,0.12334122430710566,0.2185793195452009,0.3042936052594866,0.3709602719261533,0.4185793195452009,0.5614364624023438,0.6281031290690104,0.6852459862118676,0.7519126528785343,0.7804840814499628,0.7995317004975818,0.8185793195452009,0.8281031290690104,0.8281031290690104,0.8376269385928199,0.8471507481166295,0.856674557640439,0.856674557640439,0.856674557640439,0.8661983671642485,0.8661983671642485,0.8757221766880581,0.8757221766880581,0.8757221766880581,0.8757221766880581,0.8757221766880581,0.8757221766880581,0.8757221766880581,0.8757221766880581,0.8757221766880581,0.8757221766880581,0.8757221766880581,0.8757221766880581,0.8757221766880581,0.8757221766880581,0.8757221766880581,0.8757221766880581,0.8757221766880581,0.8757221766880581,0.8757221766880581,0.8757221766880581,0.8757221766880581,0.8757221766880581,0.8757221766880581,0.8757221766880581,0.8757221766880581,0.8757221766880581,0.8757221766880581,0.8757221766880581,0.8757221766880581,0.8757221766880581,0.8757221766880581,0.8757221766880581,0.8757221766880581,0.8757221766880581,0.8757221766880581,0.8757221766880581,0.8757221766880581,0.8757221766880581,0.8757221766880581,0.8757221766880581,0.8757221766880581,0.8757221766880581,0.8757221766880581,0.8757221766880581,0.8757221766880581,0.8757221766880581,0.8757221766880581,0.8757221766880581,0.8757221766880581,0.8757221766880581,0.8757221766880581,0.8757221766880581,0.8757221766880581,0.8757221766880581,0.8757221766880581,0.8757221766880581,0.8757221766880581,0.8757221766880581,0.8757221766880581,0.8757221766880581,0.8757221766880581,0.8852459862118676,0.8757221766880581,0.8471507481166295,0.7804840814499628,0.7328650338309152,0.6947697957356771,0.6661983671642485,0.6471507481166294,0.6376269385928199,0.6185793195452008,0.6185793195452008,0.6185793195452008,0.6185793195452008,0.6185793195452008,0.6185793195452008,0.6185793195452008,0.6185793195452008,0.6185793195452008,0.6185793195452008,0.6185793195452008,0.6471507481166294,0.675722176688058,0.7042936052594866,0.7423888433547247,0.7614364624023438,0.7804840814499628,0.7900078909737723,0.7995317004975818,0.7995317004975818,0.8090555100213914,0.8185793195452009,0.8281031290690104,0.8281031290690104,0.8281031290690104,0.8281031290690104,0.8281031290690104,0.8185793195452009,0.8090555100213914,0.8090555100213914,0.8090555100213914,0.7995317004975818,0.7995317004975818,0.7995317004975818,0.7995317004975818,0.7995317004975818,0.7804840814499628,0.7804840814499628,0.7519126528785343,0.6947697957356771,0.6471507481166294,0.5804840814499628,0.5423888433547247,0.48524598621186754,0.39953170049758185,0.35191265287853424,0.3042936052594866,0.256674557640439,0.24715074811662946,0.24715074811662946,0.24715074811662946,0.24715074811662946,0.256674557640439,0.27572217668805804,0.27572217668805804,0.3042936052594866,0.32334122430710566,0.35191265287853424,0.48524598621186754,0.5900078909737724,0.7519126528785343,0.9138174147832961,0.9995317004975819,1.075722176688058,1.1423888433547247,1.1900078909737724,1.1900078909737724,1.2090555100213913,1.2090555100213913,1.2090555100213913,1.1900078909737724,1.1804840814499629,1.1614364624023437,1.1423888433547247,1.1328650338309152,1.1233412243071057,1.1233412243071057,1.1042936052594865,1.094769795735677,1.094769795735677,1.0852459862118675,1.0852459862118675,1.075722176688058,1.0661983671642485,1.0661983671642485,1.0661983671642485,1.056674557640439,1.056674557640439,1.0471507481166296,1.0471507481166296,1.0376269385928198,1.0376269385928198,1.0376269385928198,1.0376269385928198,1.0376269385928198,1.0376269385928198,1.0376269385928198,1.0376269385928198,1.0376269385928198,1.0376269385928198,1.0376269385928198,1.0376269385928198,1.0376269385928198,1.0376269385928198,1.0376269385928198,1.0376269385928198,1.0376269385928198,1.0376269385928198,1.0376269385928198,1.0376269385928198,1.0376269385928198,1.0376269385928198,1.0376269385928198,1.0376269385928198,1.0376269385928198,1.0376269385928198,1.0376269385928198,1.0376269385928198,1.0376269385928198,1.0376269385928198,1.0376269385928198,1.0376269385928198,1.0376269385928198,1.0376269385928198,1.0376269385928198,1.0376269385928198,1.0376269385928198,1.0376269385928198,1.0376269385928198,1.0376269385928198,1.0376269385928198,1.0376269385928198,1.0376269385928198,1.0376269385928198,1.0376269385928198,1.0376269385928198,1.0376269385928198,1.0376269385928198,1.0376269385928198,1.0376269385928198,1.0376269385928198,1.0376269385928198,1.0376269385928198,1.0376269385928198,1.0376269385928198,1.0376269385928198,1.0376269385928198,1.0376269385928198,1.0376269385928198,1.0376269385928198,1.0376269385928198,1.0376269385928198,1.0376269385928198,1.0376269385928198,1.0376269385928198,1.0376269385928198,1.0376269385928198,1.0376269385928198,1.0376269385928198,1.0376269385928198,1.0376269385928198,1.0376269385928198,1.0376269385928198,1.0376269385928198,1.0376269385928198,1.0376269385928198,1.0376269385928198,1.0376269385928198,1.0376269385928198,1.0376269385928198,1.0376269385928198,1.0376269385928198,1.0376269385928198,1.0376269385928198,1.0376269385928198,1.0376269385928198,1.0376269385928198,1.0376269385928198,1.0376269385928198,1.0376269385928198,1.0376269385928198,1.0376269385928198,1.0376269385928198,1.0376269385928198,1.0376269385928198,1.0185793195452009,1.0185793195452009,1.0185793195452009,1.0090555100213914,1.0090555100213914,0.9995317004975819,0.9900078909737723,0.9900078909737723,0.9709602719261533,0.9614364624023437,0.9519126528785342,0.9233412243071056,0.894769795735677,0.8852459862118676,0.8852459862118676,0.8757221766880581,0.8757221766880581,0.8757221766880581,0.8757221766880581,0.8376269385928199,0.7995317004975818,0.7614364624023438,0.7138174147832961,0.6947697957356771,0.6661983671642485,0.6471507481166294,0.6471507481166294,0.6471507481166294,0.6471507481166294,0.6471507481166294,0.6471507481166294,0.6471507481166294,0.6471507481166294,0.6471507481166294,0.6471507481166294,0.6376269385928199,0.6281031290690104,0.6185793195452008,0.6185793195452008,0.6185793195452008,0.6185793195452008,0.6185793195452008,0.6185793195452008,0.6185793195452008,0.6185793195452008,0.6090555100213914,0.6090555100213914,0.5995317004975819,0.5995317004975819,0.5995317004975819,0.5995317004975819,0.5995317004975819,0.5995317004975819,0.5995317004975819,0.5995317004975819,0.5995317004975819,0.5995317004975819,0.5995317004975819,0.5995317004975819,0.5995317004975819,0.5995317004975819,0.5995317004975819,0.5995317004975819,0.5995317004975819,0.5995317004975819,0.5995317004975819,0.5995317004975819,0.5995317004975819,0.5995317004975819,0.5995317004975819,0.5995317004975819,0.5900078909737724,0.5233412243071056,0.48524598621186754,0.45667455764043896,0.45667455764043896,0.45667455764043896,0.45667455764043896,0.45667455764043896,0.45667455764043896,0.45667455764043896,0.45667455764043896,0.45667455764043896,0.45667455764043896,0.45667455764043896,0.45667455764043896,0.45667455764043896,0.4661983671642485,0.4661983671642485,0.47572217668805805,0.47572217668805805,0.48524598621186754,0.48524598621186754,0.48524598621186754,0.48524598621186754,0.48524598621186754,0.48524598621186754,0.48524598621186754,0.48524598621186754,0.48524598621186754,0.48524598621186754,0.48524598621186754,0.48524598621186754,0.48524598621186754,0.48524598621186754,0.48524598621186754,0.48524598621186754,0.48524598621186754,0.48524598621186754,0.48524598621186754,0.48524598621186754,0.48524598621186754,0.48524598621186754,0.48524598621186754,0.48524598621186754,0.48524598621186754,0.48524598621186754,0.48524598621186754,0.48524598621186754,0.48524598621186754,0.48524598621186754,0.48524598621186754,0.48524598621186754,0.48524598621186754,0.48524598621186754,0.48524598621186754,0.48524598621186754,0.48524598621186754,0.48524598621186754,0.48524598621186754,0.48524598621186754,0.48524598621186754,0.48524598621186754,0.48524598621186754,0.48524598621186754,0.48524598621186754,0.48524598621186754,0.48524598621186754,0.48524598621186754,0.48524598621186754,0.48524598621186754,0.48524598621186754,0.48524598621186754,0.48524598621186754,0.48524598621186754,0.48524598621186754,0.48524598621186754,0.48524598621186754,0.48524598621186754,0.48524598621186754,0.48524598621186754,0.48524598621186754,0.48524598621186754,0.48524598621186754,0.48524598621186754,0.48524598621186754,0.48524598621186754,0.48524598621186754,0.4947697957356771,0.4947697957356771,0.5042936052594866,0.5042936052594866,0.5138174147832961,0.5138174147832961,0.5328650338309152,0.5423888433547247,0.5519126528785342,0.5519126528785342,0.5519126528785342,0.5614364624023438,0.5614364624023438,0.5614364624023438,0.5804840814499628,0.5804840814499628,0.5995317004975819,0.5995317004975819,0.5995317004975819,0.5995317004975819,0.5995317004975819,0.5804840814499628,0.5233412243071056,0.4376269385928199,0.3804840814499628,0.35191265287853424,0.3423888433547247,0.32334122430710566,0.3042936052594866,0.2947697957356771,0.27572217668805804,0.27572217668805804,0.27572217668805804,0.2661983671642485,0.256674557640439,0.24715074811662946,0.24715074811662946,0.23762693859281994,0.2185793195452009,0.2185793195452009,0.2185793195452009,0.20905551002139136,0.19000789097377233,0.1804840814499628,0.17096027192615326,0.1423888433547247,0.1328650338309152,0.11381741478329613,0.09476979573567708,0.08524598621186756,0.08524598621186756,0.08524598621186756,0.08524598621186756,0.08524598621186756,0.08524598621186756,0.08524598621186756,0.08524598621186756,0.08524598621186756,0.08524598621186756,0.08524598621186756,0.08524598621186756,0.08524598621186756,0.08524598621186756,0.08524598621186756,0.08524598621186756,0.08524598621186756,0.08524598621186756,0.08524598621186756,0.08524598621186756,0.08524598621186756,0.08524598621186756,0.08524598621186756,0.08524598621186756,0.08524598621186756,0.08524598621186756,0.08524598621186756,0.08524598621186756,0.08524598621186756,0.08524598621186756,0.08524598621186756,0.08524598621186756,0.08524598621186756,0.08524598621186756,0.08524598621186756,0.08524598621186756,0.08524598621186756,0.08524598621186756,0.08524598621186756,0.08524598621186756,0.08524598621186756,0.08524598621186756,0.08524598621186756,0.08524598621186756,0.08524598621186756,0.08524598621186756,0.08524598621186756,0.08524598621186756,0.08524598621186756,0.08524598621186756,0.10429360525948661,0.11381741478329613,0.12334122430710566,0.1423888433547247,0.16143646240234374,0.17096027192615326,0.19953170049758184,0.22810312906901042,0.24715074811662946,0.2852459862118676,0.32334122430710566,0.39953170049758185,0.42810312906901044,0.4661983671642485,0.48524598621186754,0.48524598621186754,0.48524598621186754,0.47572217668805805,0.47572217668805805,0.47572217668805805,0.47572217668805805,0.47572217668805805,0.47572217668805805,0.47572217668805805,0.47572217668805805,0.47572217668805805,0.47572217668805805,0.47572217668805805,0.47572217668805805,0.47572217668805805,0.47572217668805805,0.47572217668805805,0.47572217668805805,0.47572217668805805,0.48524598621186754,0.48524598621186754,0.48524598621186754,0.48524598621186754,0.48524598621186754,0.48524598621186754,0.48524598621186754,0.48524598621186754,0.48524598621186754,0.48524598621186754,0.48524598621186754,0.48524598621186754,0.48524598621186754,0.48524598621186754,0.48524598621186754,0.48524598621186754,0.48524598621186754,0.48524598621186754,0.48524598621186754,0.48524598621186754,0.48524598621186754,0.48524598621186754,0.48524598621186754,0.48524598621186754,0.48524598621186754,0.48524598621186754,0.48524598621186754,0.48524598621186754,0.48524598621186754,0.48524598621186754,0.48524598621186754,0.48524598621186754,0.48524598621186754,0.48524598621186754,0.48524598621186754,0.48524598621186754,0.48524598621186754,0.48524598621186754,0.48524598621186754,0.48524598621186754,0.48524598621186754,0.48524598621186754,0.48524598621186754,0.48524598621186754,0.48524598621186754,0.48524598621186754,0.48524598621186754,0.48524598621186754,0.48524598621186754,0.48524598621186754,0.48524598621186754,0.48524598621186754,0.48524598621186754,0.48524598621186754,0.48524598621186754,0.48524598621186754,0.48524598621186754,0.48524598621186754,0.48524598621186754,0.48524598621186754,0.48524598621186754,0.48524598621186754,0.48524598621186754,0.48524598621186754,0.48524598621186754,0.48524598621186754,0.4947697957356771,0.5042936052594866,0.5138174147832961,0.5138174147832961,0.5138174147832961,0.5233412243071056,0.5328650338309152,0.5423888433547247,0.5519126528785342,0.5614364624023438,0.5614364624023438,0.5709602719261533,0.5804840814499628,0.5900078909737724,0.5900078909737724,0.5995317004975819,0.6090555100213914,0.6185793195452008,0.6185793195452008,0.6281031290690104,0.6281031290690104,0.6471507481166294,0.6471507481166294,0.6471507481166294,0.6471507481166294,0.6471507481166294,0.6471507481166294,0.6471507481166294,0.6471507481166294,0.6471507481166294,0.6471507481166294,0.6471507481166294,0.6471507481166294,0.6471507481166294,0.6471507481166294,0.6471507481166294,0.6471507481166294,0.6471507481166294,0.6471507481166294,0.6471507481166294,0.6471507481166294,0.6471507481166294,0.6471507481166294,0.6471507481166294,0.6471507481166294,0.6471507481166294,0.6471507481166294,0.6471507481166294,0.6471507481166294,0.6471507481166294,0.6471507481166294,0.6471507481166294,0.6471507481166294,0.6471507481166294,0.6471507481166294,0.6471507481166294,0.6471507481166294,0.6471507481166294,0.6471507481166294,0.6471507481166294,0.6471507481166294,0.6471507481166294,0.6471507481166294,0.6471507481166294,0.6471507481166294,0.6471507481166294,0.6471507481166294,0.6471507481166294,0.6471507481166294,0.6471507481166294,0.6471507481166294,0.6471507481166294,0.6471507481166294,0.6471507481166294,0.6471507481166294,0.6471507481166294,0.6471507481166294,0.6471507481166294,0.6471507481166294,0.6471507481166294,0.6471507481166294,0.6471507481166294,0.6471507481166294,0.6471507481166294,0.6471507481166294,0.6471507481166294,0.6471507481166294,0.6471507481166294,0.6471507481166294,0.6471507481166294,0.6471507481166294,0.6471507481166294,0.6471507481166294,0.6471507481166294,0.6471507481166294,0.6471507481166294,0.6471507481166294,0.6471507481166294,0.6471507481166294,0.6471507481166294,0.6471507481166294,0.6471507481166294,0.6471507481166294,0.6471507481166294,0.6471507481166294,0.6471507481166294,0.6471507481166294,0.6471507481166294,0.6471507481166294,0.6471507481166294,0.6471507481166294,0.6471507481166294,0.6471507481166294,0.6471507481166294,0.6471507481166294,0.6471507481166294,0.6471507481166294,0.6471507481166294,0.6471507481166294,0.6471507481166294,0.6471507481166294,0.6471507481166294,0.6471507481166294,0.6471507481166294,0.6471507481166294,0.6471507481166294,0.6471507481166294,0.6471507481166294,0.6471507481166294,0.6471507481166294,0.6471507481166294,0.6471507481166294,0.6471507481166294,0.6471507481166294,0.6471507481166294,0.6471507481166294,0.6471507481166294,0.6471507481166294,0.6471507481166294,0.6471507481166294,0.6471507481166294,0.6471507481166294,0.6471507481166294,0.6471507481166294,0.6471507481166294,0.6471507481166294,0.6471507481166294,0.6471507481166294,0.6471507481166294,0.6471507481166294,0.6471507481166294,0.6471507481166294,0.6471507481166294,0.6471507481166294,0.6471507481166294,0.6471507481166294,0.6471507481166294,0.6471507481166294,0.6471507481166294,0.6471507481166294,0.6471507481166294,0.6471507481166294,0.6471507481166294,0.6471507481166294,0.6471507481166294,0.6471507481166294,0.6471507481166294,0.6471507481166294,0.6471507481166294,0.6471507481166294,0.6471507481166294,0.6471507481166294,0.6471507481166294,0.6471507481166294,0.6471507481166294,0.6471507481166294,0.6471507481166294,0.6471507481166294,0.6471507481166294,0.6471507481166294,0.6471507481166294,0.6471507481166294,0.6471507481166294,0.6471507481166294,0.6471507481166294,0.6471507481166294,0.6471507481166294,0.6471507481166294,0.6471507481166294,0.6471507481166294,0.6471507481166294,0.6471507481166294,0.6471507481166294,0.6471507481166294,0.6471507481166294,0.6185793195452008,0.5900078909737724,0.5709602719261533,0.5519126528785342,0.5138174147832961,0.47572217668805805,0.4185793195452009,0.39953170049758185,0.3804840814499628,0.3804840814499628,0.3804840814499628,0.3804840814499628,0.3709602719261533,0.36143646240234373,0.36143646240234373,0.36143646240234373,0.35191265287853424,0.35191265287853424,0.32334122430710566,0.3042936052594866,0.24715074811662946,0.2185793195452009,0.17096027192615326,0.1423888433547247,0.10429360525948661,0.07572217668805803,0.06619836716424851,0.04715074811662946,0.04715074811662946,0.03762693859281994,0.03762693859281994,0.03762693859281994,0.03762693859281994,0.018579319545200892,0.009055510021391369,-0.00046829950241815475,-0.009992109026227679,-0.009992109026227679,-0.009992109026227679,-0.00046829950241815475,-0.00046829950241815475,0.009055510021391369,0.018579319545200892,0.028103129069010416,0.028103129069010416,0.03762693859281994,0.03762693859281994,0.03762693859281994,0.04715074811662946,0.04715074811662946,0.04715074811662946,0.05667455764043899,0.05667455764043899,0.05667455764043899,0.05667455764043899,0.05667455764043899,0.05667455764043899,0.05667455764043899,0.05667455764043899,0.05667455764043899,0.05667455764043899,0.05667455764043899,0.05667455764043899,0.05667455764043899,0.05667455764043899,0.05667455764043899,0.05667455764043899,0.05667455764043899,0.05667455764043899,0.05667455764043899,0.05667455764043899,0.05667455764043899,0.05667455764043899,0.05667455764043899,0.05667455764043899,0.05667455764043899,0.05667455764043899,0.06619836716424851,0.1423888433547247,0.24715074811662946,0.39953170049758185,0.48524598621186754,0.5804840814499628,0.675722176688058,0.7233412243071057,0.7614364624023438,0.7995317004975818,0.8281031290690104,0.8471507481166295,0.8757221766880581,0.8852459862118676,0.894769795735677,0.9042936052594867,0.9138174147832961,0.9328650338309151,0.9328650338309151,0.9423888433547247,0.9519126528785342,0.9614364624023437,0.9614364624023437,0.9614364624023437,0.9709602719261533,0.9709602719261533,0.9709602719261533,0.9709602719261533,0.9709602719261533,0.9709602719261533,0.9709602719261533,0.9709602719261533,0.9709602719261533,0.9709602719261533,0.9709602719261533,0.9709602719261533,0.9709602719261533,0.9709602719261533,0.9709602719261533,0.9709602719261533,0.9709602719261533,0.9709602719261533,0.9709602719261533,0.9709602719261533,0.9709602719261533,0.9709602719261533,0.9709602719261533,0.9709602719261533,0.9709602719261533,0.9709602719261533,0.9709602719261533,0.9709602719261533,0.9709602719261533,0.9709602719261533,0.9709602719261533,0.9709602719261533,0.9709602719261533,0.9709602719261533,0.9709602719261533,0.9709602719261533,0.9709602719261533,0.9709602719261533,0.9709602719261533,0.9709602719261533,0.9709602719261533,0.9709602719261533,0.9709602719261533,0.9709602719261533,0.9709602719261533,0.9709602719261533,0.9709602719261533,0.9709602719261533,0.9709602719261533,0.9709602719261533,0.9709602719261533,0.9709602719261533,0.9614364624023437,0.9614364624023437,0.9519126528785342,0.9423888433547247,0.9423888433547247,0.9328650338309151,0.9233412243071056,0.9042936052594867,0.9042936052594867,0.894769795735677,0.8852459862118676,0.8852459862118676,0.8661983671642485,0.856674557640439,0.8376269385928199,0.8281031290690104,0.8185793195452009,0.8090555100213914,0.7995317004975818,0.7995317004975818,0.7900078909737723,0.7804840814499628,0.7804840814499628,0.7804840814499628,0.7804840814499628,0.7804840814499628,0.7804840814499628,0.7804840814499628,0.7804840814499628,0.7804840814499628,0.7804840814499628,0.7804840814499628,0.7995317004975818,0.7995317004975818,0.8090555100213914,0.8281031290690104,0.8471507481166295,0.856674557640439,0.8852459862118676,0.894769795735677,0.9138174147832961,0.9423888433547247,0.9709602719261533,1.0090555100213914,1.0376269385928198,1.0661983671642485,1.1042936052594865,1.1328650338309152,1.1709602719261534,1.1995317004975818,1.2281031290690103,1.256674557640439,1.2852459862118675,1.3042936052594867,1.3328650338309151,1.3614364624023438,1.3804840814499628,1.4090555100213913,1.4281031290690105,1.43762693859282,1.4661983671642485,1.4852459862118677,1.4947697957356771,1.5233412243071056,1.5423888433547246,1.5614364624023438,1.5804840814499628,1.5900078909737723,1.6090555100213915,1.6090555100213915,1.618579319545201,1.618579319545201,1.618579319545201,1.618579319545201,1.618579319545201,1.618579319545201,1.618579319545201,1.618579319545201,1.618579319545201,1.618579319545201,1.618579319545201]},"final_keyboard_state":["D","A","S","R","B","O","E","Z"],"num_clicks":8,"points":12,"cheat":false,"trial_type":"Hangman","trial_index":5,"time_elapsed":51027,"internal_node_id":"0.0-4.0","protocol_sum":"","subject_identifier":303,"subject_sum":[142,97,43,209,245,209,50,163,57,87,91,141,175,183,132,44,100,97,78,86,188,243,213,171,101,160,188,75,52,50,148,7],"subject_pair":151,"STUDY_ID":"66a0b3911f23dfc7665bb169","PROLIFIC_PID":"663f61d2cf3a8a2d551183d7","SESSION_ID":"66a103502b2ec54e3f9249dc","practice_instructions":1,"leaderboard_instructions":0,"bonus":0,"reveal_word":true,"self_rating":"2","confidence":"76"},{"view_history":"[{\"page_index\":0,\"viewing_time\":2549.4000000953674},{\"page_index\":1,\"viewing_time\":24497}]","rt":27047.099999904633,"trial_type":"instructions","trial_index":6,"time_elapsed":78075,"internal_node_id":"0.0-5.0","protocol_sum":"","subject_identifier":303,"subject_sum":[142,97,43,209,245,209,50,163,57,87,91,141,175,183,132,44,100,97,78,86,188,243,213,171,101,160,188,75,52,50,148,7],"subject_pair":151,"STUDY_ID":"66a0b3911f23dfc7665bb169","PROLIFIC_PID":"663f61d2cf3a8a2d551183d7","SESSION_ID":"66a103502b2ec54e3f9249dc","practice_instructions":1,"leaderboard_instructions":0,"bonus":0,"reveal_word":true,"self_rating":"2","confidence":"76"},{"rt":10048,"responses":"{\"Q0\":\"...from <b>a previous session</b> that is part of the upcoming tournament.\"}","question_order":"[0]","trial_type":"survey-multi-choice","trial_index":7,"time_elapsed":88124,"internal_node_id":"0.0-6.0","protocol_sum":"","subject_identifier":303,"subject_sum":[142,97,43,209,245,209,50,163,57,87,91,141,175,183,132,44,100,97,78,86,188,243,213,171,101,160,188,75,52,50,148,7],"subject_pair":151,"correct":false,"test_part":"multichoice_leaderboard","STUDY_ID":"66a0b3911f23dfc7665bb169","PROLIFIC_PID":"663f61d2cf3a8a2d551183d7","SESSION_ID":"66a103502b2ec54e3f9249dc","practice_instructions":1,"leaderboard_instructions":0,"bonus":0,"reveal_word":true,"self_rating":"2","confidence":"76"},{"view_history":"[{\"page_index\":0,\"viewing_time\":1959}]","rt":1959.2000000476837,"trial_type":"instructions","trial_index":8,"time_elapsed":90084,"internal_node_id":"0.0-7.0-0.0","protocol_sum":"","subject_identifier":303,"subject_sum":[142,97,43,209,245,209,50,163,57,87,91,141,175,183,132,44,100,97,78,86,188,243,213,171,101,160,188,75,52,50,148,7],"subject_pair":151,"STUDY_ID":"66a0b3911f23dfc7665bb169","PROLIFIC_PID":"663f61d2cf3a8a2d551183d7","SESSION_ID":"66a103502b2ec54e3f9249dc","practice_instructions":1,"leaderboard_instructions":0,"bonus":0,"reveal_word":true,"self_rating":"2","confidence":"76"},{"rt":5547.299999952316,"responses":"{\"Q0\":\"...from <b>a previous session</b> that is not part of the upcoming tournament.\"}","question_order":"[0]","trial_type":"survey-multi-choice","trial_index":9,"time_elapsed":95632,"internal_node_id":"0.0-7.0-1.0","protocol_sum":"","subject_identifier":303,"subject_sum":[142,97,43,209,245,209,50,163,57,87,91,141,175,183,132,44,100,97,78,86,188,243,213,171,101,160,188,75,52,50,148,7],"subject_pair":151,"correct":true,"test_part":"multichoice_leaderboard","STUDY_ID":"66a0b3911f23dfc7665bb169","PROLIFIC_PID":"663f61d2cf3a8a2d551183d7","SESSION_ID":"66a103502b2ec54e3f9249dc","practice_instructions":1,"leaderboard_instructions":0,"bonus":0,"reveal_word":true,"self_rating":"2","confidence":"76"},{"view_history":"[{\"page_index\":0,\"viewing_time\":19972.299999952316}]","rt":19972.5,"trial_type":"instructions","trial_index":10,"time_elapsed":115606,"internal_node_id":"0.0-8.0","protocol_sum":"","subject_identifier":303,"subject_sum":[142,97,43,209,245,209,50,163,57,87,91,141,175,183,132,44,100,97,78,86,188,243,213,171,101,160,188,75,52,50,148,7],"subject_pair":151,"STUDY_ID":"66a0b3911f23dfc7665bb169","PROLIFIC_PID":"663f61d2cf3a8a2d551183d7","SESSION_ID":"66a103502b2ec54e3f9249dc","practice_instructions":1,"leaderboard_instructions":0,"bonus":0,"reveal_word":true,"self_rating":"2","confidence":"76"},{"rt":6108.5,"responses":"{\"Q0\":\"...players' leaderboard position (in terms of <b>points</b>) in an <b>upcoming tournament.</b>\"}","question_order":"[0]","trial_type":"survey-multi-choice","trial_index":11,"time_elapsed":121715,"internal_node_id":"0.0-9.0","protocol_sum":"","subject_identifier":303,"subject_sum":[142,97,43,209,245,209,50,163,57,87,91,141,175,183,132,44,100,97,78,86,188,243,213,171,101,160,188,75,52,50,148,7],"subject_pair":151,"correct":true,"test_part":"multichoice_tournament","STUDY_ID":"66a0b3911f23dfc7665bb169","PROLIFIC_PID":"663f61d2cf3a8a2d551183d7","SESSION_ID":"66a103502b2ec54e3f9249dc","practice_instructions":1,"leaderboard_instructions":0,"bonus":0,"reveal_word":true,"self_rating":"2","confidence":"76"},{"view_history":"[{\"page_index\":0,\"viewing_time\":6896.699999809265}]","rt":6897,"trial_type":"instructions","trial_index":12,"time_elapsed":128613,"internal_node_id":"0.0-11.0","protocol_sum":"","subject_identifier":303,"subject_sum":[142,97,43,209,245,209,50,163,57,87,91,141,175,183,132,44,100,97,78,86,188,243,213,171,101,160,188,75,52,50,148,7],"subject_pair":151,"STUDY_ID":"66a0b3911f23dfc7665bb169","PROLIFIC_PID":"663f61d2cf3a8a2d551183d7","SESSION_ID":"66a103502b2ec54e3f9249dc","practice_instructions":1,"leaderboard_instructions":0,"bonus":0,"reveal_word":true,"self_rating":"2","confidence":"76"},{"view_history":"[{\"page_index\":0,\"viewing_time\":20359.099999904633}]","rt":20359.299999952316,"trial_type":"instructions","trial_index":13,"time_elapsed":148972,"internal_node_id":"0.0-12.0-0.0","protocol_sum":"","subject_identifier":303,"subject_sum":[142,97,43,209,245,209,50,163,57,87,91,141,175,183,132,44,100,97,78,86,188,243,213,171,101,160,188,75,52,50,148,7],"subject_pair":151,"STUDY_ID":"66a0b3911f23dfc7665bb169","PROLIFIC_PID":"663f61d2cf3a8a2d551183d7","SESSION_ID":"66a103502b2ec54e3f9249dc","practice_instructions":1,"leaderboard_instructions":0,"bonus":0,"reveal_word":true,"self_rating":"2","confidence":"76"},{"rt":6668.700000047684,"response":"NECTARINE","responses":["NECTARINE"],"trial_type":"type-this","trial_index":14,"time_elapsed":156144,"internal_node_id":"0.0-12.0-1.0","protocol_sum":"","subject_identifier":303,"subject_sum":[142,97,43,209,245,209,50,163,57,87,91,141,175,183,132,44,100,97,78,86,188,243,213,171,101,160,188,75,52,50,148,7],"subject_pair":151,"STUDY_ID":"66a0b3911f23dfc7665bb169","PROLIFIC_PID":"663f61d2cf3a8a2d551183d7","SESSION_ID":"66a103502b2ec54e3f9249dc","practice_instructions":1,"leaderboard_instructions":0,"bonus":0,"reveal_word":true,"self_rating":"2","confidence":"76"},{"word":"NECTARINE","click_log":{"letter":["","O","A","I","M","N","R","E","C","T"],"t":[0,4380.5,6413.599999904633,8780.299999952316,10763.599999904633,12063.5,15863.599999904633,20930.599999904633,22713.699999809265,24430.39999985695],"hit":[null,0,1,1,0,2,1,2,1,1],"asked":["","O","OA","OAI","OAIM","OAIMN","OAIMNR","OAIMNRE","OAIMNREC","OAIMNRECT"],"word_state":["_________","_________","____A____","____A_I__","____A_I__","N___A_IN_","N___ARIN_","NE__ARINE","NEC_ARINE","NECTARINE"]},"hover_log":{"letter":["?","?","?","?","?","?","?","?","?","?","?","?","?","?","?","?","?","?","?","?","?","?","?","?","?","?","?","?","?","?","?","?","?","?","?","?","?","?","?","?","?","?","?","?","?","?","?","?","?","?","?","?","?","?","?","?","?","?","?","?","?","?","?","?","?","?","?","?","?","?","?","?","?","?","?","?","?","?","?","?","?","?","?","?","?","?","?","?","?","?","?","?","?","?","?","?","?","?","?","?","?","?","?","?","?","?","?","?","?","?","?","?","?","?","?","?","?","?","?","?","?","?","?","?","?","?","?","?","?","?","?","?","?","?","?","?","?","?","?","?","?","?","?","?","?","?","?","?","?","?","?","?","?","?","?","?","?","?","?","?","?","?","?","?","?","?","?","?","?","?","?","?","?","?","?","?","?","?","?","?","?","?","?","?","?","?","?","?","?","?","?","?","?","?","?","?","?","?","?","?","?","?","?","?","?","?","?","?","?","?","?","?","?","?","?","?","?","?","?","?","?","?","?","?","?","?","?","?","?","?","?","?","?","?","?","?","?","?","?","?","?","?","?","?","?","?","?","?","?","?","?","?","?","?","?","?","?","?","?","?","?","?","?","?","?","?","?","?","?","?","?","?","?","?","?","?","?","?","?","?","?","?","?","?","?","?","?","?","?","?","?","?","?","?","?","?","?","?","?","?","?","?","?","?","?","?","?","?","?","?","?","?","?","?","?","?","?","?","?","?","?","?","?","?","?","?","?","?","?","?","?","?","?","?","?","?","?","?","?","?","?","?","?","?","?","?","?","?","?","?","?","?","?","?","?","?","?","?","?","?","?","?","?","?","?","?","?","?","?","?","?","?","?","?","?","?","?","?","?","?","?","?","?","?","?","?","?","?","?","?","?","?","?","?","?","?","?","?","?","?","?","?","?","?","?","?","?","?","?","?","?","?","?","?","?","?","?","?","?","?","?","?","?","?","?","?","?","?","?","?","?","?","?","?","?","?","?","?","?","?","?","?","?","?","?","?","?","?","?","?","?","?","?","?","?","?","?","?","?","?","?","?","?","?","?","?","?","?","?","?","?","?","?","?","?","?","?","?","?","?","?","?","?","?","?","?","?","?","?","?","?","?","?","?","?","?","?","?","?","?","?","?","?","?","?","?","?","?","?","?","?","?","?","?","?","?","?","?","?","?","?","?","?","?","?","?","?","?","?","?","?","?","?","?","?","?","?","?","?","?","?","?","?","?","?","?","?","?","?","?","?","?","?","?","?","?","?","?","?","?","?","?","?","?","?","?","?","?","?","?","?","?","?","?","?","?","?","?","?","?","?","?","?","?","?","?","?","?","?","?","?","?","?","?","?","?","?","?","?","?","?","?","?","?","?","?","?","?","?","?","?","?","?","?","?","?","?","?","?","?","?","?","?","?","?","?","?","?","?","?","?","?","?","?","?","?","?","?","?","?","?","?","?","?","?","?","?","?","?","?","?","?","?","?","?","?","?","?","?","?","?","?","?","?","?","?","?","?","?","?","?","?","?","?","?","?","?","?","?","?","?","?","?","?","?","?","?","?","?","?","?","?","?","?","?","?","?","?","?","?","?","?","?","?","?","?","?","?","?","?","?","?","?","?","?","?","?","?","?","?","?","?","?","?","?","?","?","?","?","?","?","?","?","?","?","?","?","?","?","?","?","?","?","?","?","?","?","?","?","?","?","?","?","?","?","?","?","?","?","?","?","?","?","?","?","?","?","?","?","?","?","?","?","?","?","?","?","?","?","?","?","?","?","?","?","?","?","?","?","?","?","?","?","?","?","?","?","?","?","?","?","?","?","?","?","?","?","?","?","?","?","?","?","?","?","?","?","?","?","?","?","?","?","?","?","?","?","?","?","?","?","?","?","?","?","?","?","?","?","?","?","?","?","?","?","?","?","?","?","?","?","?","?","?","?","?","?","?","?","?","?","?","?","?","?","?","?","?","?","?","?","?","?","?","?","?","?","?","?","?","?","?","?","?","?","?","?","?","?","?","?","?","?","?","?","?","?","?","?","?","?","?","?","?","?","?","?","?","?","?","?","?","?","?","?","?","?","?","?","?","?","?","?","?","?","?","?","?","?","?","?","?","?","?","?","?","?","?","?","?","?","?","?","?","?","?","?","?","?","?","?","?","?","?","?","?","?","?","?","?","?","?","?","?","?","?","?","?","?","?","?","?","?","?","?","?","?","?","?","?","?","?","?","?","?","?","?","?","?","?","?","?","?","?","?","?","?","?","?","?","?","?","?","?","?","?","?","?","?","?","?","?","?","?","?","?","?","?","?","?","?","?","?","?","?","?","?","?","?","?","?","?","?","?","?","?","?","?","?","?","?","?","?","?","?","?","?","?","?","?","?","?","?","?","?","?","?","?","?","?","?","?","?","?","?","?","?","?","?","?","?","?","?","?","?","?","?","?","?","?","?","?","?","?","?","?","?","?","?","?","?","?","?","?","?","?","?","?","?","?","?","?","?","?","?","?","?","?","?","?","?","?","?","?","?","?","?","?","?","?","?","?","?","?","?","?","?","?","?","?","?","?","?","?","?","?","?","?","?","?","?","?","?","?","?","?","?","?","?","?","?","?","?","?","?","?","?","?","?","?","?","?","?","?","?","?","?","?","?","?","?","?","?","?","?","?","?","?","?","?","?","?","?","?","?","?","?","?","?","?","?","?","?","?","?","?","?","?","?","?","?","?","?","?","?","?","?","?","?","?","?","?","?","?","?","?","?","?","?","?","?","?","?","?","?","?","?","?","?","?","?","?","?","?","?","?","?","?","?","?","?","?","?","?","?","?","?","?","?","?","?","?","?","?","?","?","?","?","?","?","?","?","?","?","?","?","?","?","?","?","?","?","?","?","?","?","?","?","?","?","?","?","?","?","?","?","?","?","?","?","?","?","?","?","?","?","?","?","?","?","?","?","?","?","?","?","?","?","?","?","?","?","?","?","?","?","?","?","?","?","?","?","?","?","?","?","?","?","?","?","?","?","?","?","?","?","?","?","?","?","?","?","?","?","?","?","?","?","?","?","?","?","?","?","?","?","?","?","?","?","?","?","?","?","?","?","?","?","?","?","?","?","?","?","?","?","?","?","?","?","?","?","?","?","?","?","?","?","?","?","?","?","?","?","?","?","?","?","?","?","?","?","?","?","?","?","?","?","?","?","?","?","?","?","?","?","?","?","?","?","?","?","?","?","?","?","?","?","?","?","?","?","?","?","?","?","?","?","?","?","?","?","?","?","?","?","?","?","?","?","?","?","?","?","?","?","?","?","?","?","?","?","?","?","?","?","?","?","?","?","?","?","?","?","?","?","?","?","?","?","?","?","?","?","?","?","?","?","?","?","?","?","?","?","?","?","?","?","?","?","?","?","?","?","?","?","?","?","?","?","?","?","?","?","?","?","?","?","?","?","?","?","?","?","?","?","?","?","?","?","?","?","?","?","?","?","?","?","?","?","?","?","?","?","?","?","?","?","?","?","?","?","?","?","?","?","?","?","?","?","?","?","?","?","?","?","?","?","?","?","?","?","?","?","?","?","?","?","?","?","?","?","?","?","?","?","?","?","?","?","?","?","?","?","?","?","?","?","?","?","?","?","?","?","?","?","?","?","?","?","?","?","?","?","?","?","?","?","?","?","?","?","?","?","?","?","?","?","?","?","?","?","?","?","?","?","?","?","?","?","?","?","?","?","?","?","?","?","?","?","?","?","?","?","?","?","?","?","?","?","?","?","?","?","?","?","?","?","?","?","?","?","?","?","?","?","?","?","?","?","?","?","?","?","?","?","?","?","?","?","?","?","?","?","?","?","?","?","?","?","?","?","?","?","?","?","?","?","?","?","?","?","?","?","?","?","?","?","?","?","?","?","?","?","?","?","?","?","?","?","?","?","?","?","?","?","?","?","?","?","?","?","?","?","?","?","?","?","?","?","?","?","?","?","?","?","?","?","?","?","?","?","?","?","?","?","?","?","?","?","?","?","?","?","?","?","?","?","?","?","?","?","?","?","?","?","?","?","?","?","?","?","?","?","?","?","?","?","?","?","?","?","?","?","?","?","?","?","?","?","?","?","?","?","?","?","?","?","?","?","?","?","?","?","?","?","?","?","?","?","?","?","?","?","?","?","?","?","?","?","?","?","?","?","?","?","?","?","?","?","?","?","?","?","?","?","?","?","?","?","?","?","?","?","?","?","?","?","?","?","?","?","?","?","?","?","?","?","?","?","?","?","?","?","?","?","?","?","?","?","?","?","?","?","?","?","?","?","?","?","?","?","?","?","?","?","?","?","?","?","?","?","?","?","?","?","?","?","?","?","?","?","?","?","?","?","?","?","?","?","?","?","?","?","?","?","?","?","?","?","?","?","?","?","?","?","?","?","?","?","?","?","?","?","?","?","?","?","?","?","?","?","?","?","?","?","?","?","?","?","?","?","?","?","?","?","?","?","?","?","?","?","?","?","?","?","?","?","?","?","?","?","?","?","?","?","?","?","?","?","?","?","?","?","?","?","?","?","?","?","?","?","?","?","?","?","?","?","?","?","?","?","?","?","?","?","?","?","?","?","?","?","?","?","?","?","?","?","?","?","?","?","?","?","?","?","?","?","?","?","?","?","?","?","?","?","?","?","?","?","?","?","?","?","?","?","?","?","?","?","?","?","?","?","?","?","?","?","?","?","?","?","?","?","?","?","?","?","?","?","?","?","?","?","?","?","?","?","?","?","?","?","?","?","?","?","?","?","?","?","?","?","?","?","?","?","?","?","?","?","?","?","?","?","?","?","?","?","?","?","?","?","?","?","?","?","?","?","?","?","?","?","?","?","?","?","?","?","?","?","?","?","?","?","?","?","?","?","?","?","?","?","?","?","?","?","?","?","?","?","?","?","?","?","?","?","?","?","?","?","?","?","?","?","?","?","?","?","?","?","?","?","?","?","?","?","?","?","?","?","?","?","?","?","?","?","?","?","?","?","?","?","?","?","?","?","?","?","?","?","?","?","?","?","?","?","?","?","?","?","?","?","?","?","?","?","?","?","?","?","?","?","?","?","?","?","?","?","?","?","?","?","?","?","?","?","?","?","?","?","?","?","?","?","?","?","?","?","?","?","?","?","?","?","?","?","?","?","?","?","?","?","?","?","?","?","?","?","?","?","?","?","?","?","?","?","?","?","?","?","?","?","?","?","?","?","?","?","?","?","?","?","?","?","?","?","?","?","?","?","?","?","?","?","?","?","?","?","?","?","?","?","?","?","?","?","?","?","?","?","?","?","?","?","?","?","?","?","?","?","?","?","?","?","?","?","?","?","?","?","?","?","?","?","?","?","?","?","?","?","?","?","?","?","?","?","?","?","?","?","?","?","?","?","?","?","?","?","?","?","?","?","?","?","?","?","?","?","?","?","?","?","?","?","?","?","?","?","?","?","?","?","?","?","?","?","?","?","?","?","?","?","?","?","?","?","?","?","?","?","?","?","?","?","?","?","?","?","?","?","?","?","?","?","?","?","?","?","?","?","?","?","?","?","?","?","?","?","?","?","?","?","?","?","?","?","?","?","?","?","?","?","?","?","?","?","?","?","?","?","?","?","?","?","?","?","?","?","?","?","?","?","?","?","?","?","?","?","?","?","?","?","?","?","?","?","?","?","?","?","?","?","?","?","?","?","?","?","?","?","?","?","?","?","?","?","?","?","?","?","?","?","?","?","?","?","?","?","?","?","?","?","?","?","?","?","?","?","?","?","?","?","?","?","?","?","?","?","?","?","?","?","?","?","?","?","?","?","?","?","?","?","?","?","?","?","?","?","?","?","?","?","?","?","?","?","?","?","?","?","?","?","?","?","?","?","?","?","?","?","?","?","?","?","?","?","?","?","?","?","?","?","?","?","?","?","?","?","?","?","?","?","?","?","?","?","?","?","?","?","?","?","?","?","?","?","?","?","?","?","?","?","?","?","?","?","?","?","?","?","?","?","?","?","?","?","?","?","?","?","?","?","?","?","?","?","?","?","?","?","?","?","?","?","?","?","?","?","?","?","?","?","?","?","?","?","?","?","?","?","?","?","?","?","?","?","?","?","?","?","?","?","?","?","?","?","?","?","?","?","?","?","?","?","?","?","?","?","?","?","?","?","?","?","?","?","?","?","?","?","?","?","?","?","?","?","?","?","?","?","?","?","?","?","?","?","?","?","?","?","?","?","?","?","?","?","?","?","?","?","?","?","?","?","?","?","?","?","?","?","?","?","?","?","?","?","?","?","?","?","?","?","?","?","?","?","?","?","?","?","?","?","?","?","?","?","?","?","?","?","?","?","?","?","?","?","?","?","?","?","?","?","?","?","?","?","?","?","?","?","?","?","?","?","?","?","?","?","?","?","?","?","?","?","?","?","?","?","?","?","?","?","?","?","?","?","?","?","?","?","?","?","?","?","?","?","?","?","?","?","?","?","?","?","?","?","?","?","?","?","?","?","?","?","?","?","?","?","?","?","?","?","?","?","?","?","?","?","?","?","?","?","?","?","?","?","?","?","?","?","?","?","?","?","?","?","?","?","?","?","?","?","?","?","?","?","?","?","?","?","?","?","?","?","?","?","?","?","?","?","?","?","?","?","?","?","?","?","?","?","?","?","?","?","?","?","?","?","?","?","?","?","?","?","?","?","?","?","?","?","?","?","?","?","?","?","?","?","?","?","?","?","?","?","?","?","?","?","?","?","?","?","?","?","?","?","?","?","?","?","?","?","?","?","?","?","?","?","?","?","?","?","?","?","?","?","?","?","?","?","?","?","?","?","?","?","?","?","?","?","?","?","?","?","?","?","?","?","?","?","?","?","?","?","?","?","?","?","?","?","?","?","?","?","?","?","?","?","?","?","?","?","?","?","?","?","?","?","?","?","?","?","?","?","?","?","?","?","?","?","?","?","?","?","?","?","?","?","?","?","?","?","?","?","?","?","?","?","?","?","?","?","?","?","?","?","?","?","?","?","?","?","?","?","?","?","?","?","?","?","?","?","?","?","?","?","?","?","?","?","?","?","?","?","?","?","?","?","?","?","?","?","?","?","?","?","?","?","?","?","?","?","?","?","?","?","?","?","?","?","?","?","?","?","?","?","?","?","?","?","?","?","?","?","?","?","?","?","?","?","?","?","?","?","?","?","?","?","?","?","?","?","?","?","?","?","?","?","?","?","?","?","?","?","?","?","?","?","?","?","?","?","?","?","?","?","?","?","?","?","?","?","?","?","?","?","?","?","?","?","?","?","?","?","?","?","?","?","?","?","?","?","?","?","?","?","?","?","?","?","?","?","?","?","?","?","?","?","?","?","?","?","?","?","?","?","?","?","?","?","?","?","?","?","?","?","?","?","?","?","?","?","?","?","?","?","?","?","?","?","?","?","?","?","?","?","?","?","?","?","?","?","?","?","?","?","?","?","?","?","?","?","?","?","?","?","?","?","?","?","?","?","?","?","?","?","?","?","?","?","?","?","?","?","?","?","?","?","?","?","?","?","?","?","?","?","?","?","?","?","?","?","?","?","?","?","?","?","?","?","?","?","?","?","?","?","?","?","?","?","?","?","?","?","?","?","?","?","?","?","?","?","?","?","?","?","?","?","?","?","?","?","?","?","?","?","?","?","?","?","?","?","?","?","?","?","?","?","?","?","?","?","?","?","?","?","?","?","?","?","?","?","?","?","?","?","?","?","?","?","?","?","?","?","?","?","?","?","?","?","?","?","?","?","?","?","?","?","?","?","?","?","?","?","?","?","?","?","?","?","?","?","?","?","?","?","?","?","?","?","?","?","?","?","?","?","?","?","?","?","?","?","?","?","?","?","?","?","?","?","?","?","?","?","?","?","?","?","?","?","?","?","?","?","?","?","?","?","?","?","?","?","?","?","?","?","?","?","?","?","?","?","?","?","?","?","?","?","?","?","?","?","?","?","?","?","?","?","?","?","?","?","?","?","?","?","?","?","?","?","?","?","?","?","?","?","?","?","?","?","?","?","?","?","?","?","?","?","?","?","?","?","?","?","?","?","?","?","?","?","?","?","?","?","?","?","?","?","?","?","?","?","?","?","?","?","?","?","?","?","?","?","?","?","?","?","?","?","?","?","?","?","?","?","?","?","?","?","?","?","?","?","?","?","?","?","?","?","?","?","?","?","?","?","?","?","?","?","?","?","?","?","?","?","?","?","?","?","?","?","?","?","?","?","?","?","?","?","?","?","?","?","?","?","?","?","?","?","?","?","?","?","?","?","?","?","?","?","?","?","?","?","?","?","?","?","?","?","?","?","?","?","?","?","?","?","?","?","?","?","?","?","?","?","?","?","?","?","?","?","?","?","?","?","?","?","?","?","?","?","?","?","?","?","?","?","?","?","?","?","?","?","?","?","?","?","?","?","?","?","?","?","?","?","?","?","?","?","?","?","?","?","?","?","?","?","?","?","?","?","?","?","?","?","?","?","?","?","?","?","?","?","?","?","?","?","?","?","?","?","?","?","?","?","?","?","?","?","?","?","?","?","?","?","?","?","?","?","?","?","?","?","?","?","?","?","?","?","?","?","?","?","?","?","?","?","?","?","?","?","?","?","?","?","?","?","?","?","?","?","?","?","?","?","?","?","?","?","?","?","?","?","?","?","?","?","?","?","?","?","?","?","?","?","?","?","?","?","?","?","?","?","?","?","?","?","?","?","?","?","?","?","?","?","?","?","?","?","?","?","?","?","?","?","?","?","?","?","?","?","?","?","?","?","?","?","?","?","?","?","?","?","?","?","?","?","?","?","?","?","?","?","?","?","?","?","?","?","?","?","?","?","?","?","?","?","?","?","?","?","?","?","?","?","?","?","?","?","?","?","?","?","?","?","?","?","?","?","?","?","?","?","?","?","?","?","?","?","?","?","?","?","?","?","?","?","?","?","?","?","?","?","?","?","?","?","?","?","?","?","?","?","?","?","?","?","?","?","?","?","?","?","?","?","?","?","?","?","?","?","?","?","?","?","?","?","?","?","?","?","?","?","?","?","?","?","?","?","?","?","?","?","?","?","?","?","?","?","?","?","?","?","?","?","?","?","?","?","?","?","?","?","?","?","?","?","?","?","?","?","?","?","?","?","?","?","?","?","?","?","?","?","?","?","?","?","?","?","?","?","?","?","?","?","?","?","?","?","?","?","?","?","?","?","?","?","?","?","?","?","?","?","?","?","?","?","?","?","?","?","?","?","?","?","?","?","?","?","?","?","?","?","?","?","?","?","?","?","?","?","?","?","?","?","?","?","?","?","?","?","?","?","?","?","?","?","?","?","?","?","?","?","?","?","?","?","?","?","?","?","?","?","?","?","?","?","?","?","?","?","?","?","?","?","?","?","?","?","?","?","?","?","?","?","?","?","?","?","?","?","?","?","?","?","?","?","?","?","?","?","?","?","?","?","?","?","?","?","?","?","?","?","?","?","?","?","?","?","?","?","?","?","?","?","?","?","?","?","?","?","?","?","?","?","?","?","?","?","?","?","?","?","?","?","?","?","?","?","?","?","?","?","?","?","?","?","?","?","?","?","?","?","?","?","?","?","?","?","?","?","?","?","?","?","?","?","?","?","?","?","?","?","?","?","?","?","?","?","?","?","?","?","?","?","?","?","?","?","?","?","?","?","?","?","?","?","?","?","?","?","?","?","?","?","?","?","?","?","?","?","?","?","?","?","?","?","?","?","?","?","?","?","?","?","?","?","?","?","?","?","?","?","?","?","?","?","?","?","?","?","?","?","?","?","?","?","?","?","?","?","?","?","?","?","?","?","?","?","?","?","?","?","?","?","?","?","?","?","?","?","?","?","?","?","?","?","?","?","?","?","?","?","?","?","?","?","?","?","?","?","?","?","?","?","?","?","?","?","?","?","?","?","?","?","?","?","?","?","?","?","?","?","?","?","?","?","?","?","?","?","?","?","?","?","?","?","?","?","?","?","?","?","?","?","?","?","?","?","?","?","?","?","?","?","?","?","?","?","?","?","?","?","?","?","?","?","?","?","?","?","?","?","?","?","?","?","?","?","?","?","?","?","?","?","?","?","?","?","?","?","?","?","?","?","?","?","?","?","?","?","?","?","?","?","?","?","?","?","?","?","?","?","?","?","?","?","?","?","?","?","?","?","?","?","?","?","?","?","?","?","?","?","?","?","?","?","?","?","?","?","?","?","?","?","?","?","?","?","?","?","?","?","?","?","?","?","?","?","?","?","?","?","?","?","?","?","?","?","?","?","?","?","?","?","?","?","?","?","?","?","?","?","?","?","?","?","?","?","?","?","?","?","?","?","?","?","?","?","?","?","?","?","?","?","?","?","?","?","?","?","?","?","?","?","?","?","?","?","?","?","?","?","?","?","?","?","?","?","?","?","?","?","?","?","?","?","?","?","?","?","?","?","?","?","?","?","?","?","?","?","?","?","?","?","?","?","?","?","?","?","?","?","?","?","?","?","?","?","?","?","?","?","?","?","?","?","?","?","?","?","?","?","?","?","?","?","?","?","?","?","?","?","?","?","?","?","?","?","?","?","?","?","?","?","?","?","?","?","?","?","?","?","?","?","?","?","?","?","?","?","?","?","?","?","?","?","?","?","?","?","?","?","?","?","?","?","?","?","?","?","?","?","?","?","?","?","?","?","?","?","?","?","?","?","?","?","?","?","?","?","?","?","?","?","?","?","?","?","?","?","?","?","?","?","?","?","?","?","?","?","?","?","?","?","?","?","?","?","?","?","?","?","?","?","?","?","?","?","?","?","?","?","?","?","?","?","?","?","?","?","?","?","?","?","?","?","?","?","?","?","?","?","?","?","?","?","?","?","?","?","?","?","?","?","?","?","?","?","?","?","?","?","?","?","?","?","?","?","?","?","?","?","?","?","?","?","?","?","?","?","?","?","?","?","?","?","?","?","?","?","?","?","?","?","?","?","?","?","?","?","?","?","?","?","?","?","?","?","?","?","?","?","?","?","?","?","?","?","?","?","?","?","?","?","?","?","?","?","?","?","?","?","?","?","?","?","?","?","?","?","?","?","?","?","?","?","?","?","?","?","?","?","?","?","?","?","?","?","?","?","?","?","?","?","?","?","?","?","?","?","?","?","?","?","?","?","?","?","?","?","?","?","?","?","?","?","?","?","?","?","?","?","?","?","?","?","?","?","?","?","?","?","?","?","?","?","?","?","?","?","?","?","?","?","?","?","?","?","?","?","?","?","?","?","?","?","?","?","?","?","?","?","?","?","?","?","?","?","?","?","?","?","?","?","?","?","?","?","?","?","?","?","?","?","?","?","?","?","?","?","?","?","?","?","?","?","?","?","?","?","?","?","?","?","?","?","?","?","?","?","?","?","?","?","?","?","?","?","?","?","?","?","?","?","?","?","?","?","?","?","?","?","?","?","?","?","?","?","?","?","?","?","?","?","?","?","?","?","?","?","?","?","?","?","?","?","?","?","?","?","?","?","?","?","?","?","?","?","?","?","?","?","?","?","?","?","?","?","?","?","?","?","?","?","?","?","?","?","?","?","?","?","?","?","?","?","?","?","?","?","?","?","?","?","?","?","?","?","?","?","?","?","?","?","?","?","?","?","?","?","?","?","?","?","?","?","?","?","?","?","?","?","?","?","?","?","?","?","?","?","?","?","?","?","?","?","?","?","?","?","?","?","?","?","?","?","?","?","?","?","?","?","?","?","?","?","?","?","?","?","?","?","?","?","?","?","?","?","?","?","?","?","?","?","?","?","?","?","?","?","?","?","?","?","?","?","?","?","?","?","?","?","?","?","?","?","?","?","?","?","?","?","?","?","?","?","?","?","?","?","?","?","?","?","?","?","?","?","?","?","?","?","?","?","?","?","?","?","?","?","?","?","?","?","?","?","?","?","?","?","?","?","?","?","?","?","?","?","?","?","?","?","?","?","?","?","?","?","?","?","?","?","?","?","?","?","?","?","?","?","?","?","?","?","?","?","?","?","?","?","?","?","?","?","?","?","?","?","?","?","?","?","?","?","?","?","?","?","?","?","?","?","?","?","?","?","?","?","?","?","?","?","?","?","?","?","?","?","?","?","?","?","?","?","?","?","?","?","?","?","?","?","?","?","?","?","?","?","?","?","?","?","?","?","?","?","?","?","?","?","?","?","?","?","?","?","?","?","?","?","?","?","?","?","?","?","?","?","?","?","?","?","?","?","?","?","?","?","?","?","?","?","?","?","?","?","?","?","?","?","?","?","?","?","?","?","?","?","?","?","?","?","?","?","?","?","?","?","?","?","?","?","?","?","?","?","?","?","?","?","?","?","?","?","?","?","?","?","?","?","?","?","?","?","?","?","?","?","?","?","?","?","?","?","?","?","?","?","?","?","?","?","?","?","?","?","?","?","?","?","?","?","?","?","?","?","?","?","?","?","?","?","?","?","?","?","?","?","?","?","?","?","?","?","?","?","?","?","?","?","?","?","?","?","?","?","?","?","?","?","?","?","?","?","?","?","?","?","?","?","?","?","?","?","?","?","?","?","?","?","?","?","?","?","?","?","?","?","?","?","?","?","?","?","?","?","?","?","?","?","?","?","?","?","?","?","?","?","?","?","?","?","?","?","?","?","?","?","?","?","?","?","?","?","?","?","?","?","?","?","?","?","?","?","?","?","?","?","?","?","?","?","?","?","?","?","?","?","?","?","?","?","?","?","?","?","?","?","?","?","?","?","?","?","?","?","?","?","?","?","?","?","?","?","?","?","?","?","?","?","?","?","?","?","?","?","?","?","?","?","?","?","?","?","?","?","?","?","?","?","?","?","?","?","?","?","?","?","?","?","?","?","?","?","?","?","?","?","?","?","?","?","?","?","?","?","?","?","?","?","?","?","?","?","?","?","?","?","?","?","?","?","?","?","?","?","?","?","?","?","?","?","?","?","?","?","?","?","?","?","?","?","?","?","?","?","?","?","?","?","?","?","?","?","?","?","?","?","?","?","?","?","?","?","?","?","?","?","?","?","?","?","?","?","?","?","?","?","?","?","?","?","?","?","?","?","?","?","?","?","?","?","?","?","?","?","?","?","?","?","?","?","?","?","?","?","?","?","?","?","?","?","?","?","?","?","?","?","?","?","?","?","?","?","?","?","?","?","?","?","?","?","?","?","?","?","?","?","?","?","?","?","?","?","?","?","?","?","?","?","?","?","?","?","?","?","?","?","?","?","?","?","?","?","?","?","?","?","?","?","?","?","?","?","?","?","?","?","?","?","?","?","?","?","?","?","?","?","?","?","?","?","?","?","?","?","?","?","?","?","?","?","?","?","?","?","?","?","?","?","?","?","?","?","?","?","?","?","?","?","?","?","?","?","?","?","?","?","?","?","?","?","?","?","?","?","?","?","?","?","?","?","?","?","?","?","?","?","?","?","?","?","?","?","?","?","?","?","?","?","?","?","?","?","?","?","?","?","?","?","?","?","?","?","?","?","?","?","?","?","?","?","?","?","?","?","?","?","?","?","?","?","?","?","?","?","?","?","?","?","?","?","?","?","?","?","?","?","?","?","?","?","?","?","?","?","?","?","?","?","?","?","?","?","?","?","?","?","?","?","?","?","?","?","?","?","?","?","?","?","?","?","?","?","?","?","?","?","?","?","?","?","?","?","?","?","?","?","?","?","?","?","?","?","?","?","?","?","?","?","?","?","?","?","?","?","?","?","?","?","?","?","?","?","?","?","?","?","?","?","?","?","?","?","?","?","?","?","?","?","?","?","?","?","?","?","?","?","?","?","?","?","?","?","?","?","?","?","?","?","?","?","?","?","?","?","?","?","?","?","?","?","?","?","?","?","?","?","?","?","?","?","?","?","?","?","?","?","?","?","?","?","?","?","?","?","?","?","?","?","?","?","?","?","?","?","?","?","?","?","?","?","?","?","?","?","?","?","?","?","?","?","?","?","?","?","?","?","?","?","?","?","?","?","?","?","?","?","?","?","?","?","?","?","?","?","?","?","?","?","?","?","?","?","?","?","?","?","?","?","?","?","?","?","?","?","?","?","?","?","?","?","?","?","?","?","?","?","?","?","?","?","?","?","?","?","?","?","?","?","?","?","?","?","?","?","?","?","?","?","?","?","?","?","?","?","?","?","?","?","?","?","?","?","?","?","?","?","?","?","?","?","?","?","?","?","?","?","?","?","?","?","?","?","?","?","?","?","?","?","?","?","?","?","?","?","?","?","?","?","?","?","?","?","?","?","?","?","?","?","?","?","?","?","?","?","?","?","?","?","?","?","?","?","?","?","?","?","?","?","?","?","?","?","?","?","?","?","?","?","?","?","?","?","?","?","?","?","?","?","?","?","?","?","?","?","?","?","?","?","?","?","?","?","?","?","?","?","?","?","?","?","?","?","?","?","?","?","?","?","?","?","?","?","?","?","?","?","?","?","?","?","?","?","?","?","?","?","?","?","?","?","?","?","?","?","?","?","?","?","?","?","?","?","?","?","?","?","?","?","?","?","?","?","?","?","?","?","?","?","?","?","?","?","?","?","?","?","?","?","?","?","?","?","?","?","?","?","?","?","?","?","?","?","?","?","?","?","?","?","?","?","?","?","?","?","?","?","?","?","?","?","?","?","?","?","?","?","?","?","?","?","?","?","?","?","?","?","?","?","?","?","?","?","?","?","?","?","?","?","?","?","?","?","?","?","?","?","?","?","?","?","?","?","?","?","?","?","?","?","?","?","?","?","?","?","?","?","?","?","?","?","?","?","?","?","?","?","?","?","?","?","?","?","?","?","?","?","?","?","?","?","?","?","?","?","?","?","?","?","?","?","?","?","?","?","?","?","?","?","?","?","?","?","?","?","?","?","?","?","?","?","?","?","?","?","?","?","?","?","?","?","?","?","?","?","?","?","?","?","?","?","?","?","?","?","?","?","?","?","?","?","?","?","?","?","?","?","?","?","?","?","?","?","?","?","?","?","?","?","?","?","?","?","?","?","?","?","?","?","?","?","?","?","?","?","?","?","?","?","?","?","?","?","?","?","?","?","?","?","?","?","?","?","?","?","?","?","?","?","?","?","?","?","?","?","?","?","?","?","?","?","?","?","?","?","?","?","?","?","?","?","?","?","?","?","?","?","?","?","?","?","?","?","?","?","?","?","?","?","?","?","?","?","?","?","?","?","?","?","?","?","?","?","?","?","?","?","?","?","?","?","?","?","?","?","?","?","?","?","?","?","?","?","?","?","?","?","?","?","?","?","?","?","?","?","?","?","?","?","?","?","?","?","?","?","?","?","?","?","?","?","?","?","?","?","?","?","?","?","?","?","?","?","?","?","?","?","?","?","?","?","?","?","?","?","?","?","?","?","?","?","?","?","?","?","?","?","?","?","?","?","?","?","?","?","?","?","?","?","?","?","?","?","?","?","?","?"