[{"success":true,"trial_type":"fullscreen","trial_index":0,"time_elapsed":3423,"internal_node_id":"0.0-0.0","protocol_sum":"","subject_identifier":403,"subject_sum":[67,151,78,215,64,102,178,7,195,15,253,15,237,81,70,118,46,108,96,116,90,201,119,0,75,193,69,7,199,196,43,80],"subject_pair":201,"STUDY_ID":"66a22c0758a3d5c9d26873c6","PROLIFIC_PID":"66076de3ddde71f125afc1f6","SESSION_ID":"66a237eb2bbc85e5f0e4cf53","practice_instructions":1,"leaderboard_instructions":0,"bonus":0,"reveal_word":true,"self_rating":"6","confidence":"99"},{"view_history":"[{\"page_index\":0,\"viewing_time\":7385.80000000447}]","rt":7386.39999999851,"trial_type":"instructions","trial_index":1,"time_elapsed":10810,"internal_node_id":"0.0-1.0","protocol_sum":"","subject_identifier":403,"subject_sum":[67,151,78,215,64,102,178,7,195,15,253,15,237,81,70,118,46,108,96,116,90,201,119,0,75,193,69,7,199,196,43,80],"subject_pair":201,"STUDY_ID":"66a22c0758a3d5c9d26873c6","PROLIFIC_PID":"66076de3ddde71f125afc1f6","SESSION_ID":"66a237eb2bbc85e5f0e4cf53","practice_instructions":1,"leaderboard_instructions":0,"bonus":0,"reveal_word":true,"self_rating":"6","confidence":"99"},{"view_history":"[{\"page_index\":0,\"viewing_time\":13985}]","rt":13985.40000000596,"trial_type":"instructions","trial_index":2,"time_elapsed":24797,"internal_node_id":"0.0-2.0-0.0","protocol_sum":"","subject_identifier":403,"subject_sum":[67,151,78,215,64,102,178,7,195,15,253,15,237,81,70,118,46,108,96,116,90,201,119,0,75,193,69,7,199,196,43,80],"subject_pair":201,"STUDY_ID":"66a22c0758a3d5c9d26873c6","PROLIFIC_PID":"66076de3ddde71f125afc1f6","SESSION_ID":"66a237eb2bbc85e5f0e4cf53","practice_instructions":1,"leaderboard_instructions":0,"bonus":0,"reveal_word":true,"self_rating":"6","confidence":"99"},{"rt":8361.10000000149,"responses":"{\"Q0\":\"... reveal the word with as <b>few letter guesses</b> as possible\"}","question_order":"[0]","trial_type":"survey-multi-choice","trial_index":3,"time_elapsed":33161,"internal_node_id":"0.0-2.0-1.0","protocol_sum":"","subject_identifier":403,"subject_sum":[67,151,78,215,64,102,178,7,195,15,253,15,237,81,70,118,46,108,96,116,90,201,119,0,75,193,69,7,199,196,43,80],"subject_pair":201,"correct":true,"test_part":"multichoice_nonpretend","STUDY_ID":"66a22c0758a3d5c9d26873c6","PROLIFIC_PID":"66076de3ddde71f125afc1f6","SESSION_ID":"66a237eb2bbc85e5f0e4cf53","practice_instructions":1,"leaderboard_instructions":0,"bonus":0,"reveal_word":true,"self_rating":"6","confidence":"99"},{"view_history":"[{\"page_index\":0,\"viewing_time\":2794.7000000029802}]","rt":2795.5,"trial_type":"instructions","trial_index":4,"time_elapsed":35958,"internal_node_id":"0.0-3.0","protocol_sum":"","subject_identifier":403,"subject_sum":[67,151,78,215,64,102,178,7,195,15,253,15,237,81,70,118,46,108,96,116,90,201,119,0,75,193,69,7,199,196,43,80],"subject_pair":201,"STUDY_ID":"66a22c0758a3d5c9d26873c6","PROLIFIC_PID":"66076de3ddde71f125afc1f6","SESSION_ID":"66a237eb2bbc85e5f0e4cf53","practice_instructions":1,"leaderboard_instructions":0,"bonus":0,"reveal_word":true,"self_rating":"6","confidence":"99"},{"word":"ZEBRA","click_log":{"letter":["","M","A","P","E","I","G","H","C","R","O","L","T","S","U","V","N","D","F","J","K","B","Z"],"t":[0,8710.19999999553,19146.79999999702,24240.89999999851,33587.39999999851,39530.5,43362.89999999851,44888.5,49746,54184.19999999553,60735.29999999702,66704.59999999404,77154.29999999702,84227.09999999404,92260.39999999851,96576.89999999851,100159.79999999702,101581.19999999553,103770.79999999702,108654.29999999702,110457.89999999851,113502.39999999851,115366.39999999851],"hit":[null,0,1,0,1,0,0,0,0,1,0,0,0,0,0,0,0,0,0,0,0,1,1],"asked":["","M","MA","MAP","MAPE","MAPEI","MAPEIG","MAPEIGH","MAPEIGHC","MAPEIGHCR","MAPEIGHCRO","MAPEIGHCROL","MAPEIGHCROLT","MAPEIGHCROLTS","MAPEIGHCROLTSU","MAPEIGHCROLTSUV","MAPEIGHCROLTSUVN","MAPEIGHCROLTSUVND","MAPEIGHCROLTSUVNDF","MAPEIGHCROLTSUVNDFJ","MAPEIGHCROLTSUVNDFJK","MAPEIGHCROLTSUVNDFJKB","MAPEIGHCROLTSUVNDFJKBZ"],"word_state":["_____","_____","____A","____A","_E__A","_E__A","_E__A","_E__A","_E__A","_E_RA","_E_RA","_E_RA","_E_RA","_E_RA","_E_RA","_E_RA","_E_RA","_E_RA","_E_RA","_E_RA","_E_RA","_EBRA","ZEBRA"]},"hover_log":{"letter":["?","?","?","?","?","?","?","?","?","?","?","?","?","?","?","?","?","?","?","?","?","?","?","?","?","?","?","?","?","?","?","?","?","?","?","?","?","?","?","?","?","?","?","?","?","?","?","?","?","?","?","?","?","?","?","?","?","?","?","?","?","?","?","?","?","?","?","?","?","?","?","?","?","?","?","?","?","?","?","?","?","?","?","?","?","?","?","?","?","?","?","?","?","?","?","?","?","?","?","?","?","?","?","?","?","?","?","?","?","?","?","?","?","K","K","K","K","K","?","?","L","L","L","L","L","L","L","L","L","L","L","L","L","L","L","?","?","?","?","?","?","M","M","M","M","M","?","?","?","?","?","?","?","?","?","?","?","?","?","?","?","?","?","?","?","?","?","?","?","?","?","?","?","?","?","?","?","?","?","?","?","?","?","?","?","?","?","?","?","?","?","?","?","?","?","?","?","?","?","?","?","?","?","?","?","?","?","?","?","?","?","?","?","?","?","?","?","?","?","?","?","?","?","?","?","?","?","?","?","?","?","?","?","?","?","?","?","?","?","?","?","?","?","?","?","?","?","?","?","?","?","?","?","?","?","?","?","?","?","?","?","?","?","?","?","?","?","?","?","?","?","?","?","?","?","?","?","?","?","?","?","?","?","?","?","?","?","?","?","?","?","?","?","?","?","?","?","?","?","?","?","?","?","?","?","?","?","?","?","?","?","?","?","?","?","?","?","?","?","?","?","?","?","?","?","?","?","?","?","?","?","?","?","?","?","?","?","?","?","?","?","?","?","?","?","?","?","?","?","?","?","?","?","?","?","?","?","?","?","?","?","?","?","?","?","?","?","?","?","?","?","?","?","?","?","?","?","?","?","?","?","?","?","?","?","?","?","?","?","?","?","?","?","?","?","?","?","?","?","?","?","?","?","?","?","?","?","?","?","?","?","?","?","?","?","?","?","?","?","?","?","?","?","?","?","?","?","?","?","?","?","?","?","?","?","?","?","?","?","?","?","?","?","?","?","?","?","?","?","?","?","?","?","?","?","?","?","?","?","?","?","?","?","?","?","M","M","M","M","M","M","M","M","M","M","M","M","M","M","M","M","M","M","M","M","M","M","M","M","M","M","M","M","M","M","M","M","M","M","M","M","M","M","M","M","M","M","M","M","M","M","M","M","M","M","M","M","M","M","M","M","M","M","M","M","M","M","M","M","M","M","M","M","M","M","M","M","M","M","M","M","M","M","M","M","M","M","M","M","M","M","M","M","M","M","M","M","M","M","M","M","M","M","M","M","M","M","M","M","M","M","M","M","M","M","M","M","M","M","M","M","M","M","M","M","M","M","M","M","M","M","M","M","M","M","M","M","M","M","M","M","M","M","M","M","M","M","M","M","M","M","M","M","M","M","M","M","M","M","M","M","M","M","M","M","M","M","M","M","M","M","M","M","M","M","M","M","M","M","M","M","M","M","M","M","M","M","M","M","M","M","M","M","M","M","M","M","M","M","M","M","M","M","M","M","M","M","M","M","M","M","M","M","M","M","M","M","M","M","M","M","M","M","M","M","M","M","M","M","M","M","M","M","M","M","M","M","M","M","M","M","M","M","M","M","M","M","M","M","M","M","M","M","M","M","M","M","M","M","M","M","M","M","M","M","M","M","M","M","M","M","M","M","M","M","M","M","M","M","M","M","M","M","M","M","M","M","M","M","M","M","M","M","M","M","M","M","M","M","M","M","M","M","M","M","M","M","M","M","M","M","M","M","M","M","M","M","M","M","M","M","M","M","M","M","M","M","M","M","M","M","M","M","M","M","M","M","M","M","M","M","M","M","M","M","M","M","M","M","M","M","M","M","M","M","M","M","M","M","M","M","M","M","M","M","M","M","M","M","M","M","M","M","M","M","M","M","M","M","M","M","M","M","M","M","M","M","M","M","M","M","M","M","M","M","M","M","M","M","M","M","M","M","M","M","M","M","M","M","M","M","M","M","M","M","M","M","M","M","M","M","M","M","M","M","M","M","M","M","M","M","M","M","M","M","M","M","M","M","M","M","M","M","M","M","M","M","M","M","M","M","M","M","M","M","M","M","M","M","M","M","M","M","M","M","M","M","M","M","M","M","M","M","M","M","M","M","M","M","M","M","M","M","M","M","M","M","M","M","M","M","M","M","M","M","M","M","M","M","M","M","M","M","M","M","M","M","M","M","M","M","M","M","M","M","M","M","M","M","M","M","M","M","M","M","M","M","M","M","M","M","M","M","M","M","M","M","M","M","M","M","M","M","M","M","M","M","M","M","M","M","M","M","M","M","M","M","M","M","M","M","M","M","M","M","M","M","M","M","M","?","N","N","N","N","N","N","N","?","?","?","?","?","?","?","?","?","O","O","O","O","O","O","O","O","O","N","?","?","?","?","?","B","B","B","?","A","A","A","A","A","A","A","A","A","A","A","A","A","?","?","?","?","?","?","?","?","?","?","?","?","?","?","?","?","?","?","?","?","?","?","?","?","?","?","A","A","A","A","A","A","A","A","A","A","A","A","A","A","A","A","A","A","A","A","A","A","A","A","A","A","A","A","A","A","A","A","A","A","A","A","A","A","A","A","A","A","A","A","A","A","A","A","A","A","A","A","A","A","A","A","A","A","A","A","A","A","A","A","A","A","A","A","A","A","A","A","A","A","A","A","A","A","A","A","A","A","A","A","A","A","A","A","A","A","A","A","A","A","A","A","A","A","A","A","A","A","A","A","A","A","A","A","A","A","A","A","A","A","A","A","A","A","A","B","B","?","?","?","?","?","N","N","N","O","O","O","?","?","?","?","?","?","?","?","?","?","?","?","?","?","P","P","P","P","P","P","?","?","?","?","?","?","?","?","?","?","?","?","?","?","?","?","?","?","?","?","Q","Q","Q","Q","Q","Q","Q","Q","Q","Q","Q","Q","Q","Q","Q","Q","Q","Q","Q","Q","Q","Q","Q","Q","Q","Q","Q","Q","Q","Q","Q","?","?","?","?","?","?","?","?","?","?","?","?","?","?","?","?","?","?","?","?","?","?","?","?","Z","Z","Z","Z","Z","Z","Z","Z","Z","Z","Z","Z","Z","Z","Z","Z","Z","Z","?","?","?","?","?","?","?","?","?","?","?","?","?","?","?","?","?","?","?","?","?","?","?","?","?","?","?","?","?","?","?","?","?","?","?","?","?","?","?","?","?","?","?","?","?","?","?","?","?","?","?","?","?","Q","Q","Q","Q","Q","Q","Q","Q","?","?","?","?","P","P","P","P","P","P","P","P","P","P","P","P","P","P","P","P","P","P","P","P","P","P","P","P","P","P","P","P","P","P","P","P","P","P","P","P","P","P","P","P","P","P","P","P","P","P","P","P","P","P","P","P","P","P","P","P","P","P","P","P","P","P","P","P","P","P","P","P","P","P","P","P","P","P","P","P","P","P","P","P","P","P","P","P","P","P","P","P","P","P","P","P","P","P","P","P","P","P","P","P","P","P","P","P","P","P","P","P","P","P","P","P","P","P","P","P","P","P","P","P","P","P","P","P","P","P","P","P","P","P","P","P","P","P","P","P","P","P","P","P","P","P","P","P","P","P","P","P","P","P","P","P","P","P","P","P","P","P","P","P","P","P","P","P","P","P","P","P","P","P","P","P","P","P","P","P","P","P","P","P","P","P","P","P","P","P","P","P","P","P","P","P","P","P","P","P","P","P","P","P","P","P","P","P","P","P","P","P","P","P","P","P","P","P","P","P","P","P","P","P","P","P","P","P","P","P","P","P","P","P","P","P","P","P","P","P","P","P","P","P","P","P","P","P","P","P","P","P","P","P","P","P","P","P","P","P","P","P","P","P","P","P","P","P","P","P","P","P","P","P","P","P","P","P","P","P","P","P","P","P","P","P","P","P","P","P","P","P","P","P","P","P","P","P","P","P","P","P","P","P","P","P","P","P","P","P","P","P","P","P","P","P","P","P","P","P","P","P","P","P","P","P","P","P","P","P","P","P","P","P","P","P","P","P","P","P","P","P","P","P","P","P","P","P","P","P","P","P","P","P","P","P","P","P","P","P","P","P","P","P","P","P","P","P","P","P","P","P","P","P","P","P","P","P","P","P","P","P","P","P","P","P","P","P","P","P","P","P","P","P","P","P","P","P","P","P","P","P","P","P","P","P","P","P","P","P","P","P","P","P","P","P","P","P","P","P","P","P","P","P","P","P","P","P","P","P","P","P","P","P","P","P","P","P","P","P","P","P","P","P","P","P","P","P","P","P","P","P","P","P","P","P","P","P","P","P","P","P","P","P","P","P","P","P","P","P","P","P","P","P","P","P","P","P","P","P","P","P","P","P","P","P","P","P","P","P","P","P","P","P","P","P","P","P","P","P","P","P","P","P","P","P","P","P","P","P","P","P","P","P","P","P","P","P","P","P","P","P","P","P","P","?","?","?","?","?","?","?","?","?","?","?","?","F","F","F","F","F","F","F","F","?","E","E","E","E","E","E","E","E","E","E","E","E","E","E","E","E","E","E","E","E","E","E","E","E","E","E","E","E","E","E","E","E","E","E","E","E","E","E","E","E","E","E","E","E","E","E","E","E","E","E","E","E","E","E","E","E","E","E","E","E","E","E","E","E","E","E","E","E","E","E","E","E","E","E","E","E","E","E","E","E","E","E","E","E","E","E","E","E","E","E","E","E","E","E","E","E","E","E","E","E","E","E","E","E","E","E","E","E","E","E","E","E","E","E","E","E","E","E","E","E","E","E","E","E","E","E","E","E","E","E","E","E","E","E","E","E","E","E","E","E","E","E","E","E","E","E","E","E","E","E","E","E","E","E","E","E","E","E","E","E","E","E","E","E","E","E","E","E","E","E","E","E","E","E","E","E","E","E","E","E","E","E","E","E","E","E","E","E","E","E","E","E","E","E","E","E","E","E","E","E","E","E","E","E","E","E","E","E","E","E","E","E","E","E","E","E","E","E","E","E","E","E","E","E","E","E","E","E","E","E","E","E","E","E","E","E","E","E","E","E","E","E","E","E","E","E","E","E","E","E","E","E","E","E","E","E","E","E","E","E","E","E","E","E","E","E","E","E","E","E","E","E","E","E","E","E","E","E","E","E","E","E","E","E","E","E","E","E","E","E","E","E","E","E","E","E","E","E","E","E","E","E","E","E","E","E","E","E","E","E","E","E","E","E","E","E","E","E","E","E","E","E","E","E","E","E","E","E","E","E","E","E","E","E","E","E","E","E","E","E","E","E","E","E","E","F","F","?","G","G","G","G","?","H","H","H","H","H","H","H","H","H","H","H","?","?","?","?","?","?","?","?","?","?","?","?","?","?","I","I","I","I","I","I","I","I","I","I","I","I","I","I","I","I","I","I","I","I","I","I","I","I","I","I","I","I","I","I","I","I","I","I","I","I","I","I","I","I","I","I","I","I","I","I","I","I","I","I","I","I","I","I","I","I","I","I","I","I","I","I","I","I","I","I","I","I","I","I","I","I","I","I","I","I","I","I","I","I","I","I","I","I","I","I","I","I","I","I","I","I","I","I","I","I","I","I","I","I","I","I","I","I","I","I","I","I","I","I","I","I","I","I","I","I","I","I","I","I","I","I","I","I","I","I","I","I","I","I","I","I","I","I","I","I","I","I","I","I","I","I","I","I","I","I","I","I","I","I","I","I","I","I","I","I","I","I","I","I","I","I","I","I","I","I","I","I","I","I","I","I","I","I","I","I","I","I","I","?","?","?","?","?","?","H","H","H","H","H","H","H","H","H","H","H","H","H","H","H","H","H","H","H","H","H","H","H","H","H","H","H","H","H","H","H","H","H","H","H","?","?","?","?","?","?","?","?","G","G","G","G","G","G","G","G","G","G","G","G","G","G","G","G","G","G","G","G","G","G","G","G","G","G","G","G","G","G","G","G","G","G","G","G","G","G","G","G","G","G","G","G","G","G","G","G","G","G","G","G","G","G","G","G","G","G","G","G","G","G","G","G","G","G","G","G","G","G","G","G","G","G","G","G","G","G","G","G","G","G","G","G","G","G","G","G","G","G","?","?","H","H","H","H","H","H","H","H","H","H","H","H","H","H","H","H","H","H","H","H","H","H","H","H","H","H","H","H","H","H","H","H","H","H","H","H","H","H","H","H","H","H","H","H","H","H","H","H","H","H","H","H","H","H","H","H","H","H","H","H","H","H","H","H","H","H","H","H","H","H","H","H","H","H","H","H","H","H","H","H","H","H","H","H","H","H","H","H","H","H","H","H","H","H","H","H","H","H","H","H","H","H","H","H","H","H","H","H","H","H","H","H","H","H","H","H","H","H","H","H","H","H","H","H","H","H","H","H","H","H","H","H","H","H","H","H","H","H","H","H","H","H","H","H","H","H","H","H","H","H","H","H","H","H","H","H","H","H","H","H","H","H","H","H","H","H","H","H","H","H","H","H","H","H","H","H","H","H","H","H","H","H","H","H","H","H","H","H","H","H","H","H","H","H","H","H","H","H","H","H","H","H","H","H","H","H","H","H","H","H","H","H","H","H","H","H","H","H","H","H","H","H","H","H","H","H","H","H","H","H","H","H","H","H","H","H","H","H","H","H","H","H","H","H","?","?","?","?","?","O","O","O","?","N","N","N","?","?","?","?","?","?","?","?","?","?","?","?","?","?","?","?","?","?","M","M","M","M","?","?","?","?","?","?","C","C","C","C","C","C","C","C","C","C","C","C","C","C","C","C","C","C","C","C","C","C","C","C","C","C","C","C","C","C","C","C","C","C","C","C","C","C","C","C","C","C","C","C","C","C","C","C","C","C","C","C","C","C","C","C","C","C","C","C","C","C","C","C","C","C","C","C","C","C","C","C","C","C","C","C","C","C","C","C","C","C","C","C","C","C","C","C","C","C","C","C","C","C","C","C","C","C","C","C","C","C","C","C","C","C","C","C","C","C","C","C","C","C","C","C","C","C","C","C","C","C","C","C","C","C","C","C","C","C","C","C","C","C","?","D","?","?","N","N","?","O","?","?","?","?","?","?","?","?","?","?","?","?","?","?","?","?","?","?","?","?","Y","Y","Y","Y","Y","Y","Y","Y","Y","Y","Y","Y","Y","Y","Y","?","?","?","?","?","?","?","?","?","?","?","?","?","?","?","?","?","?","?","?","?","?","?","?","?","?","?","?","?","?","?","?","?","?","?","?","?","?","?","?","?","?","?","?","?","?","?","?","?","?","?","?","?","?","?","?","?","?","?","?","?","?","?","?","?","?","?","?","?","?","?","?","?","?","?","?","?","?","?","?","?","?","?","Z","Z","Z","Z","Z","Z","?","?","?","?","R","R","R","R","R","R","R","R","R","R","R","R","R","R","R","R","R","R","R","R","R","R","R","R","R","R","R","R","R","R","R","R","R","R","R","R","R","R","R","R","R","R","R","R","R","R","R","R","R","R","R","R","R","R","R","R","R","R","R","R","R","R","R","R","R","R","R","R","R","R","R","R","R","R","R","R","R","R","R","R","R","R","R","R","R","R","R","R","R","R","R","R","R","R","R","R","R","R","R","R","R","R","R","R","R","R","R","R","R","R","R","R","R","R","R","R","R","R","R","R","R","R","R","R","R","R","R","R","R","R","R","R","R","R","R","R","R","R","R","R","R","R","R","R","R","R","R","R","R","R","R","R","R","R","R","R","R","R","R","R","R","R","R","R","R","R","R","R","R","R","R","R","R","R","R","R","R","R","R","R","R","R","R","R","R","R","R","R","R","R","R","R","R","R","R","R","R","R","R","R","R","R","R","?","?","?","?","Y","Y","Y","Y","Y","Y","Y","Y","?","?","?","?","?","?","?","?","?","?","X","X","X","X","X","X","X","X","X","X","X","X","X","X","X","X","X","X","X","X","X","X","X","X","X","X","X","X","X","X","?","?","?","?","?","?","?","?","?","?","?","?","?","?","?","?","?","?","?","?","?","?","?","?","?","?","?","?","?","?","?","?","?","?","?","?","?","?","?","?","?","?","?","?","?","?","?","?","?","?","?","?","?","?","?","?","?","?","?","?","?","?","L","L","L","L","L","L","L","L","L","L","L","L","L","L","L","?","?","?","?","U","U","U","U","U","U","U","U","U","U","U","U","U","U","U","U","?","?","?","?","?","?","?","?","?","?","?","?","V","?","W","W","W","W","W","?","?","X","X","X","X","?","?","?","?","?","P","P","P","P","P","P","P","P","P","P","P","P","?","?","O","O","O","O","O","O","O","O","O","O","O","O","O","O","O","O","O","O","O","O","O","O","O","O","O","O","O","O","O","O","O","O","O","O","O","O","O","O","O","O","O","O","O","O","O","O","O","O","O","O","O","O","O","O","O","O","O","O","O","O","O","O","O","O","O","O","O","O","O","O","O","O","O","O","O","O","O","O","O","O","O","O","O","O","O","O","O","O","O","O","O","O","O","O","O","O","O","O","O","O","O","O","O","O","O","O","O","O","O","O","O","O","O","O","O","O","O","O","O","O","O","O","O","O","O","O","O","O","O","O","O","O","O","O","O","O","O","O","O","O","O","O","O","O","O","O","O","O","O","O","O","O","O","O","O","O","O","O","O","O","O","O","O","O","O","O","O","O","O","O","O","O","O","O","O","O","O","O","O","O","O","O","O","O","O","O","O","O","O","O","O","O","O","O","O","O","O","O","O","O","O","O","O","O","O","O","O","O","O","O","O","O","O","O","O","O","O","O","O","O","O","O","O","O","O","O","O","O","O","O","O","O","O","O","O","O","O","O","O","O","O","O","O","O","O","O","O","O","O","O","O","O","O","O","O","O","O","O","O","O","O","O","O","O","O","O","O","O","O","O","O","O","O","O","O","O","O","O","O","O","O","O","O","O","O","O","O","O","O","O","O","O","O","O","O","O","O","O","O","O","O","O","O","O","O","O","O","O","O","O","O","O","O","O","O","O","O","O","O","O","O","O","O","O","O","?","N","?","M","M","?","L","L","L","L","L","L","L","L","L","L","L","L","L","L","L","L","L","L","L","L","L","L","L","L","L","L","L","L","L","L","L","L","L","L","L","L","L","L","L","L","L","L","L","L","L","L","L","L","L","L","L","L","L","L","L","L","L","L","L","L","L","L","L","L","L","L","L","L","L","L","L","L","L","L","L","L","L","L","L","L","L","L","L","L","L","L","L","L","L","L","L","L","L","L","L","L","L","L","L","L","L","L","L","L","L","L","L","L","L","L","L","L","L","L","L","L","L","L","L","L","L","L","L","L","L","L","L","L","L","L","L","L","L","L","L","L","L","L","L","L","L","L","L","L","L","L","L","L","L","L","L","L","L","L","L","L","L","L","L","L","L","L","L","L","L","L","L","L","L","L","L","L","L","L","L","L","L","L","L","L","L","L","L","L","L","L","L","L","L","L","L","L","L","L","L","L","L","L","L","L","L","L","L","L","L","L","L","L","L","L","L","L","L","L","L","L","L","L","L","L","L","L","L","L","L","L","L","L","L","L","L","L","L","L","L","L","L","L","L","L","L","L","L","L","L","L","L","L","L","L","L","L","L","L","L","L","L","L","L","L","L","L","L","L","L","L","L","L","L","L","L","L","L","L","L","L","L","L","L","L","L","L","L","L","L","L","L","L","L","L","L","L","L","L","L","L","L","L","L","L","L","L","L","L","L","L","L","L","L","L","L","L","L","L","L","L","L","L","L","L","L","L","L","L","L","L","L","L","L","L","L","L","L","L","L","L","L","L","L","L","L","L","L","L","L","L","L","L","L","L","L","L","L","L","L","L","L","L","L","L","L","L","L","L","L","L","L","L","L","L","L","L","L","L","L","L","L","L","L","L","L","L","L","L","L","L","L","L","L","L","L","L","L","L","L","L","L","L","L","L","L","L","L","L","L","L","L","L","L","L","L","L","L","L","L","L","L","L","L","L","L","L","L","L","L","L","L","L","L","L","L","L","L","L","L","L","L","L","L","L","L","L","L","L","L","L","L","L","L","L","L","L","L","L","L","L","L","L","L","L","L","L","L","L","L","L","L","L","L","L","L","L","L","L","L","L","L","L","L","L","L","L","L","L","L","L","L","L","L","L","L","L","L","L","L","L","L","L","L","L","L","L","L","L","L","L","L","L","L","L","L","L","L","L","L","L","L","L","L","L","L","L","L","L","L","L","L","L","L","L","L","L","L","L","L","L","L","L","L","L","L","L","L","L","L","L","L","L","L","L","L","L","L","L","L","L","L","L","L","L","L","L","L","L","L","L","L","L","L","L","L","L","L","L","L","L","L","L","L","L","L","L","L","L","L","L","L","L","L","L","L","L","L","L","L","L","L","L","L","L","L","L","L","L","L","L","L","L","L","L","L","L","L","L","L","L","L","L","L","L","L","L","L","L","L","L","L","L","L","L","L","L","L","L","L","L","L","L","L","L","L","L","L","L","L","L","L","L","?","?","T","T","T","T","T","T","T","T","T","T","T","T","T","T","T","T","T","T","T","T","T","T","T","T","T","T","T","T","T","T","T","T","T","T","T","T","T","T","T","T","T","T","T","T","T","T","T","T","T","T","T","T","T","T","T","T","T","T","T","T","T","T","T","T","T","T","T","T","T","T","T","T","T","T","T","T","T","T","T","T","T","T","T","T","T","T","T","T","T","T","T","T","T","T","T","T","T","T","T","T","T","T","T","T","T","T","T","T","T","T","T","T","T","T","T","T","T","T","T","T","T","T","T","T","T","T","T","T","T","T","T","T","T","T","T","T","T","T","T","T","T","T","T","T","T","T","T","T","T","T","T","T","T","T","T","T","T","T","T","T","T","T","T","T","T","T","T","T","T","T","T","T","T","T","T","T","T","T","T","T","T","T","T","T","T","T","T","T","T","T","T","T","T","T","T","T","T","T","T","T","T","T","T","T","T","T","T","T","T","T","T","T","T","T","T","T","T","T","T","T","T","T","T","T","T","T","T","T","T","T","T","T","T","T","T","T","T","T","T","T","T","T","T","T","T","T","T","T","T","T","T","T","T","T","T","T","T","T","T","T","T","T","T","T","T","T","T","T","T","T","T","T","T","T","T","T","T","T","T","T","T","T","T","T","T","T","T","T","T","T","T","T","T","T","T","T","T","T","T","T","T","T","T","T","T","T","T","T","T","T","T","T","T","T","T","T","T","T","T","T","T","T","?","?","U","U","U","U","U","U","U","U","U","?","?","?","?","?","?","V","V","V","V","V","V","V","V","V","V","V","V","V","?","?","?","W","W","W","W","W","W","W","W","W","W","W","W","W","W","W","W","W","W","W","W","W","?","?","?","V","V","V","V","V","V","V","V","V","V","V","V","?","?","?","?","?","?","?","?","?","?","?","U","U","U","U","U","U","T","T","?","S","S","?","?","?","?","?","?","?","?","?","?","?","?","?","S","S","S","S","S","S","S","S","S","S","S","S","S","S","S","S","S","S","S","S","S","S","S","S","S","S","S","S","S","S","S","S","S","S","S","S","S","S","S","S","S","S","S","S","S","S","S","S","S","S","S","S","S","S","S","S","S","S","S","S","S","S","S","S","S","S","S","S","S","S","S","S","S","S","S","S","S","S","S","S","S","S","S","S","S","S","S","S","S","S","S","S","S","S","S","S","S","S","S","S","S","S","S","S","S","S","S","S","S","S","S","S","S","S","S","S","S","S","S","S","S","S","S","S","S","S","S","S","S","S","S","S","S","S","S","S","S","S","S","S","S","S","S","S","S","S","S","S","S","S","S","S","S","S","S","S","S","S","S","S","S","S","S","S","S","S","S","S","S","S","S","S","S","S","S","S","S","?","T","T","T","T","T","?","U","U","U","U","?","?","?","?","?","?","?","?","?","?","?","?","?","?","?","?","?","?","?","?","?","?","?","?","?","?","?","?","?","?","?","?","?","?","?","?","?","?","?","?","?","?","?","V","V","V","V","V","V","V","V","V","V","V","V","V","V","V","V","V","V","V","V","V","V","V","V","V","V","V","V","V","V","V","V","V","V","V","V","V","V","V","V","V","V","V","V","V","V","V","V","V","V","V","V","V","V","V","V","V","V","V","V","V","V","V","V","V","V","V","V","V","V","V","V","V","V","V","V","V","V","V","V","V","V","V","V","V","V","V","V","V","V","V","V","V","V","V","V","V","V","V","V","V","V","V","V","V","V","V","V","V","V","V","V","V","V","V","V","V","V","V","V","V","V","V","V","V","V","V","V","V","V","V","V","V","V","V","V","V","V","V","V","V","V","V","V","V","V","V","V","V","V","V","V","V","V","V","V","V","V","V","V","V","V","V","V","V","V","V","V","V","V","V","V","V","V","V","V","V","V","V","V","V","V","V","V","V","V","V","V","V","V","V","V","V","V","V","V","V","V","V","V","V","V","V","V","V","V","V","V","V","V","V","V","V","V","V","V","V","V","V","V","V","V","V","V","V","V","V","V","V","V","V","V","V","V","V","V","V","V","V","V","V","V","V","V","V","V","V","V","V","V","V","V","V","V","?","U","U","U","U","U","U","U","U","U","U","U","U","U","U","U","U","U","U","U","U","U","U","U","U","U","U","U","U","U","U","U","U","U","U","U","U","U","U","U","U","U","U","U","U","U","U","U","U","U","U","U","U","U","U","U","U","U","U","U","U","U","U","U","U","U","U","U","U","U","U","U","U","U","U","U","U","U","U","U","U","U","U","U","U","U","U","U","U","U","U","U","U","U","U","U","U","U","U","U","U","U","?","?","V","V","V","V","V","V","V","V","V","V","V","V","V","V","V","V","V","V","V","V","V","V","V","V","V","V","V","V","V","V","V","V","V","V","V","V","V","V","V","V","V","V","V","V","V","V","V","V","V","V","V","V","V","V","V","V","V","V","V","V","V","V","V","V","V","V","V","V","V","V","V","V","V","V","V","V","V","V","V","V","V","V","V","V","V","V","V","V","V","V","V","V","V","V","V","V","V","?","?","?","?","?","?","?","?","?","?","N","N","N","N","N","N","N","N","N","N","N","N","N","N","N","N","N","N","N","N","N","N","N","N","N","N","N","N","N","N","N","N","N","N","N","N","N","N","N","N","?","?","?","?","V","V","V","V","V","V","V","V","V","V","V","V","V","V","V","V","V","V","V","V","V","V","V","V","V","V","V","V","V","V","V","V","V","V","V","V","V","V","V","V","V","V","V","V","V","V","V","V","V","V","V","V","V","V","V","V","V","V","V","V","V","V","V","V","V","V","V","V","V","V","V","V","V","V","V","V","V","V","V","V","V","V","V","V","V","V","V","?","?","?","?","?","?","?","?","?","?","N","N","N","N","N","N","N","N","N","N","N","N","N","N","N","N","N","N","N","N","N","N","N","N","N","N","N","N","N","N","N","N","N","N","N","N","N","N","N","N","N","N","N","N","N","N","N","N","N","N","N","N","N","N","N","N","N","N","N","N","N","N","N","N","N","N","N","N","N","N","N","N","N","N","N","N","N","N","N","N","N","N","N","N","N","N","N","N","N","N","N","N","N","N","N","N","N","N","N","N","N","N","N","N","N","N","N","N","N","N","N","N","N","N","N","N","N","N","N","N","N","N","N","N","N","N","N","N","N","N","N","N","N","N","N","N","N","N","N","N","N","N","N","N","N","N","N","N","N","N","N","N","N","N","N","N","N","N","N","N","N","N","N","N","N","N","N","N","N","N","N","N","N","N","N","N","N","N","N","N","N","N","N","N","N","N","N","N","N","N","N","N","N","?","?","?","?","?","?","?","?","D","D","D","D","D","D","D","D","D","D","D","D","D","D","D","D","D","D","D","D","D","D","D","D","D","D","D","D","D","D","D","D","D","D","D","D","D","D","D","D","D","D","D","D","D","D","D","D","D","D","D","D","D","D","D","D","D","D","D","D","D","D","D","D","D","D","D","D","D","D","D","D","D","D","D","D","D","D","D","D","D","D","D","D","D","D","D","D","D","D","D","D","D","D","D","D","D","D","D","D","D","D","D","D","D","D","D","D","D","D","D","D","D","D","D","D","D","?","E","?","F","F","F","F","F","F","F","F","F","F","F","F","F","F","?","?","?","?","?","?","F","F","F","F","F","F","F","F","F","F","F","F","F","F","F","F","F","F","F","F","F","F","F","F","F","F","F","F","F","F","F","F","F","F","F","F","F","F","F","F","F","F","F","F","F","F","F","F","F","F","F","F","F","F","F","F","F","F","F","F","F","F","F","F","F","F","F","F","F","F","F","F","F","F","F","F","F","F","F","F","F","F","F","F","F","F","F","F","F","F","F","F","F","F","F","F","F","F","F","F","F","F","F","F","F","F","F","F","F","F","F","F","F","F","F","F","F","F","F","F","F","F","F","F","F","F","F","F","F","F","F","F","F","F","F","F","F","F","F","F","F","F","F","F","F","F","F","F","F","F","F","F","F","F","F","F","F","F","F","F","F","F","F","F","F","F","F","F","F","F","F","F","F","F","F","F","F","F","F","F","F","F","F","F","F","F","F","F","F","F","F","F","F","F","F","F","F","F","F","F","F","F","F","F","F","F","F","F","F","F","F","F","F","F","F","F","F","F","F","F","?","?","?","M","?","?","?","?","K","K","K","K","K","K","K","K","K","K","K","K","K","K","K","K","K","K","K","K","K","K","K","K","K","?","?","?","?","?","?","?","?","?","?","?","?","J","J","J","J","J","J","J","J","J","J","J","J","J","J","J","J","J","J","J","J","J","J","J","J","J","J","J","J","J","J","J","J","J","J","J","J","J","J","J","J","J","J","J","J","J","J","J","J","J","J","J","J","J","J","J","J","J","J","J","J","J","J","J","J","J","J","J","J","J","J","J","J","J","J","J","J","J","J","J","J","J","J","J","J","J","J","J","J","J","J","J","J","J","J","J","J","J","J","J","J","J","J","J","J","J","J","J","J","J","J","J","J","J","J","J","J","J","J","J","J","J","J","J","J","J","J","J","J","J","J","J","?","K","K","K","K","K","K","K","K","K","K","K","K","K","K","K","K","K","K","K","K","K","K","K","K","K","K","K","K","K","K","K","K","K","K","K","K","K","K","K","K","K","K","K","K","K","K","K","K","K","K","K","K","K","K","K","K","K","K","K","K","K","K","K","K","K","K","K","K","K","K","K","K","K","K","K","K","K","K","K","K","K","K","K","K","L","?","?","?","?","W","W","W","?","?","X","?","?","?","?","?","?","?","?","?","?","?","?","?","?","?","?","?","?","?","W","W","W","W","W","W","W","W","W","W","W","W","W","W","W","W","W","W","?","?","?","L","L","K","K","K","K","?","?","?","?","?","?","?","?","?","?","?","?","B","B","B","B","B","B","B","B","B","B","B","B","B","B","B","B","B","B","B","B","B","B","B","B","B","B","B","B","B","B","B","B","B","B","B","B","B","B","B","B","B","B","B","B","B","B","B","B","B","B","B","B","B","B","B","B","B","B","B","B","B","B","B","B","B","B","B","B","B","B","B","B","B","B","B","B","B","B","B","B","B","B","B","B","B","B","B","B","B","B","B","B","B","B","B","B","B","B","B","B","B","B","B","B","B","B","B","B","B","B","B","B","B","B","B","B","B","B","B","B","B","B","C","?","?","O","P","?","Q","?","?","?","?","?","?","?","?","?","?","?","?","?","?","?","?","?","Z","Z","Z","Z","Z","Z","Z","Z","Z","Z","Z","Z","Z","Z","Z","Z","Z","Z","Z","Z","Z","Z","Z","Z","Z","Z","Z","Z","Z","Z","Z","Z","Z","Z","Z","Z","Z","Z","Z","Z","Z","Z","Z","Z","Z","Z","Z","Z","Z","Z","Z","Z","Z","Z","Z","Z","Z","Z","Z","Z","Z","Z","Z","Z","Z","Z","Z","Z","Z","Z","Z","Z","Z","Z","Z","Z","Z","Z","Z","Z","Z","Z","Z","Z","Z","Z","Z","Z","Z","Z","Z","Z","Z","Z","Z","Z","Z","Z","Z","Z","Z","Z","Z","Z","Z","Z","Z","Z","Z","Z","Z","Z","Z","Z","Z","Z","Z","Z","Z","Z","Z","Z","Z","Z","Z","Z","Z","Z","Z","Z","Z","Z","Z","Z","Z","Z","Z","Z","Z","Z","Z","Z","Z","Z","Z","Z","Z","Z","Z","Z","Z","Z","Z","Z","Z"],"t":[39,45,73,91,107,124,142,158,175,191,207,223,240,258,274,291,308,324,341,357,374,390,407,423,440,457,473,490,506,523,539,557,574,590,607,623,640,657,673,691,707,723,740,757,773,790,806,823,840,856,873,889,906,924,940,957,974,990,1007,1022,1038,1055,1072,1089,1107,1123,1140,1157,1173,1190,1206,1223,1240,1256,1273,1290,1307,1323,1340,1357,1373,1390,1407,1422,1440,1456,1473,1490,1506,1523,1540,1556,1573,1589,1605,1622,1639,1655,1672,1688,1705,1722,1738,1755,1772,1789,1805,1822,1838,1855,1872,1889,1906,1923,1939,1955,1972,1989,2005,2022,2039,2055,2072,2089,2105,2122,2139,2155,2173,2191,2206,2223,2240,2257,2273,2290,2306,2323,2340,2357,2373,2390,2405,2422,2440,2456,2473,2489,2506,2522,2539,2556,2572,2590,2607,2624,2639,2656,2675,2690,2706,2724,2741,2756,2773,2790,2807,2823,2839,2858,2873,2891,2906,2923,2940,2956,2974,2990,3007,3023,3039,3056,3073,3089,3106,3124,3140,3158,3174,3190,3208,3223,3240,3256,3273,3290,3306,3323,3340,3356,3373,3390,3405,3423,3440,3456,3473,3490,3507,3523,3539,3556,3572,3589,3606,3623,3640,3657,3672,3690,3706,3723,3739,3757,3773,3791,3807,3823,3839,3856,3873,3890,3906,3923,3939,3956,3973,3989,4006,4022,4040,4057,4073,4089,4106,4122,4140,4156,4173,4191,4206,4222,4239,4255,4272,4289,4306,4322,4339,4355,4372,4389,4405,4423,4439,4456,4473,4490,4507,4522,4538,4555,4572,4588,4606,4622,4640,4656,4673,4690,4706,4723,4739,4757,4773,4789,4806,4823,4840,4856,4873,4889,4906,4922,4939,4956,4973,4989,5006,5022,5040,5055,5072,5089,5106,5122,5140,5156,5173,5190,5207,5223,5240,5256,5273,5289,5306,5323,5339,5356,5373,5390,5407,5423,5438,5456,5472,5490,5506,5522,5539,5556,5571,5588,5605,5621,5638,5655,5671,5688,5705,5721,5738,5756,5771,5788,5805,5821,5838,5855,5872,5888,5905,5921,5938,5955,5972,5988,6007,6022,6040,6056,6072,6089,6106,6123,6139,6156,6173,6189,6206,6223,6239,6256,6273,6289,6306,6323,6340,6356,6374,6389,6406,6423,6440,6456,6472,6489,6507,6523,6539,6555,6573,6590,6606,6623,6639,6656,6673,6689,6706,6723,6739,6756,6773,6789,6806,6823,6839,6855,6872,6889,6906,6923,6939,6956,6973,6989,7006,7022,7039,7056,7073,7088,7105,7121,7138,7155,7172,7189,7205,7222,7240,7255,7273,7289,7307,7322,7340,7356,7373,7389,7406,7423,7440,7455,7474,7489,7506,7522,7539,7556,7573,7589,7606,7623,7640,7656,7672,7689,7705,7722,7739,7756,7772,7789,7805,7822,7840,7856,7873,7890,7906,7923,7939,7956,7973,7989,8005,8023,8040,8056,8073,8089,8106,8123,8139,8155,8172,8188,8205,8222,8240,8257,8274,8289,8307,8324,8340,8356,8373,8389,8407,8422,8440,8456,8474,8490,8506,8524,8540,8557,8574,8590,8608,8622,8641,8657,8673,8690,8706,8725,8740,8758,8775,8791,8807,8824,8840,8856,8874,8891,8907,8923,8940,8957,8973,8990,9006,9023,9040,9056,9074,9090,9107,9124,9139,9157,9173,9191,9207,9224,9239,9256,9274,9291,9305,9323,9339,9355,9372,9389,9405,9421,9438,9455,9471,9488,9505,9521,9538,9555,9571,9588,9605,9621,9638,9655,9672,9689,9705,9721,9738,9755,9772,9788,9805,9821,9838,9855,9871,9888,9904,9921,9938,9955,9972,9989,10005,10021,10038,10055,10072,10089,10105,10121,10138,10155,10171,10188,10204,10221,10238,10255,10271,10288,10305,10321,10338,10356,10371,10388,10404,10421,10438,10454,10471,10488,10505,10521,10538,10555,10571,10588,10605,10621,10638,10655,10671,10688,10705,10722,10739,10755,10771,10788,10805,10821,10838,10854,10871,10888,10905,10921,10938,10955,10971,10988,11005,11021,11038,11055,11071,11088,11105,11121,11138,11155,11171,11188,11205,11221,11238,11255,11271,11288,11305,11321,11338,11355,11371,11388,11405,11421,11438,11455,11471,11488,11504,11522,11538,11554,11572,11588,11605,11621,11638,11655,11671,11688,11705,11721,11738,11754,11771,11788,11805,11821,11838,11855,11872,11888,11905,11921,11938,11955,11971,11988,12004,12021,12038,12054,12071,12088,12104,12121,12138,12154,12171,12188,12205,12221,12238,12255,12271,12288,12304,12321,12338,12354,12371,12388,12404,12421,12438,12454,12471,12488,12504,12521,12539,12555,12572,12589,12605,12622,12638,12655,12672,12689,12705,12722,12738,12755,12772,12788,12805,12822,12838,12855,12872,12889,12905,12921,12938,12955,12971,12988,13007,13022,13039,13055,13071,13089,13105,13122,13138,13155,13172,13188,13205,13222,13238,13255,13272,13288,13305,13321,13338,13355,13371,13388,13405,13421,13438,13455,13471,13488,13504,13521,13538,13555,13571,13588,13605,13622,13638,13655,13672,13688,13705,13721,13738,13755,13772,13789,13805,13821,13838,13855,13871,13888,13905,13922,13938,13955,13972,13988,14005,14022,14038,14055,14072,14089,14105,14121,14138,14155,14171,14188,14205,14221,14238,14255,14272,14289,14305,14321,14338,14355,14372,14388,14404,14422,14438,14455,14472,14488,14505,14521,14538,14555,14572,14588,14604,14621,14638,14654,14671,14688,14704,14721,14738,14755,14771,14788,14805,14822,14838,14855,14871,14888,14904,14921,14938,14954,14971,14988,15005,15021,15038,15055,15071,15088,15105,15122,15138,15155,15172,15188,15205,15221,15238,15255,15271,15288,15304,15321,15338,15354,15371,15388,15405,15421,15438,15455,15471,15488,15505,15521,15538,15555,15572,15588,15605,15621,15638,15655,15671,15688,15705,15721,15738,15755,15771,15788,15805,15822,15838,15855,15871,15888,15905,15922,15939,15955,15972,15989,16005,16022,16038,16055,16071,16088,16105,16122,16138,16155,16171,16188,16205,16221,16238,16255,16271,16288,16305,16321,16338,16355,16371,16388,16404,16421,16438,16455,16471,16488,16505,16521,16538,16555,16571,16588,16605,16622,16638,16655,16673,16690,16707,16723,16738,16755,16771,16789,16806,16823,16839,16857,16873,16889,16906,16923,16940,16956,16973,16990,17008,17023,17040,17056,17074,17090,17105,17123,17140,17156,17173,17188,17205,17224,17239,17255,17273,17289,17306,17323,17339,17357,17371,17389,17406,17422,17440,17456,17473,17488,17505,17523,17540,17556,17573,17590,17606,17622,17638,17655,17673,17690,17705,17723,17739,17756,17774,17789,17806,17822,17838,17855,17871,17888,17905,17921,17939,17956,17972,17989,18006,18023,18039,18056,18072,18089,18106,18122,18139,18156,18173,18189,18206,18222,18240,18256,18272,18288,18307,18323,18340,18356,18373,18390,18406,18422,18440,18456,18473,18489,18505,18521,18539,18555,18573,18589,18605,18622,18638,18656,18672,18689,18706,18722,18739,18757,18773,18790,18805,18822,18839,18856,18872,18889,18906,18923,18938,18955,18972,18989,19006,19025,19039,19057,19073,19089,19106,19122,19139,19161,19172,19190,19207,19223,19240,19257,19273,19290,19305,19322,19339,19355,19372,19390,19406,19423,19439,19456,19473,19490,19504,19523,19540,19556,19573,19589,19606,19622,19639,19656,19673,19690,19706,19722,19740,19756,19772,19789,19805,19822,19839,19855,19873,19889,19906,19924,19939,19956,19973,19990,20006,20022,20039,20056,20073,20089,20106,20123,20140,20156,20172,20190,20206,20222,20238,20256,20273,20289,20306,20322,20338,20356,20373,20389,20406,20422,20439,20457,20472,20489,20507,20522,20539,20556,20572,20590,20605,20621,20639,20656,20673,20690,20706,20724,20739,20756,20774,20789,20807,20823,20839,20855,20872,20889,20906,20922,20939,20956,20972,20989,21006,21022,21040,21056,21072,21089,21105,21121,21138,21155,21173,21189,21206,21222,21238,21255,21272,21288,21305,21324,21339,21355,21372,21389,21405,21422,21439,21456,21473,21489,21504,21521,21537,21554,21571,21588,21606,21622,21639,21654,21671,21688,21705,21722,21739,21756,21772,21789,21806,21824,21840,21854,21873,21889,21906,21922,21941,21955,21974,21991,22007,22023,22038,22055,22072,22088,22105,22121,22139,22155,22172,22189,22206,22223,22238,22257,22272,22289,22307,22322,22341,22355,22374,22388,22405,22422,22439,22456,22472,22489,22505,22523,22539,22556,22573,22589,22605,22622,22639,22656,22673,22691,22707,22722,22741,22756,22772,22789,22805,22822,22840,22855,22871,22889,22906,22923,22939,22955,22974,22989,23005,23023,23039,23055,23071,23089,23106,23122,23139,23156,23173,23189,23206,23223,23238,23256,23272,23290,23306,23323,23339,23355,23373,23388,23405,23422,23438,23456,23473,23489,23506,23522,23538,23557,23572,23589,23606,23622,23638,23656,23672,23689,23705,23722,23740,23756,23773,23789,23806,23822,23839,23856,23872,23889,23905,23923,23938,23956,23972,23989,24006,24023,24040,24056,24073,24089,24106,24122,24139,24156,24172,24188,24206,24222,24240,24256,24272,24289,24306,24323,24339,24357,24373,24389,24405,24421,24438,24457,24473,24489,24506,24522,24539,24556,24572,24588,24605,24621,24637,24654,24671,24687,24704,24721,24737,24754,24771,24787,24804,24820,24837,24854,24871,24887,24905,24921,24938,24954,24970,24987,25004,25021,25037,25054,25071,25087,25104,25120,25137,25154,25171,25188,25204,25221,25237,25254,25270,25287,25304,25320,25337,25354,25371,25387,25404,25421,25437,25454,25470,25487,25504,25520,25537,25554,25570,25587,25604,25620,25637,25654,25671,25687,25704,25721,25737,25754,25771,25787,25804,25820,25837,25854,25871,25887,25904,25920,25937,25954,25971,25988,26004,26021,26038,26054,26070,26087,26104,26121,26137,26154,26170,26187,26204,26220,26237,26254,26271,26287,26304,26320,26337,26354,26370,26387,26404,26421,26437,26454,26470,26487,26504,26521,26537,26554,26571,26587,26604,26621,26637,26654,26671,26687,26704,26720,26737,26754,26770,26787,26804,26820,26837,26854,26870,26887,26904,26921,26937,26954,26970,26987,27004,27021,27038,27054,27070,27087,27104,27121,27137,27154,27170,27187,27204,27220,27237,27254,27270,27287,27304,27321,27337,27354,27370,27387,27405,27420,27438,27454,27470,27487,27504,27521,27537,27554,27571,27587,27604,27620,27637,27654,27671,27687,27704,27720,27737,27754,27771,27788,27804,27821,27838,27854,27870,27887,27904,27920,27937,27954,27970,27987,28004,28020,28037,28054,28070,28087,28104,28120,28137,28154,28170,28187,28204,28221,28237,28254,28270,28287,28304,28321,28337,28354,28370,28388,28404,28421,28438,28454,28471,28487,28504,28520,28537,28554,28571,28587,28604,28621,28637,28654,28670,28687,28704,28721,28737,28754,28771,28787,28804,28821,28837,28854,28871,28887,28904,28921,28937,28954,28971,28987,29004,29021,29037,29054,29071,29087,29104,29121,29137,29154,29171,29187,29204,29220,29237,29254,29271,29287,29304,29320,29337,29354,29371,29387,29404,29420,29437,29454,29470,29487,29504,29521,29537,29554,29570,29587,29605,29622,29639,29655,29671,29688,29704,29723,29739,29755,29772,29789,29806,29822,29839,29856,29872,29889,29906,29922,29938,29954,29972,29989,30006,30022,30039,30056,30072,30088,30105,30122,30139,30154,30172,30189,30206,30221,30239,30256,30272,30288,30305,30322,30339,30355,30371,30387,30404,30421,30437,30454,30471,30487,30504,30521,30539,30555,30572,30589,30606,30622,30639,30655,30671,30689,30705,30721,30739,30756,30772,30789,30805,30822,30839,30855,30872,30889,30905,30922,30938,30955,30972,30988,31006,31022,31039,31055,31072,31089,31105,31122,31139,31154,31171,31188,31205,31222,31239,31255,31272,31288,31305,31322,31341,31356,31372,31389,31405,31422,31438,31456,31472,31489,31506,31522,31539,31554,31572,31588,31605,31622,31639,31655,31672,31688,31705,31722,31739,31755,31773,31789,31805,31822,31839,31855,31872,31889,31905,31922,31939,31955,31972,31989,32005,32022,32039,32055,32072,32089,32105,32123,32138,32155,32172,32188,32205,32222,32237,32256,32273,32289,32305,32322,32339,32355,32371,32389,32406,32422,32440,32456,32472,32490,32506,32524,32539,32555,32572,32589,32605,32622,32638,32655,32672,32688,32705,32721,32739,32755,32772,32788,32805,32822,32839,32856,32872,32889,32906,32921,32939,32955,32972,32989,33006,33022,33039,33056,33072,33089,33105,33122,33138,33156,33171,33188,33206,33222,33238,33255,33273,33290,33305,33322,33339,33354,33372,33388,33406,33421,33438,33456,33472,33489,33504,33522,33539,33556,33570,33589,33605,33622,33638,33655,33671,33689,33706,33721,33739,33755,33771,33788,33805,33822,33838,33855,33872,33888,33905,33922,33939,33956,33972,33989,34006,34022,34039,34054,34073,34089,34106,34121,34139,34156,34173,34189,34205,34222,34239,34256,34272,34289,34305,34321,34338,34355,34372,34389,34405,34421,34438,34455,34472,34489,34505,34522,34539,34555,34572,34589,34606,34622,34639,34654,34671,34689,34705,34722,34739,34755,34772,34789,34806,34822,34839,34855,34872,34889,34905,34922,34938,34956,34971,34989,35006,35022,35040,35055,35071,35087,35104,35121,35138,35155,35172,35188,35204,35223,35239,35255,35271,35288,35305,35321,35338,35356,35372,35389,35406,35423,35438,35456,35472,35489,35505,35522,35539,35555,35572,35587,35605,35621,35639,35654,35671,35688,35704,35722,35737,35754,35772,35789,35805,35822,35838,35855,35872,35888,35905,35921,35938,35955,35972,35989,36005,36022,36038,36055,36072,36088,36105,36122,36138,36155,36171,36189,36205,36222,36238,36255,36271,36288,36306,36322,36339,36355,36372,36389,36405,36422,36438,36455,36471,36488,36505,36522,36538,36555,36571,36588,36605,36622,36638,36655,36672,36688,36704,36722,36739,36755,36772,36789,36805,36821,36839,36855,36872,36888,36905,36922,36938,36955,36972,36988,37005,37021,37038,37055,37072,37087,37105,37121,37139,37155,37172,37188,37205,37223,37239,37254,37271,37288,37305,37323,37338,37355,37372,37389,37405,37422,37438,37455,37472,37489,37505,37522,37539,37555,37571,37590,37603,37622,37638,37654,37671,37688,37705,37722,37738,37755,37771,37788,37806,37822,37839,37855,37873,37888,37906,37922,37938,37956,37973,37988,38006,38022,38038,38055,38072,38087,38103,38120,38137,38154,38171,38189,38205,38221,38238,38255,38272,38288,38305,38322,38337,38355,38372,38388,38404,38422,38438,38455,38471,38487,38504,38521,38539,38555,38571,38588,38605,38622,38638,38655,38671,38687,38704,38722,38738,38754,38771,38788,38805,38823,38838,38855,38873,38888,38905,38921,38938,38956,38971,38988,39006,39022,39039,39054,39072,39088,39105,39122,39138,39155,39171,39187,39203,39220,39236,39254,39271,39287,39303,39321,39337,39354,39372,39388,39405,39421,39439,39455,39472,39489,39505,39521,39538,39556,39572,39588,39603,39622,39638,39655,39672,39688,39705,39721,39737,39754,39770,39787,39803,39820,39837,39853,39871,39889,39905,39922,39939,39955,39972,39989,40005,40022,40038,40055,40073,40088,40104,40123,40139,40156,40172,40189,40204,40222,40238,40255,40272,40288,40305,40321,40338,40355,40371,40388,40405,40422,40438,40455,40472,40488,40506,40522,40538,40556,40572,40589,40605,40622,40637,40655,40673,40688,40706,40721,40738,40754,40773,40788,40804,40821,40838,40856,40870,40888,40906,40922,40939,40956,40972,40989,41005,41024,41038,41056,41072,41088,41104,41120,41137,41154,41170,41188,41205,41222,41238,41253,41271,41288,41304,41321,41338,41355,41370,41388,41404,41421,41438,41455,41474,41488,41506,41521,41538,41555,41572,41588,41603,41621,41638,41655,41672,41689,41705,41721,41738,41755,41771,41787,41806,41821,41837,41855,41872,41888,41904,41922,41938,41955,41971,41988,42005,42021,42040,42054,42070,42087,42103,42120,42137,42154,42171,42189,42205,42221,42239,42255,42272,42287,42304,42321,42338,42354,42372,42388,42406,42422,42438,42455,42472,42489,42505,42522,42539,42555,42572,42589,42605,42621,42639,42654,42672,42690,42704,42721,42738,42754,42774,42788,42804,42822,42837,42856,42870,42887,42905,42921,42938,42954,42971,42989,43005,43022,43038,43055,43071,43087,43103,43121,43138,43155,43171,43188,43205,43221,43238,43255,43272,43289,43305,43322,43337,43355,43372,43388,43405,43421,43438,43454,43471,43488,43505,43521,43538,43555,43572,43589,43603,43620,43637,43655,43671,43688,43705,43723,43737,43756,43772,43788,43805,43822,43838,43854,43872,43887,43904,43922,43938,43955,43972,43988,44004,44022,44038,44056,44072,44088,44105,44121,44138,44155,44172,44188,44205,44221,44237,44255,44271,44288,44306,44321,44338,44354,44371,44387,44405,44422,44438,44455,44472,44487,44505,44520,44537,44553,44569,44586,44603,44620,44636,44653,44669,44686,44703,44720,44736,44753,44770,44787,44803,44819,44836,44853,44870,44886,44904,44921,44937,44955,44971,44988,45006,45022,45039,45055,45072,45087,45103,45120,45138,45155,45171,45188,45205,45222,45238,45255,45271,45288,45304,45321,45338,45353,45370,45388,45406,45422,45439,45455,45471,45488,45506,45522,45538,45555,45571,45589,45605,45620,45638,45654,45671,45688,45705,45722,45739,45755,45771,45788,45804,45821,45839,45855,45871,45887,45903,45919,45936,45953,45969,45986,46003,46020,46036,46054,46071,46088,46105,46122,46138,46155,46172,46187,46205,46222,46238,46254,46271,46288,46304,46321,46337,46354,46370,46387,46404,46422,46438,46455,46471,46488,46505,46521,46538,46555,46571,46588,46605,46621,46639,46655,46671,46689,46705,46720,46736,46753,46770,46787,46804,46821,46838,46854,46871,46888,46905,46921,46939,46954,46971,46988,47004,47021,47038,47055,47071,47088,47105,47121,47138,47155,47172,47188,47205,47221,47238,47255,47271,47288,47305,47322,47338,47355,47370,47386,47403,47420,47438,47455,47471,47488,47505,47521,47538,47554,47572,47589,47605,47621,47636,47655,47671,47689,47704,47722,47739,47755,47772,47787,47804,47821,47838,47855,47872,47888,47905,47921,47938,47955,47970,47987,48005,48021,48038,48055,48071,48087,48105,48121,48138,48154,48170,48187,48203,48220,48238,48255,48271,48288,48305,48321,48339,48355,48371,48389,48404,48421,48437,48454,48471,48487,48503,48520,48537,48555,48571,48588,48604,48621,48637,48656,48671,48689,48704,48721,48737,48755,48771,48789,48804,48821,48838,48854,48871,48888,48904,48921,48937,48953,48971,48986,49003,49020,49037,49055,49071,49087,49104,49120,49138,49155,49170,49186,49205,49221,49239,49255,49271,49286,49303,49320,49337,49354,49370,49387,49405,49422,49438,49454,49471,49487,49505,49521,49537,49554,49571,49588,49605,49621,49638,49653,49671,49687,49705,49721,49738,49756,49771,49787,49804,49822,49837,49853,49870,49886,49903,49920,49937,49953,49970,49986,50003,50020,50036,50054,50071,50088,50103,50122,50138,50155,50172,50188,50207,50221,50238,50253,50270,50288,50304,50321,50337,50354,50371,50388,50404,50420,50437,50453,50470,50488,50505,50521,50539,50554,50571,50588,50605,50620,50636,50653,50670,50686,50703,50720,50736,50753,50769,50786,50803,50820,50836,50853,50870,50887,50903,50920,50936,50953,50970,50987,51003,51020,51036,51053,51069,51086,51103,51120,51136,51153,51170,51186,51203,51219,51237,51254,51272,51287,51304,51321,51338,51355,51373,51388,51405,51421,51437,51453,51470,51489,51505,51522,51537,51554,51571,51588,51604,51622,51638,51655,51671,51687,51705,51722,51737,51755,51770,51787,51806,51820,51838,51854,51870,51888,51904,51921,51938,51955,51972,51986,52004,52021,52037,52053,52070,52087,52104,52120,52138,52153,52170,52188,52204,52220,52238,52255,52271,52289,52305,52320,52338,52354,52371,52390,52404,52421,52437,52453,52470,52488,52505,52521,52537,52554,52570,52589,52605,52620,52638,52654,52671,52688,52704,52721,52738,52755,52772,52787,52804,52821,52838,52855,52871,52887,52905,52920,52938,52954,52971,52988,53004,53021,53038,53055,53070,53088,53104,53120,53138,53154,53170,53186,53203,53221,53238,53255,53271,53287,53304,53321,53337,53353,53372,53388,53404,53421,53437,53454,53471,53487,53505,53520,53537,53555,53570,53587,53604,53620,53637,53654,53671,53688,53704,53721,53737,53754,53771,53787,53804,53821,53838,53854,53870,53888,53904,53921,53937,53955,53970,53988,54004,54021,54038,54055,54071,54088,54104,54122,54137,54153,54171,54187,54204,54222,54238,54254,54271,54288,54305,54320,54338,54355,54371,54388,54404,54421,54437,54455,54471,54486,54503,54520,54536,54553,54570,54586,54604,54620,54636,54654,54671,54687,54703,54720,54738,54754,54772,54788,54804,54821,54837,54855,54871,54886,54904,54921,54938,54955,54971,54988,55005,55021,55038,55054,55071,55087,55104,55120,55137,55153,55170,55187,55204,55221,55238,55255,55271,55288,55304,55321,55338,55354,55371,55388,55403,55420,55438,55455,55471,55488,55504,55521,55537,55554,55570,55588,55604,55620,55638,55654,55669,55688,55704,55721,55738,55755,55771,55787,55803,55821,55837,55854,55871,55888,55904,55921,55938,55955,55971,55988,56004,56020,56039,56054,56071,56088,56105,56121,56137,56155,56170,56188,56203,56221,56236,56255,56271,56288,56305,56321,56338,56354,56371,56388,56405,56420,56437,56454,56470,56487,56504,56521,56538,56554,56571,56587,56604,56621,56638,56654,56671,56687,56704,56721,56738,56754,56770,56787,56805,56821,56836,56853,56871,56887,56904,56920,56937,56954,56971,56987,57005,57021,57037,57054,57070,57088,57104,57120,57138,57153,57171,57187,57204,57220,57237,57254,57271,57287,57304,57322,57337,57354,57371,57388,57404,57422,57438,57454,57471,57487,57504,57521,57537,57553,57570,57587,57604,57621,57637,57654,57673,57686,57704,57721,57737,57754,57771,57788,57803,57821,57837,57853,57872,57886,57903,57921,57936,57954,57970,57987,58005,58021,58038,58054,58070,58087,58106,58122,58138,58153,58170,58188,58204,58220,58236,58252,58269,58287,58302,58320,58337,58354,58372,58387,58404,58421,58437,58454,58471,58487,58505,58520,58538,58554,58570,58588,58604,58621,58637,58654,58671,58687,58704,58721,58737,58753,58772,58787,58804,58820,58837,58854,58870,58887,58904,58921,58938,58955,58971,58987,59004,59020,59037,59052,59070,59088,59104,59121,59137,59154,59172,59187,59203,59221,59237,59255,59270,59287,59304,59320,59336,59354,59371,59388,59404,59421,59438,59454,59470,59487,59504,59520,59537,59554,59570,59588,59604,59621,59637,59654,59671,59687,59705,59721,59737,59754,59770,59788,59804,59820,59837,59854,59870,59887,59903,59920,59938,59954,59971,59987,60004,60021,60037,60053,60071,60087,60104,60121,60137,60153,60169,60186,60206,60221,60237,60255,60271,60287,60303,60321,60337,60354,60370,60387,60404,60421,60438,60454,60470,60488,60503,60520,60538,60554,60570,60587,60605,60620,60638,60654,60671,60688,60704,60720,60738,60754,60772,60787,60803,60821,60836,60854,60871,60887,60905,60920,60937,60955,60970,60987,61004,61021,61038,61054,61071,61088,61104,61121,61137,61154,61171,61187,61204,61220,61238,61254,61270,61288,61304,61320,61337,61354,61370,61389,61404,61420,61437,61454,61471,61487,61504,61521,61538,61553,61571,61586,61603,61619,61636,61652,61669,61686,61703,61719,61736,61752,61769,61786,61802,61819,61836,61852,61869,61886,61902,61919,61936,61952,61969,61986,62003,62019,62036,62053,62069,62085,62102,62119,62136,62152,62170,62188,62203,62221,62238,62255,62271,62287,62304,62320,62337,62353,62369,62388,62404,62420,62438,62455,62471,62486,62505,62521,62537,62554,62572,62587,62604,62620,62636,62653,62670,62687,62704,62720,62737,62753,62771,62787,62804,62820,62837,62853,62870,62887,62904,62921,62937,62954,62970,62987,63004,63020,63037,63053,63071,63086,63103,63119,63137,63155,63171,63188,63204,63221,63237,63254,63271,63287,63304,63321,63337,63354,63370,63386,63405,63421,63437,63454,63471,63487,63504,63522,63537,63554,63570,63587,63604,63620,63637,63654,63669,63687,63705,63721,63735,63754,63771,63787,63804,63820,63837,63854,63870,63887,63904,63920,63937,63954,63970,63987,64004,64020,64037,64054,64071,64087,64104,64120,64137,64154,64171,64186,64203,64221,64237,64255,64271,64287,64304,64321,64338,64354,64371,64387,64403,64421,64437,64454,64471,64488,64503,64519,64536,64552,64569,64586,64602,64619,64636,64653,64669,64685,64703,64721,64736,64752,64771,64786,64804,64821,64837,64855,64871,64887,64905,64922,64937,64954,64970,64988,65004,65021,65038,65055,65071,65087,65103,65119,65136,65152,65171,65189,65204,65219,65236,65253,65270,65288,65304,65321,65338,65354,65371,65387,65404,65422,65436,65452,65469,65487,65503,65519,65535,65553,65569,65586,65602,65619,65636,65652,65669,65685,65702,65719,65735,65752,65769,65785,65802,65818,65835,65852,65869,65885,65902,65918,65935,65952,65969,65985,66002,66019,66036,66052,66070,66088,66104,66120,66137,66153,66172,66187,66204,66220,66237,66253,66271,66287,66304,66321,66336,66354,66370,66387,66403,66420,66437,66454,66469,66486,66503,66520,66538,66553,66570,66587,66604,66620,66637,66653,66671,66687,66704,66720,66737,66754,66771,66787,66804,66820,66837,66853,66870,66887,66903,66920,66937,66954,66970,66988,67004,67020,67037,67054,67070,67088,67104,67120,67137,67154,67170,67187,67204,67220,67237,67254,67270,67287,67304,67320,67337,67354,67370,67388,67404,67420,67436,67453,67469,67486,67502,67519,67536,67552,67569,67586,67602,67619,67637,67654,67670,67687,67704,67720,67737,67753,67769,67787,67804,67820,67836,67853,67871,67886,67904,67920,67937,67954,67971,67987,68004,68020,68037,68054,68071,68087,68104,68120,68137,68154,68170,68186,68203,68220,68237,68254,68270,68286,68302,68318,68336,68354,68370,68387,68404,68420,68437,68454,68470,68487,68503,68519,68536,68553,68570,68586,68603,68620,68637,68653,68670,68687,68703,68720,68737,68753,68771,68788,68804,68821,68837,68853,68871,68887,68903,68920,68937,68954,68970,68987,69005,69020,69038,69054,69070,69087,69104,69120,69137,69153,69170,69187,69204,69221,69236,69254,69270,69286,69303,69320,69336,69353,69370,69387,69404,69421,69437,69454,69469,69486,69502,69518,69535,69552,69568,69585,69602,69618,69635,69652,69668,69685,69702,69718,69735,69752,69768,69785,69802,69818,69835,69852,69868,69885,69902,69918,69935,69952,69968,69985,70002,70018,70035,70052,70068,70085,70102,70118,70135,70152,70168,70185,70202,70218,70235,70252,70268,70285,70302,70318,70335,70352,70368,70385,70402,70418,70435,70452,70468,70485,70502,70518,70535,70552,70568,70585,70602,70619,70635,70652,70668,70685,70702,70719,70735,70752,70768,70785,70802,70818,70835,70852,70868,70885,70902,70918,70935,70952,70968,70985,71001,71018,71035,71052,71068,71085,71101,71118,71135,71152,71168,71185,71202,71218,71235,71252,71268,71285,71302,71318,71335,71352,71368,71385,71402,71418,71435,71452,71468,71485,71502,71518,71535,71553,71568,71585,71602,71618,71635,71652,71668,71685,71702,71718,71735,71752,71768,71785,71802,71818,71835,71852,71868,71885,71902,71918,71935,71952,71968,71985,72001,72018,72035,72052,72068,72085,72102,72118,72135,72151,72168,72185,72201,72218,72235,72251,72268,72285,72301,72318,72335,72351,72368,72385,72402,72418,72435,72451,72468,72485,72501,72519,72535,72552,72569,72585,72602,72618,72635,72652,72668,72685,72702,72718,72735,72752,72768,72785,72802,72818,72835,72852,72868,72885,72902,72918,72936,72952,72969,72985,73002,73019,73035,73052,73069,73085,73102,73119,73136,73152,73169,73185,73202,73218,73235,73252,73269,73285,73302,73318,73335,73352,73369,73385,73402,73419,73436,73452,73469,73485,73502,73518,73535,73552,73569,73585,73602,73618,73635,73652,73668,73685,73702,73718,73735,73752,73769,73785,73802,73819,73835,73852,73868,73885,73902,73919,73935,73952,73969,73985,74002,74019,74036,74052,74069,74085,74102,74119,74135,74152,74169,74185,74202,74219,74235,74252,74268,74285,74302,74318,74335,74352,74368,74385,74402,74418,74436,74452,74469,74485,74502,74518,74535,74552,74568,74585,74602,74618,74635,74652,74668,74685,74701,74718,74735,74752,74768,74785,74802,74818,74835,74852,74869,74886,74902,74919,74936,74952,74969,74985,75003,75018,75035,75052,75068,75085,75102,75118,75135,75151,75168,75185,75202,75218,75235,75252,75270,75287,75303,75320,75336,75353,75370,75386,75406,75420,75436,75453,75470,75487,75502,75519,75536,75553,75569,75586,75603,75619,75636,75653,75669,75685,75703,75719,75737,75753,75769,75787,75801,75819,75836,75853,75870,75887,75903,75921,75936,75953,75970,75986,76002,76020,76037,76053,76069,76086,76103,76120,76136,76153,76170,76186,76203,76220,76237,76252,76270,76286,76302,76320,76337,76353,76370,76385,76403,76419,76436,76454,76470,76486,76502,76519,76537,76553,76569,76586,76603,76620,76636,76653,76669,76685,76703,76720,76736,76755,76770,76786,76802,76820,76836,76853,76870,76887,76903,76919,76935,76953,76970,76987,77003,77020,77036,77054,77070,77087,77103,77121,77136,77153,77171,77186,77203,77220,77237,77254,77269,77287,77304,77320,77336,77353,77370,77387,77403,77420,77436,77453,77470,77487,77502,77519,77536,77552,77570,77585,77603,77619,77636,77652,77669,77685,77704,77718,77735,77751,77768,77785,77801,77818,77836,77854,77869,77887,77903,77920,77937,77953,77970,77987,78002,78020,78036,78054,78070,78087,78103,78121,78136,78153,78169,78186,78203,78220,78236,78254,78270,78287,78303,78319,78335,78352,78368,78385,78402,78420,78436,78453,78470,78487,78502,78519,78536,78553,78569,78587,78603,78620,78637,78652,78668,78685,78703,78719,78735,78752,78770,78786,78803,78820,78836,78853,78870,78886,78903,78919,78936,78953,78970,78987,79003,79020,79036,79053,79070,79086,79102,79120,79136,79153,79169,79185,79201,79218,79235,79251,79269,79285,79302,79318,79334,79351,79368,79384,79401,79419,79436,79453,79470,79488,79503,79520,79536,79553,79570,79586,79603,79620,79637,79653,79669,79685,79701,79719,79736,79752,79768,79786,79801,79819,79837,79853,79868,79885,79901,79919,79937,79953,79970,79987,80003,80019,80036,80053,80069,80087,80103,80120,80137,80153,80170,80186,80203,80220,80236,80253,80270,80286,80303,80320,80336,80353,80370,80386,80402,80419,80436,80451,80470,80486,80503,80520,80536,80553,80570,80586,80603,80619,80636,80652,80669,80686,80703,80719,80736,80753,80769,80785,80802,80820,80836,80853,80869,80885,80901,80918,80934,80952,80969,80986,81003,81020,81036,81053,81070,81086,81103,81120,81137,81153,81170,81186,81203,81220,81237,81253,81270,81286,81304,81319,81336,81353,81370,81385,81403,81422,81437,81453,81470,81486,81503,81520,81536,81553,81570,81586,81602,81619,81636,81654,81669,81686,81703,81720,81736,81752,81770,81787,81801,81818,81835,81852,81870,81887,81902,81920,81936,81953,81970,81986,82002,82018,82035,82053,82070,82086,82102,82118,82135,82152,82168,82185,82202,82220,82237,82252,82269,82286,82301,82320,82336,82352,82370,82386,82403,82420,82437,82452,82469,82487,82503,82520,82537,82553,82570,82587,82603,82620,82636,82652,82668,82686,82702,82719,82738,82752,82770,82786,82802,82820,82835,82851,82870,82885,82903,82920,82936,82952,82969,82987,83002,83020,83036,83054,83069,83087,83102,83119,83135,83151,83169,83187,83203,83220,83236,83252,83270,83286,83302,83321,83336,83353,83370,83386,83405,83420,83438,83454,83469,83486,83503,83519,83536,83552,83569,83586,83602,83619,83635,83652,83671,83685,83702,83720,83737,83752,83769,83786,83803,83818,83834,83852,83868,83885,83902,83919,83936,83953,83969,83986,84003,84020,84036,84053,84069,84086,84103,84120,84136,84153,84170,84186,84203,84220,84236,84252,84270,84287,84303,84320,84336,84352,84370,84386,84403,84419,84435,84453,84470,84487,84503,84520,84536,84553,84569,84585,84602,84618,84635,84651,84668,84685,84701,84718,84735,84751,84768,84784,84801,84818,84834,84851,84868,84885,84901,84918,84935,84952,84968,84985,85001,85017,85035,85051,85068,85084,85101,85118,85134,85151,85168,85184,85201,85218,85234,85251,85267,85284,85301,85318,85334,85351,85367,85384,85401,85417,85434,85451,85468,85484,85501,85517,85534,85551,85568,85584,85601,85618,85634,85651,85668,85684,85701,85718,85735,85751,85769,85784,85801,85817,85834,85851,85868,85884,85901,85917,85934,85951,85968,85984,86002,86018,86034,86051,86068,86084,86101,86118,86135,86152,86168,86184,86201,86217,86234,86251,86267,86284,86301,86317,86334,86351,86368,86384,86401,86417,86434,86451,86467,86484,86501,86518,86534,86551,86568,86584,86601,86618,86634,86651,86668,86685,86701,86718,86734,86751,86768,86784,86801,86818,86834,86851,86868,86884,86901,86917,86934,86951,86967,86984,87001,87018,87034,87051,87067,87084,87101,87117,87134,87151,87167,87184,87201,87218,87235,87251,87268,87284,87301,87317,87334,87351,87367,87384,87401,87418,87434,87451,87468,87484,87501,87518,87534,87551,87568,87584,87601,87618,87634,87651,87668,87684,87701,87717,87734,87751,87768,87784,87801,87817,87834,87852,87867,87884,87901,87917,87934,87951,87967,87984,88001,88018,88034,88051,88067,88084,88101,88118,88134,88151,88168,88184,88201,88217,88234,88251,88267,88284,88301,88318,88334,88351,88368,88384,88401,88417,88434,88451,88468,88484,88501,88517,88534,88551,88567,88584,88601,88617,88634,88651,88668,88684,88701,88718,88734,88751,88768,88784,88801,88818,88834,88851,88867,88884,88901,88918,88934,88951,88967,88984,89001,89018,89034,89051,89067,89084,89101,89118,89134,89151,89167,89184,89201,89217,89234,89251,89268,89284,89301,89318,89335,89351,89367,89384,89401,89418,89434,89451,89468,89484,89501,89517,89534,89551,89567,89584,89601,89617,89634,89651,89668,89684,89701,89718,89735,89752,89769,89784,89803,89819,89836,89853,89867,89885,89903,89919,89936,89951,89968,89985,90002,90019,90035,90053,90068,90085,90102,90119,90136,90152,90169,90186,90202,90219,90235,90252,90269,90285,90302,90319,90335,90352,90369,90386,90403,90419,90436,90453,90469,90486,90503,90519,90536,90553,90569,90586,90602,90619,90636,90652,90669,90686,90702,90719,90736,90753,90769,90786,90803,90819,90838,90852,90868,90886,90903,90919,90936,90952,90969,90985,91003,91019,91036,91052,91069,91085,91103,91119,91136,91152,91169,91185,91202,91218,91235,91251,91268,91286,91302,91319,91336,91351,91369,91385,91403,91419,91437,91453,91469,91486,91503,91520,91535,91552,91568,91585,91602,91620,91636,91652,91669,91685,91702,91719,91735,91752,91768,91786,91802,91819,91837,91851,91868,91886,91902,91919,91936,91952,91969,91986,92003,92020,92036,92053,92069,92086,92102,92119,92136,92153,92169,92186,92203,92219,92236,92252,92269,92285,92303,92319,92336,92352,92369,92386,92402,92419,92435,92452,92469,92485,92502,92519,92543,92568,92584,92601,92617,92634,92651,92668,92685,92701,92717,92736,92752,92769,92785,92801,92819,92835,92852,92868,92885,92902,92919,92935,92952,92969,92985,93002,93019,93035,93052,93068,93086,93102,93118,93135,93152,93168,93186,93202,93218,93235,93251,93269,93285,93302,93318,93335,93352,93368,93386,93402,93419,93435,93451,93468,93485,93502,93519,93536,93552,93568,93585,93601,93618,93636,93652,93669,93686,93702,93718,93736,93752,93768,93785,93802,93819,93834,93850,93867,93884,93901,93918,93935,93952,93968,93986,94001,94018,94035,94051,94069,94085,94101,94118,94135,94151,94168,94185,94202,94218,94235,94252,94268,94285,94301,94318,94336,94352,94369,94386,94401,94418,94435,94451,94468,94485,94502,94519,94535,94551,94568,94584,94602,94619,94635,94651,94668,94686,94702,94718,94735,94752,94768,94785,94802,94818,94835,94852,94868,94886,94902,94918,94935,94952,94968,94986,95002,95018,95034,95051,95068,95086,95101,95119,95134,95151,95167,95185,95202,95219,95235,95252,95269,95285,95302,95318,95334,95351,95368,95386,95401,95419,95435,95451,95468,95485,95501,95518,95535,95551,95569,95584,95600,95618,95635,95652,95668,95685,95702,95718,95734,95751,95768,95785,95802,95818,95834,95851,95867,95884,95901,95918,95935,95952,95968,95986,96001,96018,96035,96051,96068,96085,96101,96118,96135,96152,96168,96185,96201,96218,96235,96251,96268,96285,96302,96318,96335,96351,96367,96385,96402,96418,96435,96452,96468,96485,96501,96520,96535,96551,96568,96586,96603,96619,96636,96652,96669,96686,96702,96719,96736,96753,96769,96785,96803,96819,96836,96852,96869,96886,96901,96920,96936,96953,96970,96987,97002,97019,97036,97053,97069,97086,97103,97119,97136,97151,97169,97185,97202,97219,97236,97252,97269,97285,97303,97320,97335,97352,97368,97384,97402,97419,97435,97452,97469,97485,97502,97520,97535,97552,97570,97585,97603,97620,97636,97653,97668,97686,97702,97719,97735,97752,97768,97786,97801,97818,97835,97853,97869,97884,97902,97919,97935,97953,97969,97986,98002,98019,98036,98052,98069,98086,98102,98118,98135,98153,98168,98186,98202,98219,98236,98253,98269,98286,98303,98318,98334,98352,98368,98385,98401,98419,98435,98452,98468,98484,98500,98518,98534,98551,98568,98585,98602,98619,98636,98652,98669,98686,98702,98720,98735,98752,98768,98786,98802,98819,98836,98853,98868,98886,98902,98919,98936,98952,98968,98986,99002,99019,99035,99051,99069,99085,99102,99118,99135,99152,99169,99185,99201,99218,99235,99252,99268,99285,99302,99318,99335,99351,99368,99385,99402,99418,99434,99452,99469,99485,99503,99519,99535,99552,99569,99585,99602,99619,99635,99652,99668,99686,99702,99719,99735,99752,99769,99786,99802,99820,99836,99852,99870,99884,99902,99919,99935,99952,99968,99986,100002,100018,100035,100051,100069,100085,100102,100118,100135,100152,100168,100185,100202,100218,100235,100252,100269,100285,100301,100318,100335,100352,100369,100385,100402,100419,100436,100451,100469,100485,100502,100519,100535,100554,100568,100585,100602,100618,100636,100651,100669,100686,100702,100718,100734,100751,100768,100786,100802,100819,100835,100851,100868,100885,100901,100919,100935,100951,100969,100985,101002,101018,101035,101052,101069,101086,101101,101118,101137,101152,101168,101185,101202,101219,101235,101252,101268,101284,101301,101317,101333,101351,101367,101384,101401,101417,101434,101450,101468,101484,101501,101518,101536,101553,101569,101585,101602,101618,101637,101651,101668,101686,101702,101718,101736,101752,101769,101784,101802,101820,101835,101853,101869,101885,101902,101919,101936,101952,101969,101985,102001,102019,102035,102053,102069,102085,102102,102118,102136,102151,102169,102186,102202,102219,102235,102252,102270,102285,102302,102319,102335,102352,102369,102385,102402,102419,102436,102452,102469,102485,102501,102518,102535,102552,102569,102585,102602,102619,102635,102652,102669,102686,102702,102718,102735,102753,102769,102785,102802,102819,102835,102853,102868,102884,102902,102918,102936,102952,102969,102986,103002,103020,103035,103053,103069,103085,103102,103119,103135,103154,103170,103186,103203,103217,103234,103252,103269,103286,103301,103318,103336,103352,103367,103386,103403,103419,103435,103452,103469,103486,103502,103519,103534,103550,103569,103585,103602,103618,103635,103652,103669,103685,103702,103719,103735,103752,103770,103785,103802,103818,103835,103852,103868,103885,103900,103919,103934,103951,103968,103985,104001,104019,104035,104052,104068,104085,104102,104119,104135,104152,104169,104185,104201,104218,104235,104252,104268,104286,104302,104318,104335,104351,104368,104385,104401,104418,104435,104452,104468,104485,104502,104517,104533,104550,104567,104583,104600,104617,104633,104650,104666,104683,104700,104716,104733,104750,104767,104784,104800,104817,104834,104850,104866,104883,104901,104917,104935,104952,104969,104985,105002,105018,105035,105051,105067,105084,105101,105118,105135,105151,105167,105184,105201,105218,105235,105252,105268,105285,105302,105318,105335,105352,105369,105386,105402,105419,105435,105452,105468,105485,105501,105518,105534,105552,105567,105584,105600,105617,105634,105650,105667,105684,105700,105717,105733,105752,105769,105785,105802,105819,105835,105850,105867,105884,105900,105916,105933,105950,105966,105983,106000,106017,106034,106052,106068,106085,106101,106118,106134,106152,106168,106185,106202,106219,106235,106252,106269,106285,106302,106319,106335,106351,106368,106384,106402,106419,106435,106451,106469,106485,106502,106518,106535,106552,106568,106585,106601,106618,106635,106652,106669,106685,106702,106719,106735,106751,106768,106784,106801,106817,106836,106852,106868,106884,106901,106917,106935,106951,106968,106985,107001,107018,107035,107051,107069,107084,107101,107118,107134,107152,107169,107185,107201,107218,107235,107251,107268,107284,107302,107318,107335,107351,107368,107384,107401,107418,107435,107451,107468,107484,107501,107518,107535,107553,107568,107585,107602,107619,107634,107651,107667,107684,107702,107718,107734,107752,107768,107785,107801,107818,107834,107852,107867,107885,107901,107916,107935,107952,107969,107985,108002,108019,108035,108052,108068,108085,108101,108119,108134,108151,108168,108185,108201,108218,108235,108251,108268,108285,108301,108319,108335,108352,108368,108384,108402,108419,108435,108451,108468,108484,108500,108517,108533,108550,108567,108584,108601,108617,108635,108653,108668,108685,108701,108719,108736,108752,108768,108785,108802,108819,108834,108851,108868,108886,108901,108919,108935,108952,108968,108985,109001,109019,109036,109052,109068,109085,109101,109118,109134,109151,109168,109185,109202,109217,109235,109252,109270,109283,109300,109316,109333,109350,109367,109384,109400,109417,109435,109451,109468,109485,109501,109518,109534,109550,109567,109584,109601,109618,109634,109651,109668,109684,109701,109719,109736,109753,109770,109789,109800,109817,109833,109850,109867,109884,109900,109917,109935,109950,109967,109985,110001,110018,110037,110053,110068,110085,110102,110119,110135,110152,110168,110186,110201,110218,110235,110251,110269,110284,110302,110318,110335,110352,110367,110385,110402,110419,110434,110450,110468,110485,110502,110518,110535,110551,110568,110584,110600,110616,110633,110650,110667,110683,110700,110716,110733,110750,110767,110783,110800,110816,110833,110849,110867,110883,110900,110917,110933,110950,110967,110983,111000,111016,111033,111050,111066,111083,111100,111116,111133,111150,111167,111183,111200,111216,111233,111251,111267,111284,111301,111318,111336,111352,111368,111385,111401,111418,111436,111451,111468,111483,111501,111518,111535,111552,111568,111584,111601,111619,111635,111653,111667,111684,111703,111718,111734,111751,111768,111785,111802,111818,111835,111852,111869,111884,111901,111917,111934,111950,111968,111986,112000,112018,112034,112052,112068,112084,112102,112118,112136,112151,112167,112186,112201,112218,112236,112252,112267,112285,112301,112318,112335,112352,112369,112385,112401,112419,112436,112451,112470,112485,112502,112517,112536,112552,112568,112584,112601,112617,112635,112652,112667,112685,112701,112719,112735,112750,112767,112785,112802,112819,112835,112851,112868,112884,112901,112919,112935,112951,112970,112985,113004,113019,113033,113050,113067,113084,113102,113119,113135,113152,113168,113185,113202,113218,113234,113252,113268,113285,113302,113318,113335,113351,113368,113385,113402,113418,113434,113451,113467,113484,113501,113518,113535,113552,113567,113585,113601,113618,113635,113651,113668,113684,113701,113718,113735,113751,113768,113784,113801,113818,113835,113851,113867,113885,113902,113917,113934,113952,113966,113985,114001,114018,114035,114051,114068,114084,114101,114118,114135,114151,114168,114185,114202,114217,114233,114252,114267,114285,114302,114319,114335,114352,114368,114385,114402,114418,114435,114451,114467,114484,114500,114517,114533,114550,114567,114584,114599,114616,114633,114650,114666,114683,114700,114716,114733,114750,114767,114784,114801,114817,114835,114851,114867,114885,114901,114917,114933,114950,114967,114985,115001,115018,115035,115051,115068,115084,115101,115118,115136,115150,115167,115183,115200,115218,115235,115251,115267,115283,115300,115316,115333,115350,115372,115384,115402,115419,115435,115452,115469,115485,115502,115518,115535,115551,115569,115585,115602,115618,115634,115651,115668,115684,115700,115718,115735,115751,115768,115785,115802,115819,115834,115850,115867,115885,115901,115919,115934,115951,115966,115985,116001,116017,116035,116051,116068,116084,116102,116118,116135,116152,116168,116185,116201,116219,116235,116251,116267,116284,116302,116318,116335,116351,116368,116387,116400,116416,116433,116450,116466,116483,116499,116516,116533,116550,116566,116583,116600,116618,116635,116651,116668,116683,116700,116717,116733,116750,116767,116784,116802,116818,116834,116849,116866,116883,116900,116918,116935,116951,116968,116985,117001,117018,117035,117050,117068,117085,117101,117118,117135,117151,117168,117185,117201,117218,117234,117250,117268,117285,117301,117318,117335,117351,117368,117388],"hit":[null],"x":[-1.6054421768707483,-1.6054421768707483,-1.6054421768707483,-1.6054421768707483,-1.6054421768707483,-1.6054421768707483,-1.6054421768707483,-1.6054421768707483,-1.6054421768707483,-1.6054421768707483,-1.6054421768707483,-1.6054421768707483,-1.6054421768707483,-1.6054421768707483,-1.6054421768707483,-1.6054421768707483,-1.6054421768707483,-1.6054421768707483,-1.6054421768707483,-1.6054421768707483,-1.6054421768707483,-1.6054421768707483,-1.6054421768707483,-1.6054421768707483,-1.6054421768707483,-1.6054421768707483,-1.6054421768707483,-1.6054421768707483,-1.6054421768707483,-1.6054421768707483,-1.6054421768707483,-1.6054421768707483,-1.6054421768707483,-1.6054421768707483,-1.6054421768707483,-1.6054421768707483,-1.6054421768707483,-1.6054421768707483,-1.6054421768707483,-1.6054421768707483,-1.6054421768707483,-1.6054421768707483,-1.6054421768707483,-1.6054421768707483,-1.6054421768707483,-1.6054421768707483,-1.6054421768707483,-1.6054421768707483,-1.6054421768707483,-1.6054421768707483,-1.6054421768707483,-1.6054421768707483,-1.6054421768707483,-1.6054421768707483,-1.6054421768707483,-1.6054421768707483,-1.6054421768707483,-1.6054421768707483,-1.6054421768707483,-1.6054421768707483,-1.6054421768707483,-1.6054421768707483,-1.6054421768707483,-1.6054421768707483,-1.6054421768707483,-1.6054421768707483,-1.6054421768707483,-1.6054421768707483,-1.6054421768707483,-1.6054421768707483,-1.6054421768707483,-1.6054421768707483,-1.6054421768707483,-1.6054421768707483,-1.6054421768707483,-1.6054421768707483,-1.6054421768707483,-1.6054421768707483,-1.6054421768707483,-1.6054421768707483,-1.6054421768707483,-1.6054421768707483,-1.6054421768707483,-1.6054421768707483,-1.6054421768707483,-1.6054421768707483,-1.6054421768707483,-1.6054421768707483,-1.6054421768707483,-1.6054421768707483,-1.6054421768707483,-1.6054421768707483,-1.6054421768707483,-1.6054421768707483,-1.6054421768707483,-1.6054421768707483,-1.6054421768707483,-1.6054421768707483,-1.6054421768707483,-1.6054421768707483,-1.6054421768707483,-1.6054421768707483,-1.6054421768707483,-1.6054421768707483,-1.6054421768707483,-1.6054421768707483,-1.6054421768707483,-1.6054421768707483,-1.6054421768707483,-1.6054421768707483,-1.6054421768707483,0.05102040816326531,0.07482993197278912,0.10204081632653061,0.11904761904761904,0.1360544217687075,0.16666666666666666,0.1870748299319728,0.21428571428571427,0.22448979591836735,0.23469387755102042,0.24829931972789115,0.25510204081632654,0.2619047619047619,0.2755102040816326,0.2857142857142857,0.29591836734693877,0.30272108843537415,0.30952380952380953,0.3197278911564626,0.3231292517006803,0.32653061224489793,0.3333333333333333,0.3401360544217687,0.3435374149659864,0.3469387755102041,0.35374149659863946,0.35374149659863946,0.36054421768707484,0.3673469387755102,0.3741496598639456,0.38095238095238093,0.3843537414965986,0.3877551020408163,0.391156462585034,0.3945578231292517,0.4013605442176871,0.40816326530612246,0.40816326530612246,0.41496598639455784,0.41836734693877553,0.41836734693877553,0.41836734693877553,0.41836734693877553,0.41836734693877553,0.4217687074829932,0.4217687074829932,0.4217687074829932,0.4217687074829932,0.4217687074829932,0.4217687074829932,0.42517006802721086,0.42517006802721086,0.42517006802721086,0.42517006802721086,0.42517006802721086,0.42857142857142855,0.42857142857142855,0.42857142857142855,0.43197278911564624,0.43197278911564624,0.43197278911564624,0.43537414965986393,0.43537414965986393,0.43537414965986393,0.43537414965986393,0.4387755102040816,0.4387755102040816,0.4421768707482993,0.4421768707482993,0.4421768707482993,0.4489795918367347,0.4523809523809524,0.46258503401360546,0.46598639455782315,0.46938775510204084,0.46938775510204084,0.47278911564625853,0.47619047619047616,0.47959183673469385,0.48299319727891155,0.48299319727891155,0.48299319727891155,0.48299319727891155,0.48299319727891155,0.48299319727891155,0.48299319727891155,0.48299319727891155,0.48299319727891155,0.48299319727891155,0.48299319727891155,0.48299319727891155,0.48299319727891155,0.48299319727891155,0.48299319727891155,0.48299319727891155,0.48299319727891155,0.48299319727891155,0.48299319727891155,0.48299319727891155,0.48299319727891155,0.48299319727891155,0.48299319727891155,0.48299319727891155,0.48299319727891155,0.48299319727891155,0.48299319727891155,0.48299319727891155,0.48299319727891155,0.48299319727891155,0.48299319727891155,0.48299319727891155,0.48299319727891155,0.48299319727891155,0.48299319727891155,0.48299319727891155,0.48299319727891155,0.48299319727891155,0.48299319727891155,0.48299319727891155,0.48299319727891155,0.48299319727891155,0.48299319727891155,0.48299319727891155,0.48299319727891155,0.48299319727891155,0.48299319727891155,0.48299319727891155,0.48299319727891155,0.48299319727891155,0.48299319727891155,0.48299319727891155,0.48299319727891155,0.48299319727891155,0.48299319727891155,0.48299319727891155,0.48299319727891155,0.48299319727891155,0.48299319727891155,0.48299319727891155,0.48299319727891155,0.48299319727891155,0.48299319727891155,0.48299319727891155,0.48299319727891155,0.48299319727891155,0.48299319727891155,0.48299319727891155,0.48299319727891155,0.48299319727891155,0.48299319727891155,0.48299319727891155,0.48299319727891155,0.48299319727891155,0.48299319727891155,0.48299319727891155,0.48299319727891155,0.48299319727891155,0.48299319727891155,0.48299319727891155,0.48299319727891155,0.48299319727891155,0.48299319727891155,0.48299319727891155,0.48299319727891155,0.48299319727891155,0.48299319727891155,0.48299319727891155,0.48299319727891155,0.48299319727891155,0.48299319727891155,0.48299319727891155,0.48299319727891155,0.48299319727891155,0.48299319727891155,0.48299319727891155,0.48299319727891155,0.48299319727891155,0.48299319727891155,0.48299319727891155,0.48299319727891155,0.48299319727891155,0.48299319727891155,0.48299319727891155,0.48299319727891155,0.48299319727891155,0.48299319727891155,0.48299319727891155,0.48299319727891155,0.48299319727891155,0.48299319727891155,0.48299319727891155,0.48299319727891155,0.48299319727891155,0.48299319727891155,0.48299319727891155,0.48299319727891155,0.48299319727891155,0.48299319727891155,0.48299319727891155,0.48299319727891155,0.48299319727891155,0.48299319727891155,0.48299319727891155,0.48299319727891155,0.48299319727891155,0.48299319727891155,0.48299319727891155,0.48299319727891155,0.48299319727891155,0.48299319727891155,0.48299319727891155,0.48299319727891155,0.48299319727891155,0.48299319727891155,0.48299319727891155,0.48299319727891155,0.48299319727891155,0.48299319727891155,0.48299319727891155,0.48299319727891155,0.48299319727891155,0.48299319727891155,0.48299319727891155,0.48299319727891155,0.48299319727891155,0.48299319727891155,0.48299319727891155,0.48299319727891155,0.48299319727891155,0.48299319727891155,0.48299319727891155,0.48299319727891155,0.48299319727891155,0.48299319727891155,0.48299319727891155,0.48299319727891155,0.48299319727891155,0.48299319727891155,0.48299319727891155,0.48299319727891155,0.48299319727891155,0.48299319727891155,0.48299319727891155,0.48299319727891155,0.48299319727891155,0.48299319727891155,0.48299319727891155,0.48299319727891155,0.48299319727891155,0.48299319727891155,0.48299319727891155,0.48299319727891155,0.48299319727891155,0.48299319727891155,0.48299319727891155,0.48299319727891155,0.48299319727891155,0.48299319727891155,0.48299319727891155,0.48299319727891155,0.48299319727891155,0.48299319727891155,0.48299319727891155,0.48299319727891155,0.48299319727891155,0.48299319727891155,0.48299319727891155,0.48299319727891155,0.48299319727891155,0.48299319727891155,0.48299319727891155,0.48299319727891155,0.48299319727891155,0.48299319727891155,0.48299319727891155,0.48299319727891155,0.48299319727891155,0.48299319727891155,0.48299319727891155,0.48299319727891155,0.48299319727891155,0.48299319727891155,0.48299319727891155,0.48299319727891155,0.48299319727891155,0.48299319727891155,0.48299319727891155,0.48299319727891155,0.48299319727891155,0.48299319727891155,0.48299319727891155,0.48299319727891155,0.48299319727891155,0.48299319727891155,0.48299319727891155,0.48299319727891155,0.48299319727891155,0.48299319727891155,0.48299319727891155,0.48299319727891155,0.48299319727891155,0.48299319727891155,0.48299319727891155,0.48299319727891155,0.48299319727891155,0.48299319727891155,0.48299319727891155,0.48299319727891155,0.48299319727891155,0.48299319727891155,0.48299319727891155,0.48299319727891155,0.48299319727891155,0.48299319727891155,0.48299319727891155,0.48299319727891155,0.48299319727891155,0.48299319727891155,0.48299319727891155,0.48299319727891155,0.48299319727891155,0.48299319727891155,0.48299319727891155,0.48299319727891155,0.48299319727891155,0.48299319727891155,0.48299319727891155,0.48299319727891155,0.48299319727891155,0.48299319727891155,0.48299319727891155,0.48299319727891155,0.48299319727891155,0.48299319727891155,0.48299319727891155,0.48299319727891155,0.48299319727891155,0.48299319727891155,0.48299319727891155,0.48299319727891155,0.48299319727891155,0.48299319727891155,0.48299319727891155,0.48299319727891155,0.48299319727891155,0.48299319727891155,0.48299319727891155,0.48299319727891155,0.48299319727891155,0.48299319727891155,0.48299319727891155,0.48299319727891155,0.47959183673469385,0.4557823129251701,0.4387755102040816,0.41496598639455784,0.41156462585034015,0.41156462585034015,0.41156462585034015,0.41156462585034015,0.41156462585034015,0.41156462585034015,0.41156462585034015,0.41156462585034015,0.41156462585034015,0.41156462585034015,0.41156462585034015,0.41496598639455784,0.41496598639455784,0.41496598639455784,0.41496598639455784,0.41496598639455784,0.41496598639455784,0.41496598639455784,0.41496598639455784,0.41496598639455784,0.41496598639455784,0.41496598639455784,0.41496598639455784,0.41496598639455784,0.41496598639455784,0.41496598639455784,0.41496598639455784,0.41496598639455784,0.41496598639455784,0.41496598639455784,0.41496598639455784,0.41496598639455784,0.41496598639455784,0.41496598639455784,0.41496598639455784,0.41496598639455784,0.41496598639455784,0.41496598639455784,0.41496598639455784,0.41496598639455784,0.41496598639455784,0.41496598639455784,0.41496598639455784,0.41496598639455784,0.41496598639455784,0.41496598639455784,0.41496598639455784,0.41496598639455784,0.41496598639455784,0.41496598639455784,0.41496598639455784,0.41496598639455784,0.41496598639455784,0.41496598639455784,0.41496598639455784,0.41496598639455784,0.41496598639455784,0.41496598639455784,0.41496598639455784,0.41496598639455784,0.41496598639455784,0.41496598639455784,0.41496598639455784,0.41496598639455784,0.41496598639455784,0.41496598639455784,0.41496598639455784,0.41496598639455784,0.41496598639455784,0.41496598639455784,0.41496598639455784,0.41496598639455784,0.41496598639455784,0.41496598639455784,0.41496598639455784,0.41496598639455784,0.41496598639455784,0.41496598639455784,0.41496598639455784,0.41496598639455784,0.41496598639455784,0.41496598639455784,0.41496598639455784,0.41496598639455784,0.41496598639455784,0.41496598639455784,0.41496598639455784,0.41496598639455784,0.41496598639455784,0.41496598639455784,0.41496598639455784,0.41496598639455784,0.41496598639455784,0.41496598639455784,0.41496598639455784,0.41496598639455784,0.41496598639455784,0.41496598639455784,0.41496598639455784,0.41496598639455784,0.41496598639455784,0.41496598639455784,0.41496598639455784,0.41496598639455784,0.41496598639455784,0.41496598639455784,0.41496598639455784,0.41496598639455784,0.41496598639455784,0.41496598639455784,0.41496598639455784,0.41496598639455784,0.41496598639455784,0.41496598639455784,0.41496598639455784,0.41496598639455784,0.41496598639455784,0.41496598639455784,0.41496598639455784,0.41496598639455784,0.41496598639455784,0.41496598639455784,0.41496598639455784,0.41496598639455784,0.41496598639455784,0.41496598639455784,0.41496598639455784,0.41496598639455784,0.41496598639455784,0.41496598639455784,0.41496598639455784,0.41496598639455784,0.41496598639455784,0.41496598639455784,0.41496598639455784,0.41496598639455784,0.41496598639455784,0.41496598639455784,0.41496598639455784,0.41496598639455784,0.41496598639455784,0.41496598639455784,0.41496598639455784,0.41496598639455784,0.41496598639455784,0.41496598639455784,0.41496598639455784,0.41496598639455784,0.41496598639455784,0.41496598639455784,0.41496598639455784,0.41496598639455784,0.41496598639455784,0.41496598639455784,0.41496598639455784,0.41496598639455784,0.41496598639455784,0.41496598639455784,0.41496598639455784,0.41496598639455784,0.41496598639455784,0.41496598639455784,0.41496598639455784,0.41496598639455784,0.41496598639455784,0.41496598639455784,0.41496598639455784,0.41496598639455784,0.41496598639455784,0.41496598639455784,0.41496598639455784,0.41496598639455784,0.41496598639455784,0.41496598639455784,0.41496598639455784,0.41496598639455784,0.41496598639455784,0.41496598639455784,0.41496598639455784,0.41496598639455784,0.41496598639455784,0.41496598639455784,0.41496598639455784,0.41496598639455784,0.41496598639455784,0.41496598639455784,0.41496598639455784,0.41496598639455784,0.41496598639455784,0.41496598639455784,0.41496598639455784,0.41496598639455784,0.41496598639455784,0.41496598639455784,0.41496598639455784,0.41496598639455784,0.41496598639455784,0.41496598639455784,0.41496598639455784,0.41496598639455784,0.41496598639455784,0.41496598639455784,0.41496598639455784,0.41496598639455784,0.41496598639455784,0.41496598639455784,0.41496598639455784,0.41496598639455784,0.41496598639455784,0.41496598639455784,0.41496598639455784,0.41496598639455784,0.41496598639455784,0.41496598639455784,0.41496598639455784,0.41496598639455784,0.41496598639455784,0.41496598639455784,0.41496598639455784,0.41496598639455784,0.41496598639455784,0.41496598639455784,0.41496598639455784,0.41496598639455784,0.41496598639455784,0.41496598639455784,0.41496598639455784,0.41496598639455784,0.41496598639455784,0.41496598639455784,0.41496598639455784,0.41496598639455784,0.41496598639455784,0.41496598639455784,0.41496598639455784,0.41496598639455784,0.41496598639455784,0.41496598639455784,0.41496598639455784,0.41496598639455784,0.41496598639455784,0.41496598639455784,0.41496598639455784,0.41496598639455784,0.41496598639455784,0.41496598639455784,0.41496598639455784,0.41496598639455784,0.41496598639455784,0.41496598639455784,0.41496598639455784,0.41496598639455784,0.41496598639455784,0.41496598639455784,0.41496598639455784,0.41496598639455784,0.41496598639455784,0.41496598639455784,0.41496598639455784,0.41496598639455784,0.41496598639455784,0.41496598639455784,0.41496598639455784,0.41496598639455784,0.41496598639455784,0.41496598639455784,0.41496598639455784,0.41496598639455784,0.41496598639455784,0.41496598639455784,0.41496598639455784,0.41496598639455784,0.41496598639455784,0.41496598639455784,0.41496598639455784,0.41496598639455784,0.41496598639455784,0.41496598639455784,0.41496598639455784,0.41496598639455784,0.41496598639455784,0.41496598639455784,0.41496598639455784,0.41496598639455784,0.41496598639455784,0.41496598639455784,0.41496598639455784,0.41496598639455784,0.41496598639455784,0.41496598639455784,0.41496598639455784,0.41496598639455784,0.41496598639455784,0.41496598639455784,0.41496598639455784,0.41496598639455784,0.41496598639455784,0.41496598639455784,0.41496598639455784,0.41496598639455784,0.41496598639455784,0.41496598639455784,0.41496598639455784,0.41496598639455784,0.41496598639455784,0.41496598639455784,0.41496598639455784,0.41496598639455784,0.41496598639455784,0.41496598639455784,0.41496598639455784,0.41496598639455784,0.41496598639455784,0.41496598639455784,0.41496598639455784,0.41496598639455784,0.41496598639455784,0.41496598639455784,0.41496598639455784,0.41496598639455784,0.41496598639455784,0.41496598639455784,0.41496598639455784,0.41496598639455784,0.41496598639455784,0.41496598639455784,0.41496598639455784,0.41496598639455784,0.41496598639455784,0.41496598639455784,0.41496598639455784,0.41496598639455784,0.41496598639455784,0.41496598639455784,0.41496598639455784,0.41496598639455784,0.41496598639455784,0.41496598639455784,0.41496598639455784,0.41496598639455784,0.41496598639455784,0.41496598639455784,0.41496598639455784,0.41496598639455784,0.41496598639455784,0.41496598639455784,0.41496598639455784,0.41496598639455784,0.41496598639455784,0.41496598639455784,0.41496598639455784,0.41496598639455784,0.41496598639455784,0.41496598639455784,0.41496598639455784,0.41496598639455784,0.41496598639455784,0.41496598639455784,0.41496598639455784,0.41496598639455784,0.41496598639455784,0.41496598639455784,0.41496598639455784,0.41496598639455784,0.41496598639455784,0.41496598639455784,0.41496598639455784,0.41496598639455784,0.41496598639455784,0.41496598639455784,0.41496598639455784,0.41496598639455784,0.41496598639455784,0.41496598639455784,0.41496598639455784,0.41496598639455784,0.41496598639455784,0.41496598639455784,0.41496598639455784,0.41496598639455784,0.41496598639455784,0.41496598639455784,0.41496598639455784,0.41496598639455784,0.41496598639455784,0.41496598639455784,0.41496598639455784,0.41496598639455784,0.41496598639455784,0.41496598639455784,0.41496598639455784,0.41496598639455784,0.41496598639455784,0.41496598639455784,0.41496598639455784,0.41496598639455784,0.41496598639455784,0.41496598639455784,0.41496598639455784,0.41496598639455784,0.41496598639455784,0.41496598639455784,0.41496598639455784,0.41496598639455784,0.41496598639455784,0.41496598639455784,0.41496598639455784,0.41496598639455784,0.41496598639455784,0.41496598639455784,0.41496598639455784,0.41496598639455784,0.41496598639455784,0.41496598639455784,0.41496598639455784,0.41496598639455784,0.41496598639455784,0.41496598639455784,0.41496598639455784,0.41496598639455784,0.41496598639455784,0.41496598639455784,0.41496598639455784,0.41496598639455784,0.41496598639455784,0.41496598639455784,0.41496598639455784,0.41496598639455784,0.41496598639455784,0.41496598639455784,0.41496598639455784,0.41496598639455784,0.41496598639455784,0.41496598639455784,0.41496598639455784,0.41496598639455784,0.41496598639455784,0.41496598639455784,0.41496598639455784,0.41496598639455784,0.41496598639455784,0.41496598639455784,0.41496598639455784,0.41496598639455784,0.41496598639455784,0.41496598639455784,0.41496598639455784,0.41496598639455784,0.41496598639455784,0.41496598639455784,0.41496598639455784,0.41496598639455784,0.41496598639455784,0.41496598639455784,0.41496598639455784,0.41496598639455784,0.41496598639455784,0.41496598639455784,0.41496598639455784,0.41496598639455784,0.41496598639455784,0.41496598639455784,0.41496598639455784,0.41496598639455784,0.41496598639455784,0.41496598639455784,0.41496598639455784,0.41496598639455784,0.41496598639455784,0.41496598639455784,0.41496598639455784,0.41496598639455784,0.41496598639455784,0.41496598639455784,0.41496598639455784,0.41496598639455784,0.41496598639455784,0.41496598639455784,0.41496598639455784,0.41496598639455784,0.41496598639455784,0.41496598639455784,0.41496598639455784,0.41496598639455784,0.41496598639455784,0.41496598639455784,0.41496598639455784,0.41496598639455784,0.41496598639455784,0.41496598639455784,0.41496598639455784,0.41496598639455784,0.41496598639455784,0.41496598639455784,0.41496598639455784,0.41496598639455784,0.41496598639455784,0.41496598639455784,0.41496598639455784,0.41496598639455784,0.41496598639455784,0.41496598639455784,0.41496598639455784,0.41496598639455784,0.41496598639455784,0.41496598639455784,0.41496598639455784,0.41496598639455784,0.41496598639455784,0.41496598639455784,0.41496598639455784,0.41496598639455784,0.41496598639455784,0.41496598639455784,0.41496598639455784,0.41496598639455784,0.41496598639455784,0.41496598639455784,0.41496598639455784,0.41496598639455784,0.41496598639455784,0.41496598639455784,0.41496598639455784,0.41496598639455784,0.41496598639455784,0.41496598639455784,0.41496598639455784,0.41496598639455784,0.41496598639455784,0.41496598639455784,0.41496598639455784,0.41496598639455784,0.41496598639455784,0.41496598639455784,0.41496598639455784,0.41496598639455784,0.41496598639455784,0.41496598639455784,0.41496598639455784,0.41496598639455784,0.41496598639455784,0.41496598639455784,0.41496598639455784,0.41496598639455784,0.41496598639455784,0.41496598639455784,0.41496598639455784,0.41496598639455784,0.41496598639455784,0.41496598639455784,0.41496598639455784,0.41496598639455784,0.41496598639455784,0.41496598639455784,0.41496598639455784,0.41496598639455784,0.41496598639455784,0.41496598639455784,0.4217687074829932,0.43197278911564624,0.4489795918367347,0.47278911564625853,0.48299319727891155,0.5102040816326531,0.5272108843537415,0.54421768707483,0.5714285714285714,0.5884353741496599,0.6054421768707483,0.6156462585034014,0.6224489795918368,0.6326530612244898,0.6360544217687075,0.6394557823129252,0.6462585034013606,0.6462585034013606,0.6462585034013606,0.6496598639455783,0.6530612244897959,0.6564625850340136,0.6598639455782312,0.6598639455782312,0.6632653061224489,0.6632653061224489,0.6632653061224489,0.6632653061224489,0.6666666666666666,0.6666666666666666,0.6632653061224489,0.5918367346938775,0.4965986394557823,0.4217687074829932,0.35034013605442177,0.272108843537415,0.22789115646258504,0.1836734693877551,0.1292517006802721,0.08843537414965986,0.061224489795918366,0.04421768707482993,0.034013605442176874,0.02040816326530612,0.013605442176870748,0.013605442176870748,0.013605442176870748,0.01020408163265306,0.01020408163265306,0.01020408163265306,0.01020408163265306,0.030612244897959183,0.04421768707482993,0.05442176870748299,0.06802721088435375,0.06802721088435375,0.06802721088435375,0.06802721088435375,0.06802721088435375,0.06802721088435375,0.06802721088435375,0.06802721088435375,0.06802721088435375,0.06802721088435375,0.06802721088435375,0.06802721088435375,0.06802721088435375,0.06802721088435375,0.06802721088435375,0.06802721088435375,0.06802721088435375,0.06802721088435375,0.06802721088435375,0.06802721088435375,0.06802721088435375,0.06802721088435375,0.06802721088435375,0.06462585034013606,0.061224489795918366,0.061224489795918366,0.05782312925170068,0.05442176870748299,0.047619047619047616,0.047619047619047616,0.047619047619047616,0.047619047619047616,0.04081632653061224,0.04081632653061224,0.04081632653061224,0.04081632653061224,0.03741496598639456,0.034013605442176874,0.034013605442176874,0.034013605442176874,0.034013605442176874,0.034013605442176874,0.034013605442176874,0.034013605442176874,0.034013605442176874,0.034013605442176874,0.034013605442176874,0.034013605442176874,0.034013605442176874,0.034013605442176874,0.034013605442176874,0.034013605442176874,0.034013605442176874,0.034013605442176874,0.034013605442176874,0.034013605442176874,0.034013605442176874,0.034013605442176874,0.034013605442176874,0.034013605442176874,0.034013605442176874,0.034013605442176874,0.034013605442176874,0.034013605442176874,0.034013605442176874,0.034013605442176874,0.034013605442176874,0.034013605442176874,0.034013605442176874,0.034013605442176874,0.034013605442176874,0.034013605442176874,0.034013605442176874,0.034013605442176874,0.034013605442176874,0.034013605442176874,0.034013605442176874,0.034013605442176874,0.034013605442176874,0.034013605442176874,0.034013605442176874,0.034013605442176874,0.034013605442176874,0.034013605442176874,0.034013605442176874,0.034013605442176874,0.034013605442176874,0.034013605442176874,0.034013605442176874,0.034013605442176874,0.034013605442176874,0.034013605442176874,0.034013605442176874,0.034013605442176874,0.034013605442176874,0.034013605442176874,0.034013605442176874,0.034013605442176874,0.034013605442176874,0.034013605442176874,0.034013605442176874,0.034013605442176874,0.034013605442176874,0.034013605442176874,0.034013605442176874,0.034013605442176874,0.034013605442176874,0.034013605442176874,0.034013605442176874,0.034013605442176874,0.034013605442176874,0.034013605442176874,0.034013605442176874,0.034013605442176874,0.034013605442176874,0.034013605442176874,0.034013605442176874,0.034013605442176874,0.034013605442176874,0.034013605442176874,0.034013605442176874,0.034013605442176874,0.034013605442176874,0.034013605442176874,0.034013605442176874,0.034013605442176874,0.034013605442176874,0.034013605442176874,0.034013605442176874,0.034013605442176874,0.034013605442176874,0.034013605442176874,0.034013605442176874,0.034013605442176874,0.034013605442176874,0.034013605442176874,0.034013605442176874,0.034013605442176874,0.034013605442176874,0.034013605442176874,0.034013605442176874,0.034013605442176874,0.034013605442176874,0.034013605442176874,0.047619047619047616,0.1054421768707483,0.1836734693877551,0.22448979591836735,0.30272108843537415,0.35374149659863946,0.40816326530612246,0.48639455782312924,0.5306122448979592,0.5850340136054422,0.6190476190476191,0.6666666666666666,0.7006802721088435,0.7210884353741497,0.7448979591836735,0.7551020408163265,0.7551020408163265,0.7585034013605442,0.7619047619047619,0.7653061224489796,0.7687074829931972,0.7687074829931972,0.7755102040816326,0.78911564625850