success,trial_type,trial_index,time_elapsed,internal_node_id,protocol_sum,subject_identifier,subject_sum,subject_pair,STUDY_ID,PROLIFIC_PID,SESSION_ID,practice_instructions,leaderboard_instructions,bonus,reveal_word,self_rating,confidence,view_history,rt,responses,question_order,correct,test_part,word,click_log,final_keyboard_state,num_clicks,points,cheat,response,position_RT,position,player,i_game,true_position,distance,last_word,stimulus,confidence_slider_self_response
1.0,fullscreen,0,3423,0.0-0.0,,403,"[67, 151, 78, 215, 64, 102, 178, 7, 195, 15, 253, 15, 237, 81, 70, 118, 46, 108, 96, 116, 90, 201, 119, 0, 75, 193, 69, 7, 199, 196, 43, 80]",201,66a22c0758a3d5c9d26873c6,66076de3ddde71f125afc1f6,66a237eb2bbc85e5f0e4cf53,1,0,0,True,6,99,,,,,,,,,,,,,,,,,,,,,,
,instructions,1,10810,0.0-1.0,,403,"[67, 151, 78, 215, 64, 102, 178, 7, 195, 15, 253, 15, 237, 81, 70, 118, 46, 108, 96, 116, 90, 201, 119, 0, 75, 193, 69, 7, 199, 196, 43, 80]",201,66a22c0758a3d5c9d26873c6,66076de3ddde71f125afc1f6,66a237eb2bbc85e5f0e4cf53,1,0,0,True,6,99,"[{""page_index"":0,""viewing_time"":7385.80000000447}]",7386.39999999851,,,,,,,,,,,,,,,,,,,,
,instructions,2,24797,0.0-2.0-0.0,,403,"[67, 151, 78, 215, 64, 102, 178, 7, 195, 15, 253, 15, 237, 81, 70, 118, 46, 108, 96, 116, 90, 201, 119, 0, 75, 193, 69, 7, 199, 196, 43, 80]",201,66a22c0758a3d5c9d26873c6,66076de3ddde71f125afc1f6,66a237eb2bbc85e5f0e4cf53,1,0,0,True,6,99,"[{""page_index"":0,""viewing_time"":13985}]",13985.40000000596,,,,,,,,,,,,,,,,,,,,
,survey-multi-choice,3,33161,0.0-2.0-1.0,,403,"[67, 151, 78, 215, 64, 102, 178, 7, 195, 15, 253, 15, 237, 81, 70, 118, 46, 108, 96, 116, 90, 201, 119, 0, 75, 193, 69, 7, 199, 196, 43, 80]",201,66a22c0758a3d5c9d26873c6,66076de3ddde71f125afc1f6,66a237eb2bbc85e5f0e4cf53,1,0,0,True,6,99,,8361.10000000149,"{""Q0"":""... reveal the word with as <b>few letter guesses</b> as possible""}",[0],1.0,multichoice_nonpretend,,,,,,,,,,,,,,,,
,instructions,4,35958,0.0-3.0,,403,"[67, 151, 78, 215, 64, 102, 178, 7, 195, 15, 253, 15, 237, 81, 70, 118, 46, 108, 96, 116, 90, 201, 119, 0, 75, 193, 69, 7, 199, 196, 43, 80]",201,66a22c0758a3d5c9d26873c6,66076de3ddde71f125afc1f6,66a237eb2bbc85e5f0e4cf53,1,0,0,True,6,99,"[{""page_index"":0,""viewing_time"":2794.7000000029802}]",2795.5,,,,,,,,,,,,,,,,,,,,
,Hangman,5,153353,0.0-4.0,,403,"[67, 151, 78, 215, 64, 102, 178, 7, 195, 15, 253, 15, 237, 81, 70, 118, 46, 108, 96, 116, 90, 201, 119, 0, 75, 193, 69, 7, 199, 196, 43, 80]",201,66a22c0758a3d5c9d26873c6,66076de3ddde71f125afc1f6,66a237eb2bbc85e5f0e4cf53,1,0,0,True,6,99,,,,,,,ZEBRA,"{'letter': ['', 'M', 'A', 'P', 'E', 'I', 'G', 'H', 'C', 'R', 'O', 'L', 'T', 'S', 'U', 'V', 'N', 'D', 'F', 'J', 'K', 'B', 'Z'], 't': [0, 8710.19999999553, 19146.79999999702, 24240.89999999851, 33587.39999999851, 39530.5, 43362.89999999851, 44888.5, 49746, 54184.19999999553, 60735.29999999702, 66704.59999999404, 77154.29999999702, 84227.09999999404, 92260.39999999851, 96576.89999999851, 100159.79999999702, 101581.19999999553, 103770.79999999702, 108654.29999999702, 110457.89999999851, 113502.39999999851, 115366.39999999851], 'hit': [None, 0, 1, 0, 1, 0, 0, 0, 0, 1, 0, 0, 0, 0, 0, 0, 0, 0, 0, 0, 0, 1, 1], 'asked': ['', 'M', 'MA', 'MAP', 'MAPE', 'MAPEI', 'MAPEIG', 'MAPEIGH', 'MAPEIGHC', 'MAPEIGHCR', 'MAPEIGHCRO', 'MAPEIGHCROL', 'MAPEIGHCROLT', 'MAPEIGHCROLTS', 'MAPEIGHCROLTSU', 'MAPEIGHCROLTSUV', 'MAPEIGHCROLTSUVN', 'MAPEIGHCROLTSUVND', 'MAPEIGHCROLTSUVNDF', 'MAPEIGHCROLTSUVNDFJ', 'MAPEIGHCROLTSUVNDFJK', 'MAPEIGHCROLTSUVNDFJKB', 'MAPEIGHCROLTSUVNDFJKBZ'], 'word_state': ['_____', '_____', '____A', '____A', '_E__A', '_E__A', '_E__A', '_E__A', '_E__A', '_E_RA', '_E_RA', '_E_RA', '_E_RA', '_E_RA', '_E_RA', '_E_RA', '_E_RA', '_E_RA', '_E_RA', '_E_RA', '_E_RA', '_EBRA', 'ZEBRA']}","['M', 'A', 'P', 'E', 'I', 'G', 'H', 'C', 'R', 'O', 'L', 'T', 'S', 'U', 'V', 'N', 'D', 'F', 'J', 'K', 'B', 'Z']",22.0,-2.0,0.0,,,,,,,,,,
,instructions,6,181790,0.0-5.0,,403,"[67, 151, 78, 215, 64, 102, 178, 7, 195, 15, 253, 15, 237, 81, 70, 118, 46, 108, 96, 116, 90, 201, 119, 0, 75, 193, 69, 7, 199, 196, 43, 80]",201,66a22c0758a3d5c9d26873c6,66076de3ddde71f125afc1f6,66a237eb2bbc85e5f0e4cf53,1,0,0,True,6,99,"[{""page_index"":0,""viewing_time"":3335.4000000059605},{""page_index"":1,""viewing_time"":25101.29999999702}]",28437.20000000298,,,,,,,,,,,,,,,,,,,,
,survey-multi-choice,7,193076,0.0-6.0,,403,"[67, 151, 78, 215, 64, 102, 178, 7, 195, 15, 253, 15, 237, 81, 70, 118, 46, 108, 96, 116, 90, 201, 119, 0, 75, 193, 69, 7, 199, 196, 43, 80]",201,66a22c0758a3d5c9d26873c6,66076de3ddde71f125afc1f6,66a237eb2bbc85e5f0e4cf53,1,0,0,True,6,99,,11283.89999999851,"{""Q0"":""...from <b>a previous session</b> that is not part of the upcoming tournament.""}",[0],1.0,multichoice_leaderboard,,,,,,,,,,,,,,,,
,instructions,8,202007,0.0-8.0,,403,"[67, 151, 78, 215, 64, 102, 178, 7, 195, 15, 253, 15, 237, 81, 70, 118, 46, 108, 96, 116, 90, 201, 119, 0, 75, 193, 69, 7, 199, 196, 43, 80]",201,66a22c0758a3d5c9d26873c6,66076de3ddde71f125afc1f6,66a237eb2bbc85e5f0e4cf53,1,0,0,True,6,99,"[{""page_index"":0,""viewing_time"":8929.39999999851}]",8930.10000000149,,,,,,,,,,,,,,,,,,,,
,survey-multi-choice,9,209457,0.0-9.0,,403,"[67, 151, 78, 215, 64, 102, 178, 7, 195, 15, 253, 15, 237, 81, 70, 118, 46, 108, 96, 116, 90, 201, 119, 0, 75, 193, 69, 7, 199, 196, 43, 80]",201,66a22c0758a3d5c9d26873c6,66076de3ddde71f125afc1f6,66a237eb2bbc85e5f0e4cf53,1,0,0,True,6,99,,7448.19999999553,"{""Q0"":""...players' leaderboard position (in terms of <b>points</b>) in an <b>upcoming tournament.</b>""}",[0],1.0,multichoice_tournament,,,,,,,,,,,,,,,,
,instructions,10,217799,0.0-11.0,,403,"[67, 151, 78, 215, 64, 102, 178, 7, 195, 15, 253, 15, 237, 81, 70, 118, 46, 108, 96, 116, 90, 201, 119, 0, 75, 193, 69, 7, 199, 196, 43, 80]",201,66a22c0758a3d5c9d26873c6,66076de3ddde71f125afc1f6,66a237eb2bbc85e5f0e4cf53,1,0,0,True,6,99,"[{""page_index"":0,""viewing_time"":8341.20000000298}]",8341.30000000447,,,,,,,,,,,,,,,,,,,,
,instructions,11,232448,0.0-12.0-0.0,,403,"[67, 151, 78, 215, 64, 102, 178, 7, 195, 15, 253, 15, 237, 81, 70, 118, 46, 108, 96, 116, 90, 201, 119, 0, 75, 193, 69, 7, 199, 196, 43, 80]",201,66a22c0758a3d5c9d26873c6,66076de3ddde71f125afc1f6,66a237eb2bbc85e5f0e4cf53,1,0,0,True,6,99,"[{""page_index"":0,""viewing_time"":14647.60000000149}]",14648.0,,,,,,,,,,,,,,,,,,,,
,type-this,12,239344,0.0-12.0-1.0,,403,"[67, 151, 78, 215, 64, 102, 178, 7, 195, 15, 253, 15, 237, 81, 70, 118, 46, 108, 96, 116, 90, 201, 119, 0, 75, 193, 69, 7, 199, 196, 43, 80]",201,66a22c0758a3d5c9d26873c6,66076de3ddde71f125afc1f6,66a237eb2bbc85e5f0e4cf53,1,0,0,True,6,99,,6389.80000000447,['nectarine'],,,,,,,,,,nectarine,,,,,,,,,
,Hangman_replay,13,301261,0.0-12.0-2.0,,403,"[67, 151, 78, 215, 64, 102, 178, 7, 195, 15, 253, 15, 237, 81, 70, 118, 46, 108, 96, 116, 90, 201, 119, 0, 75, 193, 69, 7, 199, 196, 43, 80]",201,66a22c0758a3d5c9d26873c6,66076de3ddde71f125afc1f6,66a237eb2bbc85e5f0e4cf53,1,0,0,True,6,99,,,,,,,NECTARINE,"{'letter': ['', 'A', 'E', 'B', 'C', 'D', 'F', 'G', 'H', 'P', 'S', 'T', 'N', 'R', 'I'], 't': [0, 4106.5, 6222.69999999553, 25955.29999999702, 27988.59999999404, 30172.5, 32289, 33471.5, 34988.5, 37072.09999999404, 41588.5, 43304.89999999851, 52771.39999999851, 58553.29999999702, 59903.39999999851], 'hit': [None, 1, 2, 0, 1, 0, 0, 0, 0, 0, 0, 1, 2, 1, 1], 'asked': ['', 'A', 'AE', 'AEB', 'AEBC', 'AEBCD', 'AEBCDF', 'AEBCDFG', 'AEBCDFGH', 'AEBCDFGHP', 'AEBCDFGHPS', 'AEBCDFGHPST', 'AEBCDFGHPSTN', 'AEBCDFGHPSTNR', 'AEBCDFGHPSTNRI'], 'word_state': ['_________', '____A____', '_E__A___E', '_E__A___E', '_EC_A___E', '_EC_A___E', '_EC_A___E', '_EC_A___E', '_EC_A___E', '_EC_A___E', '_EC_A___E', '_ECTA___E', 'NECTA__NE', 'NECTAR_NE', 'NECTARINE']}","['A', 'E', 'B', 'C', 'D', 'F', 'G', 'H', 'P', 'S', 'T', 'N', 'R', 'I']",14.0,8.0,0.0,,,,,,,,,,
,instructions,14,306466,0.0-12.0-3.0,,403,"[67, 151, 78, 215, 64, 102, 178, 7, 195, 15, 253, 15, 237, 81, 70, 118, 46, 108, 96, 116, 90, 201, 119, 0, 75, 193, 69, 7, 199, 196, 43, 80]",201,66a22c0758a3d5c9d26873c6,66076de3ddde71f125afc1f6,66a237eb2bbc85e5f0e4cf53,1,0,0,True,6,99,"[{""page_index"":0,""viewing_time"":5205.19999999553}]",5205.79999999702,,,,,,,,,,,,,,,,,,,,
,Guess_leaderboard,15,314172,0.0-12.0-4.0,,403,"[67, 151, 78, 215, 64, 102, 178, 7, 195, 15, 253, 15, 237, 81, 70, 118, 46, 108, 96, 116, 90, 201, 119, 0, 75, 193, 69, 7, 199, 196, 43, 80]",201,66a22c0758a3d5c9d26873c6,66076de3ddde71f125afc1f6,66a237eb2bbc85e5f0e4cf53,1,0,0,True,6,99,,,,,,,NECTARINE,,,,,,,6942.5,31.0,9.0,0.0,49.0,18.0,,,
,instructions,16,323831,0.0-12.0-0.1,,403,"[67, 151, 78, 215, 64, 102, 178, 7, 195, 15, 253, 15, 237, 81, 70, 118, 46, 108, 96, 116, 90, 201, 119, 0, 75, 193, 69, 7, 199, 196, 43, 80]",201,66a22c0758a3d5c9d26873c6,66076de3ddde71f125afc1f6,66a237eb2bbc85e5f0e4cf53,1,0,0,True,6,99,"[{""page_index"":0,""viewing_time"":9656.70000000298}]",9656.90000000596,,,,,,,,,,,,,,,,,,,,
,type-this,17,330569,0.0-12.0-1.1,,403,"[67, 151, 78, 215, 64, 102, 178, 7, 195, 15, 253, 15, 237, 81, 70, 118, 46, 108, 96, 116, 90, 201, 119, 0, 75, 193, 69, 7, 199, 196, 43, 80]",201,66a22c0758a3d5c9d26873c6,66076de3ddde71f125afc1f6,66a237eb2bbc85e5f0e4cf53,1,0,0,True,6,99,,6233.10000000149,['wrist'],,,,,,,,,,wrist,,,,,,,,,
,Hangman_replay,18,400189,0.0-12.0-2.1,,403,"[67, 151, 78, 215, 64, 102, 178, 7, 195, 15, 253, 15, 237, 81, 70, 118, 46, 108, 96, 116, 90, 201, 119, 0, 75, 193, 69, 7, 199, 196, 43, 80]",201,66a22c0758a3d5c9d26873c6,66076de3ddde71f125afc1f6,66a237eb2bbc85e5f0e4cf53,1,0,0,True,6,99,,,,,,,WRIST,"{'letter': ['', 'E', 'O', 'A', 'I', 'H', 'R', 'S', 'T', 'W'], 't': [0, 6414.20000000298, 27113.79999999702, 47462.10000000149, 50328.60000000149, 54178.89999999851, 64627.70000000298, 66061.10000000149, 66643.79999999702, 67610.70000000298], 'hit': [None, 0, 0, 0, 1, 0, 1, 1, 1, 1], 'asked': ['', 'E', 'EO', 'EOA', 'EOAI', 'EOAIH', 'EOAIHR', 'EOAIHRS', 'EOAIHRST', 'EOAIHRSTW'], 'word_state': ['_____', '_____', '_____', '_____', '__I__', '__I__', '_RI__', '_RIS_', '_RIST', 'WRIST']}","['E', 'O', 'A', 'I', 'H', 'R', 'S', 'T', 'W']",9.0,11.0,0.0,,,,,,,,,,
,instructions,19,403783,0.0-12.0-3.1,,403,"[67, 151, 78, 215, 64, 102, 178, 7, 195, 15, 253, 15, 237, 81, 70, 118, 46, 108, 96, 116, 90, 201, 119, 0, 75, 193, 69, 7, 199, 196, 43, 80]",201,66a22c0758a3d5c9d26873c6,66076de3ddde71f125afc1f6,66a237eb2bbc85e5f0e4cf53,1,0,0,True,6,99,"[{""page_index"":0,""viewing_time"":3593.0999999940395}]",3593.5999999940395,,,,,,,,,,,,,,,,,,,,
,Guess_leaderboard,20,407848,0.0-12.0-4.1,,403,"[67, 151, 78, 215, 64, 102, 178, 7, 195, 15, 253, 15, 237, 81, 70, 118, 46, 108, 96, 116, 90, 201, 119, 0, 75, 193, 69, 7, 199, 196, 43, 80]",201,66a22c0758a3d5c9d26873c6,66076de3ddde71f125afc1f6,66a237eb2bbc85e5f0e4cf53,1,0,0,True,6,99,,,,,,,WRIST,,,,,,,3307.1999999955297,13.0,67.0,1.0,2.0,11.0,,,
,instructions,21,410749,0.0-12.0-0.2,,403,"[67, 151, 78, 215, 64, 102, 178, 7, 195, 15, 253, 15, 237, 81, 70, 118, 46, 108, 96, 116, 90, 201, 119, 0, 75, 193, 69, 7, 199, 196, 43, 80]",201,66a22c0758a3d5c9d26873c6,66076de3ddde71f125afc1f6,66a237eb2bbc85e5f0e4cf53,1,0,0,True,6,99,"[{""page_index"":0,""viewing_time"":2899.10000000149}]",2899.5,,,,,,,,,,,,,,,,,,,,
,type-this,22,416766,0.0-12.0-1.2,,403,"[67, 151, 78, 215, 64, 102, 178, 7, 195, 15, 253, 15, 237, 81, 70, 118, 46, 108, 96, 116, 90, 201, 119, 0, 75, 193, 69, 7, 199, 196, 43, 80]",201,66a22c0758a3d5c9d26873c6,66076de3ddde71f125afc1f6,66a237eb2bbc85e5f0e4cf53,1,0,0,True,6,99,,5503.0,['thirty four'],,,,,,,,,,thirty four,,,,,,,,,
,Hangman_replay,23,480744,0.0-12.0-2.2,,403,"[67, 151, 78, 215, 64, 102, 178, 7, 195, 15, 253, 15, 237, 81, 70, 118, 46, 108, 96, 116, 90, 201, 119, 0, 75, 193, 69, 7, 199, 196, 43, 80]",201,66a22c0758a3d5c9d26873c6,66076de3ddde71f125afc1f6,66a237eb2bbc85e5f0e4cf53,1,0,0,True,6,99,,,,,,,THIRTY FOUR,"{'letter': ['', 'F', 'O', 'U', 'R', 'T', 'H', 'I', 'Y'], 't': [0, 11143.5, 19276.29999999702, 22892.89999999851, 26475.69999999553, 49307.29999999702, 54990.89999999851, 57490.39999999851, 61957.5], 'hit': [None, 1, 1, 1, 2, 2, 1, 1, 1], 'asked': ['', 'F', 'FO', 'FOU', 'FOUR', 'FOURT', 'FOURTH', 'FOURTHI', 'FOURTHIY'], 'word_state': ['______ ____', '______ F___', '______ FO__', '______ FOU_', '___R__ FOUR', 'T__RT_ FOUR', 'TH_RT_ FOUR', 'THIRT_ FOUR', 'THIRTY FOUR']}","['F', 'O', 'U', 'R', 'T', 'H', 'I', 'Y']",8.0,15.0,0.0,,,,,,,,,,
,instructions,24,484881,0.0-12.0-3.2,,403,"[67, 151, 78, 215, 64, 102, 178, 7, 195, 15, 253, 15, 237, 81, 70, 118, 46, 108, 96, 116, 90, 201, 119, 0, 75, 193, 69, 7, 199, 196, 43, 80]",201,66a22c0758a3d5c9d26873c6,66076de3ddde71f125afc1f6,66a237eb2bbc85e5f0e4cf53,1,0,0,True,6,99,"[{""page_index"":0,""viewing_time"":4135}]",4136.0999999940395,,,,,,,,,,,,,,,,,,,,
,Guess_leaderboard,25,488972,0.0-12.0-4.2,,403,"[67, 151, 78, 215, 64, 102, 178, 7, 195, 15, 253, 15, 237, 81, 70, 118, 46, 108, 96, 116, 90, 201, 119, 0, 75, 193, 69, 7, 199, 196, 43, 80]",201,66a22c0758a3d5c9d26873c6,66076de3ddde71f125afc1f6,66a237eb2bbc85e5f0e4cf53,1,0,0,True,6,99,,,,,,,THIRTY FOUR,,,,,,,3322.8000000044703,11.0,68.0,2.0,45.0,34.0,,,
,instructions,26,493860,0.0-12.0-0.3,,403,"[67, 151, 78, 215, 64, 102, 178, 7, 195, 15, 253, 15, 237, 81, 70, 118, 46, 108, 96, 116, 90, 201, 119, 0, 75, 193, 69, 7, 199, 196, 43, 80]",201,66a22c0758a3d5c9d26873c6,66076de3ddde71f125afc1f6,66a237eb2bbc85e5f0e4cf53,1,0,0,True,6,99,"[{""page_index"":0,""viewing_time"":4884}]",4885.0,,,,,,,,,,,,,,,,,,,,
,type-this,27,499113,0.0-12.0-1.3,,403,"[67, 151, 78, 215, 64, 102, 178, 7, 195, 15, 253, 15, 237, 81, 70, 118, 46, 108, 96, 116, 90, 201, 119, 0, 75, 193, 69, 7, 199, 196, 43, 80]",201,66a22c0758a3d5c9d26873c6,66076de3ddde71f125afc1f6,66a237eb2bbc85e5f0e4cf53,1,0,0,True,6,99,,4739.70000000298,['usain bolt'],,,,,,,,,,usain bolt,,,,,,,,,
,Hangman_replay,28,530018,0.0-12.0-2.3,,403,"[67, 151, 78, 215, 64, 102, 178, 7, 195, 15, 253, 15, 237, 81, 70, 118, 46, 108, 96, 116, 90, 201, 119, 0, 75, 193, 69, 7, 199, 196, 43, 80]",201,66a22c0758a3d5c9d26873c6,66076de3ddde71f125afc1f6,66a237eb2bbc85e5f0e4cf53,1,0,0,True,6,99,,,,,,,USAIN BOLT,"{'letter': ['', 'A', 'B', 'K', 'J', 'C', 'D', 'E', 'F', 'O', 'N', 'M', 'L', 'T', 'U', 'V', 'W', 'X', 'S', 'G', 'P', 'H', 'I'], 't': [0, 7887.89999999851, 8671.79999999702, 9421.89999999851, 10088.60000000149, 11204.70000000298, 11938.39999999851, 12721.5, 13505.20000000298, 14854.60000000149, 15704, 16488.10000000149, 17321, 18154.79999999702, 18887.5, 19703.89999999851, 21803.89999999851, 22670.29999999702, 23937.10000000149, 25771.10000000149, 27070, 28036.60000000149, 28886.70000000298], 'hit': [None, 1, 1, 0, 0, 0, 0, 0, 0, 1, 1, 0, 1, 1, 1, 0, 0, 0, 1, 0, 0, 0, 1], 'asked': ['', 'A', 'AB', 'ABK', 'ABKJ', 'ABKJC', 'ABKJCD', 'ABKJCDE', 'ABKJCDEF', 'ABKJCDEFO', 'ABKJCDEFON', 'ABKJCDEFONM', 'ABKJCDEFONML', 'ABKJCDEFONMLT', 'ABKJCDEFONMLTU', 'ABKJCDEFONMLTUV', 'ABKJCDEFONMLTUVW', 'ABKJCDEFONMLTUVWX', 'ABKJCDEFONMLTUVWXS', 'ABKJCDEFONMLTUVWXSG', 'ABKJCDEFONMLTUVWXSGP', 'ABKJCDEFONMLTUVWXSGPH', 'ABKJCDEFONMLTUVWXSGPHI'], 'word_state': ['_____ ____', '__A__ ____', '__A__ B___', '__A__ B___', '__A__ B___', '__A__ B___', '__A__ B___', '__A__ B___', '__A__ B___', '__A__ BO__', '__A_N BO__', '__A_N BO__', '__A_N BOL_', '__A_N BOLT', 'U_A_N BOLT', 'U_A_N BOLT', 'U_A_N BOLT', 'U_A_N BOLT', 'USA_N BOLT', 'USA_N BOLT', 'USA_N BOLT', 'USA_N BOLT', 'USAIN BOLT']}","['A', 'B', 'K', 'J', 'C', 'D', 'E', 'F', 'O', 'N', 'M', 'L', 'T', 'U', 'V', 'W', 'X', 'S', 'G', 'P', 'H', 'I']",22.0,2.0,0.0,,,,,,,,,,
,instructions,29,531677,0.0-12.0-3.3,,403,"[67, 151, 78, 215, 64, 102, 178, 7, 195, 15, 253, 15, 237, 81, 70, 118, 46, 108, 96, 116, 90, 201, 119, 0, 75, 193, 69, 7, 199, 196, 43, 80]",201,66a22c0758a3d5c9d26873c6,66076de3ddde71f125afc1f6,66a237eb2bbc85e5f0e4cf53,1,0,0,True,6,99,"[{""page_index"":0,""viewing_time"":1657.8999999985099}]",1658.6000000014901,,,,,,,,,,,,,,,,,,,,
,Guess_leaderboard,30,535369,0.0-12.0-4.3,,403,"[67, 151, 78, 215, 64, 102, 178, 7, 195, 15, 253, 15, 237, 81, 70, 118, 46, 108, 96, 116, 90, 201, 119, 0, 75, 193, 69, 7, 199, 196, 43, 80]",201,66a22c0758a3d5c9d26873c6,66076de3ddde71f125afc1f6,66a237eb2bbc85e5f0e4cf53,1,0,0,True,6,99,,,,,,,USAIN BOLT,,,,,,,2927.3000000044703,90.0,64.0,3.0,93.0,3.0,,,
,instructions,31,537973,0.0-12.0-0.4,,403,"[67, 151, 78, 215, 64, 102, 178, 7, 195, 15, 253, 15, 237, 81, 70, 118, 46, 108, 96, 116, 90, 201, 119, 0, 75, 193, 69, 7, 199, 196, 43, 80]",201,66a22c0758a3d5c9d26873c6,66076de3ddde71f125afc1f6,66a237eb2bbc85e5f0e4cf53,1,0,0,True,6,99,"[{""page_index"":0,""viewing_time"":2602.1999999955297}]",2602.89999999851,,,,,,,,,,,,,,,,,,,,
,type-this,32,543489,0.0-12.0-1.4,,403,"[67, 151, 78, 215, 64, 102, 178, 7, 195, 15, 253, 15, 237, 81, 70, 118, 46, 108, 96, 116, 90, 201, 119, 0, 75, 193, 69, 7, 199, 196, 43, 80]",201,66a22c0758a3d5c9d26873c6,66076de3ddde71f125afc1f6,66a237eb2bbc85e5f0e4cf53,1,0,0,True,6,99,,5002.10000000149,['kentucky'],,,,,,,,,,kentucky,,,,,,,,,
,Hangman_replay,33,557955,0.0-12.0-2.4,,403,"[67, 151, 78, 215, 64, 102, 178, 7, 195, 15, 253, 15, 237, 81, 70, 118, 46, 108, 96, 116, 90, 201, 119, 0, 75, 193, 69, 7, 199, 196, 43, 80]",201,66a22c0758a3d5c9d26873c6,66076de3ddde71f125afc1f6,66a237eb2bbc85e5f0e4cf53,1,0,0,True,6,99,,,,,,,KENTUCKY,"{'letter': ['', 'K', 'Y', 'E', 'N', 'T', 'U', 'C'], 't': [0, 5594.69999999553, 7644.60000000149, 8977.69999999553, 9427.89999999851, 10644.19999999553, 11077.10000000149, 12445], 'hit': [None, 2, 1, 1, 1, 1, 1, 1], 'asked': ['', 'K', 'KY', 'KYE', 'KYEN', 'KYENT', 'KYENTU', 'KYENTUC'], 'word_state': ['________', 'K_____K_', 'K_____KY', 'KE____KY', 'KEN___KY', 'KENT__KY', 'KENTU_KY', 'KENTUCKY']}","['K', 'Y', 'E', 'N', 'T', 'U', 'C']",7.0,15.0,0.0,,,,,,,,,,
,instructions,34,560614,0.0-12.0-3.4,,403,"[67, 151, 78, 215, 64, 102, 178, 7, 195, 15, 253, 15, 237, 81, 70, 118, 46, 108, 96, 116, 90, 201, 119, 0, 75, 193, 69, 7, 199, 196, 43, 80]",201,66a22c0758a3d5c9d26873c6,66076de3ddde71f125afc1f6,66a237eb2bbc85e5f0e4cf53,1,0,0,True,6,99,"[{""page_index"":0,""viewing_time"":2658}]",2658.10000000149,,,,,,,,,,,,,,,,,,,,
,Guess_leaderboard,35,565322,0.0-12.0-4.4,,403,"[67, 151, 78, 215, 64, 102, 178, 7, 195, 15, 253, 15, 237, 81, 70, 118, 46, 108, 96, 116, 90, 201, 119, 0, 75, 193, 69, 7, 199, 196, 43, 80]",201,66a22c0758a3d5c9d26873c6,66076de3ddde71f125afc1f6,66a237eb2bbc85e5f0e4cf53,1,0,0,True,6,99,,,,,,,KENTUCKY,,,,,,,3944.89999999851,5.0,79.0,4.0,61.0,56.0,,,
,survey-text,36,574214,0.0-13.0,,403,"[67, 151, 78, 215, 64, 102, 178, 7, 195, 15, 253, 15, 237, 81, 70, 118, 46, 108, 96, 116, 90, 201, 119, 0, 75, 193, 69, 7, 199, 196, 43, 80]",201,66a22c0758a3d5c9d26873c6,66076de3ddde71f125afc1f6,66a237eb2bbc85e5f0e4cf53,1,0,0,True,6,99,,8887.59999999404,"{""Q0"":""Kentucky""}",,,,,,,,,,,,,,,,,kentucky,,
,survey-multi-choice,37,584914,0.0-14.0,,403,"[67, 151, 78, 215, 64, 102, 178, 7, 195, 15, 253, 15, 237, 81, 70, 118, 46, 108, 96, 116, 90, 201, 119, 0, 75, 193, 69, 7, 199, 196, 43, 80]",201,66a22c0758a3d5c9d26873c6,66076de3ddde71f125afc1f6,66a237eb2bbc85e5f0e4cf53,1,0,0,True,6,99,,10699.09999999404,"{""Q0"":""6. I would be <b>last</b> out of the six of us.""}",[0],,self-rating,,,,,,,,,6.0,,,,,,,
,html-slider-response,38,591379,0.0-15.0,,403,"[67, 151, 78, 215, 64, 102, 178, 7, 195, 15, 253, 15, 237, 81, 70, 118, 46, 108, 96, 116, 90, 201, 119, 0, 75, 193, 69, 7, 199, 196, 43, 80]",201,66a22c0758a3d5c9d26873c6,66076de3ddde71f125afc1f6,66a237eb2bbc85e5f0e4cf53,1,0,0,True,6,99,,6461.89999999851,,,,,,,,,,,99,,,,,,,,"<p>Overall, how confident were you in your answer to this last question?</p>",99.0
,survey-text,39,663935,0.0-16.0,,403,"[67, 151, 78, 215, 64, 102, 178, 7, 195, 15, 253, 15, 237, 81, 70, 118, 46, 108, 96, 116, 90, 201, 119, 0, 75, 193, 69, 7, 199, 196, 43, 80]",201,66a22c0758a3d5c9d26873c6,66076de3ddde71f125afc1f6,66a237eb2bbc85e5f0e4cf53,1,0,0,True,6,99,,72538.79999999702,"{""Q0"":""Task comprehension- goal is to use the fewest words but I could see people trying to guess it the fastest\n\nWord comprehension""}",,,,,,,,,,,,,,,,,,,
,survey-text,40,686282,0.0-17.0,,403,"[67, 151, 78, 215, 64, 102, 178, 7, 195, 15, 253, 15, 237, 81, 70, 118, 46, 108, 96, 116, 90, 201, 119, 0, 75, 193, 69, 7, 199, 196, 43, 80]",201,66a22c0758a3d5c9d26873c6,66076de3ddde71f125afc1f6,66a237eb2bbc85e5f0e4cf53,1,0,0,True,6,99,,22351.5,"{""Q0"":""I gave up like an idiot! :) Should've played it like I play wordle lol""}",,,,,,,,,,,,,,,,,,,
,instructions,41,695150,0.0-18.0,,403,"[67, 151, 78, 215, 64, 102, 178, 7, 195, 15, 253, 15, 237, 81, 70, 118, 46, 108, 96, 116, 90, 201, 119, 0, 75, 193, 69, 7, 199, 196, 43, 80]",201,66a22c0758a3d5c9d26873c6,66076de3ddde71f125afc1f6,66a237eb2bbc85e5f0e4cf53,1,0,0,True,6,99,"[{""page_index"":0,""viewing_time"":8865.89999999851}]",8867.39999999851,,,,,,,,,,,,,,,,,,,,
