[{"success":true,"trial_type":"fullscreen","trial_index":0,"time_elapsed":19494,"internal_node_id":"0.0-0.0","protocol_sum":"","subject_identifier":23,"subject_sum":[79,200,43,38,174,203,71,210,134,140,78,251,227,88,23,50,163,231,203,204,108,46,251,50,6,44,8,23,10,5,238,184],"subject_pair":11,"STUDY_ID":"669a58f4f17d67c0aba4c4d3","PROLIFIC_PID":"5e79340b6d9a624e3f39586d","SESSION_ID":"669a64f4b494202208f297f3","practice_instructions":1,"leaderboard_instructions":0,"bonus":0,"reveal_word":true,"self_rating":"3","confidence":"70"},{"view_history":"[{\"page_index\":0,\"viewing_time\":15371.899999976158}]","rt":15372.399999976158,"trial_type":"instructions","trial_index":1,"time_elapsed":34868,"internal_node_id":"0.0-1.0","protocol_sum":"","subject_identifier":23,"subject_sum":[79,200,43,38,174,203,71,210,134,140,78,251,227,88,23,50,163,231,203,204,108,46,251,50,6,44,8,23,10,5,238,184],"subject_pair":11,"STUDY_ID":"669a58f4f17d67c0aba4c4d3","PROLIFIC_PID":"5e79340b6d9a624e3f39586d","SESSION_ID":"669a64f4b494202208f297f3","practice_instructions":1,"leaderboard_instructions":0,"bonus":0,"reveal_word":true,"self_rating":"3","confidence":"70"},{"view_history":"[{\"page_index\":0,\"viewing_time\":5718.600000023842}]","rt":5719,"trial_type":"instructions","trial_index":2,"time_elapsed":40588,"internal_node_id":"0.0-2.0-0.0","protocol_sum":"","subject_identifier":23,"subject_sum":[79,200,43,38,174,203,71,210,134,140,78,251,227,88,23,50,163,231,203,204,108,46,251,50,6,44,8,23,10,5,238,184],"subject_pair":11,"STUDY_ID":"669a58f4f17d67c0aba4c4d3","PROLIFIC_PID":"5e79340b6d9a624e3f39586d","SESSION_ID":"669a64f4b494202208f297f3","practice_instructions":1,"leaderboard_instructions":0,"bonus":0,"reveal_word":true,"self_rating":"3","confidence":"70"},{"rt":7353.900000095367,"responses":"{\"Q0\":\"... reveal the word with as <b>few letter guesses</b> as possible\"}","question_order":"[0]","trial_type":"survey-multi-choice","trial_index":3,"time_elapsed":47945,"internal_node_id":"0.0-2.0-1.0","protocol_sum":"","subject_identifier":23,"subject_sum":[79,200,43,38,174,203,71,210,134,140,78,251,227,88,23,50,163,231,203,204,108,46,251,50,6,44,8,23,10,5,238,184],"subject_pair":11,"correct":true,"test_part":"multichoice_nonpretend","STUDY_ID":"669a58f4f17d67c0aba4c4d3","PROLIFIC_PID":"5e79340b6d9a624e3f39586d","SESSION_ID":"669a64f4b494202208f297f3","practice_instructions":1,"leaderboard_instructions":0,"bonus":0,"reveal_word":true,"self_rating":"3","confidence":"70"},{"view_history":"[{\"page_index\":0,\"viewing_time\":1868.2999999523163}]","rt":1868.5,"trial_type":"instructions","trial_index":4,"time_elapsed":49814,"internal_node_id":"0.0-3.0","protocol_sum":"","subject_identifier":23,"subject_sum":[79,200,43,38,174,203,71,210,134,140,78,251,227,88,23,50,163,231,203,204,108,46,251,50,6,44,8,23,10,5,238,184],"subject_pair":11,"STUDY_ID":"669a58f4f17d67c0aba4c4d3","PROLIFIC_PID":"5e79340b6d9a624e3f39586d","SESSION_ID":"669a64f4b494202208f297f3","practice_instructions":1,"leaderboard_instructions":0,"bonus":0,"reveal_word":true,"self_rating":"3","confidence":"70"},{"word":"ZEBRA","click_log":{"letter":["","M","R","T","B","Z","E","A"],"t":[0,3827.7999999523163,7859.299999952316,11374.899999976158,14743.700000047684,17277.299999952316,19297.799999952316,21247],"hit":[null,0,1,0,1,1,1,1],"asked":["","M","MR","MRT","MRTB","MRTBZ","MRTBZE","MRTBZEA"],"word_state":["_____","_____","___R_","___R_","__BR_","Z_BR_","ZEBR_","ZEBRA"]},"hover_log":{"letter":["?","?","?","?","?","?","?","?","?","?","?","?","?","?","?","?","?","?","?","?","?","?","?","?","?","?","?","?","?","?","?","?","?","?","?","?","?","?","?","?","?","?","?","?","?","?","?","?","?","?","?","?","?","?","?","?","?","?","?","?","?","?","?","?","?","?","?","?","?","?","?","?","?","?","?","?","?","?","?","?","?","?","?","?","?","?","?","?","?","?","?","?","?","?","?","?","?","?","?","?","?","?","?","?","?","?","?","?","?","?","?","?","?","?","?","?","?","?","?","?","?","?","?","?","?","?","?","?","?","?","?","?","?","?","?","?","?","?","?","?","?","?","?","?","?","?","?","?","?","?","?","?","?","?","?","?","?","?","?","?","?","?","?","?","?","?","?","?","?","?","?","?","?","?","?","?","?","?","?","?","?","?","?","?","?","L","L","L","L","?","?","?","?","?","?","?","?","?","M","M","M","M","M","M","M","M","M","M","M","M","M","M","M","M","M","M","M","M","M","M","M","M","M","M","M","M","M","M","M","M","M","M","M","M","M","M","M","M","M","M","M","M","M","M","M","M","M","M","M","M","M","M","M","M","M","M","M","M","M","M","M","M","M","M","M","M","M","M","M","M","M","M","M","M","M","M","M","M","M","M","M","M","M","M","M","M","M","M","M","M","M","M","M","M","M","M","M","M","M","M","M","M","M","M","M","M","M","M","M","M","M","M","M","M","M","M","M","M","M","M","M","M","M","M","M","M","M","M","M","M","M","M","M","M","M","M","M","M","M","M","M","M","M","M","M","M","M","M","M","M","M","M","M","M","M","M","M","M","M","M","M","M","M","M","M","M","M","M","M","M","M","M","?","N","N","?","O","O","O","O","?","?","?","P","P","P","P","P","P","P","P","P","P","P","P","P","P","P","P","P","P","P","P","P","P","P","P","P","P","P","P","P","P","P","P","P","P","P","P","P","P","P","P","P","P","P","P","P","P","P","P","P","P","P","Q","Q","Q","?","R","R","R","R","R","R","R","R","R","R","R","R","R","R","R","R","R","R","R","R","R","R","R","R","R","R","R","R","R","R","R","R","R","R","R","R","R","R","R","R","R","R","R","R","R","R","R","R","R","R","R","R","R","R","R","R","R","R","R","R","R","R","R","R","R","R","R","R","R","R","R","R","R","R","R","R","R","R","R","R","R","R","R","R","R","R","R","R","R","R","R","R","R","R","R","R","R","R","R","R","R","R","R","R","R","R","R","R","R","R","R","R","R","R","R","R","R","R","R","R","R","R","R","R","R","R","R","R","R","R","R","R","R","R","R","R","R","R","R","R","R","R","R","R","R","R","R","R","R","R","R","R","R","R","R","R","R","R","R","R","R","R","R","R","R","R","R","R","R","R","R","R","R","R","R","R","R","R","R","R","?","Q","?","?","?","X","?","W","W","W","W","W","W","W","W","W","W","?","?","V","V","U","U","?","T","T","T","T","T","T","T","T","T","T","T","T","T","T","T","T","T","T","T","T","T","T","T","T","T","T","T","T","T","T","T","T","T","T","T","T","T","T","T","T","T","T","T","T","T","T","T","T","T","T","T","T","T","T","T","T","T","T","T","T","T","T","T","T","T","T","T","T","T","T","T","T","T","T","T","T","T","T","T","T","T","T","T","T","T","T","T","T","T","T","T","T","T","T","T","T","T","T","T","T","T","T","T","T","T","T","T","T","T","T","T","T","T","T","T","T","T","T","T","T","T","T","T","T","T","T","T","T","T","T","T","T","T","T","T","T","T","T","T","T","T","T","T","T","T","T","T","T","T","T","T","T","T","T","T","T","T","T","T","T","T","T","T","T","T","T","T","T","T","T","T","T","T","T","T","T","T","T","T","T","T","T","T","T","T","T","T","T","T","T","T","T","T","T","?","K","K","K","K","?","?","?","?","?","?","?","?","?","?","B","B","B","B","B","B","B","B","B","B","B","B","B","B","B","B","B","B","B","B","B","B","B","B","B","B","B","B","B","B","B","B","B","B","B","B","B","B","B","B","B","B","B","B","B","B","B","B","B","B","B","B","B","B","B","B","B","B","B","B","B","B","B","B","B","B","B","B","B","B","B","B","B","B","B","B","B","B","B","B","B","B","B","B","B","B","B","B","B","B","B","B","B","B","B","B","B","B","B","B","B","B","B","B","B","B","B","B","B","B","B","B","B","B","B","B","B","B","B","B","B","B","B","B","B","B","B","B","C","D","E","F","?","H","I","I","I","I","I","?","?","?","?","?","?","?","?","?","?","?","Q","?","?","?","?","?","?","Z","Z","Z","Z","Z","Z","Z","Z","Z","Z","Z","Z","Z","Z","Z","Z","Z","Z","Z","Z","Z","Z","Z","Z","Z","Z","Z","Z","Z","Z","Z","Z","Z","Z","Z","Z","Z","Z","Z","Z","Z","Z","Z","Z","Z","Z","Z","Z","Z","Z","Z","Z","Z","Z","Z","Z","Z","Z","Z","Z","?","Y","?","?","?","N","?","?","M","M","M","?","?","?","?","?","?","?","?","?","?","?","?","?","?","?","?","?","F","F","F","F","F","F","F","F","F","F","F","F","F","F","F","F","F","F","F","F","F","F","F","F","F","F","F","F","?","E","E","E","E","E","E","E","E","E","E","E","E","E","E","E","E","E","E","E","E","E","E","E","E","E","E","E","E","E","E","E","E","E","E","E","E","E","E","E","E","E","E","E","E","E","E","E","E","?","D","D","D","D","?","?","?","?","?","?","?","?","?","?","?","?","?","?","?","?","?","?","?","?","?","?","?","?","?","?","?","?","?","?","?","?","?","?","?","?","?","?","?","?","?","?","?","?","?","?","?","?","?","?","?","?","?","?","?","?","K","K","?","?","?","?","?","?","?","?","?","?","?","?","?","?","A","A","A","A","A","A","A","A","A","A","A","A","A","A","A","A","A","A","A","A","A","A","A","A","A","A","A","A","A","A","A","A","A","A","A","A","A","A","A","A","A","A","A","A","A","A","A","A","A","A","A","A","A","A","A","A","A","A","A","A","A","A","A","A","A","A","A","A","A","A","A","A","A","A","A","A","A","A","?","?","J","?","?","?","?","?","?","?","?","?","?","?","?","?","?","?","?","?","?","?","?","?","?","?","?","?","?","?","?","?","?","?","?","?","?","?","?","?","?","?","?","?","?","?","?","?","?","?","?","?","?","?","?","?","?","?","?","?","?","?","?","?","?","?"],"t":[26,38,54,71,87,104,121,138,154,172,188,204,222,238,255,272,288,305,322,339,355,371,389,405,422,439,455,472,489,505,522,539,555,572,588,605,622,638,655,671,689,706,721,738,755,772,789,805,822,838,856,871,888,904,922,939,955,972,989,1005,1022,1038,1055,1072,1088,1105,1122,1139,1155,1172,1189,1206,1222,1238,1255,1272,1289,1305,1322,1338,1356,1371,1388,1405,1421,1438,1455,1472,1488,1505,1522,1539,1555,1572,1589,1605,1622,1638,1655,1672,1688,1704,1722,1739,1755,1772,1789,1805,1822,1839,1855,1871,1888,1905,1922,1939,1954,1972,1989,2005,2021,2038,2055,2072,2087,2105,2122,2139,2155,2172,2189,2205,2221,2238,2255,2271,2289,2305,2322,2338,2356,2372,2389,2405,2422,2438,2455,2471,2488,2505,2521,2538,2555,2572,2588,2605,2622,2638,2655,2672,2689,2705,2721,2738,2755,2772,2788,2805,2822,2838,2856,2872,2888,2905,2922,2937,2954,2971,2988,3004,3021,3039,3054,3071,3088,3105,3121,3138,3155,3171,3188,3204,3221,3237,3254,3271,3288,3304,3321,3338,3354,3371,3388,3404,3421,3438,3454,3470,3488,3504,3521,3537,3554,3571,3587,3605,3621,3638,3655,3672,3688,3705,3722,3738,3755,3771,3788,3805,3820,3839,3855,3871,3888,3905,3922,3938,3955,3973,3989,4005,4022,4039,4056,4072,4088,4105,4122,4139,4155,4172,4189,4205,4222,4239,4255,4272,4289,4304,4321,4339,4355,4372,4389,4406,4422,4438,4455,4472,4489,4506,4522,4538,4555,4572,4588,4605,4622,4638,4655,4672,4689,4705,4722,4738,4756,4772,4788,4805,4822,4838,4855,4872,4888,4905,4922,4938,4956,4971,4988,5004,5022,5039,5055,5072,5089,5105,5122,5139,5155,5172,5189,5205,5222,5238,5255,5271,5287,5305,5322,5338,5355,5371,5388,5405,5421,5438,5454,5471,5488,5505,5522,5539,5555,5572,5589,5605,5622,5638,5655,5672,5688,5705,5722,5738,5755,5772,5787,5804,5822,5837,5855,5872,5888,5905,5922,5938,5955,5972,5989,6005,6021,6038,6055,6072,6088,6105,6122,6138,6155,6171,6187,6204,6221,6238,6254,6271,6287,6304,6321,6338,6354,6371,6388,6405,6421,6437,6454,6471,6488,6504,6521,6538,6554,6571,6587,6604,6621,6637,6655,6671,6688,6705,6722,6738,6755,6772,6789,6805,6822,6838,6856,6872,6888,6905,6922,6938,6955,6972,6988,7005,7022,7038,7056,7072,7088,7105,7122,7138,7155,7171,7188,7205,7221,7237,7254,7271,7288,7305,7321,7337,7354,7371,7388,7405,7422,7438,7455,7472,7488,7505,7521,7538,7554,7571,7587,7604,7621,7638,7655,7671,7688,7705,7722,7739,7756,7772,7788,7805,7821,7837,7855,7874,7888,7904,7921,7938,7954,7971,7988,8005,8022,8038,8055,8072,8088,8105,8122,8139,8155,8173,8189,8206,8222,8238,8255,8271,8288,8305,8322,8339,8355,8372,8388,8405,8422,8439,8455,8471,8488,8505,8521,8538,8555,8572,8588,8605,8620,8637,8654,8672,8688,8705,8722,8738,8756,8772,8788,8806,8822,8838,8855,8871,8888,8906,8922,8938,8956,8972,8988,9005,9022,9039,9055,9071,9088,9105,9122,9138,9156,9172,9189,9205,9222,9239,9255,9272,9288,9305,9322,9339,9355,9372,9389,9405,9422,9438,9455,9472,9489,9506,9521,9538,9556,9571,9589,9606,9621,9638,9656,9672,9688,9705,9721,9738,9755,9772,9789,9805,9822,9838,9855,9871,9888,9905,9921,9938,9955,9971,9989,10006,10021,10038,10054,10070,10087,10105,10122,10138,10155,10171,10188,10205,10220,10238,10254,10271,10288,10304,10321,10338,10354,10371,10388,10404,10421,10438,10454,10471,10488,10506,10522,10538,10554,10571,10587,10604,10621,10638,10654,10671,10688,10704,10721,10738,10754,10771,10788,10805,10822,10837,10854,10871,10888,10904,10921,10938,10954,10971,10987,11004,11021,11038,11054,11071,11088,11104,11121,11137,11155,11171,11188,11205,11221,11237,11254,11271,11288,11305,11321,11338,11355,11371,11388,11404,11421,11437,11454,11471,11487,11504,11521,11538,11554,11571,11588,11605,11621,11638,11656,11672,11688,11705,11722,11738,11755,11772,11788,11805,11822,11838,11855,11872,11888,11905,11922,11939,11955,11972,11989,12005,12022,12038,12055,12072,12089,12105,12121,12137,12155,12171,12188,12205,12222,12238,12255,12270,12287,12304,12322,12338,12355,12371,12389,12405,12422,12438,12455,12472,12488,12505,12522,12539,12556,12571,12588,12606,12621,12638,12655,12671,12688,12705,12722,12739,12755,12772,12789,12805,12822,12838,12855,12872,12887,12904,12921,12939,12955,12972,12988,13005,13021,13038,13055,13072,13088,13105,13121,13139,13155,13172,13188,13205,13222,13238,13255,13271,13289,13305,13321,13339,13355,13372,13389,13405,13422,13438,13455,13472,13488,13506,13522,13538,13555,13572,13589,13605,13622,13639,13655,13672,13688,13705,13722,13739,13755,13772,13788,13806,13822,13839,13855,13871,13887,13904,13921,13937,13954,13972,13989,14005,14022,14038,14055,14071,14088,14105,14121,14138,14155,14171,14188,14205,14221,14238,14255,14271,14288,14304,14321,14337,14354,14371,14387,14404,14421,14438,14454,14471,14488,14504,14521,14538,14554,14571,14588,14605,14621,14638,14655,14672,14688,14705,14721,14738,14755,14772,14788,14805,14822,14839,14855,14872,14888,14905,14922,14938,14955,14972,14989,15005,15022,15039,15056,15071,15088,15105,15122,15139,15156,15172,15189,15205,15222,15245,15271,15288,15305,15321,15338,15355,15372,15389,15406,15421,15438,15456,15472,15489,15505,15522,15538,15555,15571,15588,15605,15621,15638,15655,15671,15689,15706,15722,15739,15755,15770,15787,15804,15822,15839,15855,15871,15888,15905,15921,15938,15956,15972,15988,16005,16022,16038,16055,16072,16088,16105,16121,16139,16155,16172,16188,16205,16222,16238,16254,16271,16288,16305,16321,16338,16354,16371,16387,16404,16421,16438,16454,16471,16488,16504,16521,16538,16555,16571,16588,16604,16621,16638,16654,16671,16688,16704,16721,16738,16755,16771,16788,16804,16821,16838,16855,16871,16888,16904,16921,16938,16954,16972,16988,17004,17022,17037,17054,17071,17088,17105,17121,17138,17154,17171,17188,17205,17221,17238,17255,17271,17288,17305,17321,17338,17355,17372,17389,17405,17422,17438,17455,17472,17488,17505,17522,17539,17555,17571,17588,17605,17622,17638,17656,17672,17688,17706,17722,17738,17755,17771,17788,17805,17821,17838,17854,17871,17888,17904,17921,17938,17954,17971,17988,18003,18021,18038,18054,18071,18088,18104,18121,18138,18154,18171,18188,18204,18221,18238,18255,18272,18288,18304,18321,18338,18355,18371,18388,18405,18421,18438,18454,18472,18488,18506,18521,18537,18554,18571,18588,18604,18621,18638,18654,18671,18688,18705,18720,18738,18754,18771,18788,18804,18822,18838,18854,18872,18888,18905,18921,18938,18954,18971,18987,19004,19021,19038,19055,19071,19088,19105,19121,19137,19155,19171,19188,19205,19222,19238,19255,19271,19288,19304,19321,19338,19355,19371,19388,19405,19422,19438,19455,19471,19488,19505,19521,19538,19554,19571,19588,19604,19621,19637,19654,19671,19688,19705,19721,19737,19754,19771,19788,19805,19821,19838,19854,19871,19888,19905,19921,19938,19955,19971,19988,20005,20022,20039,20055,20071,20088,20105,20121,20139,20156,20172,20189,20205,20222,20239,20255,20272,20289,20305,20321,20338,20355,20372,20388,20405,20422,20439,20455,20472,20488,20505,20521,20538,20554,20571,20587,20604,20621,20638,20654,20671,20688,20703,20721,20738,20755,20771,20788,20804,20821,20838,20853,20871,20888,20904,20922,20938,20955,20972,20989,21005,21022,21038,21055,21071,21088,21105,21121,21138,21155,21172,21187,21204,21220,21238,21258,21271,21288,21304,21322,21338,21355,21372,21388,21405,21422,21439,21455,21472,21488,21505,21522,21538,21555,21572,21589,21605,21622,21639,21656,21671,21688,21705,21722,21739,21755,21772,21788,21805,21822,21838,21855,21873,21888,21905,21922,21938,21955,21972,21989,22005,22022,22038,22056,22072,22089,22105,22122,22138,22155,22172,22188,22204,22221,22238,22254,22271,22288,22304,22321,22338,22355,22372,22388,22405,22422,22439,22456,22472,22488,22504,22521,22537,22555,22572,22589,22605,22622,22639,22656,22672,22688,22705,22722,22739,22755,22772,22789,22805,22822,22839,22855,22872,22889,22906,22922,22938,22955,22972,22988,23005,23022,23039,23055,23072,23088,23106,23122,23139,23155,23172,23189,23205,23222,23239,23257],"hit":[null],"x":[-1.8775510204081634,-1.8775510204081634,-1.8775510204081634,-1.8775510204081634,-1.8775510204081634,-1.8775510204081634,-1.8775510204081634,-1.8775510204081634,-1.8775510204081634,-1.8775510204081634,-1.8775510204081634,-1.8775510204081634,-1.8775510204081634,-1.8775510204081634,-1.8775510204081634,-1.8775510204081634,-1.8775510204081634,-1.8775510204081634,-1.8775510204081634,-1.8775510204081634,-1.8775510204081634,-1.8775510204081634,-1.8775510204081634,-1.8775510204081634,-1.8775510204081634,-1.8775510204081634,-1.8775510204081634,-1.8775510204081634,-1.8775510204081634,-1.8775510204081634,-1.8775510204081634,-1.8775510204081634,-1.8775510204081634,-1.8775510204081634,-1.8775510204081634,-1.8775510204081634,-1.8775510204081634,-1.8775510204081634,-1.8775510204081634,-1.8775510204081634,-1.8775510204081634,-1.8775510204081634,-1.8775510204081634,-1.8775510204081634,-1.8775510204081634,-1.8775510204081634,-1.8775510204081634,-1.8775510204081634,-1.8775510204081634,-1.8775510204081634,-1.8775510204081634,-1.8775510204081634,-1.8775510204081634,-1.8775510204081634,-1.8775510204081634,-1.8775510204081634,-1.8775510204081634,-1.8775510204081634,-1.8775510204081634,-1.8775510204081634,-1.8775510204081634,-1.8775510204081634,-1.8775510204081634,-1.8775510204081634,-1.8775510204081634,-1.8775510204081634,-1.8775510204081634,-1.8775510204081634,-1.8775510204081634,-1.8775510204081634,-1.8775510204081634,-1.8775510204081634,-1.8775510204081634,-1.8775510204081634,-1.8775510204081634,-1.8775510204081634,-1.8775510204081634,-1.8775510204081634,-1.8775510204081634,-1.8775510204081634,-1.8775510204081634,-1.8775510204081634,-1.8775510204081634,-1.8775510204081634,-1.8775510204081634,-1.8775510204081634,-1.8775510204081634,-1.8775510204081634,-1.8775510204081634,-1.8775510204081634,-1.8775510204081634,-1.8775510204081634,-1.8775510204081634,-1.8775510204081634,-1.8775510204081634,-1.8775510204081634,-1.8775510204081634,-1.8775510204081634,-1.8775510204081634,-1.8775510204081634,-1.8775510204081634,-1.8775510204081634,-1.8775510204081634,-1.8775510204081634,-1.8775510204081634,-1.8775510204081634,-1.8775510204081634,-1.8775510204081634,-1.8775510204081634,-1.8775510204081634,-1.8775510204081634,-1.8775510204081634,-1.8775510204081634,-1.8775510204081634,-1.8775510204081634,-1.8775510204081634,-1.8775510204081634,-1.8775510204081634,-1.8775510204081634,-1.8775510204081634,-1.8775510204081634,-1.8775510204081634,-1.8775510204081634,-1.8775510204081634,-1.8775510204081634,-1.8775510204081634,-1.8775510204081634,-1.8775510204081634,-1.8775510204081634,-1.8775510204081634,-1.8775510204081634,-1.8775510204081634,-1.8775510204081634,-1.8775510204081634,-1.8775510204081634,-1.8775510204081634,-1.8775510204081634,-1.8775510204081634,-1.8775510204081634,-1.8775510204081634,-1.8775510204081634,-1.8775510204081634,-1.8775510204081634,-1.8775510204081634,-1.8775510204081634,-1.8775510204081634,-1.8775510204081634,-1.8775510204081634,-1.8775510204081634,-1.8775510204081634,-1.8775510204081634,-1.8775510204081634,-1.8775510204081634,-1.8775510204081634,-1.8775510204081634,-1.8775510204081634,-1.8775510204081634,-1.8775510204081634,-1.8775510204081634,-1.8775510204081634,-1.8775510204081634,-1.8775510204081634,-1.8775510204081634,-1.8775510204081634,-1.8775510204081634,-1.8775510204081634,-1.8775510204081634,-1.8775510204081634,-1.8775510204081634,-1.8775510204081634,-1.8775510204081634,-1.8775510204081634,-1.8775510204081634,-1.8775510204081634,-1.8775510204081634,-1.8775510204081634,-1.8775510204081634,-1.8775510204081634,-1.8775510204081634,-1.8775510204081634,-1.8775510204081634,0.08503401360544217,0.10884353741496598,0.1360544217687075,0.19727891156462585,0.24489795918367346,0.29931972789115646,0.32653061224489793,0.3401360544217687,0.3469387755102041,0.35034013605442177,0.35034013605442177,0.35034013605442177,0.35034013605442177,0.35034013605442177,0.35374149659863946,0.36054421768707484,0.36394557823129253,0.3707482993197279,0.37755102040816324,0.391156462585034,0.4013605442176871,0.41836734693877553,0.42517006802721086,0.43537414965986393,0.4387755102040816,0.4387755102040816,0.4387755102040816,0.4387755102040816,0.4387755102040816,0.4387755102040816,0.4387755102040816,0.4387755102040816,0.4387755102040816,0.4387755102040816,0.4387755102040816,0.4387755102040816,0.4387755102040816,0.4387755102040816,0.4387755102040816,0.4387755102040816,0.4387755102040816,0.4387755102040816,0.4387755102040816,0.4387755102040816,0.4387755102040816,0.4387755102040816,0.4387755102040816,0.4387755102040816,0.4387755102040816,0.4387755102040816,0.4387755102040816,0.4387755102040816,0.4387755102040816,0.4387755102040816,0.4387755102040816,0.4387755102040816,0.4387755102040816,0.4387755102040816,0.4387755102040816,0.4387755102040816,0.4387755102040816,0.4387755102040816,0.4387755102040816,0.4387755102040816,0.4387755102040816,0.4387755102040816,0.4387755102040816,0.4387755102040816,0.4387755102040816,0.4387755102040816,0.4387755102040816,0.4387755102040816,0.4387755102040816,0.4387755102040816,0.4387755102040816,0.4387755102040816,0.4387755102040816,0.4387755102040816,0.4387755102040816,0.4387755102040816,0.4387755102040816,0.4387755102040816,0.4387755102040816,0.4387755102040816,0.4387755102040816,0.4387755102040816,0.4387755102040816,0.4387755102040816,0.4387755102040816,0.4387755102040816,0.4387755102040816,0.4387755102040816,0.4387755102040816,0.4387755102040816,0.4387755102040816,0.4387755102040816,0.4387755102040816,0.4387755102040816,0.4387755102040816,0.4387755102040816,0.4387755102040816,0.4387755102040816,0.4387755102040816,0.4387755102040816,0.4387755102040816,0.4387755102040816,0.4387755102040816,0.4387755102040816,0.4387755102040816,0.4387755102040816,0.4387755102040816,0.4387755102040816,0.4387755102040816,0.4387755102040816,0.4387755102040816,0.4387755102040816,0.4387755102040816,0.4387755102040816,0.4387755102040816,0.4387755102040816,0.4387755102040816,0.4387755102040816,0.4387755102040816,0.4387755102040816,0.4387755102040816,0.4387755102040816,0.4387755102040816,0.4387755102040816,0.4387755102040816,0.4387755102040816,0.4387755102040816,0.4387755102040816,0.4387755102040816,0.4387755102040816,0.4387755102040816,0.4387755102040816,0.4387755102040816,0.4387755102040816,0.4387755102040816,0.4387755102040816,0.4387755102040816,0.4387755102040816,0.4387755102040816,0.4387755102040816,0.4387755102040816,0.4387755102040816,0.4387755102040816,0.4387755102040816,0.4387755102040816,0.4387755102040816,0.4387755102040816,0.4387755102040816,0.4387755102040816,0.4387755102040816,0.4387755102040816,0.4387755102040816,0.4387755102040816,0.4387755102040816,0.4387755102040816,0.4387755102040816,0.4387755102040816,0.4387755102040816,0.4387755102040816,0.4387755102040816,0.4387755102040816,0.4387755102040816,0.4387755102040816,0.4387755102040816,0.4387755102040816,0.4387755102040816,0.4387755102040816,0.4387755102040816,0.4387755102040816,0.4387755102040816,0.4387755102040816,0.4387755102040816,0.4387755102040816,0.4387755102040816,0.4387755102040816,0.4387755102040816,0.4387755102040816,0.4387755102040816,0.4387755102040816,0.4387755102040816,0.4387755102040816,0.4387755102040816,0.4387755102040816,0.4387755102040816,0.4421768707482993,0.4557823129251701,0.47278911564625853,0.5,0.5340136054421769,0.5714285714285714,0.6428571428571429,0.6870748299319728,0.7244897959183674,0.7448979591836735,0.7653061224489796,0.7789115646258503,0.7891156462585034,0.7959183673469388,0.7993197278911565,0.8027210884353742,0.8061224489795918,0.8061224489795918,0.8095238095238095,0.8095238095238095,0.8129251700680272,0.8129251700680272,0.8129251700680272,0.8129251700680272,0.8163265306122449,0.8163265306122449,0.8163265306122449,0.8163265306122449,0.8163265306122449,0.8163265306122449,0.8163265306122449,0.8163265306122449,0.8163265306122449,0.8163265306122449,0.8163265306122449,0.8163265306122449,0.8163265306122449,0.8163265306122449,0.8163265306122449,0.8163265306122449,0.8163265306122449,0.8163265306122449,0.8163265306122449,0.8163265306122449,0.8163265306122449,0.8163265306122449,0.8163265306122449,0.8163265306122449,0.8163265306122449,0.8163265306122449,0.8163265306122449,0.8163265306122449,0.8163265306122449,0.8163265306122449,0.8163265306122449,0.8163265306122449,0.8163265306122449,0.8163265306122449,0.8163265306122449,0.8163265306122449,0.8163265306122449,0.8197278911564626,0.8333333333333334,0.8639455782312925,0.9047619047619048,0.9523809523809523,1.0034013605442176,1.0442176870748299,1.0680272108843538,1.098639455782313,1.1054421768707483,1.1088435374149659,1.1088435374149659,1.1122448979591837,1.1122448979591837,1.1122448979591837,1.1122448979591837,1.1122448979591837,1.1122448979591837,1.1156462585034013,1.119047619047619,1.1258503401360545,1.129251700680272,1.1394557823129252,1.1428571428571428,1.1428571428571428,1.1428571428571428,1.1428571428571428,1.1428571428571428,1.1428571428571428,1.1428571428571428,1.1428571428571428,1.1428571428571428,1.1428571428571428,1.1428571428571428,1.1428571428571428,1.1428571428571428,1.1428571428571428,1.1428571428571428,1.1428571428571428,1.1428571428571428,1.1428571428571428,1.1428571428571428,1.1428571428571428,1.1428571428571428,1.1428571428571428,1.1428571428571428,1.1428571428571428,1.1428571428571428,1.1428571428571428,1.1428571428571428,1.1428571428571428,1.1428571428571428,1.1428571428571428,1.1428571428571428,1.1428571428571428,1.1428571428571428,1.1428571428571428,1.1428571428571428,1.1428571428571428,1.1428571428571428,1.1428571428571428,1.1428571428571428,1.1428571428571428,1.1428571428571428,1.1428571428571428,1.1428571428571428,1.1428571428571428,1.1428571428571428,1.1428571428571428,1.1428571428571428,1.1428571428571428,1.1428571428571428,1.1428571428571428,1.1428571428571428,1.1428571428571428,1.1428571428571428,1.1428571428571428,1.1428571428571428,1.1428571428571428,1.1428571428571428,1.1428571428571428,1.1428571428571428,1.1428571428571428,1.1428571428571428,1.1428571428571428,1.1428571428571428,1.1428571428571428,1.1428571428571428,1.1428571428571428,1.1428571428571428,1.1428571428571428,1.1428571428571428,1.1428571428571428,1.1428571428571428,1.1428571428571428,1.1428571428571428,1.1428571428571428,1.1428571428571428,1.1428571428571428,1.1428571428571428,1.1428571428571428,1.1428571428571428,1.1428571428571428,1.1428571428571428,1.1428571428571428,1.1428571428571428,1.1428571428571428,1.1428571428571428,1.1428571428571428,1.1428571428571428,1.1428571428571428,1.1428571428571428,1.1428571428571428,1.1428571428571428,1.1428571428571428,1.1428571428571428,1.1428571428571428,1.1428571428571428,1.1428571428571428,1.1428571428571428,1.1428571428571428,1.1428571428571428,1.1428571428571428,1.1428571428571428,1.1428571428571428,1.1428571428571428,1.1428571428571428,1.1428571428571428,1.1428571428571428,1.1428571428571428,1.1428571428571428,1.1428571428571428,1.1428571428571428,1.1428571428571428,1.1428571428571428,1.1428571428571428,1.1428571428571428,1.1428571428571428,1.1428571428571428,1.1428571428571428,1.1428571428571428,1.1428571428571428,1.1428571428571428,1.1428571428571428,1.1428571428571428,1.1428571428571428,1.1428571428571428,1.1428571428571428,1.1428571428571428,1.1428571428571428,1.1428571428571428,1.1428571428571428,1.1428571428571428,1.1428571428571428,1.1428571428571428,1.1428571428571428,1.1428571428571428,1.1428571428571428,1.1428571428571428,1.1428571428571428,1.1428571428571428,1.1428571428571428,1.1428571428571428,1.1428571428571428,1.1428571428571428,1.1428571428571428,1.1428571428571428,1.1428571428571428,1.1428571428571428,1.1428571428571428,1.1428571428571428,1.1428571428571428,1.1428571428571428,1.1394557823129252,1.1394557823129252,1.1394557823129252,1.1394557823129252,1.1394557823129252,1.1394557823129252,1.1394557823129252,1.1360544217687074,1.1360544217687074,1.1326530612244898,1.1326530612244898,1.129251700680272,1.1224489795918366,1.1156462585034013,1.0918367346938775,1.0510204081632653,0.9965986394557823,0.9285714285714286,0.8503401360544217,0.7721088435374149,0.6870748299319728,0.6394557823129252,0.5884353741496599,0.5510204081632653,0.5374149659863946,0.5306122448979592,0.5306122448979592,0.5306122448979592,0.5306122448979592,0.5306122448979592,0.5306122448979592,0.5306122448979592,0.5136054421768708,0.48299319727891155,0.42517006802721086,0.37755102040816324,0.29591836734693877,0.25510204081632654,0.20408163265306123,0.18027210884353742,0.1564625850340136,0.1360544217687075,0.1326530612244898,0.1292517006802721,0.1292517006802721,0.1292517006802721,0.1292517006802721,0.12585034013605442,0.12244897959183673,0.11564625850340136,0.10884353741496598,0.1054421768707483,0.10204081632653061,0.10204081632653061,0.10204081632653061,0.10204081632653061,0.10204081632653061,0.10204081632653061,0.10204081632653061,0.11224489795918367,0.11904761904761904,0.12244897959183673,0.1292517006802721,0.1292517006802721,0.1326530612244898,0.1326530612244898,0.1326530612244898,0.1326530612244898,0.1326530612244898,0.1326530612244898,0.1326530612244898,0.1326530612244898,0.1326530612244898,0.1326530612244898,0.1326530612244898,0.1326530612244898,0.1326530612244898,0.1326530612244898,0.1326530612244898,0.1326530612244898,0.1326530612244898,0.1326530612244898,0.1326530612244898,0.1326530612244898,0.1326530612244898,0.1326530612244898,0.1326530612244898,0.1326530612244898,0.1326530612244898,0.1326530612244898,0.1326530612244898,0.1326530612244898,0.1326530612244898,0.1326530612244898,0.1326530612244898,0.1326530612244898,0.1326530612244898,0.1326530612244898,0.1326530612244898,0.1326530612244898,0.1326530612244898,0.1326530612244898,0.1326530612244898,0.1326530612244898,0.1326530612244898,0.1326530612244898,0.1326530612244898,0.1326530612244898,0.1326530612244898,0.1326530612244898,0.1326530612244898,0.1326530612244898,0.1326530612244898,0.1326530612244898,0.1326530612244898,0.1326530612244898,0.1326530612244898,0.1326530612244898,0.1326530612244898,0.1326530612244898,0.1326530612244898,0.1326530612244898,0.1326530612244898,0.1326530612244898,0.1326530612244898,0.1326530612244898,0.1326530612244898,0.1326530612244898,0.1326530612244898,0.1326530612244898,0.1326530612244898,0.1326530612244898,0.1326530612244898,0.1326530612244898,0.1326530612244898,0.1326530612244898,0.1326530612244898,0.1326530612244898,0.1326530612244898,0.1326530612244898,0.1326530612244898,0.1326530612244898,0.1326530612244898,0.1326530612244898,0.1326530612244898,0.1326530612244898,0.1326530612244898,0.1326530612244898,0.1326530612244898,0.1326530612244898,0.1326530612244898,0.1326530612244898,0.1326530612244898,0.1326530612244898,0.1326530612244898,0.1326530612244898,0.1326530612244898,0.1326530612244898,0.1326530612244898,0.1326530612244898,0.1326530612244898,0.1326530612244898,0.1326530612244898,0.1326530612244898,0.1326530612244898,0.1326530612244898,0.1326530612244898,0.1326530612244898,0.1326530612244898,0.1326530612244898,0.1326530612244898,0.1326530612244898,0.1326530612244898,0.1326530612244898,0.1326530612244898,0.1326530612244898,0.1326530612244898,0.1326530612244898,0.1326530612244898,0.1326530612244898,0.1326530612244898,0.1326530612244898,0.1326530612244898,0.1326530612244898,0.1326530612244898,0.1326530612244898,0.1326530612244898,0.1326530612244898,0.1326530612244898,0.1326530612244898,0.1326530612244898,0.1326530612244898,0.1326530612244898,0.1326530612244898,0.1326530612244898,0.1326530612244898,0.1326530612244898,0.1326530612244898,0.1326530612244898,0.1326530612244898,0.1326530612244898,0.1326530612244898,0.1326530612244898,0.1326530612244898,0.1326530612244898,0.1326530612244898,0.1326530612244898,0.1326530612244898,0.1326530612244898,0.1326530612244898,0.1326530612244898,0.1326530612244898,0.1326530612244898,0.1326530612244898,0.1326530612244898,0.1326530612244898,0.1326530612244898,0.1326530612244898,0.1326530612244898,0.1326530612244898,0.1326530612244898,0.1326530612244898,0.1326530612244898,0.1326530612244898,0.1326530612244898,0.1326530612244898,0.1326530612244898,0.1326530612244898,0.1326530612244898,0.1326530612244898,0.1326530612244898,0.1326530612244898,0.1326530612244898,0.1360544217687075,0.14285714285714285,0.14625850340136054,0.14625850340136054,0.14625850340136054,0.15306122448979592,0.15306122448979592,0.1564625850340136,0.1598639455782313,0.1598639455782313,0.1598639455782313,0.1598639455782313,0.1598639455782313,0.1598639455782313,0.1564625850340136,0.14625850340136054,0.1360544217687075,0.1292517006802721,0.12244897959183673,0.11904761904761904,0.11904761904761904,0.11904761904761904,0.11904761904761904,0.11904761904761904,0.11904761904761904,0.11904761904761904,0.11904761904761904,0.11904761904761904,0.11904761904761904,0.11904761904761904,0.12244897959183673,0.12244897959183673,0.12585034013605442,0.1292517006802721,0.1292517006802721,0.1326530612244898,0.1326530612244898,0.1326530612244898,0.1326530612244898,0.1326530612244898,0.1326530612244898,0.1326530612244898,0.1326530612244898,0.1326530612244898,0.1326530612244898,0.1326530612244898,0.1326530612244898,0.1326530612244898,0.1326530612244898,0.1326530612244898,0.1326530612244898,0.1326530612244898,0.1326530612244898,0.1326530612244898,0.1326530612244898,0.1326530612244898,0.1326530612244898,0.1326530612244898,0.1326530612244898,0.1326530612244898,0.1326530612244898,0.1326530612244898,0.1326530612244898,0.1326530612244898,0.1326530612244898,0.1326530612244898,0.1326530612244898,0.1326530612244898,0.1326530612244898,0.1326530612244898,0.1326530612244898,0.1326530612244898,0.1326530612244898,0.1326530612244898,0.1326530612244898,0.1326530612244898,0.1326530612244898,0.1326530612244898,0.1326530612244898,0.1326530612244898,0.1326530612244898,0.1326530612244898,0.1326530612244898,0.1326530612244898,0.1326530612244898,0.1326530612244898,0.1326530612244898,0.1326530612244898,0.1326530612244898,0.1326530612244898,0.1326530612244898,0.1326530612244898,0.1326530612244898,0.1326530612244898,0.1326530612244898,0.1326530612244898,0.1326530612244898,0.1326530612244898,0.1326530612244898,0.1326530612244898,0.1326530612244898,0.1326530612244898,0.1326530612244898,0.1326530612244898,0.1326530612244898,0.1326530612244898,0.1326530612244898,0.1326530612244898,0.1326530612244898,0.1326530612244898,0.1326530612244898,0.1326530612244898,0.1326530612244898,0.1326530612244898,0.1326530612244898,0.1326530612244898,0.1326530612244898,0.1326530612244898,0.1326530612244898,0.1326530612244898,0.1326530612244898,0.1326530612244898,0.1326530612244898,0.1326530612244898,0.1326530612244898,0.1326530612244898,0.1326530612244898,0.1326530612244898,0.1326530612244898,0.1326530612244898,0.1326530612244898,0.1326530612244898,0.1326530612244898,0.1326530612244898,0.1326530612244898,0.1326530612244898,0.1326530612244898,0.1326530612244898,0.1326530612244898,0.1326530612244898,0.1326530612244898,0.1360544217687075,0.17006802721088435,0.25170068027210885,0.3741496598639456,0.5374149659863946,0.7312925170068028,0.9455782312925171,1.034013605442177,1.1224489795918366,1.153061224489796,1.1734693877551021,1.1802721088435375,1.1802721088435375,1.1802721088435375,1.1768707482993197,1.1700680272108843,1.1666666666666667,1.163265306122449,1.1598639455782314,1.153061224489796,1.1428571428571428,1.1258503401360545,1.1020408163265305,1.0714285714285714,1.0272108843537415,1.0034013605442176,0.9931972789115646,0.9863945578231292,0.9863945578231292,0.9863945578231292,0.9863945578231292,0.9863945578231292,0.9863945578231292,0.9863945578231292,0.9863945578231292,0.9863945578231292,0.9829931972789115,0.9829931972789115,0.9829931972789115,0.9829931972789115,0.9829931972789115,0.9829931972789115,0.9829931972789115,0.9829931972789115,0.9829931972789115,0.9829931972789115,0.9829931972789115,0.9829931972789115,0.9829931972789115,0.9829931972789115,0.9829931972789115,0.9829931972789115,0.9829931972789115,0.9829931972789115,0.9829931972789115,0.9829931972789115,0.9829931972789115,0.9829931972789115,0.9829931972789115,0.9829931972789115,0.9829931972789115,0.9829931972789115,0.9829931972789115,0.9829931972789115,0.9829931972789115,0.9829931972789115,0.9829931972789115,0.9829931972789115,0.9829931972789115,0.9829931972789115,0.9829931972789115,0.9829931972789115,0.9829931972789115,0.9829931972789115,0.9829931972789115,0.9829931972789115,0.9829931972789115,0.9829931972789115,0.9829931972789115,0.9829931972789115,0.9829931972789115,0.9829931972789115,0.9829931972789115,0.9829931972789115,0.9829931972789115,0.9829931972789115,0.9829931972789115,0.9829931972789115,0.9829931972789115,0.9727891156462585,0.95578231292517,0.9387755102040817,0.8945578231292517,0.8299319727891157,0.7551020408163265,0.6632653061224489,0.5714285714285714,0.5102040816326531,0.47959183673469385,0.4557823129251701,0.4421768707482993,0.4387755102040816,0.4387755102040816,0.4387755102040816,0.4421768707482993,0.4523809523809524,0.4557823129251701,0.46598639455782315,0.47278911564625853,0.48639455782312924,0.5,0.5204081632653061,0.5408163265306123,0.5714285714285714,0.5884353741496599,0.6122448979591837,0.6326530612244898,0.6530612244897959,0.6768707482993197,0.7006802721088435,0.7210884353741497,0.7346938775510204,0.7448979591836735,0.7585034013605442,0.7619047619047619,0.7653061224489796,0.7687074829931972,0.7687074829931972,0.7687074829931972,0.7687074829931972,0.7687074829931972,0.7687074829931972,0.7619047619047619,0.7517006802721088,0.7380952380952381,0.7278911564625851,0.7210884353741497,0.7142857142857143,0.7108843537414966,0.7108843537414966,0.7108843537414966,0.7108843537414966,0.7074829931972789,0.7006802721088435,0.6870748299319728,0.6768707482993197,0.6564625850340136,0.6428571428571429,0.6258503401360545,0.6156462585034014,0.6020408163265306,0.5986394557823129,0.5952380952380952,0.5952380952380952,0.5952380952380952,0.5952380952380952,0.5952380952380952,0.5918367346938775,0.5918367346938775,0.5850340136054422,0.5816326530612245,0.5816326530612245,0.5816326530612245,0.5816326530612245,0.5816326530612245,0.5816326530612245,0.5816326530612245,0.5816326530612245,0.5816326530612245,0.5816326530612245,0.5816326530612245,0.5816326530612245,0.5816326530612245,0.5816326530612245,0.5816326530612245,0.5816326530612245,0.5816326530612245,0.5816326530612245,0.5816326530612245,0.5816326530612245,0.5816326530612245,0.5816326530612245,0.5816326530612245,0.5816326530612245,0.5816326530612245,0.5816326530612245,0.5816326530612245,0.5816326530612245,0.5816326530612245,0.5816326530612245,0.5816326530612245,0.5816326530612245,0.5816326530612245,0.5816326530612245,0.5680272108843537,0.5476190476190477,0.5034013605442177,0.46938775510204084,0.4387755102040816,0.41836734693877553,0.3979591836734694,0.37755102040816324,0.3673469387755102,0.36054421768707484,0.35714285714285715,0.35714285714285715,0.35714285714285715,0.35714285714285715,0.35714285714285715,0.35714285714285715,0.35714285714285715,0.35714285714285715,0.35714285714285715,0.35714285714285715,0.35714285714285715,0.35714285714285715,0.35714285714285715,0.35714285714285715,0.35714285714285715,0.35714285714285715,0.35714285714285715,0.35714285714285715,0.35714285714285715,0.35714285714285715,0.35714285714285715,0.35714285714285715,0.35714285714285715,0.35714285714285715,0.35714285714285715,0.35714285714285715,0.35714285714285715,0.35714285714285715,0.35714285714285715,0.35714285714285715,0.35714285714285715,0.35714285714285715,0.35714285714285715,0.35714285714285715,0.35714285714285715,0.35714285714285715,0.35714285714285715,0.35714285714285715,0.35714285714285715,0.35714285714285715,0.35714285714285715,0.35714285714285715,0.35714285714285715,0.35714285714285715,0.35714285714285715,0.35714285714285715,0.35714285714285715,0.35034013605442177,0.336734693877551,0.3129251700680272,0.272108843537415,0.23809523809523808,0.19047619047619047,0.12244897959183673,0.10204081632653061,0.0782312925170068,0.06462585034013606,0.05782312925170068,0.05102040816326531,0.047619047619047616,0.04081632653061224,0.030612244897959183,0.023809523809523808,0.013605442176870748,0.006802721088435374,0,-0.003401360544217687,-0.01020408163265306,-0.013605442176870748,-0.017006802721088437,-0.017006802721088437,-0.017006802721088437,-0.017006802721088437,-0.017006802721088437,-0.017006802721088437,-0.017006802721088437,-0.017006802721088437,-0.017006802721088437,-0.017006802721088437,-0.017006802721088437,-0.02040816326530612,-0.02040816326530612,-0.02040816326530612,-0.02040816326530612,-0.02040816326530612,-0.02040816326530612,-0.02040816326530612,-0.02040816326530612,-0.02040816326530612,-0.02040816326530612,-0.02040816326530612,-0.02040816326530612,-0.02040816326530612,-0.02040816326530612,-0.02040816326530612,-0.02040816326530612,-0.02040816326530612,-0.02040816326530612,-0.02040816326530612,-0.02040816326530612,-0.02040816326530612,-0.02040816326530612,-0.02040816326530612,-0.02040816326530612,-0.02040816326530612,-0.02040816326530612,-0.02040816326530612,-0.02040816326530612,-0.02040816326530612,-0.02040816326530612,-0.02040816326530612,-0.02040816326530612,-0.02040816326530612,-0.02040816326530612,-0.02040816326530612,-0.02040816326530612,-0.02040816326530612,-0.02040816326530612,-0.02040816326530612,-0.02040816326530612,-0.02040816326530612,-0.02040816326530612,-0.02040816326530612,-0.02040816326530612,-0.02040816326530612,-0.02040816326530612,-0.02040816326530612,-0.02040816326530612,-0.02040816326530612,-0.02040816326530612,-0.02040816326530612,-0.02040816326530612,-0.02040816326530612,-0.02040816326530612,-0.02040816326530612,-0.02040816326530612,-0.02040816326530612,-0.02040816326530612,-0.02040816326530612,-0.02040816326530612,-0.02040816326530612,-0.02040816326530612,-0.02040816326530612,-0.02040816326530612,-0.02040816326530612,-0.02040816326530612,-0.02040816326530612,-0.02040816326530612,-0.01020408163265306,0.017006802721088437,0.061224489795918366,0.11224489795918367,0.1564625850340136,0.18027210884353742,0.19387755102040816,0.20408163265306123,0.20408163265306123,0.20408163265306123,0.20408163265306123,0.20408163265306123,0.20408163265306123,0.20408163265306123,0.20408163265306123,0.20408163265306123,0.20408163265306123,0.20408163265306123,0.20408163265306123,0.20408163265306123,0.20408163265306123,0.20408163265306123,0.20408163265306123,0.20408163265306123,0.20408163265306123,0.20408163265306123,0.20408163265306123,0.20408163265306123,0.20408163265306123,0.20408163265306123,0.20408163265306123,0.20408163265306123,0.20408163265306123,0.20408163265306123,0.20408163265306123,0.20408163265306123,0.20408163265306123,0.20408163265306123,0.20408163265306123,0.20408163265306123,0.20408163265306123,0.20408163265306123,0.20408163265306123,0.20408163265306123,0.20408163265306123,0.20408163265306123,0.20408163265306123,0.20408163265306123,0.20408163265306123,0.20408163265306123,0.20408163265306123,0.20408163265306123,0.20408163265306123,0.20408163265306123,0.20408163265306123,0.20408163265306123,0.20408163265306123,0.20408163265306123,0.20408163265306123,0.20408163265306123,0.20408163265306123,0.20408163265306123,0.20408163265306123,0.20408163265306123,0.20408163265306123],"y":[-3.134920634920635,-3.134920634920635,-3.134920634920635,-3.134920634920635,-3.134920634920635,-3.134920634920635,-3.134920634920635,-3.134920634920635,-3.134920634920635,-3.134920634920635,-3.134920634920635,-3.134920634920635,-3.134920634920635,-3.134920634920635,-3.134920634920635,-3.134920634920635,-3.134920634920635,-3.134920634920635,-3.134920634920635,-3.134920634920635,-3.134920634920635,-3.134920634920635,-3.134920634920635,-3.134920634920635,-3.134920634920635,-3.134920634920635,-3.134920634920635,-3.134920634920635,-3.134920634920635,-3.134920634920635,-3.134920634920635,-3.134920634920635,-3.134920634920635,-3.134920634920635,-3.134920634920635,-3.134920634920635,-3.134920634920635,-3.134920634920635,-3.134920634920635,-3.134920634920635,-3.134920634920635,-3.134920634920635,-3.134920634920635,-3.134920634920635,-3.134920634920635,-3.134920634920635,-3.134920634920635,-3.134920634920635,-3.134920634920635,-3.134920634920635,-3.134920634920635,-3.134920634920635,-3.134920634920635,-3.134920634920635,-3.134920634920635,-3.134920634920635,-3.134920634920635,-3.134920634920635,-3.134920634920635,-3.134920634920635,-3.134920634920635,-3.134920634920635,-3.134920634920635,-3.134920634920635,-3.134920634920635,-3.134920634920635,-3.134920634920635,-3.134920634920635,-3.134920634920635,-3.134920634920635,-3.134920634920635,-3.134920634920635,-3.134920634920635,-3.134920634920635,-3.134920634920635,-3.134920634920635,-3.134920634920635,-3.134920634920635,-3.134920634920635,-3.134920634920635,-3.134920634920635,-3.134920634920635,-3.134920634920635,-3.134920634920635,-3.134920634920635,-3.134920634920635,-3.134920634920635,-3.134920634920635,-3.134920634920635,-3.134920634920635,-3.134920634920635,-3.134920634920635,-3.134920634920635,-3.134920634920635,-3.134920634920635,-3.134920634920635,-3.134920634920635,-3.134920634920635,-3.134920634920635,-3.134920634920635,-3.134920634920635,-3.134920634920635,-3.134920634920635,-3.134920634920635,-3.134920634920635,-3.134920634920635,-3.134920634920635,-3.134920634920635,-3.134920634920635,-3.134920634920635,-3.134920634920635,-3.134920634920635,-3.134920634920635,-3.134920634920635,-3.134920634920635,-3.134920634920635,-3.134920634920635,-3.134920634920635,-3.134920634920635,-3.134920634920635,-3.134920634920635,-3.134920634920635,-3.134920634920635,-3.134920634920635,-3.134920634920635,-3.134920634920635,-3.134920634920635,-3.134920634920635,-3.134920634920635,-3.134920634920635,-3.134920634920635,-3.134920634920635,-3.134920634920635,-3.134920634920635,-3.134920634920635,-3.134920634920635,-3.134920634920635,-3.134920634920635,-3.134920634920635,-3.134920634920635,-3.134920634920635,-3.134920634920635,-3.134920634920635,-3.134920634920635,-3.134920634920635,-3.134920634920635,-3.134920634920635,-3.134920634920635,-3.134920634920635,-3.134920634920635,-3.134920634920635,-3.134920634920635,-3.134920634920635,-3.134920634920635,-3.134920634920635,-3.134920634920635,-3.134920634920635,-3.134920634920635,-3.134920634920635,-3.134920634920635,-3.134920634920635,-3.134920634920635,-3.134920634920635,-3.134920634920635,-3.134920634920635,-3.134920634920635,-3.134920634920635,-3.134920634920635,-3.134920634920635,-3.134920634920635,-3.134920634920635,-3.134920634920635,-3.134920634920635,-3.134920634920635,-3.134920634920635,-3.134920634920635,-3.134920634920635,-3.134920634920635,-3.134920634920635,-3.134920634920635,-3.134920634920635,0.8222222222222221,0.7841269841269839,0.7365079365079363,0.6603174603174602,0.603174603174603,0.5460317460317459,0.5174603174603173,0.5079365079365078,0.5079365079365078,0.5079365079365078,0.5079365079365078,0.5079365079365078,0.5079365079365078,0.5079365079365078,0.5079365079365078,0.5079365079365078,0.5174603174603173,0.5269841269841268,0.5269841269841268,0.5365079365079364,0.5365079365079364,0.5365079365079364,0.5269841269841268,0.5079365079365078,0.5079365079365078,0.5079365079365078,0.5079365079365078,0.5079365079365078,0.5079365079365078,0.5079365079365078,0.5079365079365078,0.5079365079365078,0.5079365079365078,0.5079365079365078,0.5079365079365078,0.5079365079365078,0.5079365079365078,0.5079365079365078,0.5079365079365078,0.5079365079365078,0.5079365079365078,0.5079365079365078,0.5079365079365078,0.5079365079365078,0.5079365079365078,0.5079365079365078,0.5079365079365078,0.5079365079365078,0.5079365079365078,0.5079365079365078,0.5079365079365078,0.5079365079365078,0.5079365079365078,0.5079365079365078,0.5079365079365078,0.5079365079365078,0.5079365079365078,0.5079365079365078,0.5079365079365078,0.5079365079365078,0.5079365079365078,0.5079365079365078,0.5079365079365078,0.5079365079365078,0.5079365079365078,0.5079365079365078,0.5079365079365078,0.5079365079365078,0.5079365079365078,0.5079365079365078,0.5079365079365078,0.5079365079365078,0.5079365079365078,0.5079365079365078,0.5079365079365078,0.5079365079365078,0.5079365079365078,0.5079365079365078,0.5079365079365078,0.5079365079365078,0.5079365079365078,0.5079365079365078,0.5079365079365078,0.5079365079365078,0.5079365079365078,0.5079365079365078,0.5079365079365078,0.5079365079365078,0.5079365079365078,0.5079365079365078,0.5079365079365078,0.5079365079365078,0.5079365079365078,0.5079365079365078,0.5079365079365078,0.5079365079365078,0.5079365079365078,0.5079365079365078,0.5079365079365078,0.5079365079365078,0.5079365079365078,0.5079365079365078,0.5079365079365078,0.5079365079365078,0.5079365079365078,0.5079365079365078,0.5079365079365078,0.5079365079365078,0.5079365079365078,0.5079365079365078,0.5079365079365078,0.5079365079365078,0.5079365079365078,0.5079365079365078,0.5079365079365078,0.5079365079365078,0.5079365079365078,0.5079365079365078,0.5079365079365078,0.5079365079365078,0.5079365079365078,0.5079365079365078,0.5079365079365078,0.5079365079365078,0.5079365079365078,0.5079365079365078,0.5079365079365078,0.5079365079365078,0.5079365079365078,0.5079365079365078,0.5079365079365078,0.5079365079365078,0.5079365079365078,0.5079365079365078,0.5079365079365078,0.5079365079365078,0.5079365079365078,0.5079365079365078,0.5079365079365078,0.5079365079365078,0.5079365079365078,0.5079365079365078,0.5079365079365078,0.5079365079365078,0.5079365079365078,0.5079365079365078,0.5079365079365078,0.5079365079365078,0.5079365079365078,0.5079365079365078,0.5079365079365078,0.5079365079365078,0.5079365079365078,0.5079365079365078,0.5079365079365078,0.5079365079365078,0.5079365079365078,0.5079365079365078,0.5079365079365078,0.5079365079365078,0.5079365079365078,0.5079365079365078,0.5079365079365078,0.5079365079365078,0.5079365079365078,0.5079365079365078,0.5079365079365078,0.5079365079365078,0.5079365079365078,0.5079365079365078,0.5079365079365078,0.5079365079365078,0.5079365079365078,0.5079365079365078,0.5079365079365078,0.5079365079365078,0.5079365079365078,0.5079365079365078,0.5079365079365078,0.5079365079365078,0.5079365079365078,0.5079365079365078,0.5079365079365078,0.5079365079365078,0.5079365079365078,0.5079365079365078,0.5079365079365078,0.5079365079365078,0.5079365079365078,0.49841269841269825,0.4888888888888887,0.46984126984126967,0.4603174603174601,0.45079365079365064,0.45079365079365064,0.45079365079365064,0.45079365079365064,0.45079365079365064,0.45079365079365064,0.45079365079365064,0.45079365079365064,0.4603174603174601,0.46984126984126967,0.46984126984126967,0.46984126984126967,0.46984126984126967,0.46984126984126967,0.46984126984126967,0.46984126984126967,0.47936507936507916,0.47936507936507916,0.47936507936507916,0.47936507936507916,0.47936507936507916,0.47936507936507916,0.47936507936507916,0.47936507936507916,0.47936507936507916,0.47936507936507916,0.47936507936507916,0.47936507936507916,0.47936507936507916,0.47936507936507916,0.47936507936507916,0.47936507936507916,0.47936507936507916,0.47936507936507916,0.47936507936507916,0.47936507936507916,0.47936507936507916,0.47936507936507916,0.47936507936507916,0.47936507936507916,0.47936507936507916,0.47936507936507916,0.47936507936507916,0.47936507936507916,0.47936507936507916,0.47936507936507916,0.47936507936507916,0.47936507936507916,0.47936507936507916,0.47936507936507916,0.47936507936507916,0.47936507936507916,0.47936507936507916,0.47936507936507916,0.47936507936507916,0.47936507936507916,0.47936507936507916,0.46984126984126967,0.45079365079365064,0.43174603174603154,0.42222222222222205,0.4126984126984125,0.4126984126984125,0.4126984126984125,0.4126984126984125,0.4126984126984125,0.4126984126984125,0.42222222222222205,0.42222222222222205,0.42222222222222205,0.42222222222222205,0.42222222222222205,0.42222222222222205,0.42222222222222205,0.42222222222222205,0.42222222222222205,0.42222222222222205,0.42222222222222205,0.42222222222222205,0.42222222222222205,0.42222222222222205,0.42222222222222205,0.43174603174603154,0.4412698412698411,0.4412698412698411,0.4412698412698411,0.4412698412698411,0.4412698412698411,0.4412698412698411,0.4412698412698411,0.4412698412698411,0.4412698412698411,0.4412698412698411,0.4412698412698411,0.4412698412698411,0.4412698412698411,0.4412698412698411,0.4412698412698411,0.4412698412698411,0.4412698412698411,0.4412698412698411,0.4412698412698411,0.4412698412698411,0.4412698412698411,0.4412698412698411,0.4412698412698411,0.4412698412698411,0.4412698412698411,0.4412698412698411,0.4412698412698411,0.4412698412698411,0.4412698412698411,0.4412698412698411,0.4412698412698411,0.4412698412698411,0.4412698412698411,0.4412698412698411,0.4412698412698411,0.4412698412698411,0.4412698412698411,0.4412698412698411,0.4412698412698411,0.4412698412698411,0.4412698412698411,0.4412698412698411,0.4412698412698411,0.4412698412698411,0.4412698412698411,0.4412698412698411,0.4412698412698411,0.4412698412698411,0.4412698412698411,0.4412698412698411,0.4412698412698411,0.4412698412698411,0.4412698412698411,0.4412698412698411,0.4412698412698411,0.4412698412698411,0.4412698412698411,0.4412698412698411,0.4412698412698411,0.4412698412698411,0.4412698412698411,0.4412698412698411,0.4412698412698411,0.4412698412698411,0.4412698412698411,0.4412698412698411,0.4412698412698411,0.4412698412698411,0.4412698412698411,0.4412698412698411,0.4412698412698411,0.4412698412698411,0.4412698412698411,0.4412698412698411,0.4412698412698411,0.4412698412698411,0.4412698412698411,0.4412698412698411,0.4412698412698411,0.4412698412698411,0.4412698412698411,0.4412698412698411,0.4412698412698411,0.4412698412698411,0.4412698412698411,0.4412698412698411,0.4412698412698411,0.4412698412698411,0.4412698412698411,0.4412698412698411,0.4412698412698411,0.4412698412698411,0.4412698412698411,0.4412698412698411,0.4412698412698411,0.4412698412698411,0.4412698412698411,0.4412698412698411,0.4412698412698411,0.4412698412698411,0.4412698412698411,0.4412698412698411,0.4412698412698411,0.4412698412698411,0.4412698412698411,0.4412698412698411,0.4412698412698411,0.4412698412698411,0.4412698412698411,0.4412698412698411,0.4412698412698411,0.4412698412698411,0.4412698412698411,0.4412698412698411,0.4412698412698411,0.4412698412698411,0.4412698412698411,0.4412698412698411,0.4412698412698411,0.4412698412698411,0.4412698412698411,0.4412698412698411,0.4412698412698411,0.4412698412698411,0.4412698412698411,0.4412698412698411,0.4412698412698411,0.4412698412698411,0.4412698412698411,0.4412698412698411,0.4412698412698411,0.4412698412698411,0.4412698412698411,0.4412698412698411,0.4412698412698411,0.4412698412698411,0.4412698412698411,0.4412698412698411,0.4412698412698411,0.4412698412698411,0.4412698412698411,0.4412698412698411,0.4412698412698411,0.4412698412698411,0.4412698412698411,0.4412698412698411,0.4412698412698411,0.4412698412698411,0.4412698412698411,0.4412698412698411,0.4412698412698411,0.4412698412698411,0.4412698412698411,0.45079365079365064,0.45079365079365064,0.4603174603174601,0.4603174603174601,0.46984126984126967,0.47936507936507916,0.4888888888888887,0.5365079365079364,0.5936507936507934,0.6507936507936506,0.7174603174603172,0.7746031746031744,0.8317460317460316,0.8984126984126982,0.9555555555555554,1.0126984126984124,1.06031746031746,1.079365079365079,1.0888888888888888,1.0888888888888888,1.0888888888888888,1.0888888888888888,1.0888888888888888,1.0888888888888888,1.0888888888888888,1.0888888888888888,1.0888888888888888,1.0888888888888888,1.079365079365079,1.0412698412698411,1.0317460317460316,1.0222222222222221,1.0222222222222221,1.0222222222222221,1.0222222222222221,1.0222222222222221,1.0222222222222221,1.0222222222222221,1.0222222222222221,1.0317460317460316,1.0317460317460316,1.0317460317460316,1.0317460317460316,1.0317460317460316,1.0317460317460316,1.0317460317460316,1.0317460317460316,1.0317460317460316,1.0317460317460316,1.0317460317460316,1.0222222222222221,1.0222222222222221,1.0126984126984124,1.0126984126984124,1.0126984126984124,1.0126984126984124,1.0126984126984124,1.0126984126984124,1.0126984126984124,1.0126984126984124,1.0126984126984124,1.0126984126984124,1.0126984126984124,1.0126984126984124,1.0126984126984124,1.0126984126984124,1.0126984126984124,1.0126984126984124,1.0126984126984124,1.0126984126984124,1.0126984126984124,1.0126984126984124,1.0126984126984124,1.0126984126984124,1.0126984126984124,1.0126984126984124,1.0126984126984124,1.0126984126984124,1.0126984126984124,1.0126984126984124,1.0126984126984124,1.0126984126984124,1.0126984126984124,1.0126984126984124,1.0126984126984124,1.0126984126984124,1.0126984126984124,1.0126984126984124,1.0126984126984124,1.0126984126984124,1.0126984126984124,1.0126984126984124,1.0126984126984124,1.0126984126984124,1.0126984126984124,1.0126984126984124,1.0126984126984124,1.0126984126984124,1.0126984126984124,1.0126984126984124,1.0126984126984124,1.0126984126984124,1.0126984126984124,1.0126984126984124,1.0126984126984124,1.0126984126984124,1.0126984126984124,1.0126984126984124,1.0126984126984124,1.0126984126984124,1.0126984126984124,1.0126984126984124,1.0126984126984124,1.0126984126984124,1.0126984126984124,1.0126984126984124,1.0126984126984124,1.0126984126984124,1.0126984126984124,1.0126984126984124,1.0126984126984124,1.0126984126984124,1.0126984126984124,1.0126984126984124,1.0126984126984124,1.0126984126984124,1.0126984126984124,1.0126984126984124,1.0126984126984124,1.0126984126984124,1.0126984126984124,1.0126984126984124,1.0126984126984124,1.0126984126984124,1.0126984126984124,1.0126984126984124,1.0126984126984124,1.0126984126984124,1.0126984126984124,1.0126984126984124,1.0126984126984124,1.0126984126984124,1.0126984126984124,1.0126984126984124,1.0126984126984124,1.0126984126984124,1.0126984126984124,1.0126984126984124,1.0126984126984124,1.0126984126984124,1.0126984126984124,1.0126984126984124,1.0126984126984124,1.0126984126984124,1.0126984126984124,1.0126984126984124,1.0126984126984124,1.0126984126984124,1.0126984126984124,1.0126984126984124,1.0126984126984124,1.0126984126984124,1.0126984126984124,1.0126984126984124,1.0126984126984124,1.0126984126984124,1.0126984126984124,1.0126984126984124,1.0126984126984124,1.0126984126984124,1.0126984126984124,1.0126984126984124,1.0126984126984124,1.0126984126984124,1.0126984126984124,1.0126984126984124,1.0126984126984124,1.0126984126984124,1.0126984126984124,1.0126984126984124,1.0126984126984124,1.0126984126984124,1.0126984126984124,1.0126984126984124,1.0126984126984124,1.0126984126984124,1.0126984126984124,1.0126984126984124,1.0126984126984124,1.0126984126984124,1.0126984126984124,1.0126984126984124,1.0126984126984124,1.0126984126984124,1.0126984126984124,1.0126984126984124,1.0126984126984124,1.0126984126984124,1.0126984126984124,1.0126984126984124,1.0126984126984124,1.0126984126984124,1.0126984126984124,1.0126984126984124,1.0126984126984124,1.0126984126984124,1.0126984126984124,1.0126984126984124,1.0126984126984124,1.0126984126984124,1.0126984126984124,1.0126984126984124,1.0126984126984124,1.0126984126984124,1.0126984126984124,1.0126984126984124,1.0126984126984124,1.0126984126984124,1.0126984126984124,1.0126984126984124,1.0126984126984124,1.0126984126984124,1.0126984126984124,1.0126984126984124,0.9555555555555554,0.8888888888888887,0.7555555555555554,0.6412698412698411,0.5079365079365078,0.43174603174603154,0.3555555555555554,0.2793650793650792,0.2603174603174601,0.24126984126984108,0.23174603174603156,0.22222222222222204,0.22222222222222204,0.22222222222222204,0.22222222222222204,0.22222222222222204,0.19365079365079346,0.1650793650793649,0.10793650793650776,0.06984126984126966,0.031746031746031564,-0.00634920634920653,-0.025396825396825577,-0.0349206349206351,-0.0349206349206351,-0.0349206349206351,-0.0349206349206351,-0.0349206349206351,-0.0349206349206351,-0.0349206349206351,-0.025396825396825577,-0.025396825396825577,-0.015873015873016053,-0.00634920634920653,0.003174603174602994,0.012698412698412518,0.012698412698412518,0.022222222222222043,0.022222222222222043,0.022222222222222043,0.022222222222222043,0.022222222222222043,0.022222222222222043,0.022222222222222043,0.022222222222222043,0.022222222222222043,0.022222222222222043,0.022222222222222043,0.022222222222222043,0.022222222222222043,0.022222222222222043,0.022222222222222043,0.022222222222222043,0.022222222222222043,0.022222222222222043,0.022222222222222043,0.022222222222222043,0.022222222222222043,0.022222222222222043,0.022222222222222043,0.022222222222222043,0.022222222222222043,0.022222222222222043,0.022222222222222043,0.022222222222222043,0.022222222222222043,0.022222222222222043,0.022222222222222043,0.022222222222222043,0.022222222222222043,0.022222222222222043,0.022222222222222043,0.022222222222222043,0.022222222222222043,0.022222222222222043,0.022222222222222043,0.022222222222222043,0.022222222222222043,0.022222222222222043,0.022222222222222043,0.022222222222222043,0.022222222222222043,0.022222222222222043,0.022222222222222043,0.022222222222222043,0.022222222222222043,0.022222222222222043,0.022222222222222043,0.022222222222222043,0.022222222222222043,0.022222222222222043,0.022222222222222043,0.022222222222222043,0.022222222222222043,0.022222222222222043,0.022222222222222043,0.022222222222222043,0.022222222222222043,0.022222222222222043,0.022222222222222043,0.022222222222222043,0.022222222222222043,0.022222222222222043,0.022222222222222043,0.022222222222222043,0.022222222222222043,0.022222222222222043,0.022222222222222043,0.022222222222222043,0.022222222222222043,0.022222222222222043,0.022222222222222043,0.022222222222222043,0.022222222222222043,0.022222222222222043,0.022222222222222043,0.022222222222222043,0.022222222222222043,0.022222222222222043,0.022222222222222043,0.022222222222222043,0.022222222222222043,0.022222222222222043,0.022222222222222043,0.022222222222222043,0.022222222222222043,0.022222222222222043,0.022222222222222043,0.022222222222222043,0.022222222222222043,0.022222222222222043,0.022222222222222043,0.022222222222222043,0.022222222222222043,0.022222222222222043,0.022222222222222043,0.022222222222222043,0.022222222222222043,0.022222222222222043,0.022222222222222043,0.022222222222222043,0.022222222222222043,0.022222222222222043,0.022222222222222043,0.022222222222222043,0.022222222222222043,0.022222222222222043,0.04126984126984109,0.06984126984126966,0.07936507936507918,0.07936507936507918,0.08888888888888871,0.09841269841269823,0.10793650793650776,0.11746031746031728,0.1269841269841268,0.14603174603174585,0.15555555555555536,0.1650793650793649,0.17460317460317443,0.18412698412698394,0.19365079365079346,0.21269841269841253,0.24126984126984108,0.2888888888888887,0.3555555555555554,0.45079365079365064,0.5936507936507934,0.6698412698412697,0.7269841269841268,0.7746031746031744,0.803174603174603,0.8222222222222221,0.8317460317460316,0.8412698412698411,0.8507936507936507,0.8698412698412696,0.8984126984126982,0.9174603174603173,0.9269841269841268,0.9365079365079363,0.9365079365079363,0.9460317460317459,0.9460317460317459,0.9460317460317459,0.9460317460317459,0.9555555555555554,0.9555555555555554,0.9650793650793649,0.9650793650793649,0.9746031746031745,0.9746031746031745,0.9746031746031745,0.9746031746031745,0.9746031746031745,0.9746031746031745,0.9746031746031745,0.9746031746031745,0.9746031746031745,0.9746031746031745,0.9746031746031745,0.9746031746031745,0.9746031746031745,0.9746031746031745,0.9746031746031745,0.9746031746031745,0.9746031746031745,0.9746031746031745,0.9746031746031745,0.9746031746031745,0.9746031746031745,0.9746031746031745,0.9746031746031745,0.9746031746031745,0.9746031746031745,0.9746031746031745,0.9746031746031745,0.9746031746031745,0.9746031746031745,0.9746031746031745,0.9746031746031745,0.9746031746031745,0.9746031746031745,0.9746031746031745,0.9746031746031745,0.9746031746031745,0.9746031746031745,0.9746031746031745,0.9746031746031745,0.9746031746031745,0.9746031746031745,0.9746031746031745,0.9746031746031745,0.9650793650793649,0.9555555555555554,0.9079365079365077,0.8317460317460316,0.7365079365079363,0.6317460317460316,0.5174603174603173,0.45079365079365064,0.4126984126984125,0.37460317460317444,0.3555555555555554,0.3365079365079363,0.3174603174603173,0.29841269841269824,0.2793650793650792,0.26984126984126966,0.2603174603174601,0.2507936507936506,0.2507936507936506,0.2507936507936506,0.2507936507936506,0.2507936507936506,0.24126984126984108,0.22222222222222204,0.21269841269841253,0.19365079365079346,0.17460317460317443,0.15555555555555536,0.13650793650793633,0.10793650793650776,0.07936507936507918,0.06984126984126966,0.05079365079365061,0.031746031746031564,0.031746031746031564,0.022222222222222043,0.022222222222222043,0.022222222222222043,0.022222222222222043,0.022222222222222043,0.022222222222222043,0.022222222222222043,0.022222222222222043,0.022222222222222043,0.022222222222222043,0.022222222222222043,0.022222222222222043,0.022222222222222043,0.022222222222222043,0.012698412698412518,0.003174603174602994,0.003174603174602994,0.003174603174602994,0.003174603174602994,0.003174603174602994,0.012698412698412518,0.022222222222222043,0.022222222222222043,0.031746031746031564,0.031746031746031564,0.031746031746031564,0.031746031746031564,0.031746031746031564,0.031746031746031564,0.031746031746031564,0.031746031746031564,0.031746031746031564,0.031746031746031564,0.031746031746031564,0.04126984126984109,0.04126984126984109,0.04126984126984109,0.04126984126984109,0.04126984126984109,0.04126984126984109,0.04126984126984109,0.04126984126984109,0.04126984126984109,0.04126984126984109,0.04126984126984109,0.04126984126984109,0.04126984126984109,0.04126984126984109,0.04126984126984109,0.04126984126984109,0.04126984126984109,0.04126984126984109,0.04126984126984109,0.04126984126984109,0.04126984126984109,0.04126984126984109,0.04126984126984109,0.04126984126984109,0.04126984126984109,0.04126984126984109,0.04126984126984109,0.04126984126984109,0.04126984126984109,0.04126984126984109,0.04126984126984109,0.04126984126984109,0.04126984126984109,0.04126984126984109,0.04126984126984109,0.04126984126984109,0.04126984126984109,0.06984126984126966,0.07936507936507918,0.09841269841269823,0.10793650793650776,0.11746031746031728,0.1269841269841268,0.1269841269841268,0.13650793650793633,0.13650793650793633,0.13650793650793633,0.13650793650793633,0.13650793650793633,0.13650793650793633,0.13650793650793633,0.13650793650793633,0.13650793650793633,0.13650793650793633,0.13650793650793633,0.13650793650793633,0.13650793650793633,0.13650793650793633,0.13650793650793633,0.13650793650793633,0.13650793650793633,0.13650793650793633,0.13650793650793633,0.13650793650793633,0.13650793650793633,0.13650793650793633,0.13650793650793633,0.13650793650793633,0.13650793650793633,0.13650793650793633,0.13650793650793633,0.13650793650793633,0.13650793650793633,0.13650793650793633,0.13650793650793633,0.13650793650793633,0.13650793650793633,0.13650793650793633,0.13650793650793633,0.13650793650793633,0.13650793650793633,0.13650793650793633,0.13650793650793633,0.13650793650793633,0.13650793650793633,0.13650793650793633,0.13650793650793633,0.13650793650793633,0.13650793650793633,0.13650793650793633,0.13650793650793633,0.13650793650793633,0.14603174603174585,0.18412698412698394,0.23174603174603156,0.30793650793650773,0.34603174603174586,0.37460317460317444,0.38412698412698393,0.38412698412698393,0.3650793650793649,0.34603174603174586,0.3365079365079363,0.3269841269841268,0.30793650793650773,0.29841269841269824,0.29841269841269824,0.2888888888888887,0.2793650793650792,0.26984126984126966,0.2507936507936506,0.23174603174603156,0.19365079365079346,0.1650793650793649,0.14603174603174585,0.1269841269841268,0.11746031746031728,0.11746031746031728,0.11746031746031728,0.11746031746031728,0.11746031746031728,0.11746031746031728,0.11746031746031728,0.11746031746031728,0.11746031746031728,0.11746031746031728,0.11746031746031728,0.11746031746031728,0.11746031746031728,0.11746031746031728,0.11746031746031728,0.11746031746031728,0.11746031746031728,0.11746031746031728,0.11746031746031728,0.11746031746031728,0.11746031746031728,0.11746031746031728,0.11746031746031728,0.11746031746031728,0.11746031746031728,0.11746031746031728,0.11746031746031728,0.11746031746031728,0.11746031746031728,0.11746031746031728,0.11746031746031728,0.11746031746031728,0.11746031746031728,0.11746031746031728,0.11746031746031728,0.11746031746031728,0.11746031746031728,0.11746031746031728,0.11746031746031728,0.11746031746031728,0.11746031746031728,0.11746031746031728,0.11746031746031728,0.11746031746031728,0.11746031746031728,0.11746031746031728,0.11746031746031728,0.11746031746031728,0.11746031746031728,0.11746031746031728,0.11746031746031728,0.11746031746031728,0.11746031746031728,0.11746031746031728,0.11746031746031728,0.11746031746031728,0.11746031746031728,0.11746031746031728,0.11746031746031728,0.11746031746031728,0.11746031746031728,0.11746031746031728,0.11746031746031728,0.11746031746031728,0.11746031746031728,0.11746031746031728,0.11746031746031728,0.11746031746031728,0.11746031746031728,0.11746031746031728,0.11746031746031728,0.11746031746031728,0.11746031746031728,0.11746031746031728,0.11746031746031728,0.1269841269841268,0.1650793650793649,0.2793650793650792,0.5555555555555554,0.9365079365079363,1.3746031746031744,1.8317460317460315,2.1174603174603175,2.2793650793650793,2.441269841269841,2.441269841269841,2.441269841269841,2.441269841269841,2.441269841269841,2.441269841269841,2.441269841269841,2.441269841269841,2.441269841269841,2.441269841269841,2.441269841269841,2.441269841269841,2.441269841269841,2.441269841269841,2.441269841269841,2.441269841269841,2.441269841269841,2.441269841269841,2.441269841269841,2.441269841269841,2.441269841269841,2.441269841269841,2.441269841269841,2.441269841269841,2.441269841269841,2.441269841269841,2.441269841269841,2.441269841269841,2.441269841269841,2.441269841269841,2.441269841269841,2.441269841269841,2.441269841269841,2.441269841269841,2.441269841269841,2.441269841269841,2.441269841269841,2.441269841269841,2.441269841269841,2.441269841269841,2.441269841269841,2.441269841269841,2.441269841269841,2.441269841269841,2.441269841269841,2.441269841269841,2.441269841269841,2.441269841269841,2.441269841269841,2.441269841269841,2.441269841269841,2.441269841269841,2.441269841269841,2.441269841269841,2.441269841269841,2.441269841269841,2.441269841269841,2.441269841269841]},"final_keyboard_state":["M","R","T","B","Z","E","A"],"num_clicks":7,"points":13,"cheat":false,"trial_type":"Hangman","trial_index":5,"time_elapsed":73075,"internal_node_id":"0.0-4.0","protocol_sum":"","subject_identifier":23,"subject_sum":[79,200,43,38,174,203,71,210,134,140,78,251,227,88,23,50,163,231,203,204,108,46,251,50,6,44,8,23,10,5,238,184],"subject_pair":11,"STUDY_ID":"669a58f4f17d67c0aba4c4d3","PROLIFIC_PID":"5e79340b6d9a624e3f39586d","SESSION_ID":"669a64f4b494202208f297f3","practice_instructions":1,"leaderboard_instructions":0,"bonus":0,"reveal_word":true,"self_rating":"3","confidence":"70"},{"view_history":"[{\"page_index\":0,\"viewing_time\":3068.3000000715256},{\"page_index\":1,\"viewing_time\":8750.199999928474}]","rt":11819.400000095367,"trial_type":"instructions","trial_index":6,"time_elapsed":84896,"internal_node_id":"0.0-5.0","protocol_sum":"","subject_identifier":23,"subject_sum":[79,200,43,38,174,203,71,210,134,140,78,251,227,88,23,50,163,231,203,204,108,46,251,50,6,44,8,23,10,5,238,184],"subject_pair":11,"STUDY_ID":"669a58f4f17d67c0aba4c4d3","PROLIFIC_PID":"5e79340b6d9a624e3f39586d","SESSION_ID":"669a64f4b494202208f297f3","practice_instructions":1,"leaderboard_instructions":0,"bonus":0,"reveal_word":true,"self_rating":"3","confidence":"70"},{"rt":7044,"responses":"{\"Q0\":\"...from <b>a previous session</b> that is not part of the upcoming tournament.\"}","question_order":"[0]","trial_type":"survey-multi-choice","trial_index":7,"time_elapsed":91942,"internal_node_id":"0.0-6.0","protocol_sum":"","subject_identifier":23,"subject_sum":[79,200,43,38,174,203,71,210,134,140,78,251,227,88,23,50,163,231,203,204,108,46,251,50,6,44,8,23,10,5,238,184],"subject_pair":11,"correct":true,"test_part":"multichoice_leaderboard","STUDY_ID":"669a58f4f17d67c0aba4c4d3","PROLIFIC_PID":"5e79340b6d9a624e3f39586d","SESSION_ID":"669a64f4b494202208f297f3","practice_instructions":1,"leaderboard_instructions":0,"bonus":0,"reveal_word":true,"self_rating":"3","confidence":"70"},{"view_history":"[{\"page_index\":0,\"viewing_time\":7218.599999904633}]","rt":7218.899999976158,"trial_type":"instructions","trial_index":8,"time_elapsed":99161,"internal_node_id":"0.0-8.0","protocol_sum":"","subject_identifier":23,"subject_sum":[79,200,43,38,174,203,71,210,134,140,78,251,227,88,23,50,163,231,203,204,108,46,251,50,6,44,8,23,10,5,238,184],"subject_pair":11,"STUDY_ID":"669a58f4f17d67c0aba4c4d3","PROLIFIC_PID":"5e79340b6d9a624e3f39586d","SESSION_ID":"669a64f4b494202208f297f3","practice_instructions":1,"leaderboard_instructions":0,"bonus":0,"reveal_word":true,"self_rating":"3","confidence":"70"},{"rt":12325.099999904633,"responses":"{\"Q0\":\"...players' leaderboard position (in terms of <b>points</b>) in an <b>upcoming tournament.</b>\"}","question_order":"[0]","trial_type":"survey-multi-choice","trial_index":9,"time_elapsed":111488,"internal_node_id":"0.0-9.0","protocol_sum":"","subject_identifier":23,"subject_sum":[79,200,43,38,174,203,71,210,134,140,78,251,227,88,23,50,163,231,203,204,108,46,251,50,6,44,8,23,10,5,238,184],"subject_pair":11,"correct":true,"test_part":"multichoice_tournament","STUDY_ID":"669a58f4f17d67c0aba4c4d3","PROLIFIC_PID":"5e79340b6d9a624e3f39586d","SESSION_ID":"669a64f4b494202208f297f3","practice_instructions":1,"leaderboard_instructions":0,"bonus":0,"reveal_word":true,"self_rating":"3","confidence":"70"},{"view_history":"[{\"page_index\":0,\"viewing_time\":5634.300000071526}]","rt":5634.5,"trial_type":"instructions","trial_index":10,"time_elapsed":117124,"internal_node_id":"0.0-11.0","protocol_sum":"","subject_identifier":23,"subject_sum":[79,200,43,38,174,203,71,210,134,140,78,251,227,88,23,50,163,231,203,204,108,46,251,50,6,44,8,23,10,5,238,184],"subject_pair":11,"STUDY_ID":"669a58f4f17d67c0aba4c4d3","PROLIFIC_PID":"5e79340b6d9a624e3f39586d","SESSION_ID":"669a64f4b494202208f297f3","practice_instructions":1,"leaderboard_instructions":0,"bonus":0,"reveal_word":true,"self_rating":"3","confidence":"70"},{"view_history":"[{\"page_index\":0,\"viewing_time\":22388.600000023842}]","rt":22388.900000095367,"trial_type":"instructions","trial_index":11,"time_elapsed":139513,"internal_node_id":"0.0-12.0-0.0","protocol_sum":"","subject_identifier":23,"subject_sum":[79,200,43,38,174,203,71,210,134,140,78,251,227,88,23,50,163,231,203,204,108,46,251,50,6,44,8,23,10,5,238,184],"subject_pair":11,"STUDY_ID":"669a58f4f17d67c0aba4c4d3","PROLIFIC_PID":"5e79340b6d9a624e3f39586d","SESSION_ID":"669a64f4b494202208f297f3","practice_instructions":1,"leaderboard_instructions":0,"bonus":0,"reveal_word":true,"self_rating":"3","confidence":"70"},{"rt":4510.800000071526,"response":"usain bolt","responses":["usain bolt"],"trial_type":"type-this","trial_index":12,"time_elapsed":144529,"internal_node_id":"0.0-12.0-1.0","protocol_sum":"","subject_identifier":23,"subject_sum":[79,200,43,38,174,203,71,210,134,140,78,251,227,88,23,50,163,231,203,204,108,46,251,50,6,44,8,23,10,5,238,184],"subject_pair":11,"STUDY_ID":"669a58f4f17d67c0aba4c4d3","PROLIFIC_PID":"5e79340b6d9a624e3f39586d","SESSION_ID":"669a64f4b494202208f297f3","practice_instructions":1,"leaderboard_instructions":0,"bonus":0,"reveal_word":true,"self_rating":"3","confidence":"70"},{"word":"USAIN BOLT","click_log":{"letter":["","A","E","I","O","R","P","T","S","U","N","B","L"],"t":[0,6404.699999928474,8420.5,10754,12536.899999976158,25471.399999976158,27220.5,31387.399999976158,38870.59999990463,43620.59999990463,45470.59999990463,46970.59999990463,48237.39999997616],"hit":[null,1,0,1,1,0,0,1,1,1,1,1,1],"asked":["","A","AE","AEI","AEIO","AEIOR","AEIORP","AEIORPT","AEIORPTS","AEIORPTSU","AEIORPTSUN","AEIORPTSUNB","AEIORPTSUNBL"],"word_state":["_____ ____","__A__ ____","__A__ ____","__AI_ ____","__AI_ _O__","__AI_ _O__","__AI_ _O__","__AI_ _O_T","_SAI_ _O_T","USAI_ _O_T","USAIN _O_T","USAIN BO_T","USAIN BOLT"]},"hover_log":{"letter":["?","?","?","?","?","?","?","?","?","?","?","?","?","?","?","?","?","?","?","?","?","?","?","?","?","?","?","?","?","?","?","?","?","?","?","?","?","?","?","?","?","?","?","?","?","?","?","?","?","?","?","?","?","?","?","?","?","?","?","?","?","?","?","?","?","?","?","?","?","?","?","?","?","?","?","?","?","?","?","?","?","?","?","?","?","?","?","?","?","?","?","?","?","?","?","?","?","?","?","?","?","?","?","?","?","?","?","?","?","?","?","?","?","?","?","?","?","?","?","?","?","?","?","?","?","?","?","?","?","?","?","?","?","?","?","?","?","?","?","?","?","?","?","?","?","?","?","?","?","?","?","?","?","?","?","?","?","?","?","?","?","?","?","?","?","?","?","?","?","?","?","?","?","?","?","?","?","?","?","?","?","?","?","?","?","?","?","?","?","?","?","?","?","?","?","?","?","?","?","?","?","?","?","?","?","?","?","?","?","?","?","?","?","?","?","?","?","?","?","?","?","?","?","?","?","?","?","?","?","?","?","?","?","?","?","?","?","?","?","?","?","?","?","?","?","?","?","?","?","?","?","?","?","?","?","?","?","?","?","?","?","?","?","?","?","?","?","?","?","?","?","?","?","?","?","?","?","?","?","?","?","?","?","?","?","?","?","?","?","?","?","?","?","?","?","?","?","?","?","?","?","?","?","?","?","?","?","?","?","?","?","?","?","?","?","?","?","?","?","?","?","?","?","?","?","?","?","?","?","?","?","?","?","?","?","?","?","?","?","?","?","?","?","?","?","?","?","?","?","?","?","?","?","?","?","?","?","?","?","?","?","?","?","?","?","?","?","?","?","?","?","?","?","?","?","?","?","?","?","?","?","?","?","?","?","?","?","?","?","?","?","?","?","?","?","?","?","?","?","?","?","?","?","?","?","?","?","?","?","?","?","?","?","?","?","?","?","?","?","?","?","?","?","?","?","?","?","?","?","?","?","?","?","?","?","?","?","?","?","?","?","?","?","?","?","?","?","?","?","?","?","?","?","?","?","?","?","?","?","?","?","?","?","?","?","?","?","?","?","?","?","?","?","?","?","?","?","?","?","?","?","?","?","?","?","?","?","?","?","?","?","?","?","?","?","?","?","?","?","?","?","?","?","?","?","?","?","?","?","?","?","?","?","?","?","?","?","?","?","?","?","?","?","?","?","?","?","?","?","?","?","?","?","?","?","?","?","?","?","?","?","?","?","?","?","?","?","?","?","?","?","?","?","?","?","?","?","?","?","?","?","?","?","?","?","?","?","?","?","?","?","?","?","?","?","?","?","?","?","?","?","?","?","?","?","?","?","?","?","?","?","?","?","?","?","?","?","?","?","?","?","?","?","?","?","?","?","?","?","?","?","?","?","?","?","?","?","?","?","?","?","?","?","?","?","?","?","?","?","?","?","?","?","?","?","?","?","?","?","?","?","?","?","?","?","?","?","?","?","?","?","?","?","?","?","?","?","?","?","?","?","?","?","?","?","?","?","?","?","?","?","?","?","?","?","?","?","?","?","?","?","?","?","?","?","?","?","?","?","?","?","?","?","?","?","?","?","?","?","?","?","?","?","?","?","?","?","?","?","?","?","?","?","?","?","?","?","?","?","?","?","?","?","?","?","?","?","?","?","?","?","?","?","?","?","?","?","?","?","?","?","?","?","?","?","?","?","?","?","?","?","?","?","?","?","?","?","?","?","?","?","?","?","?","?","?","?","?","?","?","?","?","?","?","?","?","?","?","?","?","?","?","?","?","?","?","?","?","?","?","?","?","?","?","?","?","?","?","?","?","?","?","?","?","?","?","?","?","?","?","?","?","?","?","?","?","?","?","?","?","?","?","?","?","?","?","?","?","?","?","?","?","?","?","?","?","?","?","?","?","?","?","?","?","?","?","?","?","?","?","?","?","?","?","?","?","?","?","?","?","?","?","?","?","?","?","?","?","?","?","?","?","?","?","?","?","?","?","?","?","?","?","?","?","?","?","?","?","?","?","?","?","?","?","?","?","?","?","?","?","?","?","?","?","?","?","?","?","?","?","?","?","?","?","?","?","?","?","?","?","?","?","?","?","?","?","?","?","?","?","?","?","?","?","?","?","?","?","?","?","?","?","?","?","?","?","?","?","?","?","?","?","?","?","?","?","?","?","?","?","?","?","?","?","?","?","?","?","?","?","?","?","?","?","?","?","?","?","?","?","?","?","?","?","?","?","?","?","?","?","?","?","?","?","?","?","?","?","?","?","?","?","?","?","?","?","?","?","?","?","?","?","?","?","?","?","?","?","?","?","?","?","?","?","?","?","?","?","?","?","?","?","?","?","?","?","?","?","?","?","?","?","?","?","?","?","?","?","?","?","?","?","?","?","?","?","?","?","?","?","?","?","?","?","?","?","?","?","?","?","?","?","?","?","?","?","?","?","?","?","?","?","?","?","?","?","?","?","?","?","?","?","?","?","?","?","?","?","?","?","?","?","?","?","?","?","?","?","?","?","?","?","?","?","?","?","?","?","?","?","?","?","?","?","?","?","?","?","?","?","?","?","?","?","?","?","?","?","?","?","?","?","?","?","?","?","?","?","?","?","?","?","?","?","?","?","?","?","?","?","?","?","?","?","?","?","?","?","?","?","?","?","?","?","?","?","?","?","?","?","?","?","?","?","?","?","?","?","?","?","?","?","?","?","?","?","?","?","?","?","?","?","?","?","?","?","?","?","?","?","?","?","?","?","?","?","?","?","?","?","?","?","?","?","?","?","?","?","?","?","?","?","?","?","?","?","?","?","?","?","?","?","?","?","?","?","?","?","?","?","?","?","?","?","?","?","?","?","?","?","?","?","?","?","?","?","?","?","?","?","?","?","?","?","?","?","?","?","?","?","?","?","?","?","?","?","?","?","?","?","?","?","?","?","?","?","?","?","?","?","?","?","?","?","?","?","?","?","?","?","?","?","?","?","?","?","?","?","?","?","?","?","?","?","?","?","?","?","?","?","?","?","?","?","?","?","?","?","?","?","?","?","?","?","?","?","?","?","?","?","?","?","?","?","?","?","?","?","?","?","?","?","?","?","?","?","?","?","?","?","?","?","?","?","?","?","?","?","?","?","?","?","?","?","?","?","?","?","?","?","?","?","?","?","?","?","?","?","?","?","?","?","?","?","?","?","?","?","?","?","?","?","?","?","?","?","?","?","?","?","?","?","?","?","?","?","?","?","?","?","?","?","?","?","?","?","?","?","?","?","?","?","?","?","?","?","?","?","?","?","?","?","?","?","?","?","?","?","?","?","?","?","?","?","?","?","?","?","?","?","?","?","?","?","?","?","?","?","?","?","?","?","?","?","?","?","?","?","?","?","?","?","?","?","?","?","?","?","?","?","?","?","?","?","?","?","?","?","?","?","?","?","?","?","?","?","?","?","?","?","?","?","?","?","?","?","?","?","?","?","?","?","?","?","?","?","?","?","?","?","?","?","?","?","?","?","?","?","?","?","?","?","?","?","?","?","?","?","?","?","?","?","?","?","?","?","?","?","?","?","?","?","?","?","?","?","?","?","?","?","?","?","?","?","?","?","?","?","?","?","?","?","?","?","?","?","?","?","?","?","?","?","?","?","?","?","?","?","?","?","?","?","?","?","?","?","?","?","?","?","?","?","?","?","?","?","?","?","?","?","?","?","?","?","?","?","?","?","?","?","?","?","?","?","?","?","?","?","?","?","?","?","?","?","?","?","?","?","?","?","?","?","?","?","?","?","?","?","?","?","?","?","?","?","?","?","?","?","?","?","?","?","?","?","?","?","?","?","?","?","?","?","?","?","?","?","?","?","?","?","?","?","?","?","?","?","?","?","?","?","?","?","?","?","?","?","?","?","?","?","?","?","?","?","?","?","?","?","?","?","?","?","?","?","?","?","?","?","?","?","?","?","?","?","?","?","?","?","?","?","?","?","?","?","?","?","?","?","?","?","?","?","?","?","?","?","?","?","?","?","?","?","?","?","?","?","?","?","?","?","?","?","?","?","?","?","?","?","?","?","?","?","?","?","?","?","?","?","?","?","?","?","?","?","?","?","?","?","?","?","?","?","?","?","?","?","?","?","?","?","?","?","?","?","?","?","?","?","?","?","?","?","?","?","?","?","?","?","?","?","?","?","?","?","?","?","?","?","?","?","?","?","?","?","?","?","?","?","?","?","?","?","?","?","?","?","?","?","?","?","?","?","?","?","?","?","?","?","?","?","?","?","?","?","?","?","?","?","?","?","?","?","?","?","?","?","?","?","?","?","?","?","?","?","?","?","?","?","?","?","?","?","?","?","?","?","?","?","?","?","?","?","?","?","?","?","?","?","?","?","?","?","?","?","?","?","?","?","?","?","?","?","?","?","?","?","?","?","?","?","?","?","?","?","?","?","?","?","?","?","?","?","?","?","?","?","?","?","?","?","?","?","?","?","?","?","?","?","?","?","?","?","?","?","?","?","?","?","?","?","?","?","?","?","?","?","?","?","?","?","?","?","?","?","?","?","?","?","?","?","?","?","?","?","?","?","?","?","?","?","?","?","?","?","?","?","?","?","?","?","?","?","?","?","?","?","?","?","?","?","?","?","?","?","?","?","?","?","?","?","?","?","?","?","?","?","?","?","?","?","?","?","?","?","?","?","?","?","?","?","?","?","?","?","?","?","?","?","?","?","?","?","?","?","?","?","?","?","?","?","?","?","?","?","?","?","?","?","?","?","?","?","?","?","?","?","?","?","?","?","?","?","?","?","?","?","?","?","?","?","?","?","?","?","?","?","?","?","?","?","?","?","?","?","?","?","?","?","?","?","?","?","?","?","?","?","?","?","?","?","?","?","?","?","?","?","?","?","?","?","?","?","?","?","?","?","?","?","?","?","?","?","?","?","?","?","?","?","?","?","?","?","?","?","?","?","?","?","?","?","?","?","?","?","?","?","?","?","?","?","?","?","?","?","?","?","?","?","?","?","?","?","?","?","?","?","?","?","?","?","?","?","?","?","?","?","?","?","?","?","?","?","?","?","?","?","?","?","?","?","?","?","?","?","?","?","?","?","?","?","?","?","?","?","?","?","?","?","?","?","?","?","?","?","?","?","?","?","?","?","?","?","?","?","?","?","?","?","?","?","?","?","?","?","?","?","?","?","?","?","?","?","?","?","?","?","?","?","?","?","?","?","?","?","?","?","?","?","?","?","?","?","?","?","?","?","?","?","?","?","?","?","?","?","?","?","?","?","?","?","?","?","?","?","?","?","?","?","?","?","?","?","?","?","?","?","?","?","?","?","?","?","?","?","?","?","?","?","?","?","?","?","?","?","?","?","?","?","?","?","?","?","?","?","?","?","?","?","?","?","?","?","?","?","?","?","?","?","?","?","?","?","?","?","?","?","?","?","?","?","?","?","?","?","?","?","?","?","?","?","?","?","?","?","?","?","?","?","?","?","?","?","?","?","?","?","?","?","?","?","?","?","?","?","?","?","?","?","?","?","?","?","?","?","?","?","?","?","?","?","?","?","?","?","?","?","?","?","?","?","?","?","?","?","?","?","?","?","?","?","?","?","?","?","?","?","?","?","?","?","?","?","?","?","?","?","?","?","?","?","?","?","?","?","?","?","?","?","?","?","?","?","?","?","?","?","?","?","?","?","?","?","?","?","?","?","?","?","?","?","?","?","?","?","?","?","?","?","?","?","?","?","?","?","?","?","?","?","?","?","?","?","?","?","?","?","?","?","?","?","?","?","?","?","?","?","?","?","?","?","?","?","?","?","?","?","?","?","?","?","?","?","?","?","?","?","?","?","?","?","?","?","?","?","?","?","?","?","?","?","?","?","?","?","?","?","?","?","?","?","?","?","?","?","?","?","?","?","?","?","?","?","?","?","?","?","?","?","?","?","?","?","?","?","?","?","?","?","?","?","?","?","?","?","?","?","?","?","?","?","?","?","?","?","?","?","?","?","?","?","?","?","?","?","?","?","?","?","?","?","?","?","?","?","?","?","?","?","?","?","?","?","?","?","?","?","?","?","?","?","?","?","?","?","?","?","?","?","?","?","?","?","?","?","?","?","?","?","?","?","?","?","?","?","?","?","?","?","?","?","?","?","?","?","?","?","?","?","?","?","?","?","?","?","?","?","?","?","?","?","?","?","?","?","?","?","?","?","?","?","?","?","?","?","?","?","?","?","?","?","?","?","?","?","?","?","?","?","?","?","?","?","?","?","?","?","?","?","?","?","?","?","?","?","?","?","?","?","?","?","?","?","?","?","?","?","?","?","?","?","?","?","?","?","?","?","?","?","?","?","?","?","?","?","?","?","?","?","?","?","?","?","?","?","?","?","?","?","?","?","?","?","?","?","?","?","?","?","?","?","?","?","?","?","?","?","?","?","?","?","?","?","?","?","?","?","?","?","?","?","?","?","?","?","?","?","?","?","?","?","?","?","?","?","?","?","?","?","?","?","?","?","?","?","?","?","?","?","?","?","?","?","?","?","?","?","?","?","?","?","?","?","?","?","?","?","?","?","?","?","?","?","?","?","?","?","?","?","?","?","?","?","?","?","?","?","?","?","?","?","?","?","?","?","?","?","?","?","?","?","?","?","?","?","?","?","?","?","?","?","?","?","?","?","?","?","?","?","?","?","?","?","?","?","?","?","?","?","?","?","?","?","?","?","?","?","?","?","?","?","?","?","?","?","?","?","?","?","?","?","?","?","?","?","?","?","?","?","?","?","?","?","?","?","?","?","?","?","?","?","?","?","?","?","?","?","?","?","?","?","?","?","?","?","?","?","?","?","?","?","?","?","?","?","?","?","?","?","?","?","?","?","?","?","?","?","?","?","?","?","?","?","?","?","?","?","?","?","?","?","?","?","?","?","?","?","?","?","?","?","?","?","?","?","?","?","?","?","?","?","?","?","?","?","?","?","?","?","?","?","?","?","?","?","?","?","?","?","?","?","?","?","?","?","?","?","?","?","?","?","?","?","?","?","?","?","?","?","?","?","?","?","?","?","?","?","?","?","?","?","?","?","?","?","?","?","?","?","?","?","?","?","?","?","?","?","?","?","?","?","?","?","?","?","?","?","?","?","?","?","?","?","?","?","?","?","?","?","?","?","?","?","?","?","?","?","?","?","?","?","?","?","?","?","?","?","?","?","?","?","?","?","?","?","?","?","?","?","?","?","?","?","?","?","?","?","?","?","?","?","?","?","?","?","?","?","?","?","?","?","?","?","?","?","?","?","?","?","?","?","?","?","?","?","?","?","?","?","?","?","?","?","?","?","?","?","?","?","?","?","?","?","?","?","?","?","?","?","?","?","?","?","?","?","?","?","?","?","?","?","?","?","?","?","?","?","?","?","?","?","?","?","?","?","?","?","?","?","?","?","?","?","?","?","?","?","?","?","?","?","?","?","?","?","?","?","?","?","?","?","?","?","?","?","?","?","?","?","?","?","?","?","?","?","?","?","?","?","?","?","?","?","?","?","?","?","?","?","?","?","?","?","?","?","?","?","?","?","?","?","?","?","?","?","?","?","?","?","?","?","?","?","?","?","?","?","?","?","?","?","?","?","?","?","?","?","?","?","?","?","?","?","?","?","?","?","?","?","?","?","?","?","?","?","?","?","?","?","?","?","?","?","?","?","?","?","?","?","?","?","?","?","?","?","?","?","?","?","?","?","?","?","?","?","?","?","?","?","?","?","?","?","?","?","?","?","?","?","?","?","?","?","?","?","?","?","?","?","?","?","?","?","?","?","?","?","?","?","?","?","?","?","?","?","?","?","?","?","?","?","?","?","?","?","?","?","?","?","?","?","?","?","?","?","?","?","?","?","?","?","?","?","?","?","?","?","?","?","?","?","?","?","?","?","?","?","?","?","?","?","?","?","?","?","?","?","?","?","?","?","?","?","?","?","?","?","?","?","?","?","?","?","?","?","?","?","?","?","?","?","?","?","?","?","?","?","?","?","?","?","?","?","?","?","?","?","?","?","?","?","?","?","?","?","?","?","?","?","?","?","?","?","?","?","?","?","?","?","?","?","?","?","?","?","?","?","?","?","?","?","?","?","?","?","?","?","?","?","?","?","?","?","?","?","?","?","?","?","?","?","?","?","?","?","?","?","?","?","?","?","?","?","?","?","?","?","?","?","?","?","?","?","?","?","?","?","?","?","?","?","?","?","?","?","?","?","?","?","?","?","?","?","?","?","?","?","?","?","?","?","?","?","?","?","?","?","?","?","?","?","?","?","?","?","?","?","?","?","?","?","?","?","?","?","?","?","?","?","?","?","?","?","?","?","?","?","?","?","?","?","?","?","?","?","?","?","?","?","?","?","?","?","?","?","?","?","?","?","?","?","?","?","?","?","?","?","?","?","?","?","?","?","?","?","?","?","?","?","?","?","?","?","?","?","?","?","?","?","?","?","?","?","?","?","?","?","?","?","?","?","?","?","?","?","?","?","?","?","?","?","?","?","?","?","?","?","?","?","?","?","?","?","?","?","?","?","?","?","?","?","?","?","?","?","?","?","?","?","?","?","?","?","?","?","?","?","?","?","?","?","?","?","?","?","?","?","?","?","?","?","?","?","?","?","?","?","?","?","?","?","?","?","?","?","?","?","?","?","?","?","?","?","?","?","?","?","?","?","?","?","?","?","?","?","?","?","?","?","?","?","?","?","?","?","?","?","?","?","?","?","?","?","?","?","?","?","?","?","?","?","?","?","?","?","?","?","?","?","?","?","?","?","?","?","?","?","?","?","?","?","?","?","?","?","?","?","?","?","?","?","?","?","?","?","?","?","?","?","?","?","?","?","?","?","?","?","?","?","?","?","?","?","?","?","?","?","?","?","?","?","?","?","?","?","?","?","?","?","?","?","?","?","?","?","?","?","?","?","?","?","?","?","?","?","?","?","?","?","?","?","?","?","?","?","?","?","?","?","?","?","?","?","?","?","?","?","?","?","?","?","?","?","?","?","?","?","?","?","?","?","?","?","?","?","?","?","?","?","?","?","?","?","?","?","?","?","?","?","?","?","?","?","?","?","?","?","?","?","?","?","?","?","?","?","?","?","?","?","?","?","?","?","?","?","?","?","?","?","?","?","?","?","?","?","?","?","?","?","?","?","?","?","?","?","?","?","?","?","?","?","?","?","?","?","?","?","?","?","?","?","?","?","?","?","?","?","?","?","?","?","?","?","?","?","?","?","?","?","?","?","?","?","?","?","?","?","?","?","?","?","?","?","?","?","?","?","?","?","?","?","?","?","?","?","?","?","?","?","?","?","?","?","?","?","?","?","?","?","?","?","?","?","?","?","?","?","?","?","?","?","?","?","?","?","?","?","?","?","?","?","?","?","?","?","?","?","?","?","?","?","?","?","?","?","?","?","?","?","?","?","?","?","?","?","?","?","?","?","?","?","?","?","?","?","?","?","?","?","?","?","?","?","?","?","?","?","?","?","?","?","?","?","?","?","?","?","?","?","?","?","?","?","?","?","?","?","?","?","?","?","?","?","?","?","?","?","?","?","?","?","?","?","?","?","?","?","?","?","?","?","?","?","?","?","?","?","?","?","?","?","?","?","?","?","?","?","?","?","?","?","?","?","?","?","?","?","?","?","?","?","?","?","?","?","?","?","?","?","?","?","?","?","?","?","?","?","?","?","?","?","?","?","?","?","?","?","?","?","?","?","?","?","?","?","?","?","?","?","?","?","?","?","?","?","?","?","?","?","?","?","?","?","?","?","?","?","?","?","?","?","?","?","?","?","?","?","?","?","?","?","?","?","?","?","?","?","?","?","?","?","?","?","?","?","?","?","?","?","?","?","?","?","?","?","?","?","?","?","?","?","?","?","?","?","?","?","?","?","?","?","?","?","?","?","?","?","?","?","?","?","?","?","?","?","?","?","?","?","?","?","?","?","?","?","?","?","?","?","?","?","?","?","?","?","?","?","?","?","?","?","?","?","?","?","?","?","?","?","?","?","?","?","?","?","?","?","?","?","?","?","?","?","?","?","?","?","?","?","?","?","?","?","?","?","?","?","?","?","?","?","?","?","?","?","?","?","?","?","?","?","?","?","?","?","?","?","?","?","?","?","?","?","?","?","?","?","?","?","?","?","?","?","?","?","?","?","?","?","?","?","?","?","?","?","?","?","?","?","?","?","?","?","?","?","?","?","?","?","?","?","?","?","?","?","?","?","?","?","?","?","?","?","?","?","?","?","?","?","?","?","?","?","?","?","?","?","?","?","?","?","?","?","?","?","?","?","?","?","?","?","?","?","?","?","?","?","?","?","?","?","?","?","?","?","?","?","?","?","?","?","?","?","?","?","?","?","?","?","?","?","?","?","?","?","?","?","?","?","?","?","?","?","?","?","?","?","?","?","?","?","?","?","?","?","?","?","?","?","?","?","?","?","?","?","?","?","?","?","?","?","?","?","?","?","?","?","?","?","?","?","?","?","?","?","?","?","?","?","?","?","?","?","?","?","?","?","?","?","?","?","?","?","?","?","?","?","?","?","?","?","?","?","?","?","?","?","?","?","?","?","?","?","?","?","?","?","?","?","?","?","?","?","?","?","?","?","?","?","?","?","?","?","?","?","?","?","?","?","?","?","?","?","?","?","?","?","?","?","?","?","?","?","?","?","?","?","?","?","?","?","?","?","?","?","?","?","?","?","?","?","?","?","?","?","?","?","?","?","?","?","?","?","?","?","?","?","?","?","?","?","?","?","?","?","?","?","?","?","?","?","?","?","?","?","?","?","?","?","?","?","?","?","?","?","?","?","?","?","?","?","?","?","?","?","?","?","?","?","?","?","?","?","?","?","?","?","?","?","?","?","?","?","?","?","?","?","?","?","?","?","?","?","?","?","?","?","?","?","?","?","?","?","?","?","?","?","?","?","?","?","?","?","?","?","?","?","?","?","?","?","?","?","?","?","?","?","?","?","?","?","?","?","?","?","?","?","?","?","?","?","?","?","?","?","?","?","?","?","?","?","?","?","?","?","?","?","?","?","?","?","?","?","?","?","?","?","?","?","?","?","?","?","?","?","?","?","?","?","?","?","?","?","?","?","?","?","?","?","?","?","?","?","?","?","?","?","?","?","?","?","?","?","?","?","?","?","?","?","?","?","?","?","?","?","?","?","?","?","?","?","?","?","?","?","?","?","?","?","?","?","?","?","?","?","?","?","?","?","?","?","?","?","?","?","?","?","?","?","?","?","?","?","?","?","?","?","?","?","?","?","?","?","?","?","?","?","?","?","?","?","?","?","?","?","?","?","?","?","?","?","?","?","?","?","?","?","?","?","?","?","?","?","?","?","?","?","?","?","?","?","?","?","?","?","?","?","?","?","?","?","?","?","?","?","?","?","?","?","?","?","?","?","?","?","?","?","?","?","?","?","?","?","?","?","?","?","?","?","?","?","?","?","?","?","?","?","?","?","?","?","?","?","?","?","?","?","?","?","?","?","?","?","?","?","?","?","?","?","?","?","?","?","?","?","?","?","?","?","?","?","?","?","?","?","?","?","?","?","?","?","?","?","?","?","?","?","?","?","?","?","?","?","?","?","?","?","?","?","?","?","?","?","?","?","?","?","?","?","?","?","?","?","?","?","?","?","?","?","?","?","?","?","?","?","?","?","?","?","?","?","?","?","?","?","?","?","?","?","?","?","?","?","?","?","?","?","?","?","?","?","?","?","?","?","?","?","?","?","?","?","?","?","?","?","?","?","?","?","?","?","?","?","?","?","?","?","?","?","?","?","?","?","?","?","?","?","?","?","?","?","?","?","?","?","?","?","?","?","?","?","?","?","?","?","?","?","?","?","?","?","?","?","?","?","?","?","?","?","?","?","?","?","?","?","?","?","?","?","?","?","?","?","?","?","?","?","?","?","?","?","?","?","?","?","?","?","?","?","?","?","?","?","?","?","?","?","?","?","?","?","?","?","?","?","?","?","?","?","?","?","?","?","?","?","?","?","?","?","?","?","?","?","?","?","?","?","?","?","?","?","?","?","?","?","?","?","?","?","?","?","?","?","?","?","?","?","?","?","?","?","?","?","?","?","?","?","?","?","?","?","?","?","?","?","?","?","?","?","?","?","?","?","?","?","?","?","?","?","?","?","?","?","?","?","?","?","?","?","?","?","?","?","?","?","?","?","?","?","?","?","?","?","?","?","?","?","?","?","?","?","?","?","?","?","?","?","?","?","?","?","?","?","?","?","?","?","?","?","?","?","?","?","?","?","?","?","?","?","?","?","?","?","?","?","?","?","?","?","?","?","?","?","?","?","?","?","?","?","?","?","?","?","?","?","?","?","?","?","?","?","?","?","?","?","?","?","?","?","?","?","?","?","?","?","?","?","?","?","?","?","?","?","?","?","?","?","?","?","?","?","?","?","?","?","?","?","?","?","?","?","?","?","?","?","?","?","?","?","?","?","?","?","?","?","?","?","?","?","?","?","?","?","?","?","?","?","?","?","?","?","?","?","?","?","?","?","?","?","?","?","?","?","?","?","?","?","?","?","?","?","?","?","?","?","?","?","?","?","?","?","?","?","?","?","?","?","?","?","?","?","?","?","?","?","?","?","?","?","?","?","?","?","?","?","?","?","?","?","?","?","?","?","?","?","?","?","?","?","?","?","?","?","?","?","?","?","?","?","?","?","?","?","?","?","?","?","?","?","?","?","?","?","?","?","?","?","?","?","?","?","?","?","?","?","?","?","?","?","?","?","?","?","?","?","?","?","?","?","?","?","?","?","?","?","?","?","?","?","?","?","?","?","?","?","?","?","?","?","?","?","?","?","?","?","?","?","?","?","?","?","?","?","?","?","?","?","?","?","?","?","?","?","?","?","?","?","?","?","?","?","?","?","?","?","?","?","?","?","?","?","?","?","?","?","?","?","?","?","?","?","?","?","?","?","?","?","?","?","?","?","?","?","?","?","?","?","?","?","?","?","?","?","?","?","?","?","?","?","?","?","?","?","?","?","?","?","?","?","?","?","?","?","?","?","?","?","?","?","?","?","?","?","?","?","?","?","?","?","?","?","?","?","?","?","?","?","?","?","?","?","?","?","?","?","?","?","?","?","?","?","?","?","?","?","?","?","?","?","?","?","?","?","?","?","?","?",