[{"success":true,"trial_type":"fullscreen","trial_index":0,"time_elapsed":6912,"internal_node_id":"0.0-0.0","protocol_sum":"","subject_identifier":527,"subject_sum":[75,232,65,17,166,19,101,75,54,36,21,229,99,203,118,7,223,123,32,59,93,48,56,2,168,165,70,6,27,188,120,71],"subject_pair":263,"STUDY_ID":"66a3ed3c5d10d0e7d8a6b9da","PROLIFIC_PID":"6664f2a4df585dff20e4c1a1","SESSION_ID":"66a45decfa732e356e956ec1","practice_instructions":1,"leaderboard_instructions":1,"bonus":0,"reveal_word":true,"self_rating":"3","confidence":"71"},{"view_history":"[{\"page_index\":0,\"viewing_time\":15619.600000023842}]","rt":15619.90000000596,"trial_type":"instructions","trial_index":1,"time_elapsed":22532,"internal_node_id":"0.0-1.0","protocol_sum":"","subject_identifier":527,"subject_sum":[75,232,65,17,166,19,101,75,54,36,21,229,99,203,118,7,223,123,32,59,93,48,56,2,168,165,70,6,27,188,120,71],"subject_pair":263,"STUDY_ID":"66a3ed3c5d10d0e7d8a6b9da","PROLIFIC_PID":"6664f2a4df585dff20e4c1a1","SESSION_ID":"66a45decfa732e356e956ec1","practice_instructions":1,"leaderboard_instructions":1,"bonus":0,"reveal_word":true,"self_rating":"3","confidence":"71"},{"view_history":"[{\"page_index\":0,\"viewing_time\":39247.09999999404}]","rt":39247.19999998808,"trial_type":"instructions","trial_index":2,"time_elapsed":61779,"internal_node_id":"0.0-2.0-0.0","protocol_sum":"","subject_identifier":527,"subject_sum":[75,232,65,17,166,19,101,75,54,36,21,229,99,203,118,7,223,123,32,59,93,48,56,2,168,165,70,6,27,188,120,71],"subject_pair":263,"STUDY_ID":"66a3ed3c5d10d0e7d8a6b9da","PROLIFIC_PID":"6664f2a4df585dff20e4c1a1","SESSION_ID":"66a45decfa732e356e956ec1","practice_instructions":1,"leaderboard_instructions":1,"bonus":0,"reveal_word":true,"self_rating":"3","confidence":"71"},{"rt":21871.40000000596,"responses":"{\"Q0\":\"... reveal the word with as <b>few letter guesses</b> as possible\"}","question_order":"[0]","trial_type":"survey-multi-choice","trial_index":3,"time_elapsed":83653,"internal_node_id":"0.0-2.0-1.0","protocol_sum":"","subject_identifier":527,"subject_sum":[75,232,65,17,166,19,101,75,54,36,21,229,99,203,118,7,223,123,32,59,93,48,56,2,168,165,70,6,27,188,120,71],"subject_pair":263,"correct":true,"test_part":"multichoice_nonpretend","STUDY_ID":"66a3ed3c5d10d0e7d8a6b9da","PROLIFIC_PID":"6664f2a4df585dff20e4c1a1","SESSION_ID":"66a45decfa732e356e956ec1","practice_instructions":1,"leaderboard_instructions":1,"bonus":0,"reveal_word":true,"self_rating":"3","confidence":"71"},{"view_history":"[{\"page_index\":0,\"viewing_time\":2358.7999999821186}]","rt":2358.9000000059605,"trial_type":"instructions","trial_index":4,"time_elapsed":86012,"internal_node_id":"0.0-3.0","protocol_sum":"","subject_identifier":527,"subject_sum":[75,232,65,17,166,19,101,75,54,36,21,229,99,203,118,7,223,123,32,59,93,48,56,2,168,165,70,6,27,188,120,71],"subject_pair":263,"STUDY_ID":"66a3ed3c5d10d0e7d8a6b9da","PROLIFIC_PID":"6664f2a4df585dff20e4c1a1","SESSION_ID":"66a45decfa732e356e956ec1","practice_instructions":1,"leaderboard_instructions":1,"bonus":0,"reveal_word":true,"self_rating":"3","confidence":"71"},{"word":"ZEBRA","click_log":{"letter":["","A","D","U","P","O","L","H","J","T","C","F","G","Z","E","B","R"],"t":[0,13027.199999988079,20684.90000000596,22507.09999999404,23923.09999999404,25419.40000000596,26651.59999999404,29084.90000000596,30891.19999998808,31978.90000000596,33155.09999999404,35307,36387.09999999404,37852.79999998212,39507,40451.59999999404,42843.19999998808],"hit":[null,1,0,0,0,0,0,0,0,0,0,0,0,1,1,1,1],"asked":["","A","AD","ADU","ADUP","ADUPO","ADUPOL","ADUPOLH","ADUPOLHJ","ADUPOLHJT","ADUPOLHJTC","ADUPOLHJTCF","ADUPOLHJTCFG","ADUPOLHJTCFGZ","ADUPOLHJTCFGZE","ADUPOLHJTCFGZEB","ADUPOLHJTCFGZEBR"],"word_state":["_____","____A","____A","____A","____A","____A","____A","____A","____A","____A","____A","____A","____A","Z___A","ZE__A","ZEB_A","ZEBRA"]},"hover_log":{"letter":["?","?","?","?","?","?","?","?","?","?","?","?","?","?","?","?","?","?","?","?","?","?","?","?","?","?","?","?","J","?","?","B","B","B","?","?","?","?","?","?","?","?","?","?","?","?","?","?","?","?","?","?","?","?","?","?","?","?","?","?","?","?","?","?","?","?","?","?","?","?","?","?","?","?","?","?","?","?","?","?","?","?","?","?","?","?","?","?","?","?","B","B","B","B","B","B","B","B","?","?","?","?","?","?","?","?","?","?","?","?","?","?","?","?","?","?","?","?","?","?","?","?","A","A","A","A","A","A","A","A","A","A","A","A","A","A","A","A","A","A","A","A","A","A","A","A","A","A","A","A","A","A","A","A","A","A","?","?","B","B","B","B","B","B","B","B","B","B","B","B","B","B","B","B","B","B","B","B","B","B","B","B","B","?","?","?","?","?","?","?","?","?","?","?","?","?","?","?","?","?","?","?","?","?","?","?","C","C","C","C","C","C","C","C","C","C","C","C","C","C","C","?","?","B","B","B","B","B","B","B","B","B","B","B","B","B","B","B","B","B","B","B","B","B","B","B","B","B","B","B","B","B","B","B","B","B","B","B","B","B","B","B","B","B","B","B","B","B","B","B","B","B","B","B","B","B","B","B","B","B","B","B","B","B","B","B","B","B","B","B","B","B","B","B","B","B","B","B","B","B","B","B","B","B","B","B","B","B","B","B","B","?","?","?","?","?","?","?","?","?","?","?","?","?","?","?","?","?","?","?","?","?","?","?","?","?","?","?","?","?","?","?","?","?","B","B","B","B","B","B","B","B","B","B","B","B","B","B","B","B","B","B","B","B","B","B","B","B","B","B","B","B","B","B","B","B","B","B","B","B","B","B","B","B","B","B","B","B","B","B","B","B","B","B","?","?","?","?","?","?","?","?","?","?","?","?","?","?","?","?","?","?","?","?","?","?","?","?","?","?","?","?","?","?","?","?","?","?","?","?","?","?","?","?","?","?","?","?","?","?","?","?","?","?","?","?","?","?","?","?","?","?","?","?","?","?","?","?","?","?","?","?","?","?","?","?","?","?","?","?","?","?","?","?","?","?","?","?","?","?","?","?","?","?","?","?","?","?","?","?","?","?","?","?","?","?","M","M","M","M","M","M","M","M","M","M","?","?","?","?","?","?","?","?","N","N","N","N","N","N","N","N","N","N","N","N","N","N","N","N","N","N","N","N","N","N","N","N","N","N","N","N","N","N","N","N","N","N","N","N","N","N","N","N","N","N","N","N","N","N","N","N","N","N","N","N","N","N","N","N","N","N","N","N","N","N","N","N","N","N","N","N","N","N","N","N","N","N","N","N","N","N","N","N","N","N","N","N","N","N","N","N","N","N","N","N","N","N","N","N","N","N","N","N","N","N","N","N","N","N","N","N","N","N","N","N","N","N","N","N","N","N","N","N","N","N","N","N","N","N","N","N","N","N","N","N","N","N","N","N","N","N","N","N","N","N","N","N","N","N","N","N","N","N","N","N","N","N","N","N","N","N","N","N","N","N","N","N","N","N","N","N","N","N","N","N","N","N","N","N","N","N","N","N","N","N","N","N","N","N","N","N","N","N","N","N","N","N","N","N","N","N","N","N","N","N","N","N","N","N","N","N","N","N","N","N","N","N","N","N","N","N","N","N","N","N","N","?","?","?","?","D","D","D","D","D","D","D","?","?","?","C","C","C","C","C","C","C","?","B","B","B","B","B","?","?","A","A","A","A","A","A","A","A","A","A","A","A","A","A","A","A","A","A","A","A","A","A","A","A","A","A","A","A","A","A","A","A","A","?","?","?","?","?","?","?","?","?","?","?","?","?","?","?","?","?","?","?","?","?","?","?","?","?","?","?","?","?","?","?","M","M","?","?","?","N","N","N","?","O","O","O","O","O","?","?","?","?","?","?","?","?","?","?","?","?","?","?","?","?","?","?","?","?","?","?","?","?","?","?","?","?","P","P","P","P","P","P","P","P","P","P","P","P","P","P","P","P","P","P","P","P","P","P","P","P","P","P","P","P","P","P","P","P","P","P","P","P","P","P","P","P","P","P","P","P","P","P","P","P","P","P","P","P","P","P","P","P","P","P","P","P","P","P","P","P","P","P","P","P","P","P","P","P","P","P","P","P","P","P","P","P","P","P","P","P","P","P","P","P","P","P","P","P","P","P","P","P","P","P","P","P","P","P","P","P","P","P","P","P","P","P","P","P","P","P","P","P","P","P","P","P","P","P","P","P","P","P","P","P","P","P","P","P","P","P","P","P","P","P","P","P","P","P","P","P","P","P","P","P","P","P","P","P","P","P","P","P","P","P","P","P","P","P","P","P","P","P","P","P","P","P","P","P","P","P","P","P","P","P","P","P","P","P","P","P","P","P","P","P","P","P","P","P","P","P","P","P","P","P","P","P","P","P","P","P","P","P","P","P","P","P","P","P","P","P","?","?","Q","Q","Q","Q","Q","Q","?","?","R","R","R","R","R","R","R","R","R","R","R","R","R","R","R","R","R","R","R","R","R","R","R","R","R","R","R","R","R","R","R","R","R","R","R","R","R","?","?","?","G","G","G","?","?","?","?","?","?","?","?","?","F","F","F","F","F","F","F","F","F","F","F","F","F","F","F","F","F","F","F","F","F","F","F","F","F","F","F","F","F","F","F","F","F","F","F","F","F","F","F","F","F","F","?","E","E","E","D","D","D","D","D","D","D","D","D","D","D","D","D","D","D","D","D","D","D","D","D","D","D","D","D","D","D","D","D","D","D","D","D","D","D","D","D","D","D","D","D","D","D","D","D","D","D","D","D","D","D","D","D","D","D","D","D","D","D","D","D","D","D","D","D","D","D","D","D","D","D","D","D","D","D","D","D","D","D","D","D","D","D","D","D","D","D","D","D","D","?","?","?","?","?","?","?","?","?","?","M","M","M","M","M","M","M","M","M","M","M","M","M","M","M","M","M","M","?","?","?","?","?","?","?","?","?","?","?","?","U","U","U","U","U","U","U","U","U","U","U","U","U","U","U","U","U","U","U","U","U","U","U","U","U","U","U","U","U","U","U","U","U","U","U","U","U","U","U","U","U","U","U","U","U","U","U","U","U","U","U","U","U","U","U","U","U","U","U","U","U","U","U","U","U","U","U","U","U","U","U","U","U","U","?","?","?","?","?","?","?","?","?","O","O","O","O","?","?","?","P","P","P","P","P","P","P","P","P","P","P","P","P","P","P","P","P","P","P","P","P","P","P","P","P","P","P","P","P","P","P","P","P","P","P","P","P","P","P","P","P","P","P","P","P","P","P","P","P","P","P","P","P","P","P","P","P","P","P","P","P","?","O","O","O","N","N","N","M","M","M","M","M","M","M","M","M","M","M","M","M","N","N","N","N","N","N","N","N","N","N","N","?","?","?","O","O","O","O","O","O","O","O","O","O","O","O","O","O","O","O","O","O","O","O","O","O","O","O","O","O","O","O","O","O","O","O","O","O","O","O","O","O","O","O","O","O","O","O","O","O","O","O","O","O","O","O","O","O","O","O","O","O","O","O","O","O","?","?","N","N","?","M","M","?","L","L","L","L","L","L","L","L","L","L","L","L","L","L","L","L","L","L","L","L","L","L","L","L","L","L","L","L","L","L","L","L","L","L","L","L","L","L","L","L","L","L","L","L","L","L","L","L","L","L","L","L","L","L","L","L","L","L","L","L","L","L","L","L","L","L","L","L","L","L","L","L","L","L","L","L","L","L","L","L","L","L","L","L","L","L","L","L","L","L","L","L","L","L","L","L","L","L","L","L","L","L","L","L","L","L","L","L","L","L","L","?","?","?","?","M","M","M","M","M","M","M","M","?","?","?","N","N","N","N","?","?","?","?","?","?","G","G","G","G","G","?","?","H","H","H","H","H","H","H","H","H","H","H","H","H","H","H","H","H","H","H","H","H","H","H","H","H","H","H","H","H","H","H","H","H","H","H","H","H","H","H","H","H","H","H","H","H","H","H","H","H","H","H","H","H","H","H","H","H","H","H","H","H","H","H","H","H","H","H","H","H","H","H","H","H","H","H","H","H","H","H","H","H","H","H","H","?","?","?","?","?","?","N","M","M","L","L","L","L","L","?","K","K","K","K","K","K","?","?","J","J","J","J","J","J","J","J","J","J","J","J","J","J","J","J","J","J","J","J","J","J","J","J","J","J","J","J","J","J","J","J","J","J","J","J","J","J","J","J","J","J","J","J","J","J","J","J","J","J","J","J","J","J","?","?","?","?","?","?","?","?","?","?","?","?","?","?","?","?","?","?","T","T","T","T","T","T","T","T","T","T","T","T","T","T","T","T","T","T","T","T","T","T","T","T","T","T","T","T","T","T","T","T","T","T","T","T","T","T","T","T","T","T","T","T","T","T","T","?","?","?","?","U","U","U","U","U","U","U","U","U","U","?","?","?","L","L","L","L","L","L","?","?","?","?","C","C","C","C","C","C","C","C","C","C","C","C","C","C","C","C","C","C","C","C","C","C","C","C","C","C","C","C","C","C","C","C","C","?","?","?","?","?","?","?","?","?","?","?","?","M","M","M","M","M","?","?","?","?","?","?","?","?","?","?","?","N","N","N","N","N","N","N","N","N","N","N","N","N","N","N","N","N","N","N","N","N","?","?","?","?","?","?","?","?","?","?","?","?","?","?","?","?","?","?","?","?","?","?","?","?","?","?","?","?","?","?","?","?","?","?","?","?","?","?","?","?","?","?","?","?","F","F","F","F","F","F","F","F","F","F","F","F","F","F","F","F","F","F","F","F","F","F","F","F","F","F","F","F","F","F","F","F","F","F","F","F","F","F","F","F","F","F","F","F","F","F","F","F","F","F","F","?","?","?","?","?","?","?","?","?","?","?","?","?","?","?","G","G","G","G","G","G","G","G","G","G","G","G","G","G","G","G","G","G","G","G","G","G","G","G","G","G","G","G","G","G","G","G","G","G","G","G","G","G","G","G","G","G","G","G","G","G","G","G","G","G","G","G","G","G","G","G","G","G","G","G","G","G","G","G","?","?","?","P","P","P","P","P","?","?","?","?","?","?","?","?","?","?","?","?","?","?","Z","Z","Z","Z","Z","Z","Z","Z","Z","Z","Z","Z","Z","Z","Z","Z","Z","Z","Z","Z","Z","Z","Z","Z","Z","Z","Z","Z","Z","Z","Z","Z","Z","Z","Z","Z","Z","Z","Z","Z","Z","Z","Z","Z","Z","Z","Z","Z","?","?","?","Y","Y","Y","?","?","X","X","?","?","?","?","M","M","M","M","?","?","?","?","?","?","?","?","C","C","C","C","C","C","C","?","D","D","D","D","D","D","D","D","D","D","D","?","?","?","E","E","E","E","E","E","E","E","E","E","E","E","E","E","E","E","E","E","E","E","E","E","E","E","E","E","E","E","E","E","E","E","E","E","E","E","E","E","E","E","E","E","E","E","?","D","D","D","D","?","C","C","C","C","?","?","?","B","B","B","B","B","B","B","B","B","B","B","B","B","B","B","B","B","B","B","B","B","B","B","B","B","B","B","B","B","B","B","B","B","B","B","B","B","B","B","B","B","B","B","?","C","C","C","?","?","?","?","?","?","?","?","?","N","N","N","N","?","?","?","?","?","?","?","?","?","?","?","?","?","?","?","?","?","?","Q","Q","Q","Q","?","?","R","R","R","R","R","R","R","R","R","R","R","R","R","R","R","R","R","R","R","R","R","R","R","R","R","R","R","R","R","R","R","R","R","R","R","R","R","R","R","R","R","R","R","R","R","R","R","R","R","R","R","R","R","R","R","R","R","R","R","R","R","R","R","R","R","R","R","R","R","R","R","R","R","R","R","R","R","R","R","R","R","R","R","R","R","R","R","R","R","R","R","R","R","R","R","R","R","R","R","R","R","R","R","R","R","R","R","R","R","?","?","?","?","?","?","?","?","?","?","?","?","?","?","?","?","?","?","?","?","?","?","?","?","?","?","?","?","?","?","?","?","?","?","?","?","?","?","?","?","?","?","?","?","?","?","?","?","?","?","?","?","?","?","?","?","?","?","?","?","?","?","?","?","?","?","?","?","?","?","?","?","?","?","?","?","?","?","?","?","?","?","?","?","?","?","?","?","?","?","?","?"],"t":[22,35,49,66,83,100,116,132,148,166,182,200,215,232,249,266,282,299,315,332,349,366,382,399,415,432,449,465,483,499,515,532,549,566,582,599,615,632,649,665,682,699,715,732,749,765,782,799,815,832,849,865,882,899,915,932,950,965,982,999,1015,1032,1048,1065,1082,1098,1115,1132,1149,1165,1182,1199,1216,1232,1249,1265,1282,1299,1315,1331,1348,1365,1382,1398,1415,1432,1448,1465,1481,1498,1515,1532,1549,1565,1582,1598,1615,1632,1648,1665,1682,1699,1715,1732,1749,1765,1782,1800,1815,1832,1849,1865,1882,1898,1915,1932,1948,1966,1982,1998,2015,2032,2048,2065,2082,2098,2115,2132,2148,2165,2182,2198,2215,2232,2248,2265,2282,2298,2315,2332,2348,2365,2382,2398,2415,2432,2449,2465,2482,2498,2515,2532,2548,2565,2582,2598,2615,2632,2648,2665,2682,2698,2715,2732,2748,2765,2781,2798,2815,2832,2849,2865,2882,2898,2915,2932,2948,2965,2981,2999,3015,3032,3049,3065,3082,3099,3115,3132,3148,3166,3182,3198,3215,3232,3248,3265,3282,3298,3315,3332,3349,3365,3382,3398,3415,3432,3448,3465,3482,3498,3515,3532,3548,3565,3582,3598,3615,3631,3648,3665,3682,3699,3715,3732,3748,3765,3782,3798,3815,3833,3848,3865,3882,3898,3915,3932,3948,3966,3982,3998,4015,4032,4048,4065,4082,4098,4115,4132,4148,4165,4182,4198,4215,4232,4248,4265,4281,4298,4315,4332,4348,4365,4382,4398,4415,4431,4448,4465,4481,4498,4515,4531,4548,4565,4582,4598,4615,4632,4648,4665,4681,4699,4715,4731,4748,4765,4781,4798,4815,4831,4849,4865,4882,4898,4915,4931,4948,4965,4983,4998,5015,5032,5048,5065,5081,5098,5115,5131,5149,5165,5182,5198,5215,5232,5248,5265,5281,5298,5315,5332,5348,5365,5382,5398,5415,5431,5448,5466,5481,5498,5515,5531,5548,5565,5582,5598,5615,5632,5648,5665,5682,5698,5715,5732,5749,5765,5782,5798,5815,5832,5849,5867,5883,5898,5915,5931,5948,5965,5981,5998,6015,6032,6049,6065,6082,6099,6115,6132,6148,6164,6182,6198,6215,6232,6249,6265,6281,6299,6315,6332,6348,6365,6382,6398,6415,6432,6448,6466,6482,6498,6516,6532,6549,6565,6582,6598,6615,6632,6649,6665,6682,6698,6715,6732,6748,6765,6782,6798,6815,6832,6848,6865,6882,6898,6915,6932,6949,6965,6982,6998,7015,7032,7048,7065,7081,7098,7115,7132,7148,7165,7182,7198,7215,7231,7248,7265,7281,7298,7315,7332,7348,7365,7382,7398,7415,7431,7448,7465,7482,7498,7515,7531,7548,7565,7582,7598,7615,7631,7648,7665,7682,7699,7715,7731,7748,7765,7781,7798,7815,7831,7848,7865,7881,7898,7915,7931,7948,7965,7981,7998,8015,8031,8048,8065,8082,8098,8115,8131,8148,8165,8181,8198,8215,8231,8248,8265,8282,8298,8315,8332,8348,8366,8382,8398,8416,8432,8448,8465,8482,8498,8516,8532,8549,8565,8583,8599,8615,8632,8649,8665,8682,8699,8715,8732,8749,8765,8782,8798,8815,8832,8849,8865,8882,8898,8916,8932,8948,8965,8982,8998,9016,9032,9048,9065,9082,9098,9115,9132,9148,9165,9182,9198,9215,9232,9248,9265,9282,9299,9315,9332,9349,9365,9382,9399,9415,9432,9449,9465,9482,9499,9515,9532,9549,9565,9582,9599,9615,9633,9649,9665,9682,9699,9715,9732,9749,9765,9782,9798,9815,9831,9848,9865,9882,9898,9915,9931,9948,9965,9982,9999,10015,10032,10050,10065,10082,10099,10115,10132,10149,10165,10183,10199,10216,10232,10249,10265,10282,10299,10315,10332,10349,10365,10383,10399,10415,10432,10448,10465,10481,10498,10515,10531,10548,10565,10581,10598,10615,10631,10648,10665,10681,10698,10715,10731,10748,10765,10781,10798,10815,10831,10848,10865,10881,10898,10915,10932,10949,10965,10983,10998,11015,11031,11048,11065,11081,11098,11115,11131,11148,11165,11182,11198,11215,11232,11248,11265,11282,11298,11315,11332,11348,11366,11382,11399,11415,11432,11449,11465,11483,11499,11515,11531,11549,11565,11582,11599,11616,11631,11648,11665,11681,11699,11715,11731,11748,11765,11781,11798,11816,11831,11848,11865,11881,11898,11915,11931,11948,11965,11981,11998,12015,12031,12048,12065,12082,12098,12115,12131,12149,12165,12181,12198,12215,12231,12248,12265,12281,12298,12316,12332,12349,12365,12382,12398,12415,12432,12448,12465,12482,12498,12515,12532,12548,12566,12582,12598,12615,12632,12649,12665,12682,12698,12715,12732,12748,12765,12782,12798,12815,12832,12848,12865,12882,12898,12915,12932,12948,12965,12982,12998,13015,13032,13048,13065,13082,13098,13115,13133,13148,13165,13182,13198,13215,13232,13248,13265,13282,13299,13315,13332,13348,13365,13382,13399,13415,13432,13449,13465,13482,13499,13515,13533,13549,13565,13582,13599,13615,13632,13649,13665,13682,13699,13715,13732,13749,13765,13782,13799,13816,13832,13849,13865,13882,13899,13915,13932,13949,13965,13982,13998,14015,14032,14049,14065,14082,14099,14115,14132,14149,14165,14182,14199,14215,14232,14250,14265,14282,14299,14315,14332,14349,14365,14383,14400,14416,14432,14449,14465,14482,14499,14516,14532,14550,14565,14582,14599,14615,14632,14648,14665,14682,14698,14715,14732,14748,14765,14781,14798,14816,14832,14849,14866,14882,14899,14915,14933,14949,14965,14982,14998,15015,15032,15048,15065,15082,15098,15115,15132,15148,15166,15182,15199,15216,15232,15249,15265,15282,15299,15317,15332,15349,15365,15382,15399,15415,15432,15449,15465,15482,15499,15515,15532,15549,15565,15583,15599,15615,15633,15649,15665,15682,15699,15715,15732,15749,15765,15782,15799,15815,15832,15849,15865,15882,15899,15915,15932,15949,15965,15982,15999,16015,16032,16049,16065,16082,16099,16115,16132,16149,16165,16182,16199,16215,16232,16248,16265,16282,16299,16315,16332,16349,16366,16382,16399,16415,16432,16449,16465,16483,16499,16515,16532,16549,16565,16582,16599,16616,16632,16648,16665,16682,16698,16715,16732,16748,16765,16782,16799,16815,16832,16849,16865,16882,16899,16915,16932,16949,16965,16982,16999,17015,17032,17049,17065,17082,17099,17115,17132,17149,17165,17182,17199,17215,17232,17249,17265,17282,17299,17317,17332,17349,17365,17382,17399,17415,17432,17449,17466,17482,17499,17515,17532,17549,17566,17582,17599,17615,17632,17649,17665,17682,17699,17715,17732,17749,17765,17782,17798,17815,17832,17848,17865,17883,17898,17915,17932,17948,17965,17982,17998,18015,18032,18048,18065,18082,18098,18115,18132,18148,18165,18183,18199,18215,18232,18248,18265,18282,18298,18315,18332,18349,18365,18382,18399,18415,18432,18449,18465,18482,18499,18515,18532,18549,18565,18582,18599,18615,18632,18649,18665,18682,18698,18715,18732,18748,18765,18782,18799,18815,18832,18848,18865,18882,18899,18916,18932,18949,18965,18982,18999,19015,19032,19049,19065,19082,19098,19115,19132,19148,19166,19182,19198,19215,19232,19248,19265,19282,19298,19315,19332,19348,19365,19382,19398,19415,19432,19448,19465,19482,19498,19515,19532,19548,19565,19582,19598,19615,19632,19649,19666,19682,19698,19715,19732,19748,19765,19782,19798,19815,19832,19848,19866,19882,19898,19915,19932,19949,19965,19982,19998,20015,20032,20048,20065,20082,20099,20115,20132,20149,20166,20182,20199,20215,20232,20248,20265,20282,20299,20315,20332,20349,20365,20382,20398,20416,20432,20449,20465,20482,20499,20515,20532,20549,20565,20582,20599,20615,20632,20649,20666,20682,20701,20716,20732,20749,20765,20782,20799,20815,20832,20849,20865,20882,20899,20915,20932,20949,20965,20982,20999,21015,21032,21049,21065,21082,21099,21115,21133,21149,21165,21182,21199,21215,21232,21249,21265,21282,21298,21315,21332,21349,21365,21382,21399,21415,21432,21449,21465,21483,21499,21515,21533,21549,21565,21582,21599,21615,21632,21649,21665,21682,21698,21715,21732,21749,21765,21782,21798,21815,21832,21848,21865,21882,21899,21916,21932,21948,21965,21982,21999,22015,22032,22049,22065,22083,22098,22115,22132,22148,22165,22182,22198,22215,22232,22248,22265,22282,22298,22315,22332,22349,22365,22382,22399,22415,22432,22449,22465,22482,22499,22515,22532,22550,22565,22582,22598,22615,22632,22648,22665,22682,22699,22715,22732,22749,22765,22782,22798,22815,22832,22848,22865,22883,22898,22915,22933,22949,22965,22982,22998,23015,23032,23048,23065,23082,23098,23115,23132,23148,23166,23182,23198,23215,23232,23249,23265,23283,23299,23316,23333,23349,23366,23383,23399,23416,23432,23449,23465,23482,23499,23515,23532,23549,23565,23582,23599,23615,23632,23649,23666,23682,23700,23715,23732,23749,23765,23782,23798,23815,23831,23849,23866,23882,23899,23916,23933,23949,23966,23982,23998,24016,24032,24049,24066,24082,24099,24116,24132,24149,24167,24182,24199,24216,24232,24249,24266,24282,24300,24316,24332,24349,24366,24382,24399,24416,24431,24449,24467,24482,24499,24516,24532,24549,24566,24582,24599,24616,24632,24649,24666,24682,24699,24716,24732,24750,24766,24782,24799,24816,24832,24850,24866,24883,24899,24916,24932,24949,24966,24982,24998,25015,25032,25048,25065,25082,25098,25115,25132,25149,25165,25183,25199,25215,25232,25250,25265,25282,25299,25315,25332,25349,25365,25382,25399,25415,25432,25448,25465,25482,25498,25515,25532,25549,25565,25583,25598,25615,25632,25649,25665,25682,25699,25716,25732,25749,25765,25782,25799,25815,25832,25849,25865,25882,25899,25915,25932,25949,25965,25982,25999,26015,26032,26049,26065,26082,26098,26115,26132,26149,26165,26182,26199,26215,26232,26249,26265,26282,26299,26315,26332,26349,26366,26382,26400,26416,26432,26449,26466,26482,26498,26515,26531,26548,26565,26582,26598,26616,26632,26649,26665,26682,26698,26715,26732,26749,26765,26782,26798,26815,26832,26849,26866,26882,26899,26916,26932,26949,26966,26982,26999,27016,27032,27049,27066,27082,27099,27116,27132,27149,27166,27183,27199,27216,27232,27249,27267,27282,27299,27316,27332,27350,27366,27382,27399,27416,27432,27449,27465,27482,27499,27516,27532,27549,27565,27582,27599,27615,27632,27649,27665,27682,27699,27715,27733,27749,27765,27782,27799,27815,27833,27849,27866,27882,27899,27916,27933,27949,27966,27982,27998,28015,28032,28049,28066,28082,28099,28116,28132,28148,28165,28182,28198,28215,28233,28249,28265,28283,28299,28315,28332,28348,28365,28383,28399,28415,28432,28449,28467,28482,28500,28516,28532,28550,28566,28582,28599,28615,28632,28648,28665,28682,28699,28715,28732,28749,28765,28782,28799,28816,28832,28849,28866,28883,28899,28916,28932,28949,28966,28982,28999,29015,29032,29049,29066,29082,29099,29115,29132,29149,29165,29182,29199,29215,29232,29249,29265,29282,29300,29315,29332,29348,29365,29382,29398,29415,29432,29448,29465,29482,29499,29516,29532,29549,29566,29582,29599,29616,29632,29649,29666,29682,29699,29716,29732,29749,29766,29782,29799,29816,29832,29849,29865,29882,29899,29915,29932,29949,29966,29982,29999,30016,30033,30049,30066,30083,30099,30117,30132,30149,30167,30182,30199,30215,30232,30249,30265,30282,30299,30315,30332,30349,30365,30382,30399,30415,30432,30449,30466,30482,30499,30515,30532,30549,30565,30582,30599,30615,30632,30649,30665,30683,30699,30715,30732,30749,30765,30782,30799,30815,30832,30849,30866,30882,30899,30916,30932,30950,30966,30982,30999,31015,31033,31049,31067,31083,31099,31116,31133,31149,31166,31182,31199,31216,31232,31249,31266,31282,31299,31316,31333,31349,31366,31382,31399,31416,31432,31450,31466,31482,31499,31516,31533,31549,31565,31583,31599,31616,31632,31650,31667,31683,31699,31716,31732,31749,31766,31782,31799,31816,31832,31849,31866,31883,31899,31916,31932,31949,31966,31982,31999,32016,32032,32049,32066,32082,32099,32115,32132,32149,32165,32182,32198,32215,32232,32249,32266,32282,32299,32316,32332,32349,32366,32382,32399,32416,32433,32449,32466,32483,32499,32516,32532,32549,32566,32582,32599,32616,32632,32649,32666,32682,32699,32716,32732,32749,32765,32782,32799,32816,32832,32849,32866,32883,32899,32916,32933,32949,32966,32982,32999,33017,33032,33049,33066,33082,33100,33116,33132,33149,33166,33182,33199,33216,33232,33249,33265,33282,33298,33316,33332,33349,33366,33382,33400,33416,33432,33449,33465,33482,33499,33515,33533,33549,33565,33583,33599,33616,33632,33649,33665,33682,33699,33715,33732,33749,33765,33782,33799,33816,33832,33849,33866,33882,33899,33915,33932,33949,33965,33983,33999,34015,34032,34049,34065,34082,34099,34116,34132,34149,34166,34183,34199,34216,34233,34249,34266,34283,34299,34316,34332,34349,34366,34382,34399,34416,34432,34449,34466,34482,34499,34516,34532,34549,34566,34582,34599,34616,34633,34649,34665,34682,34699,34716,34732,34749,34765,34782,34799,34815,34832,34850,34865,34882,34899,34915,34932,34950,34965,34982,34999,35015,35032,35049,35065,35082,35099,35115,35133,35149,35166,35183,35199,35216,35232,35249,35266,35282,35299,35316,35332,35349,35366,35382,35399,35416,35432,35449,35466,35482,35499,35516,35532,35549,35566,35582,35599,35616,35632,35649,35666,35682,35699,35715,35732,35749,35765,35782,35799,35815,35832,35849,35865,35882,35899,35916,35932,35949,35966,35982,35999,36016,36032,36049,36065,36082,36099,36115,36132,36149,36165,36182,36199,36216,36232,36249,36266,36282,36299,36316,36332,36349,36366,36382,36399,36416,36432,36449,36466,36482,36499,36516,36532,36549,36565,36583,36599,36616,36632,36649,36666,36682,36699,36716,36732,36749,36766,36782,36799,36817,36832,36850,36866,36883,36899,36916,36933,36949,36966,36982,36999,37017,37033,37049,37066,37082,37099,37116,37133,37149,37166,37182,37199,37216,37233,37249,37266,37282,37299,37315,37332,37349,37365,37382,37399,37415,37432,37449,37466,37483,37499,37515,37532,37549,37565,37583,37599,37615,37632,37649,37665,37682,37699,37716,37732,37749,37765,37782,37799,37815,37832,37849,37865,37882,37899,37916,37932,37949,37966,37983,37999,38016,38033,38049,38066,38083,38099,38115,38132,38149,38165,38183,38199,38216,38233,38249,38266,38282,38299,38316,38332,38349,38366,38382,38399,38416,38432,38449,38467,38482,38499,38516,38532,38550,38566,38583,38599,38616,38633,38649,38665,38682,38699,38715,38732,38750,38766,38783,38799,38815,38832,38849,38865,38882,38899,38916,38932,38949,38965,38982,38999,39016,39033,39049,39066,39082,39099,39115,39132,39149,39166,39182,39199,39216,39232,39249,39266,39282,39300,39316,39332,39349,39366,39382,39399,39416,39432,39449,39466,39482,39499,39516,39532,39549,39565,39582,39599,39616,39632,39649,39666,39682,39699,39716,39732,39749,39765,39782,39799,39816,39832,39849,39865,39882,39899,39916,39933,39949,39965,39982,39999,40016,40032,40049,40065,40083,40099,40116,40132,40149,40166,40182,40199,40216,40232,40249,40265,40283,40298,40315,40332,40348,40365,40382,40399,40415,40432,40448,40466,40482,40499,40516,40532,40549,40566,40582,40599,40616,40632,40649,40665,40682,40699,40716,40732,40749,40766,40782,40799,40816,40832,40850,40866,40882,40899,40915,40932,40949,40965,40982,40999,41016,41032,41049,41066,41083,41099,41116,41132,41149,41166,41182,41199,41216,41232,41249,41266,41282,41299,41315,41333,41349,41365,41382,41399,41416,41432,41449,41465,41483,41499,41516,41532,41549,41566,41583,41599,41616,41634,41649,41665,41682,41699,41717,41732,41749,41766,41782,41799,41816,41832,41849,41865,41882,41899,41915,41932,41949,41965,41982,41999,42015,42032,42049,42066,42082,42099,42115,42132,42149,42165,42182,42199,42215,42232,42249,42266,42282,42299,42315,42332,42350,42365,42382,42399,42416,42432,42449,42466,42482,42499,42516,42532,42549,42565,42582,42599,42616,42632,42649,42665,42682,42699,42715,42732,42749,42765,42782,42799,42815,42832,42851,42865,42882,42899,42915,42932,42949,42965,42982,42999,43015,43032,43049,43065,43082,43098,43115,43132,43149,43165,43183,43198,43216,43232,43249,43266,43282,43299,43316,43332,43349,43365,43382,43399,43416,43433,43450,43466,43483,43499,43516,43533,43549,43566,43582,43599,43616,43632,43649,43666,43682,43699,43715,43732,43749,43765,43782,43799,43815,43832,43849,43866,43883,43899,43916,43933,43949,43965,43982,43999,44016,44032,44049,44065,44082,44099,44115,44132,44148,44165,44183,44199,44215,44233,44249,44265,44282,44298,44316,44332,44349,44365,44382,44399,44416,44433,44449,44465,44482,44499,44516,44532,44549,44566,44582,44599,44615,44632,44649,44665,44682,44699,44715,44732,44748,44765,44782,44799,44816,44833,44849],"hit":[null],"x":[-2.693877551020408,-2.693877551020408,-2.693877551020408,-2.693877551020408,-2.693877551020408,-2.693877551020408,-2.693877551020408,-2.693877551020408,-2.693877551020408,-2.693877551020408,-2.693877551020408,-2.693877551020408,-2.693877551020408,-2.693877551020408,-2.693877551020408,-2.693877551020408,-2.693877551020408,-2.693877551020408,-2.693877551020408,-2.693877551020408,-2.693877551020408,-2.693877551020408,-2.693877551020408,-2.693877551020408,-2.693877551020408,-2.693877551020408,-2.693877551020408,0.017006802721088437,0.04081632653061224,0.061224489795918366,0.09523809523809523,0.1360544217687075,0.16326530612244897,0.18027210884353742,0.20068027210884354,0.2108843537414966,0.21768707482993196,0.22108843537414966,0.22108843537414966,0.22108843537414966,0.22108843537414966,0.22108843537414966,0.22108843537414966,0.22108843537414966,0.22108843537414966,0.22108843537414966,0.22108843537414966,0.22108843537414966,0.22108843537414966,0.22108843537414966,0.22108843537414966,0.22108843537414966,0.22108843537414966,0.22108843537414966,0.22108843537414966,0.22108843537414966,0.22108843537414966,0.22448979591836735,0.22448979591836735,0.22789115646258504,0.23469387755102042,0.23809523809523808,0.24149659863945577,0.24489795918367346,0.24489795918367346,0.24489795918367346,0.24489795918367346,0.24489795918367346,0.24489795918367346,0.24489795918367346,0.24489795918367346,0.24489795918367346,0.24489795918367346,0.24149659863945577,0.22108843537414966,0.20408163265306123,0.19387755102040816,0.19047619047619047,0.19047619047619047,0.19047619047619047,0.19047619047619047,0.19047619047619047,0.1870748299319728,0.1870748299319728,0.1870748299319728,0.1836734693877551,0.17687074829931973,0.17006802721088435,0.1564625850340136,0.14285714285714285,0.1292517006802721,0.12244897959183673,0.10884353741496598,0.1054421768707483,0.09523809523809523,0.08843537414965986,0.08503401360544217,0.08503401360544217,0.0782312925170068,0.0782312925170068,0.0782312925170068,0.0782312925170068,0.0782312925170068,0.0782312925170068,0.0782312925170068,0.0782312925170068,0.0782312925170068,0.0782312925170068,0.0782312925170068,0.0782312925170068,0.0782312925170068,0.0782312925170068,0.0782312925170068,0.0782312925170068,0.0782312925170068,0.0782312925170068,0.0782312925170068,0.0782312925170068,0.0782312925170068,0.07482993197278912,0.07142857142857142,0.06462585034013606,0.05442176870748299,0.04081632653061224,0.034013605442176874,0.030612244897959183,0.027210884353741496,0.027210884353741496,0.027210884353741496,0.027210884353741496,0.027210884353741496,0.023809523809523808,0.023809523809523808,0.02040816326530612,0.017006802721088437,0.013605442176870748,0.01020408163265306,0.01020408163265306,0.006802721088435374,0.003401360544217687,0,0,0,0,0,0,0,0,0,0,0,0,0,0.006802721088435374,0.017006802721088437,0.04421768707482993,0.06462585034013606,0.08503401360544217,0.1054421768707483,0.11904761904761904,0.12585034013605442,0.1292517006802721,0.13945578231292516,0.14965986394557823,0.14965986394557823,0.1598639455782313,0.16666666666666666,0.16666666666666666,0.16666666666666666,0.16666666666666666,0.16666666666666666,0.16666666666666666,0.16666666666666666,0.16666666666666666,0.16666666666666666,0.16666666666666666,0.16666666666666666,0.16666666666666666,0.16666666666666666,0.16666666666666666,0.16666666666666666,0.16666666666666666,0.16666666666666666,0.16666666666666666,0.16326530612244897,0.1598639455782313,0.1598639455782313,0.15306122448979592,0.15306122448979592,0.14965986394557823,0.14625850340136054,0.14625850340136054,0.14625850340136054,0.14625850340136054,0.14625850340136054,0.14625850340136054,0.14625850340136054,0.14625850340136054,0.14965986394557823,0.17346938775510204,0.19047619047619047,0.21428571428571427,0.23129251700680273,0.24489795918367346,0.25170068027210885,0.25510204081632654,0.25510204081632654,0.25510204081632654,0.25510204081632654,0.25510204081632654,0.25510204081632654,0.25510204081632654,0.25510204081632654,0.25510204081632654,0.25510204081632654,0.25510204081632654,0.25510204081632654,0.25510204081632654,0.25510204081632654,0.24489795918367346,0.23129251700680273,0.21428571428571427,0.20408163265306123,0.19387755102040816,0.1870748299319728,0.1836734693877551,0.17687074829931973,0.16666666666666666,0.1564625850340136,0.14625850340136054,0.13945578231292516,0.13945578231292516,0.13945578231292516,0.13945578231292516,0.13945578231292516,0.13945578231292516,0.13945578231292516,0.13945578231292516,0.13945578231292516,0.13945578231292516,0.13945578231292516,0.13945578231292516,0.13945578231292516,0.13945578231292516,0.13945578231292516,0.13945578231292516,0.13945578231292516,0.13945578231292516,0.13945578231292516,0.13945578231292516,0.13945578231292516,0.13945578231292516,0.13945578231292516,0.13945578231292516,0.13945578231292516,0.13945578231292516,0.13945578231292516,0.13945578231292516,0.13945578231292516,0.13945578231292516,0.13945578231292516,0.13945578231292516,0.13945578231292516,0.13945578231292516,0.13945578231292516,0.13945578231292516,0.13945578231292516,0.13945578231292516,0.13945578231292516,0.13945578231292516,0.13945578231292516,0.13945578231292516,0.13945578231292516,0.13945578231292516,0.13945578231292516,0.13945578231292516,0.13945578231292516,0.13945578231292516,0.13945578231292516,0.13945578231292516,0.13945578231292516,0.13945578231292516,0.13945578231292516,0.13945578231292516,0.13945578231292516,0.13945578231292516,0.13945578231292516,0.13945578231292516,0.13945578231292516,0.13945578231292516,0.13945578231292516,0.13945578231292516,0.13945578231292516,0.13945578231292516,0.13945578231292516,0.13945578231292516,0.13945578231292516,0.13945578231292516,0.13945578231292516,0.13945578231292516,0.13945578231292516,0.13945578231292516,0.13945578231292516,0.13945578231292516,0.13945578231292516,0.13945578231292516,0.13945578231292516,0.13945578231292516,0.13945578231292516,0.13945578231292516,0.15306122448979592,0.18027210884353742,0.20748299319727892,0.22448979591836735,0.24489795918367346,0.25510204081632654,0.2585034013605442,0.2653061224489796,0.272108843537415,0.2755102040816326,0.2755102040816326,0.2755102040816326,0.2755102040816326,0.2755102040816326,0.2755102040816326,0.2755102040816326,0.2755102040816326,0.2755102040816326,0.2755102040816326,0.2755102040816326,0.2755102040816326,0.2755102040816326,0.2755102040816326,0.2755102040816326,0.2755102040816326,0.2687074829931973,0.24829931972789115,0.23469387755102042,0.21428571428571427,0.19727891156462585,0.19047619047619047,0.1836734693877551,0.18027210884353742,0.17687074829931973,0.17346938775510204,0.17346938775510204,0.17346938775510204,0.17346938775510204,0.17006802721088435,0.17006802721088435,0.17006802721088435,0.17006802721088435,0.16666666666666666,0.16666666666666666,0.16666666666666666,0.16666666666666666,0.16666666666666666,0.16666666666666666,0.16666666666666666,0.16666666666666666,0.16666666666666666,0.16666666666666666,0.16666666666666666,0.16326530612244897,0.1598639455782313,0.1598639455782313,0.1598639455782313,0.1598639455782313,0.1598639455782313,0.1598639455782313,0.1598639455782313,0.1598639455782313,0.1598639455782313,0.1598639455782313,0.1598639455782313,0.1598639455782313,0.1598639455782313,0.1598639455782313,0.1598639455782313,0.1598639455782313,0.1598639455782313,0.1598639455782313,0.1598639455782313,0.15306122448979592,0.15306122448979592,0.15306122448979592,0.14965986394557823,0.14625850340136054,0.14285714285714285,0.13945578231292516,0.1360544217687075,0.1360544217687075,0.1360544217687075,0.1360544217687075,0.1360544217687075,0.1360544217687075,0.15306122448979592,0.1870748299319728,0.22108843537414966,0.2687074829931973,0.32653061224489793,0.36394557823129253,0.3707482993197279,0.37755102040816324,0.37755102040816324,0.37755102040816324,0.37755102040816324,0.37755102040816324,0.37755102040816324,0.37755102040816324,0.37755102040816324,0.37755102040816324,0.37755102040816324,0.3741496598639456,0.3673469387755102,0.35714285714285715,0.35714285714285715,0.35714285714285715,0.35714285714285715,0.35714285714285715,0.35714285714285715,0.35714285714285715,0.35714285714285715,0.35714285714285715,0.35714285714285715,0.35714285714285715,0.35714285714285715,0.35714285714285715,0.35714285714285715,0.35374149659863946,0.35374149659863946,0.35374149659863946,0.35374149659863946,0.35374149659863946,0.35374149659863946,0.35374149659863946,0.35374149659863946,0.35374149659863946,0.35374149659863946,0.35374149659863946,0.35374149659863946,0.35374149659863946,0.35374149659863946,0.35374149659863946,0.35374149659863946,0.35374149659863946,0.35374149659863946,0.35374149659863946,0.35374149659863946,0.35374149659863946,0.35374149659863946,0.35374149659863946,0.35374149659863946,0.35374149659863946,0.35374149659863946,0.35374149659863946,0.35374149659863946,0.35374149659863946,0.35374149659863946,0.35374149659863946,0.35374149659863946,0.35374149659863946,0.35374149659863946,0.35374149659863946,0.35374149659863946,0.35374149659863946,0.35374149659863946,0.35374149659863946,0.35374149659863946,0.35374149659863946,0.35374149659863946,0.35374149659863946,0.35374149659863946,0.35374149659863946,0.35374149659863946,0.35374149659863946,0.35374149659863946,0.35374149659863946,0.35374149659863946,0.35374149659863946,0.35374149659863946,0.35374149659863946,0.35374149659863946,0.35374149659863946,0.35374149659863946,0.35374149659863946,0.35374149659863946,0.35374149659863946,0.35374149659863946,0.35374149659863946,0.35374149659863946,0.35374149659863946,0.35374149659863946,0.35374149659863946,0.35714285714285715,0.3673469387755102,0.37755102040816324,0.391156462585034,0.40476190476190477,0.41836734693877553,0.42857142857142855,0.4421768707482993,0.4523809523809524,0.46258503401360546,0.46938775510204084,0.48299319727891155,0.48299319727891155,0.4931972789115646,0.4965986394557823,0.5,0.5068027210884354,0.5136054421768708,0.5136054421768708,0.5170068027210885,0.5204081632653061,0.5204081632653061,0.5204081632653061,0.5204081632653061,0.5204081632653061,0.5204081632653061,0.5204081632653061,0.5204081632653061,0.5204081632653061,0.5204081632653061,0.5204081632653061,0.5204081632653061,0.5204081632653061,0.5204081632653061,0.5204081632653061,0.5204081632653061,0.5204081632653061,0.5204081632653061,0.5204081632653061,0.5204081632653061,0.5204081632653061,0.5204081632653061,0.5204081632653061,0.5204081632653061,0.5204081632653061,0.5204081632653061,0.5204081632653061,0.5204081632653061,0.5204081632653061,0.5204081632653061,0.5204081632653061,0.5204081632653061,0.5204081632653061,0.5204081632653061,0.5204081632653061,0.5204081632653061,0.5204081632653061,0.5204081632653061,0.5204081632653061,0.5204081632653061,0.5204081632653061,0.5204081632653061,0.5204081632653061,0.5204081632653061,0.5204081632653061,0.5204081632653061,0.5204081632653061,0.5204081632653061,0.5204081632653061,0.5204081632653061,0.5204081632653061,0.5204081632653061,0.5204081632653061,0.5204081632653061,0.5204081632653061,0.5204081632653061,0.5204081632653061,0.5204081632653061,0.5204081632653061,0.5204081632653061,0.5204081632653061,0.5204081632653061,0.5204081632653061,0.5204081632653061,0.5204081632653061,0.5204081632653061,0.5204081632653061,0.5204081632653061,0.5204081632653061,0.5204081632653061,0.5204081632653061,0.5204081632653061,0.5204081632653061,0.5204081632653061,0.5204081632653061,0.5204081632653061,0.5204081632653061,0.5204081632653061,0.5204081632653061,0.5204081632653061,0.5204081632653061,0.5204081632653061,0.5204081632653061,0.5204081632653061,0.5204081632653061,0.5204081632653061,0.5204081632653061,0.5204081632653061,0.5204081632653061,0.5204081632653061,0.5204081632653061,0.5204081632653061,0.5204081632653061,0.5204081632653061,0.5204081632653061,0.5204081632653061,0.5204081632653061,0.5204081632653061,0.5204081632653061,0.5204081632653061,0.5204081632653061,0.5204081632653061,0.5204081632653061,0.5204081632653061,0.5204081632653061,0.5204081632653061,0.5204081632653061,0.5204081632653061,0.5204081632653061,0.5204081632653061,0.5204081632653061,0.5204081632653061,0.5204081632653061,0.5204081632653061,0.5204081632653061,0.5204081632653061,0.5204081632653061,0.5204081632653061,0.5204081632653061,0.5204081632653061,0.5204081632653061,0.5204081632653061,0.5204081632653061,0.5204081632653061,0.5204081632653061,0.5204081632653061,0.5204081632653061,0.5204081632653061,0.5204081632653061,0.5204081632653061,0.5204081632653061,0.5204081632653061,0.5204081632653061,0.5204081632653061,0.5204081632653061,0.5204081632653061,0.5204081632653061,0.5204081632653061,0.5204081632653061,0.5204081632653061,0.5204081632653061,0.5204081632653061,0.5204081632653061,0.5204081632653061,0.5204081632653061,0.5204081632653061,0.5204081632653061,0.5204081632653061,0.5204081632653061,0.5204081632653061,0.5204081632653061,0.5204081632653061,0.5204081632653061,0.5204081632653061,0.5204081632653061,0.5204081632653061,0.5204081632653061,0.5204081632653061,0.5204081632653061,0.5204081632653061,0.5204081632653061,0.5204081632653061,0.5204081632653061,0.5204081632653061,0.5204081632653061,0.5204081632653061,0.5204081632653061,0.5204081632653061,0.5204081632653061,0.5204081632653061,0.5204081632653061,0.5204081632653061,0.5204081632653061,0.5204081632653061,0.5204081632653061,0.5204081632653061,0.5204081632653061,0.5204081632653061,0.5204081632653061,0.5204081632653061,0.5204081632653061,0.5204081632653061,0.5204081632653061,0.5204081632653061,0.5204081632653061,0.5204081632653061,0.5204081632653061,0.5204081632653061,0.5204081632653061,0.5204081632653061,0.5204081632653061,0.5204081632653061,0.5204081632653061,0.5204081632653061,0.5204081632653061,0.5204081632653061,0.5204081632653061,0.5204081632653061,0.5204081632653061,0.5204081632653061,0.5204081632653061,0.5204081632653061,0.5204081632653061,0.5204081632653061,0.5204081632653061,0.5204081632653061,0.5204081632653061,0.5204081632653061,0.5204081632653061,0.5204081632653061,0.5204081632653061,0.5204081632653061,0.5204081632653061,0.5204081632653061,0.5204081632653061,0.5204081632653061,0.5204081632653061,0.5204081632653061,0.5204081632653061,0.5204081632653061,0.5204081632653061,0.5204081632653061,0.5238095238095238,0.5238095238095238,0.5102040816326531,0.48299319727891155,0.45918367346938777,0.43537414965986393,0.41496598639455784,0.40476190476190477,0.3945578231292517,0.391156462585034,0.37755102040816324,0.3741496598639456,0.3673469387755102,0.36394557823129253,0.36054421768707484,0.3401360544217687,0.32653061224489793,0.3129251700680272,0.29931972789115646,0.282312925170068,0.2653061224489796,0.24829931972789115,0.22108843537414966,0.19727891156462585,0.18027210884353742,0.1598639455782313,0.1326530612244898,0.09523809523809523,0.07482993197278912,0.061224489795918366,0.04081632653061224,0.030612244897959183,0.027210884353741496,0.027210884353741496,0.027210884353741496,0.027210884353741496,0.027210884353741496,0.027210884353741496,0.027210884353741496,0.027210884353741496,0.027210884353741496,0.027210884353741496,0.027210884353741496,0.027210884353741496,0.027210884353741496,0.027210884353741496,0.027210884353741496,0.027210884353741496,0.027210884353741496,0.027210884353741496,0.027210884353741496,0.027210884353741496,0.027210884353741496,0.027210884353741496,0.027210884353741496,0.027210884353741496,0.023809523809523808,0.023809523809523808,0.027210884353741496,0.030612244897959183,0.034013605442176874,0.04081632653061224,0.04421768707482993,0.05102040816326531,0.05442176870748299,0.061224489795918366,0.06462585034013606,0.07482993197278912,0.08503401360544217,0.08843537414965986,0.09523809523809523,0.1054421768707483,0.11224489795918367,0.11564625850340136,0.12244897959183673,0.1292517006802721,0.1360544217687075,0.14285714285714285,0.14965986394557823,0.1564625850340136,0.17006802721088435,0.18027210884353742,0.19727891156462585,0.2108843537414966,0.23129251700680273,0.24489795918367346,0.2653061224489796,0.2891156462585034,0.30612244897959184,0.3197278911564626,0.3333333333333333,0.35374149659863946,0.37755102040816324,0.4013605442176871,0.4217687074829932,0.445578231292517,0.46258503401360546,0.48639455782312924,0.5068027210884354,0.5408163265306123,0.5714285714285714,0.6020408163265306,0.6360544217687075,0.673469387755102,0.7040816326530612,0.7346938775510204,0.7517006802721088,0.7687074829931972,0.7755102040816326,0.782312925170068,0.782312925170068,0.7857142857142857,0.7857142857142857,0.7857142857142857,0.7857142857142857,0.7857142857142857,0.7857142857142857,0.7857142857142857,0.7857142857142857,0.7857142857142857,0.7857142857142857,0.7857142857142857,0.7857142857142857,0.7857142857142857,0.7857142857142857,0.7857142857142857,0.7857142857142857,0.7857142857142857,0.7857142857142857,0.7857142857142857,0.7857142857142857,0.7857142857142857,0.7891156462585034,0.7925170068027211,0.7959183673469388,0.7959183673469388,0.8027210884353742,0.8027210884353742,0.8061224489795918,0.8061224489795918,0.8061224489795918,0.8061224489795918,0.8061224489795918,0.8061224489795918,0.8061224489795918,0.8061224489795918,0.8061224489795918,0.8061224489795918,0.8061224489795918,0.8061224489795918,0.8061224489795918,0.8061224489795918,0.8061224489795918,0.8061224489795918,0.8061224489795918,0.8061224489795918,0.8061224489795918,0.8061224489795918,0.8061224489795918,0.8061224489795918,0.8061224489795918,0.8061224489795918,0.8061224489795918,0.8061224489795918,0.8061224489795918,0.8061224489795918,0.8061224489795918,0.8061224489795918,0.8061224489795918,0.8061224489795918,0.8061224489795918,0.8061224489795918,0.8061224489795918,0.8061224489795918,0.8061224489795918,0.8061224489795918,0.8061224489795918,0.8061224489795918,0.8061224489795918,0.8061224489795918,0.8061224489795918,0.8061224489795918,0.8061224489795918,0.8061224489795918,0.8061224489795918,0.8061224489795918,0.8061224489795918,0.8061224489795918,0.8061224489795918,0.8061224489795918,0.8061224489795918,0.8061224489795918,0.8061224489795918,0.8061224489795918,0.8061224489795918,0.8061224489795918,0.8061224489795918,0.8061224489795918,0.8061224489795918,0.8061224489795918,0.8061224489795918,0.8061224489795918,0.8061224489795918,0.8061224489795918,0.8061224489795918,0.8061224489795918,0.8061224489795918,0.8061224489795918,0.8061224489795918,0.8061224489795918,0.8061224489795918,0.8061224489795918,0.8061224489795918,0.8061224489795918,0.8061224489795918,0.8061224489795918,0.8061224489795918,0.8061224489795918,0.8061224489795918,0.8061224489795918,0.8061224489795918,0.8061224489795918,0.8061224489795918,0.8061224489795918,0.8061224489795918,0.8061224489795918,0.8061224489795918,0.8061224489795918,0.8061224489795918,0.8061224489795918,0.8061224489795918,0.8061224489795918,0.8061224489795918,0.8061224489795918,0.8061224489795918,0.8061224489795918,0.8061224489795918,0.8061224489795918,0.8061224489795918,0.8061224489795918,0.8061224489795918,0.8061224489795918,0.8061224489795918,0.8061224489795918,0.8061224489795918,0.8061224489795918,0.8061224489795918,0.8061224489795918,0.8061224489795918,0.8061224489795918,0.8061224489795918,0.8061224489795918,0.8061224489795918,0.8061224489795918,0.8061224489795918,0.8061224489795918,0.8061224489795918,0.8061224489795918,0.8061224489795918,0.8061224489795918,0.8061224489795918,0.8061224489795918,0.8061224489795918,0.8061224489795918,0.8061224489795918,0.8061224489795918,0.8061224489795918,0.8061224489795918,0.8061224489795918,0.8061224489795918,0.8061224489795918,0.8061224489795918,0.8061224489795918,0.8061224489795918,0.8061224489795918,0.8061224489795918,0.8061224489795918,0.8061224489795918,0.8061224489795918,0.8061224489795918,0.8061224489795918,0.8061224489795918,0.8061224489795918,0.8061224489795918,0.8061224489795918,0.8061224489795918,0.8061224489795918,0.8061224489795918,0.8061224489795918,0.8061224489795918,0.8061224489795918,0.8061224489795918,0.8061224489795918,0.8061224489795918,0.8061224489795918,0.8061224489795918,0.8061224489795918,0.8061224489795918,0.8061224489795918,0.8061224489795918,0.8061224489795918,0.8061224489795918,0.8129251700680272,0.8129251700680272,0.8163265306122449,0.8163265306122449,0.8163265306122449,0.8197278911564626,0.8197278911564626,0.8231292517006803,0.826530612244898,0.8299319727891157,0.8367346938775511,0.8367346938775511,0.8367346938775511,0.8401360544217688,0.8401360544217688,0.8401360544217688,0.8401360544217688,0.8401360544217688,0.8401360544217688,0.8401360544217688,0.8401360544217688,0.8401360544217688,0.8401360544217688,0.8401360544217688,0.8435374149659864,0.8469387755102041,0.8503401360544217,0.8503401360544217,0.8537414965986394,0.8537414965986394,0.8605442176870748,0.8639455782312925,0.8639455782312925,0.8707482993197279,0.8707482993197279,0.8741496598639455,0.8741496598639455,0.8775510204081632,0.8775510204081632,0.8775510204081632,0.8809523809523809,0.8843537414965986,0.8843537414965986,0.8843537414965986,0.8877551020408163,0.8945578231292517,0.9013605442176871,0.9047619047619048,0.9217687074829932,0.9387755102040817,0.9523809523809523,0.9693877551020408,0.9931972789115646,1.0136054421768708,1.030612244897959,1.0510204081632653,1.0680272108843538,1.0782312925170068,1.0918367346938775,1.1020408163265305,1.1122448979591837,1.119047619047619,1.1258503401360545,1.1258503401360545,1.1258503401360545,1.1258503401360545,1.1258503401360545,1.1258503401360545,1.1258503401360545,1.1258503401360545,1.1258503401360545,1.1258503401360545,1.1258503401360545,1.1258503401360545,1.1258503401360545,1.1258503401360545,1.1258503401360545,1.1258503401360545,1.1258503401360545,1.1258503401360545,1.1258503401360545,1.1258503401360545,1.1258503401360545,1.1258503401360545,1.1258503401360545,1.1258503401360545,1.1258503401360545,1.1258503401360545,1.1258503401360545,1.1258503401360545,1.1258503401360545,1.1258503401360545,1.1258503401360545,1.1258503401360545,1.119047619047619,1.0850340136054422,1.0170068027210883,0.9659863945578231,0.9081632653061225,0.8605442176870748,0.826530612244898,0.7993197278911565,0.7857142857142857,0.7789115646258503,0.7789115646258503,0.7789115646258503,0.7789115646258503,0.7789115646258503,0.7755102040816326,0.7721088435374149,0.7585034013605442,0.7517006802721088,0.7448979591836735,0.7380952380952381,0.7346938775510204,0.7312925170068028,0.7278911564625851,0.7278911564625851,0.7278911564625851,0.7278911564625851,0.7278911564625851,0.7278911564625851,0.7278911564625851,0.7278911564625851,0.7278911564625851,0.7278911564625851,0.7278911564625851,0.7278911564625851,0.7278911564625851,0.7278911564625851,0.7278911564625851,0.7278911564625851,0.7278911564625851,0.7278911564625851,0.7278911564625851,0.7278911564625851,0.7278911564625851,0.7278911564625851,0.7278911564625851,0.7278911564625851,0.7278911564625851,0.7278911564625851,0.7278911564625851,0.7278911564625851,0.7278911564625851,0.7278911564625851,0.7278911564625851,0.7278911564625851,0.7278911564625851,0.7244897959183674,0.7006802721088435,0.6802721088435374,0.6428571428571429,0.6054421768707483,0.5612244897959183,0.5272108843537415,0.47959183673469385,0.45918367346938777,0.4489795918367347,0.4421768707482993,0.4387755102040816,0.4387755102040816,0.4387755102040816,0.4387755102040816,0.4387755102040816,0.4387755102040816,0.4387755102040816,0.4387755102040816,0.4387755102040816,0.4387755102040816,0.4387755102040816,0.4387755102040816,0.4387755102040816,0.4387755102040816,0.4387755102040816,0.4387755102040816,0.4387755102040816,0.4387755102040816,0.4387755102040816,0.4387755102040816,0.4387755102040816,0.4387755102040816,0.4387755102040816,0.4387755102040816,0.4387755102040816,0.4387755102040816,0.4387755102040816,0.4387755102040816,0.4387755102040816,0.4387755102040816,0.4387755102040816,0.4387755102040816,0.4387755102040816,0.4387755102040816,0.4387755102040816,0.4387755102040816,0.4387755102040816,0.4387755102040816,0.4387755102040816,0.4387755102040816,0.4387755102040816,0.4387755102040816,0.4387755102040816,0.4387755102040816,0.4387755102040816,0.4387755102040816,0.4387755102040816,0.4387755102040816,0.4387755102040816,0.4387755102040816,0.4387755102040816,0.4387755102040816,0.4387755102040816,0.4387755102040816,0.4387755102040816,0.4387755102040816,0.4387755102040816,0.4387755102040816,0.4387755102040816,0.4387755102040816,0.4387755102040816,0.4387755102040816,0.4387755102040816,0.4387755102040816,0.4387755102040816,0.4387755102040816,0.4387755102040816,0.4387755102040816,0.4387755102040816,0.4387755102040816,0.4387755102040816,0.4387755102040816,0.4387755102040816,0.4387755102040816,0.4387755102040816,0.4387755102040816,0.4387755102040816,0.4387755102040816,0.4387755102040816,0.4387755102040816,0.4387755102040816,0.4387755102040816,0.4387755102040816,0.4387755102040816,0.4387755102040816,0.4387755102040816,0.4387755102040816,0.4387755102040816,0.4387755102040816,0.4387755102040816,0.4387755102040816,0.4387755102040816,0.4387755102040816,0.4387755102040816,0.43537414965986393,0.43537414965986393,0.43537414965986393,0.43537414965986393,0.43197278911564624,0.43197278911564624,0.42857142857142855,0.42857142857142855,0.42517006802721086,0.42517006802721086,0.42517006802721086,0.4217687074829932,0.4217687074829932,0.4217687074829932,0.4217687074829932,0.41836734693877553,0.41496598639455784,0.41156462585034015,0.41156462585034015,0.40476190476190477,0.4013605442176871,0.3945578231292517,0.3843537414965986,0.36394557823129253,0.35374149659863946,0.336734693877551,0.32653061224489793,0.3163265306122449,0.30272108843537415,0.30272108843537415,0.29591836734693877,0.29591836734693877,0.29591836734693877,0.29591836734693877,0.2925170068027211,0.2925170068027211,0.2857142857142857,0.2857142857142857,0.2857142857142857,0.2857142857142857,0.2857142857142857,0.282312925170068,0.282312925170068,0.282312925170068,0.282312925170068,0.282312925170068,0.282312925170068,0.282312925170068,0.282312925170068,0.282312925170068,0.282312925170068,0.282312925170068,0.282312925170068,0.282312925170068,0.282312925170068,0.282312925170068,0.282312925170068,0.282312925170068,0.282312925170068,0.282312925170068,0.282312925170068,0.282312925170068,0.282312925170068,0.282312925170068,0.282312925170068,0.282312925170068,0.282312925170068,0.282312925170068,0.282312925170068,0.282312925170068,0.282312925170068,0.282312925170068,0.282312925170068,0.282312925170068,0.282312925170068,0.282312925170068,0.282312925170068,0.282312925170068,0.282312925170068,0.282312925170068,0.282312925170068,0.282312925170068,0.282312925170068,0.282312925170068,0.282312925170068,0.282312925170068,0.282312925170068,0.282312925170068,0.282312925170068,0.282312925170068,0.282312925170068,0.282312925170068,0.282312925170068,0.282312925170068,0.282312925170068,0.282312925170068,0.282312925170068,0.282312925170068,0.282312925170068,0.282312925170068,0.2857142857142857,0.2891156462585034,0.29591836734693877,0.30272108843537415,0.30612244897959184,0.3163265306122449,0.3435374149659864,0.3707482993197279,0.4013605442176871,0.43537414965986393,0.47619047619047616,0.5204081632653061,0.564625850340136,0.608843537414966,0.6496598639455783,0.6836734693877551,0.7108843537414966,0.7312925170068028,0.7482993197278912,0.7721088435374149,0.7857142857142857,0.7959183673469388,0.8129251700680272,0.826530612244898,0.8367346938775511,0.8469387755102041,0.8503401360544217,0.8537414965986394,0.8537414965986394,0.8639455782312925,0.8639455782312925,0.8707482993197279,0.8741496598639455,0.8741496598639455,0.8741496598639455,0.8741496598639455,0.8741496598639455,0.8741496598639455,0.8741496598639455,0.8741496598639455,0.8741496598639455,0.8741496598639455,0.8741496598639455,0.8741496598639455,0.8741496598639455,0.8741496598639455,0.8741496598639455,0.8741496598639455,0.8741496598639455,0.8741496598639455,0.8741496598639455,0.8741496598639455,0.8741496598639455,0.8741496598639455,0.8741496598639455,0.8741496598639455,0.8741496598639455,0.8741496598639455,0.8741496598639455,0.8741496598639455,0.8741496598639455,0.8741496598639455,0.8741496598639455,0.8741496598639455,0.8741496598639455,0.8741496598639455,0.8741496598639455,0.8741496598639455,0.8741496598639455,0.8741496598639455,0.8741496598639455,0.8741496598639455,0.8741496598639455,0.8741496598639455,0.8741496598639455,0.8741496598639455,0.8741496598639455,0.8741496598639455,0.8741496598639455,0.8639455782312925,0.8537414965986394,0.8401360544217688,0.8197278911564626,0.7925170068027211,0.7585034013605442,0.717687074829932,0.6768707482993197,0.6258503401360545,0.5782312925170068,0.5340136054421769,0.47278911564625853,0.4523809523809524,0.43197278911564624,0.4217687074829932,0.41836734693877553,0.41156462585034015,0.41156462585034015,0.41156462585034015,0.41156462585034015,0.41156462585034015,0.41156462585034015,0.41836734693877553,0.46598639455782315,0.5136054421768708,0.5510204081632653,0.5748299319727891,0.5918367346938775,0.5986394557823129,0.6020408163265306,0.6020408163265306,0.608843537414966,0.608843537414966,0.6156462585034014,0.6258503401360545,0.6326530612244898,0.6394557823129252,0.6496598639455783,0.6632653061224489,0.6768707482993197,0.6836734693877551,0.6904761904761905,0.6972789115646258,0.7006802721088435,0.7006802721088435,0.7006802721088435,0.7006802721088435,0.7006802721088435,0.7006802721088435,0.7006802721088435,0.7006802721088435,0.7006802721088435,0.7006802721088435,0.7006802721088435,0.7006802721088435,0.7006802721088435,0.7006802721088435,0.7006802721088435,0.7006802721088435,0.7006802721088435,0.7006802721088435,0.7006802721088435,0.7006802721088435,0.7006802721088435,0.7006802721088435,0.7006802721088435,0.7006802721088435,0.7006802721088435,0.7006802721088435,0.7006802721088435,0.7006802721088435,0.7006802721088435,0.7006802721088435,0.7006802721088435,0.7006802721088435,0.7006802721088435,0.7006802721088435,0.7006802721088435,0.7006802721088435,0.7006802721088435,0.7006802721088435,0.7006802721088435,0.7006802721088435,0.7006802721088435,0.7006802721088435,0.6972789115646258,0.6972789115646258,0.6972789115646258,0.6972789115646258,0.6972789115646258,0.6972789115646258,0.6972789115646258,0.6972789115646258,0.6938775510204082,0.6938775510204082,0.6938775510204082,0.6938775510204082,0.6938775510204082,0.6904761904761905,0.6802721088435374,0.6666666666666666,0.6360544217687075,0.6020408163265306,0.5510204081632653,0.4965986394557823,0.4489795918367347,0.3979591836734694,0.36054421768707484,0.3129251700680272,0.29591836734693877,0.2789115646258503,0.272108843537415,0.2619047619047619,0.2585034013605442,0.25510204081632654,0.25170068027210885,0.25170068027210885,0.25170068027210885,0.25170068027210885,0.25170068027210885,0.25170068027210885,0.25170068027210885,0.25170068027210885,0.25170068027210885,0.25170068027210885,0.25170068027210885,0.25170068027210885,0.25170068027210885,0.25170068027210885,0.25170068027210885,0.25170068027210885,0.25170068027210885,0.25170068027210885,0.25170068027210885,0.25170068027210885,0.25170068027210885,0.25170068027210885,0.25170068027210885,0.25170068027210885,0.25170068027210885,0.25170068027210885,0.25170068027210885,0.25170068027210885,0.25170068027210885,0.25170068027210885,0.25170068027210885,0.25170068027210885,0.25170068027210885,0.25170068027210885,0.25170068027210885,0.25170068027210885,0.25170068027210885,0.25170068027210885,0.25170068027210885,0.25170068027210885,0.25170068027210885,0.25170068027210885,0.25170068027210885,0.25170068027210885,0.25170068027210885,0.25510204081632654,0.25510204081632654,0.2585034013605442,0.2585034013605442,0.2585034013605442,0.2585034013605442,0.2619047619047619,0.2619047619047619,0.2653061224489796,0.2687074829931973,0.272108843537415,0.2755102040816326,0.2789115646258503,0.282312925170068,0.2891156462585034,0.2891156462585034,0.29591836734693877,0.29931972789115646,0.29931972789115646,0.30272108843537415,0.30272108843537415,0.30272108843537415,0.30612244897959184,0.30952380952380953,0.30952380952380953,0.30952380952380953,0.30952380952380953,0.30952380952380953,0.30952380952380953,0.30952380952380953,0.30952380952380953,0.30952380952380953,0.30952380952380953,0.30952380952380953,0.30952380952380953,0.30952380952380953,0.30952380952380953,0.30952380952380953,0.30952380952380953,0.30952380952380953,0.30952380952380953,0.30952380952380953,0.30952380952380953,0.30952380952380953,0.30952380952380953,0.30952380952380953,0.30952380952380953,0.30952380952380953,0.30952380952380953,0.30952380952380953,0.30952380952380953,0.30952380952380953,0.30952380952380953,0.30952380952380953,0.30952380952380953,0.3197278911564626,0.32653061224489793,0.3333333333333333,0.3401360544217687,0.35034013605442177,0.35374149659863946,0.36394557823129253,0.3707482993197279,0.3843537414965986,0.391156462585034,0.40476190476190477,0.41836734693877553,0.43197278911564624,0.4523809523809524,0.46938775510204084,0.47619047619047616,0.4897959183673469,0.5,0.5136054421768708,0.5306122448979592,0.5476190476190477,0.5714285714285714,0.5952380952380952,0.6428571428571429,0.673469387755102,0.7074829931972789,0.7448979591836735,0.7687074829931972,0.7993197278911565,0.8299319727891157,0.8537414965986394,0.8741496598639455,0.9013605442176871,0.9081632653061225,0.9285714285714286,0.935374149659864,0.9455782312925171,0.95578231292517,0.9625850340136054,0.9625850340136054,0.9625850340136054,0.9625850340136054,0.9625850340136054,0.9693877551020408,0.9795918367346939,0.9863945578231292,0.9897959183673469,0.9931972789115646,0.9931972789115646,0.9931972789115646,0.9931972789115646,0.9931972789115646,0.9931972789115646,0.9931972789115646,0.9931972789115646,0.9931972789115646,0.9931972789115646,0.9931972789115646,0.9931972789115646,0.9965986394557823,0.9965986394557823,0.9965986394557823,0.9965986394557823,0.9965986394557823,0.9965986394557823,0.9965986394557823,0.9965986394557823,0.9965986394557823,0.9965986394557823,0.9965986394557823,0.9965986394557823,0.9965986394557823,0.9965986394557823,0.9965986394557823,0.9965986394557823,0.9965986394557823,0.9965986394557823,0.9965986394557823,0.9965986394557823,0.9965986394557823,0.9965986394557823,0.9965986394557823,0.9965986394557823,0.9965986394557823,0.9965986394557823,0.9965986394557823,0.9965986394557823,0.9965986394557823,0.9965986394557823,0.9965986394557823,0.9965986394557823,0.9965986394557823,0.9965986394557823,0.9965986394557823,0.9965986394557823,0.9965986394557823,0.9965986394557823,0.9965986394557823,0.9965986394557823,0.9965986394557823,0.9965986394557823,0.9965986394557823,0.9965986394557823,0.9965986394557823,0.9965986394557823,0.9965986394557823,0.9965986394557823,0.9965986394557823,0.9965986394557823,0.9965986394557823,0.9965986394557823,0.9965986394557823,0.9965986394557823,0.9965986394557823,0.9965986394557823,0.9931972789115646,0.9931972789115646,0.9897959183673469,0.9897959183673469,0.9795918367346939,0.9489795918367347,0.9081632653061225,0.8571428571428571,0.782312925170068,0.6972789115646258,0.608843537414966,0.5272108843537415,0.4523809523809524,0.3843537414965986,0.336734693877551,0.29931972789115646,0.2755102040816326,0.2619047619047619,0.23809523809523808,0.21768707482993196,0.19727891156462585,0.17346938775510204,0.14965986394557823,0.12585034013605442,0.11224489795918367,0.09183673469387756,0.07142857142857142,0.061224489795918366,0.05442176870748299,0.05442176870748299,0.05442176870748299,0.05442176870748299,0.05442176870748299,0.05442176870748299,0.05442176870748299,0.05442176870748299,0.05442176870748299,0.05442176870748299,0.05442176870748299,0.05442176870748299,0.05442176870748299,0.05442176870748299,0.05442176870748299,0.05442176870748299,0.05442176870748299,0.05442176870748299,0.05442176870748299,0.05442176870748299,0.05442176870748299,0.05442176870748299,0.05442176870748299,0.05442176870748299,0.05442176870748299,0.05442176870748299,0.05442176870748299,0.05442176870748299,0.05442176870748299,0.05442176870748299,0.05442176870748299,0.05442176870748299,0.05442176870748299,0.05442176870748299,0.05442176870748299,0.05442176870748299,0.05442176870748299,0.05442176870748299,0.05442176870748299,0.05442176870748299,0.05442176870748299,0.05442176870748299,0.05442176870748299,0.05442176870748299,0.05442176870748299,0.05442176870748299,0.05442176870748299,0.05442176870748299,0.05442176870748299,0.05102040816326531,0.05102040816326531,0.05102040816326531,0.05102040816326531,0.05102040816326531,0.05102040816326531,0.05102040816326531,0.05102040816326531,0.05102040816326531,0.05102040816326531,0.05102040816326531,0.05102040816326531,0.05102040816326531,0.05442176870748299,0.05442176870748299,0.05782312925170068,0.061224489795918366,0.061224489795918366,0.06462585034013606,0.07142857142857142,0.08163265306122448,0.09183673469387756,0.10204081632653061,0.11224489795918367,0.1292517006802721,0.13945578231292516,0.14965986394557823,0.15306122448979592,0.1598639455782313,0.1598639455782313,0.1598639455782313,0.16326530612244897,0.16666666666666666,0.16666666666666666,0.16666666666666666,0.16666666666666666,0.16666666666666666,0.16666666666666666,0.16666666666666666,0.16666666666666666,0.16666666666666666,0.16666666666666666,0.16666666666666666,0.16666666666666666,0.16666666666666666,0.16666666666666666,0.16666666666666666,0.16666666666666666,0.16666666666666666,0.16666666666666666,0.16666666666666666,0.16666666666666666,0.16666666666666666,0.16666666666666666,0.16666666666666666,0.16666666666666666,0.16666666666666666,0.16666666666666666,0.16666666666666666,0.16666666666666666,0.16666666666666666,0.16666666666666666,0.16666666666666666,0.16666666666666666,0.17346938775510204,0.17687074829931973,0.18027210884353742,0.1836734693877551,0.19047619047619047,0.19727891156462585,0.20068027210884354,0.20748299319727892,0.2108843537414966,0.22789115646258504,0.23129251700680273,0.23809523809523808,0.24489795918367346,0.25510204081632654,0.2619047619047619,0.2653061224489796,0.272108843537415,0.2755102040816326,0.2891156462585034,0.29591836734693877,0.30272108843537415,0.3129251700680272,0.3163265306122449,0.3163265306122449,0.3163265306122449,0.3163265306122449,0.3163265306122449,0.3163265306122449,0.30612244897959184,0.30272108843537415,0.29591836734693877,0.2925170068027211,0.2891156462585034,0.282312925170068,0.282312925170068,0.2789115646258503,0.2789115646258503,0.2789115646258503,0.2789115646258503,0.2789115646258503,0.2789115646258503,0.2789115646258503,0.2789115646258503,0.2789115646258503,0.2789115646258503,0.2789115646258503,0.2789115646258503,0.2789115646258503,0.2789115646258503,0.2789115646258503,0.2789115646258503,0.2789115646258503,0.2789115646258503,0.2789115646258503,0.2789115646258503,0.2789115646258503,0.2789115646258503,0.2789115646258503,0.2789115646258503,0.2789115646258503,0.2789115646258503,0.2789115646258503,0.2789115646258503,0.2789115646258503,0.282312925170068,0.282312925170068,0.2857142857142857,0.2891156462585034,0.29591836734693877,0.29931972789115646,0.30612244897959184,0.30952380952380953,0.3197278911564626,0.3299319727891156,0.336734693877551,0.35034013605442177,0.3707482993197279,0.37755102040816324,0.3945578231292517,0.41496598639455784,0.42857142857142855,0.4523809523809524,0.46258503401360546,0.47619047619047616,0.48299319727891155,0.4897959183673469,0.4965986394557823,0.5,0.5068027210884354,0.5102040816326531,0.5136054421768708,0.5170068027210885,0.5238095238095238,0.5272108843537415,0.5306122448979592,0.5306122448979592,0.5340136054421769,0.5340136054421769,0.5374149659863946,0.54421768707483,0.54421768707483,0.5476190476190477,0.5476190476190477,0.5544217687074829,0.5578231292517006,0.564625850340136,0.564625850340136,0.5714285714285714,0.5748299319727891,0.5782312925170068,0.5850340136054422,0.5884353741496599,0.5952380952380952,0.6020408163265306,0.608843537414966,0.6156462585034014,0.6258503401360545,0.6292517006802721,0.6428571428571429,0.6496598639455783,0.6564625850340136,0.6564625850340136,0.6632653061224489,0.6666666666666666,0.6666666666666666,0.6666666666666666,0.6700680272108843,0.673469387755102,0.673469387755102,0.673469387755102,0.673469387755102,0.673469387755102,0.673469387755102,0.673469387755102,0.673469387755102,0.673469387755102,0.673469387755102,0.673469387755102,0.673469387755102,0.673469387755102,0.673469387755102,0.673469387755102,0.673469387755102,0.673469387755102,0.673469387755102,0.673469387755102,0.673469387755102,0.673469387755102,0.673469387755102,0.673469387755102,0.673469387755102,0.673469387755102,0.673469387755102,0.673469387755102,0.673469387755102,0.673469387755102,0.673469387755102,0.673469387755102,0.673469387755102,0.6802721088435374,0.6870748299319728,0.6938775510204082,0.6972789115646258,0.7006802721088435,0.7074829931972789,0.7074829931972789,0.7074829931972789,0.7074829931972789,0.7074829931972789,0.7074829931972789,0.7074829931972789,0.7074829931972789,0.7074829931972789,0.7074829931972789,0.7074829931972789,0.7074829931972789,0.7074829931972789,0.7074829931972789,0.7074829931972789,0.7074829931972789,0.7074829931972789,0.7074829931972789,0.7074829931972789,0.7074829931972789,0.7074829931972789,0.7074829931972789,0.7074829931972789,0.7074829931972789,0.7074829931972789,0.7074829931972789,0.7074829931972789,0.7074829931972789,0.7074829931972789,0.7074829931972789,0.7074829931972789,0.7074829931972789,0.7074829931972789,0.7074829931972789,0.7074829931972789,0.7074829931972789,0.7074829931972789,0.7074829931972789,0.7074829931972789,0.7074829931972789,0.7074829931972789,0.7074829931972789,0.7108843537414966,0.7108843537414966,0.7142857142857143,0.717687074829932,0.7210884353741497,0.7210884353741497,0.7244897959183674,0.7278911564625851,0.7346938775510204,0.7448979591836735,0.7482993197278912,0.7551020408163265,0.7687074829931972,0.7721088435374149,0.782312925170068,0.7925170068027211,0.8027210884353742,0.8129251700680272,0.826530612244898,0.8401360544217688,0.8469387755102041,0.8537414965986394,0.8571428571428571,0.8605442176870748,0.8639455782312925,0.8639455782312925,0.8639455782312925,0.8639455782312925,0.8639455782312925,0.8639455782312925,0.8639455782312925,0.8639455782312925,0.8639455782312925,0.8639455782312925,0.8639455782312925,0.8639455782312925,0.8639455782312925,0.8639455782312925,0.8639455782312925,0.8639455782312925,0.8639455782312925,0.8639455782312925,0.8639455782312925,0.8639455782312925,0.8639455782312925,0.8639455782312925,0.8639455782312925,0.8639455782312925,0.8639455782312925,0.8639455782312925,0.8639455782312925,0.8639455782312925,0.8639455782312925,0.8639455782312925,0.8639455782312925,0.8639455782312925,0.8639455782312925,0.8639455782312925,0.8639455782312925,0.8639455782312925,0.8639455782312925,0.8639455782312925,0.8639455782312925,0.8639455782312925,0.8639455782312925,0.8639455782312925,0.8639455782312925,0.8639455782312925,0.8639455782312925,0.8639455782312925,0.8639455782312925,0.8639455782312925,0.8639455782312925,0.8639455782312925,0.8639455782312925,0.8639455782312925,0.8639455782312925,0.8639455782312925,0.8639455782312925,0.8639455782312925,0.8639455782312925,0.8639455782312925,0.8639455782312925,0.8673469387755102,0.8707482993197279,0.8741496598639455,0.8775510204081632,0.8809523809523809,0.8843537414965986,0.8877551020408163,0.891156462585034,0.9013605442176871,0.9047619047619048,0.9047619047619048,0.9149659863945578,0.9149659863945578,0.9183673469387755,0.9183673469387755,0.9251700680272109,0.9251700680272109,0.9285714285714286,0.935374149659864,0.9387755102040817,0.9489795918367347,0.9659863945578231,0.9829931972789115,0.9931972789115646,1.010204081632653,1.030612244897959,1.0442176870748299,1.0510204081632653,1.054421768707483,1.054421768707483,1.054421768707483,1.054421768707483,1.054421768707483,1.054421768707483,1.054421768707483,1.054421768707483,1.054421768707483,1.054421768707483,1.054421768707483,1.054421768707483,1.0578231292517006,1.0578231292517006,1.0578231292517006,1.0578231292517006,1.0578231292517006,1.0578231292517006,1.0578231292517006,1.0578231292517006,1.054421768707483,1.054421768707483,1.0510204081632653,1.0510204081632653,1.0510204081632653,1.0510204081632653,1.0510204081632653,1.0510204081632653,1.0476190476190477,1.0442176870748299,1.0408163265306123,1.0408163265306123,1.0408163265306123,1.0374149659863945,1.034013605442177,1.030612244897959,1.0272108843537415,1.0204081632653061,1.0170068027210883,1,0.9897959183673469,0.9761904761904762,0.95578231292517,0.9319727891156463,0.9047619047619048,0.8809523809523809,0.8537414965986394,0.8299319727891157,0.8095238095238095,0.7789115646258503,0.7380952380952381,0.6700680272108843,0.6258503401360545,0.5714285714285714,0.5340136054421769,0.4965986394557823,0.47619047619047616,0.45918367346938777,0.445578231292517,0.43197278911564624,0.41836734693877553,0.41496598639455784,0.40476190476190477,0.3979591836734694,0.38095238095238093,0.3741496598639456,0.36054421768707484,0.3469387755102041,0.32653061224489793,0.3129251700680272,0.30612244897959184,0.30612244897959184,0.30272108843537415,0.30272108843537415,0.30612244897959184,0.3469387755102041,0.37755102040816324,0.40476190476190477,0.42857142857142855,0.4421768707482993,0.4421768707482993,0.445578231292517,0.4523809523809524,0.46258503401360546,0.47278911564625853,0.47619047619047616,0.48299319727891155,0.4897959183673469,0.5,0.5068027210884354,0.5204081632653061,0.5272108843537415,0.5340136054421769,0.5374149659863946,0.5408163265306123,0.5408163265306123,0.54421768707483,0.5544217687074829,0.5612244897959183,0.5680272108843537,0.5680272108843537,0.5680272108843537,0.5680272108843537,0.5680272108843537,0.5680272108843537,0.5680272108843537,0.5680272108843537,0.5680272108843537,0.5680272108843537,0.5680272108843537,0.5680272108843537,0.5680272108843537,0.5680272108843537,0.5680272108843537,0.5680272108843537,0.5680272108843537,0.5680272108843537,0.5680272108843537,0.5680272108843537,0.5680272108843537,0.5680272108843537,0.5680272108843537,0.5680272108843537,0.5680272108843537,0.5680272108843537,0.5680272108843537,0.5680272108843537,0.5680272108843537,0.5680272108843537,0.564625850340136,0.5612244897959183,0.5510204081632653,0.5408163265306123,0.5272108843537415,0.5136054421768708,0.47619047619047616,0.445578231292517,0.41496598639455784,0.3843537414965986,0.35714285714285715,0.3333333333333333,0.30272108843537415,0.2687074829931973,0.23809523809523808,0.21768707482993196,0.20748299319727892,0.19727891156462585,0.19047619047619047,0.18027210884353742,0.17346938775510204,0.16666666666666666,0.1598639455782313,0.1564625850340136,0.1564625850340136,0.15306122448979592,0.14965986394557823,0.14625850340136054,0.14625850340136054,0.14625850340136054,0.14625850340136054,0.14625850340136054,0.14625850340136054,0.14625850340136054,0.14625850340136054,0.14625850340136054,0.14625850340136054,0.14625850340136054,0.14625850340136054,0.14625850340136054,0.14625850340136054,0.14625850340136054,0.14625850340136054,0.14625850340136054,0.14625850340136054,0.14625850340136054,0.14625850340136054,0.14625850340136054,0.14625850340136054,0.14625850340136054,0.14625850340136054,0.14625850340136054,0.14625850340136054,0.14625850340136054,0.14625850340136054,0.14625850340136054,0.14625850340136054,0.14965986394557823,0.1564625850340136,0.17346938775510204,0.19387755102040816,0.21768707482993196,0.24829931972789115,0.2755102040816326,0.30952380952380953,0.3401360544217687,0.36394557823129253,0.4013605442176871,0.41836734693877553,0.43537414965986393,0.4489795918367347,0.46598639455782315,0.48299319727891155,0.4931972789115646,0.5136054421768708,0.5272108843537415,0.54421768707483,0.5578231292517006,0.5714285714285714,0.5816326530612245,0.5884353741496599,0.5952380952380952,0.6054421768707483,0.608843537414966,0.6190476190476191,0.6326530612244898,0.6496598639455783,0.673469387755102,0.6938775510204082,0.7244897959183674,0.7585034013605442,0.8061224489795918,0.8435374149659864,0.8775510204081632,0.9183673469387755,0.9523809523809523,0.9863945578231292,1.010204081632653,1.0272108843537415,1.0476190476190477,1.0612244897959184,1.0782312925170068,1.0952380952380953,1.1054421768707483,1.1156462585034013,1.1224489795918366,1.1224489795918366,1.1326530612244898,1.1326530612244898,1.1326530612244898,1.1326530612244898,1.1326530612244898,1.1360544217687074,1.1360544217687074,1.1360544217687074,1.1360544217687074,1.1360544217687074,1.1360544217687074,1.1360544217687074,1.1360544217687074,1.1360544217687074,1.1360544217687074,1.1360544217687074,1.1360544217687074,1.1360544217687074,1.1360544217687074,1.1360544217687074,1.1360544217687074,1.1360544217687074,1.1360544217687074,1.1360544217687074,1.1360544217687074,1.1360544217687074,1.1360544217687074,1.1360544217687074,1.1360544217687074,1.1360544217687074,1.1360544217687074,1.1360544217687074,1.1360544217687074,1.1360544217687074,1.1360544217687074,1.1360544217687074,1.1360544217687074,1.1360544217687074,1.1360544217687074,1.1360544217687074,1.1360544217687074,1.1360544217687074,1.1360544217687074,1.1360544217687074,1.1360544217687074,1.1360544217687074,1.1360544217687074,1.1360544217687074,1.1360544217687074,1.1360544217687074,1.1360544217687074,1.1360544217687074,1.1360544217687074,1.1360544217687074,1.1360544217687074,1.1360544217687074,1.1360544217687074,1.1360544217687074,1.1360544217687074,1.1360544217687074,1.1360544217687074,1.1360544217687074,1.1360544217687074,1.1360544217687074,1.1360544217687074,1.1360544217687074,1.1360544217687074,1.1360544217687074,1.1360544217687074,1.1360544217687074,1.1360544217687074,1.1360544217687074,1.1360544217687074,1.1360544217687074,1.1360544217687074,1.1360544217687074,1.1360544217687074,1.1360544217687074,1.1360544217687074,1.1360544217687074,1.1360544217687074,1.1360544217687074,1.1360544217687074,1.1360544217687074,1.1360544217687074,1.1360544217687074,1.1360544217687074,1.1360544217687074,1.1360544217687074,1.1360544217687074,1.1360544217687074,1.1360544217687074,1.1428571428571428,1.1428571428571428,1.1428571428571428,1.1496598639455782,1.1496598639455782,1.1564625850340136,1.163265306122449,1.1700680272108843,1.1768707482993197,1.183673469387755,1.1870748299319729,1.1972789115646258,1.2074829931972788,1.2210884353741496,1.2380952380952381,1.2551020408163265,1.272108843537415,1.2891156462585034,1.2993197278911566,1.3095238095238095,1.3265306122448979,1.336734693877551,1.3503401360544218,1.3639455782312926,1.3843537414965987,1.3945578231292517,1.401360544217687,1.4081632653061225,1.4183673469387754,1.4251700680272108,1.4319727891156462,1.435374149659864,1.4387755102040816,1.4387755102040816,1.4387755102040816,1.4387755102040816,1.4387755102040816,1.4387755102040816,1.4421768707482994,1.4421768707482994,1.4421768707482994,1.4421768707482994,1.4421768707482994,1.4421768707482994,1.4421768707482994,1.4421768707482994,1.4421768707482994,1.4421768707482994,1.4421768707482994,1.4421768707482994,1.4421768707482994,1.4421768707482994,1.4421768707482994,1.4421768707482994,1.4421768707482994,1.4421768707482994,1.4421768707482994,1.4421768707482994,1.4421768707482994,1.4421768707482994,1.4421768707482994,1.4421768707482994,1.4421768707482994,1.4421768707482994,1.4421768707482994,1.4421768707482994,1.4421768707482994,1.4421768707482994,1.4421768707482994,1.4421768707482994,1.4421768707482994,1.4421768707482994,1.4421768707482994,1.4421768707482994,1.4421768707482994,1.4421768707482994,1.4421768707482994,1.4421768707482994,1.4421768707482994,1.4421768707482994,1.4421768707482994,1.4421768707482994,1.4421768707482994,1.4421768707482994,1.4421768707482994,1.4421768707482994,1.4421768707482994,1.4421768707482994,1.4421768707482994,1.4421768707482994,1.4421768707482994,1.4421768707482994,1.4421768707482994,1.4421768707482994,1.4421768707482994,1.4421768707482994,1.4421768707482994,1.4421768707482994,1.4421768707482994,1.4421768707482994,1.4421768707482994,1.4421768707482994,1.4421768707482994,1.4421768707482994],"y":[-4.285714285714286,-4.285714285714286,-4.285714285714286,-4.285714285714286,-4.285714285714286,-4.285714285714286,-4.285714285714286,-4.285714285714286,-4.285714285714286,-4.285714285714286,-4.285714285714286,-4.285714285714286,-4.285714285714286,-4.285714285714286,-4.285714285714286,-4.285714285714286,-4.285714285714286,-4.285714285714286,-4.285714285714286,-4.285714285714286,-4.285714285714286,-4.285714285714286,-4.285714285714286,-4.285714285714286,-4.285714285714286,-4.285714285714286,-4.285714285714286,0.6904761904761905,0.5952380952380952,0.49047619047619045,0.3380952380952381,0.1380952380952381,0.004761904761904762,-0.08095238095238096,-0.14761904761904762,-0.18571428571428572,-0.21428571428571427,-0.21428571428571427,-0.21428571428571427,-0.21428571428571427,-0.21428571428571427,-0.21428571428571427,-0.21428571428571427,-0.21428571428571427,-0.21428571428571427,-0.21428571428571427,-0.21428571428571427,-0.21428571428571427,-0.21428571428571427,-0.21428571428571427,-0.21428571428571427,-0.21428571428571427,-0.21428571428571427,-0.21428571428571427,-0.21428571428571427,-0.21428571428571427,-0.21428571428571427,-0.22380952380952382,-0.22380952380952382,-0.22380952380952382,-0.22380952380952382,-0.22380952380952382,-0.22380952380952382,-0.24285714285714285,-0.24285714285714285,-0.24285714285714285,-0.24285714285714285,-0.24285714285714285,-0.24285714285714285,-0.24285714285714285,-0.24285714285714285,-0.24285714285714285,-0.24285714285714285,-0.24285714285714285,-0.28095238095238095,-0.28095238095238095,-0.28095238095238095,-0.28095238095238095,-0.28095238095238095,-0.28095238095238095,-0.28095238095238095,-0.28095238095238095,-0.2714285714285714,-0.2714285714285714,-0.2714285714285714,-0.2714285714285714,-0.24285714285714285,-0.23333333333333334,-0.20476190476190476,-0.1761904761904762,-0.15714285714285714,-0.12857142857142856,-0.10952380952380952,-0.1,-0.06190476190476191,-0.04285714285714286,-0.03333333333333333,-0.014285714285714285,-0.004761904761904762,-0.004761904761904762,-0.004761904761904762,-0.004761904761904762,-0.004761904761904762,-0.004761904761904762,-0.004761904761904762,-0.004761904761904762,-0.004761904761904762,-0.004761904761904762,-0.004761904761904762,-0.004761904761904762,-0.004761904761904762,-0.004761904761904762,-0.004761904761904762,-0.004761904761904762,-0.004761904761904762,-0.004761904761904762,-0.004761904761904762,-0.004761904761904762,-0.004761904761904762,0.004761904761904762,0.004761904761904762,0.004761904761904762,-0.004761904761904762,-0.023809523809523808,-0.03333333333333333,-0.03333333333333333,-0.04285714285714286,-0.04285714285714286,-0.04285714285714286,-0.04285714285714286,-0.04285714285714286,-0.04285714285714286,-0.04285714285714286,-0.04285714285714286,-0.04285714285714286,-0.04285714285714286,-0.04285714285714286,-0.03333333333333333,-0.023809523809523808,-0.014285714285714285,0.004761904761904762,0.004761904761904762,0.004761904761904762,0.023809523809523808,0.023809523809523808,0.023809523809523808,0.023809523809523808,0.03333333333333333,0.03333333333333333,0.03333333333333333,0.03333333333333333,0.05238095238095238,0.06190476190476191,0.07142857142857142,0.09047619047619047,0.10952380952380952,0.10952380952380952,0.11904761904761904,0.11904761904761904,0.11904761904761904,0.11904761904761904,0.11904761904761904,0.11904761904761904,0.11904761904761904,0.11904761904761904,0.11904761904761904,0.11904761904761904,0.11904761904761904,0.11904761904761904,0.11904761904761904,0.11904761904761904,0.11904761904761904,0.11904761904761904,0.11904761904761904,0.11904761904761904,0.11904761904761904,0.11904761904761904,0.11904761904761904,0.11904761904761904,0.11904761904761904,0.11904761904761904,0.12857142857142856,0.14761904761904762,0.15714285714285714,0.1761904761904762,0.18571428571428572,0.20476190476190476,0.22380952380952382,0.23333333333333334,0.24285714285714285,0.2619047619047619,0.2619047619047619,0.2714285714285714,0.2714285714285714,0.2714285714285714,0.28095238095238095,0.28095238095238095,0.28095238095238095,0.2904761904761905,0.2904761904761905,0.2904761904761905,0.2904761904761905,0.2619047619047619,0.24285714285714285,0.20476190476190476,0.16666666666666666,0.11904761904761904,0.07142857142857142,0.04285714285714286,0.03333333333333333,0.03333333333333333,0.03333333333333333,0.03333333333333333,0.03333333333333333,0.03333333333333333,0.03333333333333333,0.03333333333333333,0.023809523809523808,0.023809523809523808,0.023809523809523808,0.023809523809523808,0.023809523809523808,0.023809523809523808,0.023809523809523808,0.023809523809523808,0.023809523809523808,0.023809523809523808,0.023809523809523808,0.023809523809523808,0.023809523809523808,0.023809523809523808,0.023809523809523808,0.023809523809523808,0.023809523809523808,0.023809523809523808,0.023809523809523808,0.023809523809523808,0.023809523809523808,0.023809523809523808,0.023809523809523808,0.023809523809523808,0.023809523809523808,0.023809523809523808,0.023809523809523808,0.023809523809523808,0.023809523809523808,0.023809523809523808,0.023809523809523808,0.023809523809523808,0.023809523809523808,0.023809523809523808,0.023809523809523808,0.023809523809523808,0.023809523809523808,0.023809523809523808,0.023809523809523808,0.023809523809523808,0.023809523809523808,0.023809523809523808,0.023809523809523808,0.023809523809523808,0.023809523809523808,0.023809523809523808,0.023809523809523808,0.023809523809523808,0.023809523809523808,0.023809523809523808,0.023809523809523808,0.023809523809523808,0.023809523809523808,0.023809523809523808,0.023809523809523808,0.023809523809523808,0.023809523809523808,0.023809523809523808,0.023809523809523808,0.023809523809523808,0.023809523809523808,0.023809523809523808,0.023809523809523808,0.023809523809523808,0.023809523809523808,0.023809523809523808,0.023809523809523808,0.023809523809523808,0.023809523809523808,0.023809523809523808,0.023809523809523808,0.023809523809523808,0.023809523809523808,0.023809523809523808,0.023809523809523808,0.023809523809523808,0.023809523809523808,0.023809523809523808,0.023809523809523808,0.023809523809523808,0.023809523809523808,0.023809523809523808,0.023809523809523808,0.023809523809523808,0.023809523809523808,0.023809523809523808,0.023809523809523808,0.023809523809523808,0.023809523809523808,0.023809523809523808,0.023809523809523808,0.004761904761904762,-0.04285714285714286,-0.15714285714285714,-0.3380952380952381,-0.5761904761904761,-0.861904761904762,-1.1285714285714286,-1.338095238095238,-1.5380952380952382,-1.7,-1.8428571428571427,-1.9285714285714286,-1.9666666666666666,-1.9761904761904763,-1.9761904761904763,-1.9761904761904763,-1.9761904761904763,-1.9761904761904763,-1.9761904761904763,-1.9761904761904763,-1.9761904761904763,-1.9761904761904763,-1.9190476190476191,-1.8238095238095238,-1.7,-1.519047619047619,-1.3571428571428572,-1.1476190476190475,-0.9571428571428572,-0.7952380952380952,-0.6333333333333333,-0.49047619047619045,-0.3761904761904762,-0.28095238095238095,-0.21428571428571427,-0.16666666666666666,-0.11904761904761904,-0.10952380952380952,-0.09047619047619047,-0.08095238095238096,-0.07142857142857142,-0.06190476190476191,-0.05238095238095238,-0.04285714285714286,-0.03333333333333333,-0.023809523809523808,-0.023809523809523808,-0.023809523809523808,-0.023809523809523808,-0.023809523809523808,-0.023809523809523808,-0.023809523809523808,-0.023809523809523808,-0.023809523809523808,-0.023809523809523808,-0.023809523809523808,-0.023809523809523808,-0.023809523809523808,-0.023809523809523808,-0.023809523809523808,-0.023809523809523808,-0.023809523809523808,-0.023809523809523808,-0.023809523809523808,-0.023809523809523808,-0.023809523809523808,-0.023809523809523808,-0.023809523809523808,-0.023809523809523808,-0.023809523809523808,-0.023809523809523808,-0.023809523809523808,-0.023809523809523808,-0.023809523809523808,-0.023809523809523808,-0.023809523809523808,-0.023809523809523808,-0.023809523809523808,-0.014285714285714285,-0.004761904761904762,0.023809523809523808,0.04285714285714286,0.08095238095238096,0.1,0.11904761904761904,0.15714285714285714,0.16666666666666666,0.19523809523809524,0.22380952380952382,0.2523809523809524,0.2904761904761905,0.319047619047619,0.36666666666666664,0.38571428571428573,0.38571428571428573,0.3761904761904762,0.3761904761904762,0.3761904761904762,0.3761904761904762,0.3761904761904762,0.3761904761904762,0.3761904761904762,0.3761904761904762,0.3761904761904762,0.3761904761904762,0.36666666666666664,0.3476190476190476,0.3476190476190476,0.3476190476190476,0.3476190476190476,0.3476190476190476,0.3476190476190476,0.3476190476190476,0.3476190476190476,0.3476190476190476,0.35714285714285715,0.3761904761904762,0.40476190476190477,0.4238095238095238,0.44285714285714284,0.4523809523809524,0.46190476190476193,0.46190476190476193,0.48095238095238096,0.48095238095238096,0.48095238095238096,0.49047619047619045,0.49047619047619045,0.49047619047619045,0.49047619047619045,0.49047619047619045,0.49047619047619045,0.49047619047619045,0.49047619047619045,0.49047619047619045,0.49047619047619045,0.49047619047619045,0.49047619047619045,0.49047619047619045,0.49047619047619045,0.49047619047619045,0.49047619047619045,0.49047619047619045,0.49047619047619045,0.49047619047619045,0.49047619047619045,0.49047619047619045,0.49047619047619045,0.49047619047619045,0.49047619047619045,0.49047619047619045,0.49047619047619045,0.49047619047619045,0.49047619047619045,0.49047619047619045,0.49047619047619045,0.49047619047619045,0.49047619047619045,0.49047619047619045,0.49047619047619045,0.49047619047619045,0.49047619047619045,0.49047619047619045,0.49047619047619045,0.49047619047619045,0.49047619047619045,0.49047619047619045,0.49047619047619045,0.49047619047619045,0.49047619047619045,0.49047619047619045,0.49047619047619045,0.49047619047619045,0.49047619047619045,0.49047619047619045,0.49047619047619045,0.49047619047619045,0.49047619047619045,0.49047619047619045,0.49047619047619045,0.49047619047619045,0.49047619047619045,0.49047619047619045,0.49047619047619045,0.49047619047619045,0.49047619047619045,0.49047619047619045,0.48095238095238096,0.48095238095238096,0.4714285714285714,0.46190476190476193,0.4523809523809524,0.4523809523809524,0.44285714285714284,0.44285714285714284,0.44285714285714284,0.44285714285714284,0.43333333333333335,0.4238095238095238,0.4238095238095238,0.4238095238095238,0.4238095238095238,0.4238095238095238,0.4238095238095238,0.4238095238095238,0.4238095238095238,0.4142857142857143,0.4142857142857143,0.4142857142857143,0.4142857142857143,0.4142857142857143,0.4142857142857143,0.4142857142857143,0.4142857142857143,0.4142857142857143,0.4142857142857143,0.4142857142857143,0.4142857142857143,0.4142857142857143,0.4142857142857143,0.4142857142857143,0.4142857142857143,0.4142857142857143,0.4142857142857143,0.4142857142857143,0.4142857142857143,0.4142857142857143,0.4142857142857143,0.4142857142857143,0.4142857142857143,0.4142857142857143,0.4142857142857143,0.4142857142857143,0.4142857142857143,0.4142857142857143,0.4142857142857143,0.4142857142857143,0.4142857142857143,0.4142857142857143,0.4142857142857143,0.4142857142857143,0.4142857142857143,0.4142857142857143,0.4142857142857143,0.4142857142857143,0.4142857142857143,0.4142857142857143,0.4142857142857143,0.4142857142857143,0.4142857142857143,0.4142857142857143,0.4142857142857143,0.4142857142857143,0.4142857142857143,0.4142857142857143,0.4142857142857143,0.4142857142857143,0.4142857142857143,0.4142857142857143,0.4142857142857143,0.4142857142857143,0.4142857142857143,0.4142857142857143,0.4142857142857143,0.4142857142857143,0.4142857142857143,0.4142857142857143,0.4142857142857143,0.4142857142857143,0.4142857142857143,0.4142857142857143,0.4142857142857143,0.4142857142857143,0.4142857142857143,0.4142857142857143,0.4142857142857143,0.4142857142857143,0.4142857142857143,0.4142857142857143,0.4142857142857143,0.4142857142857143,0.4142857142857143,0.4142857142857143,0.4142857142857143,0.4142857142857143,0.4142857142857143,0.4142857142857143,0.4142857142857143,0.4142857142857143,0.4142857142857143,0.4142857142857143,0.4142857142857143,0.4142857142857143,0.4142857142857143,0.4142857142857143,0.4142857142857143,0.4142857142857143,0.4142857142857143,0.4142857142857143,0.4142857142857143,0.4142857142857143,0.4142857142857143,0.4142857142857143,0.4142857142857143,0.4142857142857143,0.4142857142857143,0.4142857142857143,0.4142857142857143,0.4142857142857143,0.4142857142857143,0.4142857142857143,0.4142857142857143,0.4142857142857143,0.4142857142857143,0.4142857142857143,0.4142857142857143,0.4142857142857143,0.4142857142857143,0.4142857142857143,0.4142857142857143,0.4142857142857143,0.4142857142857143,0.4142857142857143,0.4142857142857143,0.4142857142857143,0.4142857142857143,0.4142857142857143,0.4142857142857143,0.4142857142857143,0.4142857142857143,0.4142857142857143,0.4142857142857143,0.4142857142857143,0.4142857142857143,0.4142857142857143,0.4142857142857143,0.4142857142857143,0.4142857142857143,0.4142857142857143,0.4142857142857143,0.4142857142857143,0.4142857142857143,0.4142857142857143,0.4142857142857143,0.4142857142857143,0.4142857142857143,0.4142857142857143,0.4142857142857143,0.4142857142857143,0.4142857142857143,0.4142857142857143,0.4142857142857143,0.4142857142857143,0.4142857142857143,0.4142857142857143,0.4142857142857143,0.4142857142857143,0.4142857142857143,0.4142857142857143,0.4142857142857143,0.4142857142857143,0.4142857142857143,0.4142857142857143,0.4142857142857143,0.4142857142857143,0.4142857142857143,0.4142857142857143,0.4142857142857143,0.4142857142857143,0.4142857142857143,0.4142857142857143,0.4142857142857143,0.4142857142857143,0.4142857142857143,0.4142857142857143,0.4142857142857143,0.4142857142857143,0.4142857142857143,0.4142857142857143,0.4142857142857143,0.4142857142857143,0.4142857142857143,0.4142857142857143,0.4142857142857143,0.4142857142857143,0.4142857142857143,0.4142857142857143,0.4142857142857143,0.4142857142857143,0.4142857142857143,0.4142857142857143,0.4142857142857143,0.4142857142857143,0.4142857142857143,0.4142857142857143,0.4142857142857143,0.4142857142857143,0.4142857142857143,0.4142857142857143,0.4142857142857143,0.4142857142857143,0.4142857142857143,0.4142857142857143,0.4142857142857143,0.4142857142857143,0.4142857142857143,0.4142857142857143,0.4142857142857143,0.4142857142857143,0.4142857142857143,0.4142857142857143,0.4142857142857143,0.4142857142857143,0.4142857142857143,0.4142857142857143,0.4142857142857143,0.4142857142857143,0.4142857142857143,0.4142857142857143,0.4142857142857143,0.4142857142857143,0.4142857142857143,0.4142857142857143,0.4142857142857143,0.4142857142857143,0.4142857142857143,0.4142857142857143,0.4142857142857143,0.40476190476190477,0.3761904761904762,0.319047619047619,0.24285714285714285,0.19523809523809524,0.14761904761904762,0.09047619047619047,0.05238095238095238,0.014285714285714285,-0.004761904761904762,-0.03333333333333333,-0.04285714285714286,-0.05238095238095238,-0.06190476190476191,-0.06190476190476191,-0.06190476190476191,-0.06190476190476191,-0.06190476190476191,-0.06190476190476191,-0.06190476190476191,-0.06190476190476191,-0.06190476190476191,-0.05238095238095238,-0.05238095238095238,-0.04285714285714286,-0.04285714285714286,-0.04285714285714286,-0.04285714285714286,-0.04285714285714286,-0.04285714285714286,-0.04285714285714286,-0.04285714285714286,-0.04285714285714286,-0.04285714285714286,-0.04285714285714286,-0.04285714285714286,-0.04285714285714286,-0.04285714285714286,-0.04285714285714286,-0.04285714285714286,-0.04285714285714286,-0.04285714285714286,-0.04285714285714286,-0.04285714285714286,-0.04285714285714286,-0.04285714285714286,-0.04285714285714286,-0.04285714285714286,-0.04285714285714286,-0.04285714285714286,-0.04285714285714286,-0.04285714285714286,-0.04285714285714286,-0.04285714285714286,-0.04285714285714286,-0.04285714285714286,-0.04285714285714286,-0.023809523809523808,-0.004761904761904762,0.014285714285714285,0.03333333333333333,0.06190476190476191,0.09047619047619047,0.10952380952380952,0.11904761904761904,0.1380952380952381,0.14761904761904762,0.16666666666666666,0.18571428571428572,0.19523809523809524,0.20476190476190476,0.22380952380952382,0.22380952380952382,0.22380952380952382,0.23333333333333334,0.23333333333333334,0.24285714285714285,0.2523809523809524,0.2523809523809524,0.2523809523809524,0.2619047619047619,0.28095238095238095,0.28095238095238095,0.28095238095238095,0.2904761904761905,0.3,0.3,0.3,0.3,0.30952380952380953,0.30952380952380953,0.30952380952380953,0.319047619047619,0.3380952380952381,0.3380952380952381,0.35714285714285715,0.35714285714285715,0.3761904761904762,0.3761904761904762,0.3952380952380952,0.40476190476190477,0.4142857142857143,0.44285714285714284,0.4523809523809524,0.46190476190476193,0.4714285714285714,0.48095238095238096,0.49047619047619045,0.49047619047619045,0.49047619047619045,0.49047619047619045,0.5095238095238095,0.5095238095238095,0.5095238095238095,0.5095238095238095,0.5095238095238095,0.5095238095238095,0.5095238095238095,0.5095238095238095,0.5095238095238095,0.5095238095238095,0.5095238095238095,0.5095238095238095,0.5,0.5,0.5,0.5,0.5,0.5,0.5,0.5,0.5,0.5,0.5095238095238095,0.5190476190476191,0.5190476190476191,0.5380952380952381,0.5380952380952381,0.5476190476190477,0.5476190476190477,0.5476190476190477,0.5476190476190477,0.5476190476190477,0.5476190476190477,0.5476190476190477,0.5476190476190477,0.5476190476190477,0.5476190476190477,0.5476190476190477,0.5476190476190477,0.5476190476190477,0.5476190476190477,0.5476190476190477,0.5476190476190477,0.5476190476190477,0.5476190476190477,0.5476190476190477,0.5476190476190477,0.5476190476190477,0.5476190476190477,0.5476190476190477,0.5476190476190477,0.5476190476190477,0.5476190476190477,0.5476190476190477,0.5476190476190477,0.5476190476190477,0.5476190476190477,0.5476190476190477,0.5476190476190477,0.5476190476190477,0.5476190476190477,0.5476190476190477,0.5476190476190477,0.5476190476190477,0.5476190476190477,0.5476190476190477,0.5476190476190477,0.5476190476190477,0.5476190476190477,0.5476190476190477,0.5476190476190477,0.5476190476190477,0.5476190476190477,0.5476190476190477,0.5476190476190477,0.5476190476190477,0.5476190476190477,0.5476190476190477,0.5476190476190477,0.5476190476190477,0.5476190476190477,0.5476190476190477,0.5476190476190477,0.547619047619047