[{"success":true,"trial_type":"fullscreen","trial_index":0,"time_elapsed":8179,"internal_node_id":"0.0-0.0","protocol_sum":"","subject_identifier":510,"subject_sum":[149,86,184,36,153,204,10,175,134,174,231,240,210,83,225,124,97,183,239,115,212,138,41,95,55,217,143,8,176,79,250,127],"subject_pair":255,"STUDY_ID":"66a3ed3c5d10d0e7d8a6b9da","PROLIFIC_PID":"5a6eac90d5d4cb0001d6815a","SESSION_ID":"66a4223ea6fdbee0135519da","practice_instructions":1,"leaderboard_instructions":0,"bonus":0,"reveal_word":false,"self_rating":"4","confidence":"27"},{"view_history":"[{\"page_index\":0,\"viewing_time\":4077.1999999997206}]","rt":4078.100000000093,"trial_type":"instructions","trial_index":1,"time_elapsed":12258,"internal_node_id":"0.0-1.0","protocol_sum":"","subject_identifier":510,"subject_sum":[149,86,184,36,153,204,10,175,134,174,231,240,210,83,225,124,97,183,239,115,212,138,41,95,55,217,143,8,176,79,250,127],"subject_pair":255,"STUDY_ID":"66a3ed3c5d10d0e7d8a6b9da","PROLIFIC_PID":"5a6eac90d5d4cb0001d6815a","SESSION_ID":"66a4223ea6fdbee0135519da","practice_instructions":1,"leaderboard_instructions":0,"bonus":0,"reveal_word":false,"self_rating":"4","confidence":"27"},{"view_history":"[{\"page_index\":0,\"viewing_time\":27523.400000000373}]","rt":27523.80000000028,"trial_type":"instructions","trial_index":2,"time_elapsed":39783,"internal_node_id":"0.0-2.0-0.0","protocol_sum":"","subject_identifier":510,"subject_sum":[149,86,184,36,153,204,10,175,134,174,231,240,210,83,225,124,97,183,239,115,212,138,41,95,55,217,143,8,176,79,250,127],"subject_pair":255,"STUDY_ID":"66a3ed3c5d10d0e7d8a6b9da","PROLIFIC_PID":"5a6eac90d5d4cb0001d6815a","SESSION_ID":"66a4223ea6fdbee0135519da","practice_instructions":1,"leaderboard_instructions":0,"bonus":0,"reveal_word":false,"self_rating":"4","confidence":"27"},{"rt":9147.899999999907,"responses":"{\"Q0\":\"... reveal the word with as <b>few letter guesses</b> as possible\"}","question_order":"[0]","trial_type":"survey-multi-choice","trial_index":3,"time_elapsed":48933,"internal_node_id":"0.0-2.0-1.0","protocol_sum":"","subject_identifier":510,"subject_sum":[149,86,184,36,153,204,10,175,134,174,231,240,210,83,225,124,97,183,239,115,212,138,41,95,55,217,143,8,176,79,250,127],"subject_pair":255,"correct":true,"test_part":"multichoice_nonpretend","STUDY_ID":"66a3ed3c5d10d0e7d8a6b9da","PROLIFIC_PID":"5a6eac90d5d4cb0001d6815a","SESSION_ID":"66a4223ea6fdbee0135519da","practice_instructions":1,"leaderboard_instructions":0,"bonus":0,"reveal_word":false,"self_rating":"4","confidence":"27"},{"view_history":"[{\"page_index\":0,\"viewing_time\":1550.5}]","rt":1550.8000000002794,"trial_type":"instructions","trial_index":4,"time_elapsed":50485,"internal_node_id":"0.0-3.0","protocol_sum":"","subject_identifier":510,"subject_sum":[149,86,184,36,153,204,10,175,134,174,231,240,210,83,225,124,97,183,239,115,212,138,41,95,55,217,143,8,176,79,250,127],"subject_pair":255,"STUDY_ID":"66a3ed3c5d10d0e7d8a6b9da","PROLIFIC_PID":"5a6eac90d5d4cb0001d6815a","SESSION_ID":"66a4223ea6fdbee0135519da","practice_instructions":1,"leaderboard_instructions":0,"bonus":0,"reveal_word":false,"self_rating":"4","confidence":"27"},{"word":"ZEBRA","click_log":{"letter":["","T","K","F","G","O","N","M","L","U","V","D","C","B","R","Z","E","A"],"t":[0,4381.300000000279,16266.200000000186,19695.100000000093,21262.399999999907,22452.200000000186,23652.200000000186,24511.399999999907,25345.80000000028,26118,26735,27319,27823.899999999907,28261.700000000186,32696.399999999907,35345,36403.5,37702.200000000186],"hit":[null,0,0,0,0,0,0,0,0,0,0,0,0,1,1,1,1,1],"asked":["","T","TK","TKF","TKFG","TKFGO","TKFGON","TKFGONM","TKFGONML","TKFGONMLU","TKFGONMLUV","TKFGONMLUVD","TKFGONMLUVDC","TKFGONMLUVDCB","TKFGONMLUVDCBR","TKFGONMLUVDCBRZ","TKFGONMLUVDCBRZE","TKFGONMLUVDCBRZEA"],"word_state":["_____","_____","_____","_____","_____","_____","_____","_____","_____","_____","_____","_____","_____","__B__","__BR_","Z_BR_","ZEBR_","ZEBRA"]},"hover_log":{"letter":["?","J","J","J","J","J","J","J","J","J","J","J","J","J","?","?","?","T","?","?","?","?","?","?","?","?","?","?","?","?","?","?","?","?","?","?","?","?","?","?","?","?","?","?","?","?","?","?","?","?","?","?","?","?","?","?","?","?","?","?","?","?","?","?","?","?","?","?","?","?","?","?","?","?","?","?","?","?","?","?","?","?","?","?","?","?","?","?","?","?","?","?","?","?","?","?","?","?","?","?","?","?","?","?","?","?","?","?","?","?","?","?","?","?","?","?","?","?","?","?","?","?","?","?","?","?","?","?","?","?","?","?","?","?","?","?","?","?","?","?","?","?","?","?","?","?","?","?","?","?","?","?","?","?","?","?","?","?","?","?","?","?","?","?","?","?","?","?","?","?","?","?","?","?","?","?","?","?","?","?","?","?","W","W","W","W","W","W","W","W","W","W","W","W","W","W","W","W","W","?","V","V","V","V","V","V","?","?","?","?","?","?","?","?","?","?","?","?","?","?","?","?","?","?","?","?","?","?","?","?","?","?","?","?","?","T","T","T","T","T","T","T","T","T","T","T","T","T","T","T","T","T","T","T","T","T","T","T","T","T","T","T","T","T","T","T","T","T","T","T","T","T","T","T","T","T","T","T","T","T","T","T","T","T","T","T","T","T","T","T","T","T","T","T","T","T","T","T","T","T","?","?","?","?","?","?","?","?","?","?","?","?","?","?","?","?","?","?","?","?","?","?","?","?","?","?","?","?","?","?","?","?","?","?","?","?","?","?","?","?","?","?","?","?","?","?","?","?","?","?","?","?","?","?","?","?","?","?","?","?","?","?","?","?","?","?","?","?","?","?","?","?","?","?","?","?","?","?","?","?","?","?","?","?","?","?","?","?","?","?","?","?","?","?","?","?","?","?","?","?","?","?","?","?","?","?","?","?","?","?","?","?","?","?","?","?","?","?","?","?","?","?","?","?","?","?","?","?","?","?","?","?","?","?","?","?","?","?","?","?","?","?","?","?","?","?","?","?","?","?","?","?","?","?","?","?","?","?","?","?","?","?","?","?","?","?","?","?","?","?","?","?","?","?","?","?","?","?","?","?","?","?","?","?","?","?","?","?","?","?","?","?","?","?","?","?","?","?","?","?","?","?","?","?","?","?","?","?","?","?","?","?","?","?","?","?","?","?","?","?","?","?","?","?","?","?","?","?","?","?","?","?","?","?","?","?","?","?","?","?","Q","Q","?","G","F","F","F","?","?","?","?","?","?","?","?","?","?","?","?","?","?","?","?","?","?","?","?","?","?","?","?","?","?","?","?","?","?","?","?","?","?","?","?","?","?","?","?","?","?","?","?","?","?","?","?","?","?","?","?","?","?","?","?","?","?","?","?","?","?","?","?","?","?","?","?","?","?","?","?","?","?","?","?","?","?","?","?","?","?","?","?","?","?","?","?","?","?","?","?","?","?","?","?","?","?","?","?","?","?","?","?","?","?","?","?","?","?","?","?","?","?","?","?","?","?","?","?","?","?","?","?","?","?","?","?","?","?","?","?","?","?","?","?","?","?","?","?","?","?","?","?","?","?","?","?","?","?","?","?","?","?","?","?","?","?","?","?","?","?","?","?","?","?","?","?","?","?","?","?","?","?","F","?","?","?","?","?","?","?","N","N","N","N","N","N","N","N","N","N","?","?","?","?","?","?","?","?","?","?","?","?","?","?","?","?","?","?","?","?","?","?","?","?","W","W","W","W","W","W","W","W","W","W","W","W","W","W","W","W","W","W","?","?","?","X","X","X","X","X","X","X","X","?","?","?","?","?","?","?","?","?","?","?","?","?","?","?","?","?","?","?","?","?","?","?","?","?","?","O","O","O","O","O","?","F","F","F","F","?","?","?","?","?","?","?","?","?","?","?","?","?","?","?","?","?","?","?","?","?","?","?","?","?","?","?","?","?","?","?","?","?","?","?","?","?","?","?","?","?","?","?","?","?","?","?","?","?","?","?","?","?","?","?","?","?","?","G","?","?","?","?","?","?","?","?","?","?","?","?","?","?","?","?","?","?","?","?","?","?","?","?","?","P","P","?","O","O","N","N","N","N","N","N","N","N","?","?","M","M","M","?","?","?","?","?","?","?","?","?","?","?","?","?","?","?","?","K","K","K","K","K","K","K","K","K","K","K","K","K","K","K","K","K","K","K","K","K","K","K","K","K","K","K","K","K","K","K","K","K","K","K","K","K","K","K","K","K","K","K","K","K","K","K","K","K","K","K","K","K","K","K","K","K","K","K","K","?","?","?","U","U","U","U","U","U","U","U","U","U","U","U","U","U","U","U","U","U","U","U","U","U","U","U","U","U","U","U","U","U","U","U","U","U","U","U","U","U","U","U","U","U","U","U","U","U","U","U","U","U","U","U","U","U","U","U","U","U","U","?","?","?","?","?","?","?","?","N","N","?","?","?","?","?","?","F","F","F","F","F","F","F","F","F","F","F","F","F","F","F","F","F","F","F","F","F","F","F","F","F","F","F","F","F","F","F","F","F","F","F","F","F","F","F","F","F","F","F","F","F","F","F","F","F","F","F","F","F","?","?","?","?","?","?","?","?","?","?","?","?","?","?","?","?","?","F","F","F","F","F","F","F","F","F","F","F","F","F","F","F","F","F","F","F","F","F","F","F","F","F","F","F","F","F","F","F","F","F","F","F","F","F","F","F","F","F","F","F","F","F","F","F","F","F","F","F","F","F","F","F","F","F","F","F","F","F","F","F","F","F","?","G","G","G","?","?","?","?","?","?","?","?","?","?","?","?","?","?","?","?","?","?","H","H","H","H","H","H","H","H","H","H","H","H","?","?","?","?","G","G","G","G","G","G","G","G","G","G","G","G","G","G","G","G","G","G","G","G","G","G","G","G","G","G","G","G","G","?","?","?","P","P","P","P","P","P","?","?","?","?","?","?","?","?","?","?","?","?","?","?","?","?","?","P","P","P","P","P","P","P","P","P","P","P","P","P","P","P","P","?","O","O","O","O","O","O","O","O","O","O","O","O","O","O","O","O","O","O","O","O","O","O","O","O","O","?","?","?","X","X","X","X","X","X","X","X","X","X","X","X","X","X","X","X","X","X","X","X","X","X","X","?","?","?","?","?","?","?","?","W","W","W","?","?","?","?","?","?","?","?","?","?","?","?","?","N","N","N","N","N","N","N","N","N","N","N","N","N","N","N","N","N","N","N","N","N","N","?","?","?","?","?","?","?","?","?","?","?","?","?","?","?","?","?","?","?","?","M","M","M","M","M","M","M","M","M","M","M","M","M","M","M","M","M","M","M","M","M","M","M","M","M","M","M","M","M","M","?","?","?","?","?","?","?","?","?","?","?","?","?","?","?","?","?","?","?","?","?","?","?","?","?","?","?","L","L","L","L","L","L","L","L","L","L","L","L","L","L","L","L","L","L","L","L","L","L","?","?","U","U","U","U","U","U","U","U","U","U","U","U","U","U","U","U","U","U","U","U","U","U","U","U","U","U","U","U","U","U","U","U","U","U","U","U","U","U","U","U","U","U","U","U","?","?","?","?","?","?","?","?","?","?","?","?","?","?","?","?","V","V","V","V","V","V","V","V","V","V","V","V","V","V","V","V","V","V","V","V","V","V","V","V","V","V","V","?","M","M","?","?","D","D","D","D","D","D","D","D","D","D","D","D","D","D","D","D","D","D","D","D","D","D","D","D","?","?","C","?","?","?","?","?","?","?","?","C","C","C","C","C","C","C","C","C","C","C","C","C","C","C","C","C","?","?","B","B","B","B","B","B","B","B","B","B","B","B","B","B","B","B","B","B","B","B","B","B","B","B","B","?","?","A","A","A","A","A","A","A","A","A","A","A","A","A","A","A","A","A","A","A","A","A","A","A","A","A","A","A","A","A","A","A","?","?","?","K","K","K","K","?","?","?","?","?","?","?","?","?","?","?","?","?","?","?","?","?","?","?","?","?","?","?","?","?","?","?","?","?","?","?","?","?","?","?","?","?","?","L","L","L","L","L","L","?","?","?","?","?","?","D","D","D","D","D","D","D","D","D","D","?","E","E","E","E","E","E","E","E","E","E","E","E","E","E","E","E","E","E","E","E","E","E","E","E","E","E","E","E","E","E","E","E","E","E","E","E","E","E","E","E","E","E","E","E","E","E","E","E","E","E","?","?","?","?","?","?","?","?","?","?","?","?","?","?","?","?","?","?","?","?","?","?","?","?","?","?","?","?","?","?","K","K","K","K","K","K","K","K","K","K","K","K","K","?","?","?","?","?","?","?","?","?","?","?","?","?","?","O","P","?","Q","Q","Q","Q","Q","Q","Q","Q","?","R","R","R","R","R","R","R","R","R","R","R","R","R","R","R","?","?","?","?","?","?","?","?","R","R","R","R","R","R","R","R","R","R","R","R","R","R","R","R","R","R","R","R","R","R","R","R","R","R","R","R","R","R","R","R","R","R","R","R","R","R","R","R","R","R","R","R","R","R","R","R","R","?","?","?","?","?","?","?","?","?","?","?","?","?","?","?","?","?","?","?","?","?","?","?","Z","Z","Z","Z","Z","Z","Z","Z","Z","Z","Z","Z","Z","Z","Z","Z","Z","Z","Z","Z","Z","Z","Z","Z","Z","Z","Z","Z","Z","Z","Z","Z","?","?","?","?","Y","Y","Y","Y","?","X","W","V","U","T","T","?","?","?","?","?","?","?","K","K","K","K","K","K","K","K","K","K","K","?","?","?","U","V","W","X","Y","Y","?","?","?","?","?","?","Z","Z","Z","Z","Z","Z","Z","Z","Z","Z","Z","Z","Z","Z","Z","Z","Z","Z","Z","Z","Z","Z","Z","Z","Z","Z","Z","Z","Z","Z","Z","Z","Z","Z","?","?","Y","Y","?","?","?","?","?","?","?","?","?","?","?","?","?","?","N","N","N","N","N","N","N","N","N","N","?","?","?","?","?","?","?","?","?","?","?","?","?","?","E","E","E","E","E","E","E","E","E","E","E","E","E","E","E","E","E","E","E","E","E","E","E","?","?","?","?","?","?","?","L","L","L","?","?","?","K","K","K","K","K","K","K","K","K","K","K","K","K","K","K","K","K","K","K","K","K","K","K","K","K","K","K","?","?","J","J","J","J","J","J","J","J","J","J","J","J","?","?","?","?","A","A","A","A","A","A","A","A","A","A","A","A","A","A","A","A","A","A","A","A","A","A","A","A","A","A","A","A","?","?","K","K","K","?","?","V","V","W","?","?","?","?","?","?","?","?","?","?","?","?","?","?","?","?","?","?","?","?","?","?","?","?","?","?","?","?","?","?","?","?","?","?","?","?","?","?","?","?","?","?","?","X","X","X","X","X","X","X","X","X","X","X","X","X","X","X","X","X","X","X","X","X","X","X","X","X","X","X","X","X","?","?","?","?","?","?","O","O","O","O","O","O","O","O","?","?","P","P","P","P"],"t":[32,42,57,72,89,106,122,140,156,173,189,206,222,239,256,273,289,307,324,340,356,373,390,406,422,439,456,472,488,505,522,538,555,572,588,605,623,640,656,672,688,705,722,739,755,772,789,806,823,839,855,872,888,905,921,939,955,972,988,1005,1022,1039,1055,1072,1088,1105,1123,1139,1156,1172,1189,1206,1222,1239,1260,1272,1289,1305,1322,1339,1356,1372,1389,1406,1423,1440,1456,1472,1490,1506,1522,1540,1557,1573,1589,1606,1623,1639,1655,1672,1689,1706,1723,1740,1756,1773,1790,1806,1822,1840,1855,1873,1888,1905,1922,1939,1955,1972,1989,2005,2022,2039,2055,2072,2089,2105,2122,2139,2155,2172,2188,2205,2222,2238,2255,2272,2289,2305,2322,2339,2355,2372,2389,2405,2422,2439,2456,2472,2489,2505,2522,2539,2556,2572,2588,2606,2622,2639,2656,2673,2689,2706,2722,2739,2755,2773,2789,2807,2823,2839,2856,2873,2890,2906,2923,2939,2956,2972,2990,3006,3022,3040,3057,3073,3090,3106,3122,3139,3156,3173,3189,3206,3223,3239,3257,3273,3294,3307,3323,3340,3356,3373,3389,3406,3422,3440,3456,3473,3490,3507,3523,3539,3557,3572,3589,3606,3623,3639,3656,3673,3689,3706,3723,3739,3757,3773,3789,3806,3823,3839,3856,3872,3889,3905,3922,3939,3956,3973,3990,4006,4022,4039,4056,4072,4090,4105,4122,4139,4156,4173,4190,4206,4223,4239,4256,4273,4289,4306,4323,4339,4357,4374,4392,4407,4423,4440,4456,4473,4490,4506,4524,4540,4556,4573,4589,4606,4623,4639,4656,4673,4689,4707,4723,4740,4756,4773,4789,4806,4822,4839,4857,4872,4889,4906,4923,4940,4957,4974,4990,5007,5023,5040,5056,5073,5090,5106,5123,5140,5156,5173,5189,5206,5223,5239,5256,5273,5290,5306,5332,5356,5373,5390,5406,5423,5439,5456,5473,5489,5505,5523,5539,5557,5573,5589,5606,5623,5639,5656,5673,5689,5706,5723,5739,5756,5773,5790,5806,5822,5839,5856,5873,5890,5906,5922,5939,5956,5972,5989,6007,6022,6039,6057,6072,6089,6106,6123,6139,6156,6173,6189,6205,6222,6239,6256,6272,6289,6305,6322,6339,6356,6372,6389,6405,6422,6439,6456,6472,6489,6506,6523,6540,6556,6572,6590,6607,6623,6639,6656,6673,6690,6706,6722,6742,6756,6773,6789,6806,6822,6839,6856,6873,6889,6906,6923,6940,6957,6973,6989,7006,7023,7039,7057,7073,7089,7106,7123,7139,7156,7173,7190,7206,7223,7240,7256,7274,7290,7306,7323,7339,7356,7374,7390,7407,7424,7440,7457,7474,7491,7507,7525,7541,7557,7574,7591,7607,7625,7642,7657,7675,7690,7706,7724,7740,7757,7775,7791,7809,7825,7841,7859,7874,7891,7907,7925,7941,7959,7975,7991,8008,8024,8040,8057,8074,8092,8107,8126,8142,8157,8175,8192,8207,8224,8240,8258,8274,8290,8308,8325,8340,8359,8374,8391,8409,8424,8440,8459,8476,8492,8508,8526,8542,8559,8576,8595,8610,8627,8643,8659,8676,8693,8710,8726,8741,8758,8776,8792,8809,8826,8842,8860,8878,8893,8912,8927,8944,8960,8977,8993,9010,9027,9045,9062,9078,9094,9112,9129,9145,9162,9179,9196,9210,9228,9246,9262,9277,9294,9311,9328,9345,9361,9377,9394,9412,9430,9445,9463,9478,9495,9512,9530,9543,9560,9577,9593,9611,9629,9646,9662,9678,9696,9713,9729,9745,9762,9776,9791,9808,9826,9842,9858,9877,9892,9911,9926,9943,9958,9976,9993,10011,10027,10044,10062,10076,10093,10108,10127,10143,10161,10177,10192,10210,10227,10245,10261,10279,10294,10310,10327,10342,10358,10375,10392,10411,10428,10445,10461,10477,10494,10512,10526,10542,10558,10575,10591,10608,10626,10645,10662,10678,10695,10711,10727,10743,10761,10775,10793,10810,10824,10841,10858,10875,10892,10909,10925,10943,10961,10975,10991,11008,11026,11043,11058,11076,11092,11111,11128,11144,11159,11178,11193,11208,11224,11241,11258,11275,11294,11310,11327,11343,11361,11376,11392,11408,11425,11442,11458,11475,11491,11509,11528,11542,11561,11577,11593,11608,11625,11641,11658,11675,11691,11709,11724,11741,11761,11776,11792,11809,11826,11844,11860,11878,11894,11912,11929,11946,11961,11979,11996,12013,12029,12045,12064,12081,12097,12112,12130,12145,12160,12178,12196,12211,12227,12244,12261,12280,12294,12309,12329,12345,12362,12376,12395,12412,12429,12445,12461,12478,12495,12512,12531,12545,12561,12578,12596,12613,12630,12645,12662,12678,12695,12709,12727,12744,12761,12778,12795,12811,12827,12846,12863,12878,12895,12914,12929,12947,12964,12979,12995,13010,13027,13046,13061,13078,13096,13114,13129,13147,13163,13180,13197,13212,13226,13243,13259,13277,13294,13310,13326,13343,13358,13375,13392,13409,13426,13444,13461,13478,13494,13511,13527,13543,13562,13576,13596,13612,13629,13646,13661,13685,13698,13711,13727,13744,13760,13777,13793,13811,13828,13843,13861,13877,13893,13910,13929,13945,13959,13976,13993,14010,14026,14042,14059,14075,14092,14109,14127,14144,14160,14176,14193,14209,14227,14243,14258,14275,14291,14308,14325,14341,14359,14376,14392,14409,14425,14441,14460,14475,14494,14508,14525,14541,14558,14575,14591,14607,14625,14641,14657,14674,14692,14709,14725,14742,14759,14775,14792,14810,14826,14842,14860,14875,14891,14908,14923,14941,14959,14974,14991,15007,15025,15041,15057,15074,15091,15108,15125,15141,15157,15174,15191,15207,15227,15242,15259,15275,15291,15309,15326,15342,15357,15375,15391,15407,15424,15442,15459,15476,15494,15509,15525,15542,15559,15575,15592,15609,15625,15641,15657,15674,15691,15707,15724,15743,15760,15777,15794,15811,15827,15844,15859,15878,15893,15910,15927,15942,15961,15976,15992,16009,16026,16041,16060,16075,16092,16109,16127,16143,16160,16176,16194,16209,16226,16244,16259,16276,16294,16309,16327,16344,16361,16377,16392,16409,16427,16443,16458,16475,16493,16509,16526,16543,16559,16576,16592,16609,16626,16642,16659,16675,16692,16709,16726,16743,16759,16776,16793,16810,16827,16844,16862,16877,16894,16910,16927,16943,16959,16975,16993,17009,17026,17042,17058,17075,17092,17109,17125,17142,17160,17176,17192,17210,17226,17242,17259,17276,17292,17309,17325,17342,17359,17376,17393,17409,17427,17444,17459,17476,17493,17510,17527,17543,17560,17575,17593,17609,17625,17642,17660,17675,17693,17708,17726,17742,17760,17775,17792,17810,17825,17843,17860,17877,17894,17910,17926,17943,17960,17976,17993,18010,18027,18042,18058,18075,18092,18109,18127,18142,18160,18176,18193,18209,18226,18243,18258,18276,18292,18309,18325,18343,18359,18375,18391,18408,18424,18440,18458,18474,18491,18509,18524,18540,18558,18575,18592,18608,18624,18641,18657,18674,18690,18708,18724,18741,18757,18774,18792,18809,18826,18841,18858,18874,18891,18908,18925,18942,18959,18976,18991,19010,19025,19042,19059,19075,19091,19108,19129,19141,19158,19175,19191,19208,19225,19242,19260,19276,19293,19309,19325,19341,19358,19375,19391,19408,19424,19442,19458,19475,19491,19509,19525,19541,19558,19574,19592,19608,19624,19641,19657,19674,19692,19708,19724,19741,19759,19775,19792,19811,19825,19842,19859,19876,19893,19909,19925,19942,19959,19976,19992,20010,20026,20043,20059,20076,20092,20110,20125,20142,20159,20176,20193,20209,20225,20243,20261,20275,20293,20309,20326,20344,20361,20378,20394,20411,20427,20443,20459,20476,20493,20509,20526,20543,20559,20575,20592,20608,20626,20642,20659,20677,20693,20710,20727,20743,20759,20777,20792,20808,20826,20843,20861,20878,20894,20909,20927,20943,20961,20978,20994,21011,21026,21044,21060,21076,21094,21108,21126,21141,21161,21175,21192,21209,21226,21244,21258,21277,21294,21310,21327,21343,21359,21377,21393,21409,21427,21442,21462,21478,21494,21511,21527,21545,21560,21577,21594,21612,21627,21643,21659,21675,21694,21709,21727,21743,21760,21776,21793,21810,21827,21844,21859,21876,21894,21911,21927,21942,21961,21977,21993,22009,22026,22043,22058,22076,22092,22108,22125,22144,22161,22176,22194,22209,22226,22243,22258,22275,22292,22307,22324,22342,22359,22375,22391,22408,22424,22442,22458,22475,22492,22509,22525,22541,22558,22575,22594,22609,22626,22642,22661,22676,22693,22710,22726,22742,22758,22775,22792,22808,22825,22841,22859,22877,22893,22911,22927,22943,22959,22976,22992,23010,23026,23043,23058,23076,23092,23109,23125,23144,23159,23176,23193,23208,23225,23247,23259,23275,23292,23309,23327,23342,23358,23375,23392,23408,23425,23444,23460,23477,23492,23509,23525,23541,23557,23574,23592,23607,23626,23642,23659,23675,23692,23707,23725,23742,23760,23776,23794,23812,23828,23846,23861,23879,23894,23910,23926,23943,23960,23977,23993,24010,24026,24043,24063,24078,24095,24111,24128,24143,24159,24176,24194,24210,24227,24243,24260,24277,24292,24310,24328,24344,24362,24377,24394,24410,24427,24443,24459,24476,24493,24511,24528,24544,24560,24577,24593,24611,24628,24646,24662,24677,24694,24711,24727,24745,24761,24777,24794,24809,24827,24844,24860,24876,24894,24911,24927,24944,24960,24977,24994,25010,25028,25044,25060,25077,25094,25111,25127,25144,25161,25178,25194,25210,25227,25244,25260,25276,25293,25310,25327,25345,25361,25376,25393,25409,25427,25445,25462,25477,25495,25511,25527,25543,25560,25576,25594,25609,25627,25643,25661,25676,25693,25711,25727,25742,25761,25778,25794,25810,25827,25843,25860,25876,25893,25909,25926,25943,25960,25976,25992,26010,26026,26042,26059,26075,26093,26109,26126,26142,26159,26176,26194,26212,26227,26244,26261,26277,26292,26309,26325,26341,26359,26376,26392,26410,26426,26442,26461,26477,26494,26510,26525,26542,26558,26575,26591,26608,26625,26641,26659,26676,26692,26709,26725,26742,26759,26774,26792,26809,26825,26842,26861,26876,26891,26910,26926,26945,26961,26976,26994,27011,27028,27043,27059,27076,27092,27109,27125,27141,27159,27175,27194,27209,27226,27242,27259,27275,27292,27309,27326,27342,27359,27375,27393,27411,27427,27443,27461,27476,27492,27509,27525,27542,27559,27575,27594,27610,27627,27644,27660,27676,27694,27709,27724,27743,27761,27777,27793,27810,27828,27844,27861,27879,27895,27912,27929,27944,27960,27976,27996,28010,28027,28043,28060,28077,28093,28111,28129,28144,28160,28177,28193,28210,28226,28243,28260,28283,28294,28312,28328,28347,28361,28379,28395,28411,28428,28444,28461,28477,28495,28513,28529,28544,28561,28579,28594,28611,28626,28644,28661,28677,28694,28710,28727,28743,28760,28777,28793,28811,28827,28844,28861,28878,28895,28912,28929,28945,28961,28979,28995,29012,29029,29045,29062,29078,29094,29111,29128,29144,29161,29177,29194,29210,29227,29243,29261,29277,29294,29312,29328,29344,29360,29377,29394,29411,29427,29444,29461,29477,29494,29510,29526,29544,29560,29578,29593,29613,29629,29644,29662,29678,29695,29712,29728,29745,29762,29778,29795,29812,29828,29845,29861,29878,29895,29911,29927,29942,29962,29977,29994,30011,30027,30044,30061,30077,30095,30109,30127,30143,30160,30175,30192,30210,30226,30243,30259,30276,30292,30309,30326,30343,30359,30377,30395,30410,30427,30443,30462,30476,30493,30509,30526,30544,30559,30575,30592,30610,30627,30642,30660,30677,30694,30710,30726,30743,30759,30776,30792,30810,30828,30844,30861,30877,30893,30912,30926,30943,30959,30976,30993,31010,31027,31043,31060,31077,31093,31110,31126,31144,31160,31177,31194,31211,31226,31244,31261,31277,31294,31311,31327,31343,31360,31377,31393,31411,31427,31443,31460,31476,31493,31509,31527,31542,31561,31578,31592,31609,31626,31644,31660,31676,31693,31711,31728,31744,31761,31779,31796,31811,31827,31846,31862,31878,31895,31910,31928,31945,31962,31979,31995,32015,32031,32045,32062,32076,32093,32110,32127,32143,32161,32178,32196,32213,32229,32246,32263,32278,32295,32310,32327,32344,32361,32378,32395,32412,32429,32446,32461,32478,32495,32512,32528,32544,32561,32577,32593,32610,32628,32645,32661,32678,32695,32712,32728,32747,32762,32778,32795,32811,32829,32845,32861,32878,32893,32911,32928,32945,32960,32978,32995,33010,33027,33044,33061,33079,33096,33111,33128,33147,33162,33180,33197,33212,33229,33245,33262,33279,33296,33312,33328,33346,33361,33379,33395,33413,33436,33448,33463,33480,33495,33512,33528,33545,33561,33578,33597,33613,33628,33646,33663,33678,33695,33711,33728,33745,33761,33777,33797,33812,33829,33845,33861,33877,33894,33912,33927,33944,33964,33978,33993,34011,34029,34046,34061,34079,34094,34110,34127,34144,34160,34177,34197,34211,34229,34245,34261,34278,34295,34313,34330,34344,34361,34379,34393,34409,34426,34445,34463,34479,34493,34509,34526,34543,34559,34577,34593,34610,34625,34643,34660,34678,34695,34710,34726,34745,34760,34777,34794,34810,34827,34843,34860,34875,34893,34909,34926,34943,34960,34977,34993,35010,35027,35043,35060,35076,35094,35111,35127,35144,35160,35177,35194,35210,35227,35244,35260,35277,35294,35310,35326,35344,35361,35377,35394,35411,35428,35444,35461,35477,35494,35511,35527,35545,35561,35577,35595,35612,35627,35644,35660,35677,35694,35710,35727,35744,35762,35778,35795,35811,35827,35845,35860,35877,35895,35910,35927,35944,35961,35979,35996,36011,36028,36044,36061,36078,36095,36112,36129,36146,36161,36179,36195,36211,36228,36244,36261,36278,36295,36312,36328,36345,36361,36378,36395,36411,36428,36445,36461,36478,36494,36511,36528,36545,36562,36579,36595,36611,36628,36645,36662,36679,36696,36714,36729,36746,36761,36778,36795,36811,36828,36846,36861,36878,36895,36911,36928,36945,36961,36978,36995,37011,37028,37045,37061,37079,37095,37113,37128,37146,37161,37179,37196,37212,37229,37245,37261,37278,37295,37313,37328,37345,37362,37379,37395,37412,37429,37446,37463,37479,37495,37511,37529,37545,37561,37579,37595,37613,37628,37644,37662,37678,37695,37717,37729,37745,37761,37777,37794,37811,37827,37845,37861,37877,37896,37911,37928,37945,37961,37981,37996,38012,38028,38045,38062,38079,38095,38112,38128,38144,38162,38178,38194,38211,38227,38244,38261,38278,38295,38312,38328,38344,38361,38378,38394,38412,38428,38445,38460,38477,38494,38511,38528,38545,38561,38578,38594,38612,38628,38644,38662,38678,38694,38710,38728,38745,38761,38778,38794,38811,38828,38844,38861,38880,38895,38913,38927,38945,38961,38977,38994,39011,39028,39045,39061,39078,39095,39111,39128,39145,39161,39178,39194,39211,39232,39261,39278,39295,39312,39327,39345,39362,39378,39394,39411,39429,39445,39461,39478,39494,39511,39528,39544,39561,39577,39594,39612,39627,39645,39662,39677,39693,39714],"hit":[null],"x":[-2.183673469387755,0.023809523809523808,0.023809523809523808,0.023809523809523808,0.023809523809523808,0.023809523809523808,0.023809523809523808,0.023809523809523808,0.023809523809523808,0.023809523809523808,0.023809523809523808,0.023809523809523808,0.023809523809523808,0.023809523809523808,0.034013605442176874,0.07142857142857142,0.11224489795918367,0.1598639455782313,0.22108843537414966,0.29591836734693877,0.391156462585034,0.48299319727891155,0.5476190476190477,0.5952380952380952,0.6224489795918368,0.6224489795918368,0.6326530612244898,0.6326530612244898,0.6326530612244898,0.6326530612244898,0.6326530612244898,0.6326530612244898,0.6326530612244898,0.6326530612244898,0.6326530612244898,0.6326530612244898,0.6326530612244898,0.6326530612244898,0.6326530612244898,0.6326530612244898,0.6326530612244898,0.6326530612244898,0.6326530612244898,0.6326530612244898,0.6326530612244898,0.6326530612244898,0.6326530612244898,0.6326530612244898,0.6326530612244898,0.6326530612244898,0.6326530612244898,0.6326530612244898,0.6326530612244898,0.6326530612244898,0.6326530612244898,0.6326530612244898,0.6326530612244898,0.6326530612244898,0.6326530612244898,0.6326530612244898,0.6360544217687075,0.6394557823129252,0.6394557823129252,0.6530612244897959,0.6564625850340136,0.6564625850340136,0.6564625850340136,0.6564625850340136,0.6564625850340136,0.673469387755102,0.673469387755102,0.6768707482993197,0.7108843537414966,0.7210884353741497,0.7414965986394558,0.7619047619047619,0.7789115646258503,0.7857142857142857,0.7857142857142857,0.7891156462585034,0.7891156462585034,0.7959183673469388,0.8095238095238095,0.826530612244898,0.8435374149659864,0.8639455782312925,0.8775510204081632,0.8945578231292517,0.8979591836734694,0.9047619047619048,0.9013605442176871,0.8979591836734694,0.9081632653061225,0.9115646258503401,0.9115646258503401,0.9115646258503401,0.9115646258503401,0.9115646258503401,0.9115646258503401,0.9115646258503401,0.9115646258503401,0.9183673469387755,0.9897959183673469,1.0850340136054422,1.1360544217687074,1.1394557823129252,1.1496598639455782,1.1768707482993197,1.2210884353741496,1.227891156462585,1.227891156462585,1.227891156462585,1.227891156462585,1.227891156462585,1.227891156462585,1.227891156462585,1.227891156462585,1.227891156462585,1.227891156462585,1.227891156462585,1.227891156462585,1.227891156462585,1.227891156462585,1.227891156462585,1.227891156462585,1.227891156462585,1.227891156462585,1.227891156462585,1.227891156462585,1.227891156462585,1.227891156462585,1.227891156462585,1.227891156462585,1.227891156462585,1.227891156462585,1.227891156462585,1.227891156462585,1.227891156462585,1.227891156462585,1.227891156462585,1.227891156462585,1.227891156462585,1.227891156462585,1.227891156462585,1.227891156462585,1.227891156462585,1.227891156462585,1.227891156462585,1.227891156462585,1.227891156462585,1.227891156462585,1.227891156462585,1.227891156462585,1.227891156462585,1.227891156462585,1.227891156462585,1.227891156462585,1.2312925170068028,1.2346938775510203,1.248299319727891,1.251700680272109,1.251700680272109,1.251700680272109,1.2448979591836735,1.2380952380952381,1.227891156462585,1.2142857142857142,1.2074829931972788,1.1870748299319729,1.1564625850340136,1.1088435374149659,1.0578231292517006,1.0238095238095237,0.9931972789115646,0.9625850340136054,0.935374149659864,0.9047619047619048,0.8605442176870748,0.8061224489795918,0.7619047619047619,0.7074829931972789,0.6530612244897959,0.6122448979591837,0.5952380952380952,0.5850340136054422,0.5850340136054422,0.5850340136054422,0.5850340136054422,0.5850340136054422,0.5850340136054422,0.5816326530612245,0.5782312925170068,0.5714285714285714,0.564625850340136,0.564625850340136,0.564625850340136,0.564625850340136,0.564625850340136,0.5374149659863946,0.5034013605442177,0.47278911564625853,0.4557823129251701,0.4387755102040816,0.42857142857142855,0.42517006802721086,0.41836734693877553,0.3979591836734694,0.37755102040816324,0.35374149659863946,0.3333333333333333,0.3129251700680272,0.29931972789115646,0.2891156462585034,0.2755102040816326,0.272108843537415,0.2619047619047619,0.25510204081632654,0.24829931972789115,0.23129251700680273,0.21428571428571427,0.20068027210884354,0.1870748299319728,0.18027210884353742,0.17346938775510204,0.16666666666666666,0.1598639455782313,0.14965986394557823,0.1360544217687075,0.1326530612244898,0.12244897959183673,0.11904761904761904,0.11904761904761904,0.11904761904761904,0.11904761904761904,0.1292517006802721,0.1326530612244898,0.13945578231292516,0.14285714285714285,0.14285714285714285,0.14625850340136054,0.14625850340136054,0.14625850340136054,0.14625850340136054,0.14965986394557823,0.15306122448979592,0.15306122448979592,0.15306122448979592,0.15306122448979592,0.15306122448979592,0.15306122448979592,0.15306122448979592,0.15306122448979592,0.15306122448979592,0.15306122448979592,0.15306122448979592,0.15306122448979592,0.15306122448979592,0.15306122448979592,0.15306122448979592,0.15306122448979592,0.15306122448979592,0.15306122448979592,0.15306122448979592,0.1564625850340136,0.1564625850340136,0.1564625850340136,0.1564625850340136,0.1564625850340136,0.1564625850340136,0.1564625850340136,0.1564625850340136,0.1564625850340136,0.1564625850340136,0.1564625850340136,0.1564625850340136,0.1564625850340136,0.1564625850340136,0.1564625850340136,0.1564625850340136,0.1564625850340136,0.1564625850340136,0.1564625850340136,0.1564625850340136,0.1564625850340136,0.1564625850340136,0.1564625850340136,0.1564625850340136,0.1564625850340136,0.1564625850340136,0.1564625850340136,0.1564625850340136,0.1564625850340136,0.1564625850340136,0.1564625850340136,0.15306122448979592,0.14625850340136054,0.13945578231292516,0.1360544217687075,0.1326530612244898,0.1326530612244898,0.1326530612244898,0.1360544217687075,0.13945578231292516,0.14285714285714285,0.14965986394557823,0.1564625850340136,0.16326530612244897,0.16666666666666666,0.17687074829931973,0.18027210884353742,0.1870748299319728,0.19387755102040816,0.20068027210884354,0.20408163265306123,0.20748299319727892,0.20748299319727892,0.20748299319727892,0.20748299319727892,0.20748299319727892,0.21428571428571427,0.21768707482993196,0.21768707482993196,0.21768707482993196,0.21768707482993196,0.21768707482993196,0.21768707482993196,0.21768707482993196,0.21768707482993196,0.21768707482993196,0.21768707482993196,0.22108843537414966,0.23469387755102042,0.24829931972789115,0.2619047619047619,0.2687074829931973,0.2755102040816326,0.29591836734693877,0.3197278911564626,0.3469387755102041,0.3843537414965986,0.4217687074829932,0.4387755102040816,0.4421768707482993,0.4421768707482993,0.4421768707482993,0.4387755102040816,0.43537414965986393,0.43537414965986393,0.43537414965986393,0.43537414965986393,0.43537414965986393,0.43537414965986393,0.43537414965986393,0.43537414965986393,0.4387755102040816,0.445578231292517,0.4489795918367347,0.4523809523809524,0.46258503401360546,0.47278911564625853,0.47619047619047616,0.48639455782312924,0.4897959183673469,0.5,0.5,0.5,0.5,0.5,0.5,0.5,0.5,0.5,0.5,0.5,0.5,0.5,0.5,0.5,0.5,0.5,0.5,0.5,0.5,0.5,0.5,0.5,0.5,0.5,0.5,0.5,0.5,0.5,0.5,0.5,0.5,0.5,0.5,0.5,0.5,0.5,0.5,0.5,0.5,0.5,0.5,0.5,0.5,0.5,0.5,0.5,0.5,0.5,0.5,0.5,0.5,0.5,0.5,0.5,0.5,0.5,0.5,0.5,0.5,0.5,0.5,0.5,0.5,0.5,0.5,0.5,0.5,0.5,0.5,0.5,0.5,0.5,0.5,0.5,0.5,0.5,0.5,0.5,0.5,0.5,0.5,0.5,0.5,0.5,0.5,0.5136054421768708,0.5340136054421769,0.5544217687074829,0.5918367346938775,0.6700680272108843,0.7721088435374149,0.891156462585034,1.0170068027210883,1.1326530612244898,1.1904761904761905,1.2108843537414966,1.2108843537414966,1.2108843537414966,1.2108843537414966,1.2142857142857142,1.2312925170068028,1.2448979591836735,1.2551020408163265,1.2619047619047619,1.2653061224489797,1.2687074829931972,1.2653061224489797,1.2619047619047619,1.2585034013605443,1.251700680272109,1.248299319727891,1.2414965986394557,1.2414965986394557,1.2380952380952381,1.2380952380952381,1.2346938775510203,1.2346938775510203,1.2312925170068028,1.227891156462585,1.2244897959183674,1.2244897959183674,1.2210884353741496,1.2210884353741496,1.2210884353741496,1.2210884353741496,1.2210884353741496,1.2210884353741496,1.2210884353741496,1.2210884353741496,1.2210884353741496,1.2210884353741496,1.2210884353741496,1.2210884353741496,1.2210884353741496,1.2210884353741496,1.2210884353741496,1.2210884353741496,1.2210884353741496,1.2210884353741496,1.2210884353741496,1.2210884353741496,1.2210884353741496,1.2210884353741496,1.2210884353741496,1.2210884353741496,1.2210884353741496,1.2210884353741496,1.217687074829932,1.2108843537414966,1.1938775510204083,1.1870748299319729,1.1802721088435375,1.1802721088435375,1.1802721088435375,1.1802721088435375,1.1802721088435375,1.1802721088435375,1.1802721088435375,1.1802721088435375,1.1802721088435375,1.1802721088435375,1.1802721088435375,1.1802721088435375,1.1802721088435375,1.1768707482993197,1.1768707482993197,1.1734693877551021,1.1666666666666667,1.163265306122449,1.153061224489796,1.1428571428571428,1.1360544217687074,1.1258503401360545,1.1156462585034013,1.1020408163265305,1.0714285714285714,1.0068027210884354,0.9489795918367347,0.8843537414965986,0.8129251700680272,0.7585034013605442,0.7346938775510204,0.7210884353741497,0.7074829931972789,0.6836734693877551,0.6700680272108843,0.6530612244897959,0.6258503401360545,0.6020408163265306,0.5816326530612245,0.564625850340136,0.5578231292517006,0.5510204081632653,0.54421768707483,0.5306122448979592,0.5204081632653061,0.5102040816326531,0.4965986394557823,0.47959183673469385,0.4489795918367347,0.4217687074829932,0.3877551020408163,0.36394557823129253,0.35374149659863946,0.3435374149659864,0.3401360544217687,0.3401360544217687,0.3401360544217687,0.3401360544217687,0.3401360544217687,0.3401360544217687,0.35714285714285715,0.3877551020408163,0.41836734693877553,0.445578231292517,0.47959183673469385,0.5204081632653061,0.5612244897959183,0.5816326530612245,0.5918367346938775,0.5918367346938775,0.5918367346938775,0.5918367346938775,0.5952380952380952,0.5952380952380952,0.5952380952380952,0.5952380952380952,0.5952380952380952,0.5952380952380952,0.5952380952380952,0.5952380952380952,0.5952380952380952,0.5952380952380952,0.6020408163265306,0.6292517006802721,0.6700680272108843,0.6972789115646258,0.7142857142857143,0.717687074829932,0.717687074829932,0.717687074829932,0.717687074829932,0.717687074829932,0.717687074829932,0.7210884353741497,0.7210884353741497,0.7244897959183674,0.7482993197278912,0.7687074829931972,0.7891156462585034,0.8231292517006803,0.8503401360544217,0.8639455782312925,0.8673469387755102,0.8673469387755102,0.8673469387755102,0.8673469387755102,0.8673469387755102,0.8571428571428571,0.8367346938775511,0.8095238095238095,0.7687074829931972,0.7278911564625851,0.6700680272108843,0.6326530612244898,0.6122448979591837,0.6054421768707483,0.6054421768707483,0.6054421768707483,0.6054421768707483,0.6054421768707483,0.6020408163265306,0.5918367346938775,0.5680272108843537,0.5340136054421769,0.5,0.4523809523809524,0.40816326530612246,0.36394557823129253,0.3401360544217687,0.32653061224489793,0.32653061224489793,0.3231292517006803,0.3231292517006803,0.3231292517006803,0.3231292517006803,0.3231292517006803,0.3231292517006803,0.3231292517006803,0.3231292517006803,0.3231292517006803,0.3163265306122449,0.3129251700680272,0.3129251700680272,0.30952380952380953,0.30272108843537415,0.29931972789115646,0.29591836734693877,0.2925170068027211,0.2925170068027211,0.3129251700680272,0.3469387755102041,0.391156462585034,0.42517006802721086,0.46258503401360546,0.48299319727891155,0.48639455782312924,0.48639455782312924,0.48639455782312924,0.4897959183673469,0.4931972789115646,0.5034013605442177,0.5306122448979592,0.5782312925170068,0.6156462585034014,0.6530612244897959,0.673469387755102,0.6836734693877551,0.6836734693877551,0.6836734693877551,0.6836734693877551,0.6836734693877551,0.6938775510204082,0.7040816326530612,0.7142857142857143,0.7278911564625851,0.7482993197278912,0.7653061224489796,0.782312925170068,0.8027210884353742,0.8197278911564626,0.8197278911564626,0.8197278911564626,0.8197278911564626,0.8197278911564626,0.8197278911564626,0.8197278911564626,0.8197278911564626,0.8197278911564626,0.8197278911564626,0.8197278911564626,0.8197278911564626,0.8197278911564626,0.8197278911564626,0.8197278911564626,0.8231292517006803,0.8231292517006803,0.8231292517006803,0.8197278911564626,0.7993197278911565,0.7755102040816326,0.7414965986394558,0.7142857142857143,0.6938775510204082,0.6836734693877551,0.6802721088435374,0.673469387755102,0.6666666666666666,0.6598639455782312,0.6564625850340136,0.6564625850340136,0.6564625850340136,0.6496598639455783,0.6394557823129252,0.6292517006802721,0.6224489795918368,0.6054421768707483,0.5884353741496599,0.5816326530612245,0.5714285714285714,0.5714285714285714,0.5714285714285714,0.5680272108843537,0.564625850340136,0.564625850340136,0.5612244897959183,0.5612244897959183,0.5612244897959183,0.5612244897959183,0.5612244897959183,0.5612244897959183,0.5612244897959183,0.5612244897959183,0.5612244897959183,0.5612244897959183,0.5612244897959183,0.5612244897959183,0.5612244897959183,0.5612244897959183,0.5612244897959183,0.5612244897959183,0.5578231292517006,0.5578231292517006,0.5578231292517006,0.5578231292517006,0.5578231292517006,0.5578231292517006,0.5578231292517006,0.5578231292517006,0.5578231292517006,0.5578231292517006,0.5578231292517006,0.5578231292517006,0.5578231292517006,0.5578231292517006,0.5612244897959183,0.5612244897959183,0.564625850340136,0.5680272108843537,0.5748299319727891,0.5816326530612245,0.5850340136054422,0.5884353741496599,0.5884353741496599,0.5986394557823129,0.608843537414966,0.6190476190476191,0.6326530612244898,0.6428571428571429,0.6564625850340136,0.6700680272108843,0.6802721088435374,0.7006802721088435,0.7210884353741497,0.7346938775510204,0.7414965986394558,0.7482993197278912,0.7482993197278912,0.7551020408163265,0.7619047619047619,0.7687074829931972,0.7789115646258503,0.782312925170068,0.7925170068027211,0.7959183673469388,0.7993197278911565,0.7993197278911565,0.7993197278911565,0.7993197278911565,0.8027210884353742,0.8027210884353742,0.8027210884353742,0.8027210884353742,0.8027210884353742,0.8027210884353742,0.8027210884353742,0.8027210884353742,0.8027210884353742,0.8027210884353742,0.7993197278911565,0.7959183673469388,0.7925170068027211,0.7857142857142857,0.7789115646258503,0.7687074829931972,0.7585034013605442,0.7517006802721088,0.7414965986394558,0.7312925170068028,0.7244897959183674,0.7108843537414966,0.7040816326530612,0.6904761904761905,0.6768707482993197,0.6666666666666666,0.6598639455782312,0.6496598639455783,0.6292517006802721,0.6020408163265306,0.5782312925170068,0.5578231292517006,0.5408163265306123,0.5272108843537415,0.5,0.48639455782312924,0.47278911564625853,0.46938775510204084,0.46938775510204084,0.46598639455782315,0.4557823129251701,0.445578231292517,0.4387755102040816,0.43197278911564624,0.41836734693877553,0.4013605442176871,0.3741496598639456,0.336734693877551,0.2857142857142857,0.23809523809523808,0.21428571428571427,0.2108843537414966,0.20748299319727892,0.20748299319727892,0.20748299319727892,0.20748299319727892,0.2108843537414966,0.2108843537414966,0.21428571428571427,0.22108843537414966,0.22448979591836735,0.23809523809523808,0.24829931972789115,0.25510204081632654,0.2619047619047619,0.2619047619047619,0.2619047619047619,0.2619047619047619,0.2619047619047619,0.2619047619047619,0.2619047619047619,0.2619047619047619,0.2619047619047619,0.2619047619047619,0.2619047619047619,0.2619047619047619,0.2755102040816326,0.3163265306122449,0.36054421768707484,0.42857142857142855,0.5306122448979592,0.6428571428571429,0.7585034013605442,0.8469387755102041,0.891156462585034,0.9115646258503401,0.9217687074829932,0.9217687074829932,0.9183673469387755,0.9183673469387755,0.9183673469387755,0.9183673469387755,0.9183673469387755,0.9183673469387755,0.9183673469387755,0.9183673469387755,0.9183673469387755,0.9183673469387755,0.9183673469387755,0.9183673469387755,0.9183673469387755,0.9183673469387755,0.9183673469387755,0.9183673469387755,0.9183673469387755,0.9183673469387755,0.9183673469387755,0.9183673469387755,0.9115646258503401,0.8843537414965986,0.8367346938775511,0.7789115646258503,0.7278911564625851,0.6598639455782312,0.5816326530612245,0.5374149659863946,0.5238095238095238,0.5238095238095238,0.5238095238095238,0.5238095238095238,0.5238095238095238,0.5238095238095238,0.5170068027210885,0.4931972789115646,0.46598639455782315,0.4387755102040816,0.40476190476190477,0.3741496598639456,0.35034013605442177,0.3299319727891156,0.29931972789115646,0.272108843537415,0.24149659863945577,0.21768707482993196,0.20408163265306123,0.20408163265306123,0.20408163265306123,0.20408163265306123,0.20408163265306123,0.20068027210884354,0.19727891156462585,0.19387755102040816,0.19047619047619047,0.18027210884353742,0.17687074829931973,0.17346938775510204,0.17006802721088435,0.16666666666666666,0.16666666666666666,0.16666666666666666,0.16666666666666666,0.16666666666666666,0.16666666666666666,0.16666666666666666,0.16666666666666666,0.16666666666666666,0.16666666666666666,0.16666666666666666,0.16666666666666666,0.16666666666666666,0.16666666666666666,0.16666666666666666,0.16666666666666666,0.16666666666666666,0.16666666666666666,0.16666666666666666,0.16666666666666666,0.16666666666666666,0.16666666666666666,0.16666666666666666,0.16666666666666666,0.16666666666666666,0.16666666666666666,0.16666666666666666,0.16666666666666666,0.16666666666666666,0.16666666666666666,0.16666666666666666,0.16666666666666666,0.16666666666666666,0.16666666666666666,0.16666666666666666,0.16666666666666666,0.16666666666666666,0.16666666666666666,0.16666666666666666,0.16666666666666666,0.16666666666666666,0.16666666666666666,0.16666666666666666,0.16666666666666666,0.16666666666666666,0.16666666666666666,0.16666666666666666,0.16666666666666666,0.16666666666666666,0.16666666666666666,0.16666666666666666,0.16666666666666666,0.16666666666666666,0.16666666666666666,0.16666666666666666,0.18027210884353742,0.19387755102040816,0.21768707482993196,0.24149659863945577,0.2653061224489796,0.2857142857142857,0.29591836734693877,0.30612244897959184,0.3129251700680272,0.3163265306122449,0.3163265306122449,0.3163265306122449,0.3163265306122449,0.3163265306122449,0.3163265306122449,0.3163265306122449,0.3163265306122449,0.3163265306122449,0.3197278911564626,0.3197278911564626,0.3197278911564626,0.3197278911564626,0.3197278911564626,0.3197278911564626,0.3197278911564626,0.3197278911564626,0.3197278911564626,0.3197278911564626,0.3197278911564626,0.3197278911564626,0.3197278911564626,0.3197278911564626,0.3197278911564626,0.3197278911564626,0.3197278911564626,0.3163265306122449,0.3163265306122449,0.3163265306122449,0.3163265306122449,0.3163265306122449,0.3129251700680272,0.3129251700680272,0.3129251700680272,0.30272108843537415,0.30272108843537415,0.2891156462585034,0.2857142857142857,0.282312925170068,0.282312925170068,0.282312925170068,0.282312925170068,0.282312925170068,0.282312925170068,0.282312925170068,0.282312925170068,0.282312925170068,0.282312925170068,0.282312925170068,0.282312925170068,0.282312925170068,0.282312925170068,0.2789115646258503,0.2789115646258503,0.29591836734693877,0.3197278911564626,0.35034013605442177,0.3741496598639456,0.40476190476190477,0.43537414965986393,0.46938775510204084,0.5068027210884354,0.5476190476190477,0.5850340136054422,0.608843537414966,0.6326530612244898,0.6496598639455783,0.6530612244897959,0.6598639455782312,0.6632653061224489,0.6666666666666666,0.6700680272108843,0.6802721088435374,0.6836734693877551,0.6938775510204082,0.7040816326530612,0.7142857142857143,0.7210884353741497,0.7312925170068028,0.7312925170068028,0.7346938775510204,0.7346938775510204,0.7346938775510204,0.7346938775510204,0.7346938775510204,0.7346938775510204,0.7346938775510204,0.7346938775510204,0.7346938775510204,0.7346938775510204,0.7346938775510204,0.7346938775510204,0.7346938775510204,0.7346938775510204,0.7346938775510204,0.7346938775510204,0.7346938775510204,0.7346938775510204,0.7346938775510204,0.7346938775510204,0.7346938775510204,0.7346938775510204,0.7346938775510204,0.7346938775510204,0.7346938775510204,0.7346938775510204,0.7346938775510204,0.7346938775510204,0.7346938775510204,0.7346938775510204,0.7346938775510204,0.7346938775510204,0.7346938775510204,0.7346938775510204,0.7346938775510204,0.7346938775510204,0.7346938775510204,0.7346938775510204,0.7346938775510204,0.7346938775510204,0.7380952380952381,0.7380952380952381,0.7414965986394558,0.7448979591836735,0.7482993197278912,0.7482993197278912,0.7517006802721088,0.7517006802721088,0.7517006802721088,0.7517006802721088,0.7517006802721088,0.7517006802721088,0.7517006802721088,0.7517006802721088,0.7517006802721088,0.7517006802721088,0.7517006802721088,0.7517006802721088,0.7517006802721088,0.7517006802721088,0.7517006802721088,0.7517006802721088,0.7517006802721088,0.7517006802721088,0.7517006802721088,0.7517006802721088,0.7517006802721088,0.7517006802721088,0.7517006802721088,0.7517006802721088,0.7517006802721088,0.7517006802721088,0.7517006802721088,0.7517006802721088,0.7517006802721088,0.7517006802721088,0.7517006802721088,0.7517006802721088,0.7517006802721088,0.7517006802721088,0.7517006802721088,0.7517006802721088,0.7517006802721088,0.7517006802721088,0.7517006802721088,0.7517006802721088,0.7517006802721088,0.7517006802721088,0.7517006802721088,0.7517006802721088,0.7517006802721088,0.7517006802721088,0.7517006802721088,0.7517006802721088,0.7517006802721088,0.7517006802721088,0.7517006802721088,0.7517006802721088,0.7517006802721088,0.7517006802721088,0.7517006802721088,0.7517006802721088,0.7517006802721088,0.7517006802721088,0.7517006802721088,0.7517006802721088,0.7517006802721088,0.7517006802721088,0.7517006802721088,0.7517006802721088,0.7517006802721088,0.7517006802721088,0.7517006802721088,0.7517006802721088,0.7517006802721088,0.7517006802721088,0.7517006802721088,0.7517006802721088,0.7517006802721088,0.7517006802721088,0.7517006802721088,0.7517006802721088,0.7517006802721088,0.7517006802721088,0.7585034013605442,0.7857142857142857,0.8163265306122449,0.8435374149659864,0.8741496598639455,0.8979591836734694,0.9081632653061225,0.9115646258503401,0.9115646258503401,0.9115646258503401,0.9115646258503401,0.9115646258503401,0.9115646258503401,0.9115646258503401,0.9115646258503401,0.9115646258503401,0.9115646258503401,0.9115646258503401,0.9115646258503401,0.9115646258503401,0.9217687074829932,0.935374149659864,0.9489795918367347,0.9625850340136054,0.9795918367346939,0.9897959183673469,0.9931972789115646,0.9931972789115646,0.9931972789115646,0.9931972789115646,0.9931972789115646,0.9863945578231292,0.9727891156462585,0.9659863945578231,0.95578231292517,0.9455782312925171,0.9387755102040817,0.9319727891156463,0.9183673469387755,0.9047619047619048,0.891156462585034,0.8809523809523809,0.8775510204081632,0.8673469387755102,0.8673469387755102,0.8673469387755102,0.8673469387755102,0.8673469387755102,0.8673469387755102,0.8673469387755102,0.8673469387755102,0.8673469387755102,0.8673469387755102,0.8673469387755102,0.8673469387755102,0.8673469387755102,0.8673469387755102,0.8673469387755102,0.8673469387755102,0.8673469387755102,0.8673469387755102,0.8673469387755102,0.8673469387755102,0.8673469387755102,0.8673469387755102,0.8673469387755102,0.8673469387755102,0.8673469387755102,0.8741496598639455,0.8775510204081632,0.8809523809523809,0.8843537414965986,0.8843537414965986,0.8843537414965986,0.8843537414965986,0.8809523809523809,0.8809523809523809,0.8775510204081632,0.8775510204081632,0.8775510204081632,0.8775510204081632,0.8775510204081632,0.8775510204081632,0.8775510204081632,0.8741496598639455,0.8707482993197279,0.8707482993197279,0.8707482993197279,0.8707482993197279,0.8707482993197279,0.8707482993197279,0.8707482993197279,0.8707482993197279,0.8673469387755102,0.8673469387755102,0.8673469387755102,0.8673469387755102,0.8673469387755102,0.8673469387755102,0.8673469387755102,0.8673469387755102,0.8673469387755102,0.8673469387755102,0.8673469387755102,0.8673469387755102,0.8673469387755102,0.8673469387755102,0.8673469387755102,0.8605442176870748,0.826530612244898,0.7925170068027211,0.7687074829931972,0.7448979591836735,0.7312925170068028,0.7278911564625851,0.7278911564625851,0.7278911564625851,0.7278911564625851,0.7278911564625851,0.7278911564625851,0.7278911564625851,0.7278911564625851,0.7278911564625851,0.7278911564625851,0.7278911564625851,0.7278911564625851,0.7278911564625851,0.7278911564625851,0.7278911564625851,0.7278911564625851,0.7278911564625851,0.7278911564625851,0.7278911564625851,0.7278911564625851,0.7278911564625851,0.7278911564625851,0.7312925170068028,0.7346938775510204,0.7380952380952381,0.7414965986394558,0.7414965986394558,0.7448979591836735,0.7482993197278912,0.7517006802721088,0.7517006802721088,0.7517006802721088,0.7517006802721088,0.7517006802721088,0.7517006802721088,0.7517006802721088,0.7517006802721088,0.7517006802721088,0.7517006802721088,0.7414965986394558,0.7312925170068028,0.7210884353741497,0.7108843537414966,0.7006802721088435,0.6972789115646258,0.6904761904761905,0.6870748299319728,0.6768707482993197,0.6632653061224489,0.6598639455782312,0.6530612244897959,0.6496598639455783,0.6496598639455783,0.6496598639455783,0.6462585034013606,0.6326530612244898,0.6224489795918368,0.6156462585034014,0.6122448979591837,0.608843537414966,0.608843537414966,0.608843537414966,0.6054421768707483,0.6020408163265306,0.6020408163265306,0.6020408163265306,0.6020408163265306,0.6020408163265306,0.6020408163265306,0.6020408163265306,0.6020408163265306,0.6020408163265306,0.6020408163265306,0.6020408163265306,0.6020408163265306,0.6020408163265306,0.6020408163265306,0.6020408163265306,0.6020408163265306,0.6020408163265306,0.6020408163265306,0.6020408163265306,0.6020408163265306,0.6020408163265306,0.6020408163265306,0.6020408163265306,0.6020408163265306,0.6020408163265306,0.6020408163265306,0.6020408163265306,0.6020408163265306,0.6020408163265306,0.5850340136054422,0.5578231292517006,0.5306122448979592,0.5034013605442177,0.48299319727891155,0.46598639455782315,0.4523809523809524,0.4523809523809524,0.4489795918367347,0.4489795918367347,0.4489795918367347,0.4489795918367347,0.4489795918367347,0.4489795918367347,0.4489795918367347,0.4489795918367347,0.4489795918367347,0.4557823129251701,0.46598639455782315,0.47278911564625853,0.47278911564625853,0.47619047619047616,0.47619047619047616,0.47619047619047616,0.47619047619047616,0.47619047619047616,0.47619047619047616,0.47619047619047616,0.47619047619047616,0.47619047619047616,0.47619047619047616,0.47619047619047616,0.47619047619047616,0.47278911564625853,0.47278911564625853,0.46938775510204084,0.46598639455782315,0.46598639455782315,0.46598639455782315,0.46598639455782315,0.46598639455782315,0.46598639455782315,0.46598639455782315,0.46598639455782315,0.46598639455782315,0.46598639455782315,0.46598639455782315,0.46598639455782315,0.46598639455782315,0.46598639455782315,0.46598639455782315,0.46258503401360546,0.46258503401360546,0.45918367346938777,0.4557823129251701,0.4523809523809524,0.445578231292517,0.445578231292517,0.43537414965986393,0.43197278911564624,0.4217687074829932,0.41836734693877553,0.41836734693877553,0.41836734693877553,0.41836734693877553,0.40816326530612246,0.40476190476190477,0.3979591836734694,0.3877551020408163,0.37755102040816324,0.3673469387755102,0.36394557823129253,0.36054421768707484,0.35374149659863946,0.35034013605442177,0.3469387755102041,0.3435374149659864,0.3333333333333333,0.3333333333333333,0.3299319727891156,0.3231292517006803,0.3231292517006803,0.3197278911564626,0.30952380952380953,0.30612244897959184,0.30272108843537415,0.29931972789115646,0.29931972789115646,0.29591836734693877,0.29591836734693877,0.29591836734693877,0.29591836734693877,0.29591836734693877,0.29591836734693877,0.29591836734693877,0.29591836734693877,0.29591836734693877,0.29591836734693877,0.29591836734693877,0.29591836734693877,0.29591836734693877,0.29591836734693877,0.2925170068027211,0.2857142857142857,0.282312925170068,0.2789115646258503,0.2755102040816326,0.2755102040816326,0.2755102040816326,0.2755102040816326,0.2755102040816326,0.2755102040816326,0.2755102040816326,0.2755102040816326,0.2755102040816326,0.2755102040816326,0.2755102040816326,0.2755102040816326,0.2755102040816326,0.2789115646258503,0.282312925170068,0.2891156462585034,0.2925170068027211,0.2925170068027211,0.2925170068027211,0.2925170068027211,0.2925170068027211,0.2925170068027211,0.2925170068027211,0.2925170068027211,0.2925170068027211,0.2925170068027211,0.2925170068027211,0.2925170068027211,0.2925170068027211,0.2925170068027211,0.2925170068027211,0.2925170068027211,0.2925170068027211,0.2925170068027211,0.2925170068027211,0.2925170068027211,0.2925170068027211,0.2925170068027211,0.2925170068027211,0.2925170068027211,0.3231292517006803,0.36394557823129253,0.3945578231292517,0.41836734693877553,0.42857142857142855,0.43197278911564624,0.43197278911564624,0.43197278911564624,0.43197278911564624,0.43197278911564624,0.43197278911564624,0.43197278911564624,0.43197278911564624,0.43197278911564624,0.43197278911564624,0.43197278911564624,0.43197278911564624,0.43197278911564624,0.43197278911564624,0.42857142857142855,0.42857142857142855,0.42857142857142855,0.42857142857142855,0.42857142857142855,0.42857142857142855,0.42857142857142855,0.42857142857142855,0.42857142857142855,0.42857142857142855,0.42857142857142855,0.42857142857142855,0.42857142857142855,0.42857142857142855,0.42857142857142855,0.42857142857142855,0.42857142857142855,0.42857142857142855,0.42857142857142855,0.42857142857142855,0.42857142857142855,0.42857142857142855,0.42857142857142855,0.42857142857142855,0.42857142857142855,0.42857142857142855,0.43537414965986393,0.43537414965986393,0.43537414965986393,0.43537414965986393,0.43537414965986393,0.43537414965986393,0.43537414965986393,0.43197278911564624,0.43197278911564624,0.43197278911564624,0.43197278911564624,0.43197278911564624,0.43197278911564624,0.43197278911564624,0.43197278911564624,0.43197278911564624,0.43197278911564624,0.43197278911564624,0.43197278911564624,0.43197278911564624,0.43197278911564624,0.43197278911564624,0.43197278911564624,0.43197278911564624,0.43197278911564624,0.43197278911564624,0.43197278911564624,0.41156462585034015,0.37755102040816324,0.3333333333333333,0.29591836734693877,0.2687074829931973,0.25510204081632654,0.25510204081632654,0.25510204081632654,0.25510204081632654,0.25510204081632654,0.25510204081632654,0.24829931972789115,0.24489795918367346,0.24489795918367346,0.24489795918367346,0.25510204081632654,0.2585034013605442,0.2585034013605442,0.2585034013605442,0.2585034013605442,0.2585034013605442,0.2585034013605442,0.2585034013605442,0.2585034013605442,0.2585034013605442,0.2585034013605442,0.2585034013605442,0.2585034013605442,0.24829931972789115,0.22448979591836735,0.19727891156462585,0.17346938775510204,0.1598639455782313,0.1598639455782313,0.1598639455782313,0.1598639455782313,0.15306122448979592,0.15306122448979592,0.15306122448979592,0.15306122448979592,0.15306122448979592,0.15306122448979592,0.14625850340136054,0.14625850340136054,0.14625850340136054,0.14625850340136054,0.14625850340136054,0.14625850340136054,0.14625850340136054,0.14625850340136054,0.14625850340136054,0.14625850340136054,0.14625850340136054,0.14625850340136054,0.14625850340136054,0.12244897959183673,0.09183673469387756,0.05442176870748299,0.030612244897959183,0.013605442176870748,-0.01020408163265306,-0.017006802721088437,-0.02040816326530612,-0.023809523809523808,-0.023809523809523808,-0.023809523809523808,-0.027210884353741496,-0.03741496598639456,-0.03741496598639456,-0.04081632653061224,-0.04081632653061224,-0.04081632653061224,-0.04081632653061224,-0.04081632653061224,-0.04081632653061224,-0.04081632653061224,-0.04081632653061224,-0.04081632653061224,-0.04081632653061224,-0.04081632653061224,-0.04081632653061224,-0.04081632653061224,-0.04081632653061224,-0.04081632653061224,-0.04081632653061224,-0.04081632653061224,-0.04081632653061224,-0.04081632653061224,-0.013605442176870748,0.006802721088435374,0.034013605442176874,0.06802721088435375,0.10204081632653061,0.1292517006802721,0.1598639455782313,0.19047619047619047,0.20748299319727892,0.22108843537414966,0.23469387755102042,0.24489795918367346,0.2585034013605442,0.2619047619047619,0.2653061224489796,0.2687074829931973,0.272108843537415,0.272108843537415,0.272108843537415,0.272108843537415,0.272108843537415,0.272108843537415,0.272108843537415,0.272108843537415,0.272108843537415,0.272108843537415,0.272108843537415,0.272108843537415,0.272108843537415,0.272108843537415,0.272108843537415,0.272108843537415,0.272108843537415,0.272108843537415,0.272108843537415,0.272108843537415,0.272108843537415,0.272108843537415,0.272108843537415,0.272108843537415,0.272108843537415,0.272108843537415,0.2755102040816326,0.2755102040816326,0.2755102040816326,0.2755102040816326,0.2755102040816326,0.2789115646258503,0.2857142857142857,0.2925170068027211,0.30612244897959184,0.3299319727891156,0.35374149659863946,0.3707482993197279,0.391156462585034,0.3979591836734694,0.40476190476190477,0.41156462585034015,0.4217687074829932,0.42517006802721086,0.42857142857142855,0.43537414965986393,0.43537414965986393,0.43537414965986393,0.43537414965986393,0.4489795918367347,0.46258503401360546,0.47619047619047616,0.4965986394557823,0.5204081632653061,0.5340136054421769,0.5476190476190477,0.5578231292517006,0.564625850340136,0.564625850340136,0.564625850340136,0.564625850340136,0.564625850340136,0.564625850340136,0.564625850340136,0.564625850340136,0.564625850340136,0.564625850340136,0.564625850340136,0.564625850340136,0.564625850340136,0.564625850340136,0.564625850340136,0.564625850340136,0.564625850340136,0.564625850340136,0.564625850340136,0.564625850340136,0.564625850340136,0.5680272108843537,0.5680272108843537,0.5680272108843537,0.5680272108843537,0.5680272108843537,0.5680272108843537,0.5680272108843537,0.5714285714285714,0.5714285714285714,0.5714285714285714,0.5714285714285714,0.5714285714285714,0.5714285714285714,0.5714285714285714,0.5680272108843537,0.5680272108843537,0.5680272108843537,0.564625850340136,0.5612244897959183,0.5612244897959183,0.5510204081632653,0.5476190476190477,0.5408163265306123,0.5374149659863946,0.5272108843537415,0.5238095238095238,0.5136054421768708,0.5034013605442177,0.4931972789115646,0.4897959183673469,0.48639455782312924,0.47619047619047616,0.47619047619047616,0.47278911564625853,0.46938775510204084,0.46938775510204084,0.46258503401360546,0.4523809523809524,0.445578231292517,0.43537414965986393,0.42517006802721086,0.40816326530612246,0.3945578231292517,0.3741496598639456,0.35374149659863946,0.3333333333333333,0.30952380952380953,0.2891156462585034,0.2619047619047619,0.24829931972789115,0.22448979591836735,0.21768707482993196,0.2108843537414966,0.19727891156462585,0.19387755102040816,0.1836734693877551,0.1836734693877551,0.18027210884353742,0.17687074829931973,0.17006802721088435,0.17006802721088435,0.17006802721088435,0.17006802721088435,0.17006802721088435,0.16666666666666666,0.16326530612244897,0.1564625850340136,0.15306122448979592,0.14965986394557823,0.14965986394557823,0.14965986394557823,0.14965986394557823,0.14965986394557823,0.14965986394557823,0.14965986394557823,0.16326530612244897,0.19047619047619047,0.24489795918367346,0.3197278911564626,0.4013605442176871,0.4965986394557823,0.6394557823129252,0.7380952380952381,0.8435374149659864,0.9183673469387755,0.9659863945578231,0.9829931972789115,0.9863945578231292,0.9863945578231292,0.9931972789115646,1.010204081632653,1.030612244897959,1.054421768707483,1.0714285714285714,1.08843537414966,1.0952380952380953,1.098639455782313,1.1020408163265305,1.1020408163265305,1.1020408163265305,1.1020408163265305,1.1020408163265305,1.1020408163265305,1.1020408163265305,1.1020408163265305,1.1020408163265305,1.1020408163265305,1.1054421768707483,1.1054421768707483,1.1054421768707483,1.1088435374149659,1.1088435374149659,1.1088435374149659,1.1088435374149659,1.1088435374149659,1.1088435374149659,1.1088435374149659,1.1122448979591837,1.129251700680272,1.1360544217687074,1.1394557823129252,1.1462585034013606,1.1462585034013606,1.1496598639455782,1.1496598639455782,1.1496598639455782,1.1496598639455782,1.1496598639455782,1.1496598639455782,1.1496598639455782,1.1496598639455782,1.1496598639455782,1.1496598639455782,1.1496598639455782,1.1496598639455782,1.1496598639455782,1.1496598639455782,1.1496598639455782,1.1496598639455782,1.1496598639455782,1.1496598639455782,1.1496598639455782,1.1496598639455782,1.1496598639455782,1.1496598639455782,1.1496598639455782,1.1496598639455782,1.1496598639455782,1.1496598639455782,1.1496598639455782,1.1496598639455782,1.1496598639455782,1.1496598639455782,1.1496598639455782,1.1496598639455782,1.1496598639455782,1.1496598639455782,1.1496598639455782,1.1496598639455782,1.1496598639455782,1.1496598639455782,1.1462585034013606,1.1428571428571428,1.1258503401360545,1.1156462585034013,1.1088435374149659,1.0952380952380953,1.0952380952380953,1.0850340136054422,1.0816326530612246,1.064625850340136,1.0612244897959184,1.054421768707483,1.0510204081632653,1.0476190476190477,1.0476190476190477,1.0442176870748299,1.0442176870748299,1.0408163265306123,1.0408163265306123,1.0408163265306123,1.030612244897959,1.0272108843537415,1.0272108843537415,1.0272108843537415,1.0238095238095237,1.0238095238095237,1.0204081632653061,1.0204081632653061,1.0170068027210883,1.0170068027210883,1.0170068027210883,1.0170068027210883,1.0136054421768708,1.0136054421768708,1.010204081632653,1.0068027210884354,1.0034013605442176,1,0.9931972789115646,0.9931972789115646,0.9897959183673469,0.9829931972789115,0.9761904761904762,0.9761904761904762,0.9727891156462585,0.9693877551020408,0.9693877551020408,0.9659863945578231,0.9591836734693877,0.95578231292517,0.9523809523809523,0.9489795918367347,0.9489795918367347,0.9489795918367347,0.9489795918367347,0.9455782312925171,0.9421768707482994,0.9421768707482994,0.9421768707482994,0.9421768707482994,0.935374149659864,0.9319727891156463,0.9285714285714286,0.9183673469387755,0.9081632653061225,0.891156462585034,0.8673469387755102,0.826530612244898,0.782312925170068,0.6836734693877551,0.5374149659863946,0.3877551020408163,0.25170068027210885,0.17346938775510204,0.1326530612244898,0.12244897959183673,0.12244897959183673,0.12585034013605442,0.12585034013605442,0.1292517006802721,0.1292517006802721,0.12585034013605442,0.12244897959183673,0.12244897959183673,0.11904761904761904,0.11904761904761904,0.11904761904761904,0.11904761904761904,0.11904761904761904,0.11904761904761904,0.11904761904761904,0.11904761904761904,0.12244897959183673,0.1360544217687075,0.16326530612244897,0.22448979591836735,0.3129251700680272,0.4523809523809524,0.6258503401360545,0.7551020408163265,0.8503401360544217,0.9149659863945578,0.935374149659864,0.935374149659864,0.935374149659864,0.935374149659864,0.935374149659864,0.935374149659864,0.9421768707482994,0.9455782312925171,0.9455782312925171,0.9455782312925171,0.9455782312925171,0.9455782312925171,0.9455782312925171,0.9455782312925171,0.9455782312925171,0.9455782312925171,0.9591836734693877,0.9625850340136054,0.9693877551020408,0.9727891156462585,0.9727891156462585,0.9727891156462585,0.9727891156462585,0.9727891156462585,0.9727891156462585,0.9727891156462585,0.9727891156462585,0.9727891156462585,0.9727891156462585,0.9727891156462585,0.9727891156462585,0.9727891156462585,0.9727891156462585,0.9727891156462585,0.9727891156462585,0.9727891156462585,0.9727891156462585,0.9727891156462585,0.9727891156462585,0.9489795918367347,0.9251700680272109,0.9047619047619048,0.8843537414965986,0.8639455782312925,0.8469387755102041,0.826530612244898,0.8095238095238095,0.7755102040816326,0.7380952380952381,0.7074829931972789,0.673469387755102,0.6598639455782312,0.6496598639455783,0.6428571428571429,0.6428571428571429,0.6428571428571429,0.6394557823129252,0.6258503401360545,0.6020408163265306,0.5748299319727891,0.5578231292517006,0.54421768707483,0.5306122448979592,0.5306122448979592,0.5306122448979592,0.5238095238095238,0.5170068027210885,0.5170068027210885,0.5204081632653061,0.5238095238095238,0.5272108843537415,0.5306122448979592,0.5306122448979592,0.5306122448979592,0.5306122448979592,0.5306122448979592,0.5340136054421769,0.5408163265306123,0.54421768707483,0.54421768707483,0.5476190476190477,0.5544217687074829,0.5578231292517006,0.564625850340136,0.5714285714285714,0.5714285714285714,0.5714285714285714,0.5714285714285714,0.5714285714285714,0.5714285714285714,0.5714285714285714,0.5714285714285714,0.5714285714285714,0.5714285714285714,0.5714285714285714,0.5714285714285714,0.5714285714285714,0.5714285714285714,0.5714285714285714,0.5714285714285714,0.5714285714285714,0.5714285714285714,0.5714285714285714,0.5714285714285714,0.5510204081632653,0.5204081632653061,0.48639455782312924,0.4489795918367347,0.4217687074829932,0.3945578231292517,0.3673469387755102,0.336734693877551,0.30612244897959184,0.272108843537415,0.24149659863945577,0.21768707482993196,0.20748299319727892,0.20068027210884354,0.19047619047619047,0.18027210884353742,0.17687074829931973,0.1598639455782313,0.15306122448979592,0.14625850340136054,0.14285714285714285,0.14285714285714285,0.14285714285714285,0.14285714285714285,0.1326530612244898,0.1326530612244898,0.1326530612244898,0.1326530612244898,0.1326530612244898,0.1326530612244898,0.1326530612244898,0.1326530612244898,0.1326530612244898,0.1292517006802721,0.12585034013605442,0.12244897959183673,0.11564625850340136,0.11224489795918367,0.1054421768707483,0.09523809523809523,0.08503401360544217,0.07142857142857142,0.061224489795918366,0.05782312925170068,0.05782312925170068,0.05102040816326531,0.047619047619047616,0.047619047619047616,0.03741496598639456,0.023809523809523808,0.017006802721088437,0.013605442176870748,0.003401360544217687,-0.003401360544217687,-0.013605442176870748,-0.027210884353741496,-0.034013605442176874,-0.04081632653061224,-0.04421768707482993,-0.04421768707482993,-0.04081632653061224,-0.03741496598639456,-0.03741496598639456,-0.03741496598639456,-0.03741496598639456,-0.03741496598639456,-0.03741496598639456,-0.03741496598639456,-0.03741496598639456,-0.03741496598639456,-0.03741496598639456,-0.03741496598639456,-0.03741496598639456,-0.03741496598639456,-0.03741496598639456,-0.03741496598639456,-0.03741496598639456,-0.03741496598639456,-0.03741496598639456,-0.03741496598639456,-0.03741496598639456,-0.03741496598639456,-0.03741496598639456,-0.03741496598639456,-0.03741496598639456,-0.03741496598639456,-0.023809523809523808,0.01020408163265306,0.047619047619047616,0.09183673469387756,0.1326530612244898,0.17346938775510204,0.22789115646258504,0.30272108843537415,0.3945578231292517,0.48639455782312924,0.5748299319727891,0.6326530612244898,0.6564625850340136,0.6598639455782312,0.6598639455782312,0.6598639455782312,0.6598639455782312,0.6598639455782312,0.6598639455782312,0.6598639455782312,0.6598639455782312,0.6598639455782312,0.6598639455782312,0.6598639455782312,0.6598639455782312,0.6598639455782312,0.6598639455782312,0.6598639455782312,0.6598639455782312,0.6598639455782312,0.6598639455782312,0.6598639455782312,0.6598639455782312,0.6598639455782312,0.6598639455782312,0.6598639455782312,0.6598639455782312,0.6598639455782312,0.6598639455782312,0.6598639455782312,0.6598639455782312,0.6598639455782312,0.6598639455782312,0.6598639455782312,0.6598639455782312,0.6598639455782312,0.6632653061224489,0.6632653061224489,0.6632653061224489,0.6632653061224489,0.6632653061224489,0.6632653061224489,0.6632653061224489,0.6700680272108843,0.6836734693877551,0.6938775510204082,0.7006802721088435,0.7040816326530612,0.7040816326530612,0.7040816326530612,0.7040816326530612,0.7040816326530612,0.7040816326530612,0.7074829931972789,0.7074829931972789,0.7074829931972789,0.7074829931972789,0.7074829931972789,0.7074829931972789,0.7074829931972789,0.7074829931972789,0.7074829931972789,0.7074829931972789,0.7108843537414966,0.7108843537414966,0.7142857142857143,0.7142857142857143,0.7142857142857143,0.7142857142857143,0.7108843537414966,0.7142857142857143,0.717687074829932,0.717687074829932,0.717687074829932,0.717687074829932,0.717687074829932,0.717687074829932,0.7210884353741497,0.7210884353741497,0.7210884353741497,0.7210884353741497,0.7244897959183674,0.7346938775510204,0.7448979591836735,0.7551020408163265,0.7653061224489796,0.7721088435374149,0.7857142857142857,0.7925170068027211,0.8095238095238095,0.8299319727891157,0.8469387755102041,0.8673469387755102],"y":[-4.285714285714286,0.6333333333333333,0.6333333333333333,0.6333333333333333,0.6333333333333333,0.6333333333333333,0.6333333333333333,0.6333333333333333,0.6333333333333333,0.6333333333333333,0.6333333333333333,0.6333333333333333,0.6333333333333333,0.6333333333333333,0.6714285714285714,0.7666666666666667,0.8523809523809524,0.9666666666666667,1.1095238095238096,1.2428571428571429,1.4238095238095239,1.5952380952380953,1.7190476190476192,1.8047619047619048,1.8428571428571427,1.8523809523809525,1.8428571428571427,1.8333333333333333,1.8333333333333333,1.8333333333333333,1.8333333333333333,1.8333333333333333,1.8333333333333333,1.8333333333333333,1.8333333333333333,1.8333333333333333,1.8333333333333333,1.8333333333333333,1.8333333333333333,1.8333333333333333,1.8333333333333333,1.8333333333333333,1.8333333333333333,1.8333333333333333,1.8333333333333333,1.8333333333333333,1.8333333333333333,1.8333333333333333,1.8333333333333333,1.8333333333333333,1.8333333333333333,1.8333333333333333,1.8333333333333333,1.8333333333333333,1.8333333333333333,1.8333333333333333,1.8333333333333333,1.8333333333333333,1.8333333333333333,1.8333333333333333,1.8333333333333333,1.8333333333333333,1.8428571428571427,1.880952380952381,1.880952380952381,1.8904761904761904,1.8904761904761904,1.8904761904761904,1.8904761904761904,1.938095238095238,1.9476190476190476,1.957142857142857,2.0142857142857142,2.052380952380952,2.1285714285714286,2.176190476190476,2.204761904761905,2.2142857142857144,2.2142857142857144,2.2142857142857144,2.1952380952380954,2.1857142857142855,2.1666666666666665,2.176190476190476,2.204761904761905,2.2142857142857144,2.2142857142857144,2.2333333333333334,2.2523809523809524,2.280952380952381,2.3476190476190477,2.4238095238095236,2.442857142857143,2.442857142857143,2.442857142857143,2.442857142857143,2.442857142857143,2.442857142857143,2.442857142857143,2.442857142857143,2.442857142857143,2.442857142857143,2.5095238095238095,2.642857142857143,2.7,2.7095238095238097,2.719047619047619,2.6904761904761907,2.5476190476190474,2.3285714285714287,2.3285714285714287,2.3285714285714287,2.3285714285714287,2.3285714285714287,2.3285714285714287,2.3285714285714287,2.3285714285714287,2.3285714285714287,2.3285714285714287,2.3285714285714287,2.3285714285714287,2.3285714285714287,2.3285714285714287,2.3285714285714287,2.3285714285714287,2.3285714285714287,2.3285714285714287,2.3285714285714287,2.3285714285714287,2.3285714285714287,2.3285714285714287,2.3285714285714287,2.3285714285714287,2.3285714285714287,2.3285714285714287,2.3285714285714287,2.3285714285714287,2.3285714285714287,2.3285714285714287,2.3285714285714287,2.3285714285714287,2.3285714285714287,2.3285714285714287,2.3285714285714287,2.3285714285714287,2.3285714285714287,2.3285714285714287,2.3285714285714287,2.3285714285714287,2.3285714285714287,2.3285714285714287,2.3285714285714287,2.3285714285714287,2.3285714285714287,2.3285714285714287,2.3380952380952382,2.3380952380952382,2.376190476190476,2.3857142857142857,2.3857142857142857,2.3857142857142857,2.3380952380952382,2.3190476190476192,2.2523809523809524,2.2142857142857144,2.176190476190476,2.1285714285714286,2.1,2.052380952380952,1.9761904761904763,1.880952380952381,1.776190476190476,1.7190476190476192,1.6904761904761905,1.6714285714285715,1.661904761904762,1.6238095238095238,1.5476190476190477,1.4428571428571428,1.3666666666666667,1.2809523809523808,1.1666666666666667,1.0904761904761904,1.0523809523809524,1.042857142857143,1.042857142857143,1.042857142857143,1.042857142857143,1.0333333333333334,1.0333333333333334,0.9857142857142858,0.9476190476190476,0.9095238095238095,0.8809523809523809,0.8809523809523809,0.8714285714285714,0.8714285714285714,0.8714285714285714,0.919047619047619,0.9761904761904762,1.0333333333333334,1.0809523809523809,1.1,1.119047619047619,1.1285714285714286,1.138095238095238,1.1857142857142857,1.223809523809524,1.2523809523809524,1.2904761904761906,1.3095238095238095,1.319047619047619,1.3285714285714285,1.3285714285714285,1.3285714285714285,1.3285714285714285,1.3285714285714285,1.338095238095238,1.3476190476190477,1.3571428571428572,1.3571428571428572,1.3666666666666667,1.3666666666666667,1.3761904761904762,1.3761904761904762,1.3666666666666667,1.3571428571428572,1.319047619047619,1.2714285714285714,1.2333333333333334,1.2047619047619047,1.1857142857142857,1.1857142857142857,1.1761904761904762,1.1666666666666667,1.1476190476190475,1.1285714285714286,1.1095238095238096,1.1,1.1,1.1,1.1,1.1,1.0809523809523809,1.061904761904762,1.042857142857143,1.042857142857143,1.0333333333333334,1.0333333333333334,1.0238095238095237,1.0238095238095237,1.0238095238095237,1.0238095238095237,1.0238095238095237,1.0238095238095237,1.0142857142857142,1.0142857142857142,1.0142857142857142,1.0142857142857142,1.0142857142857142,1.0142857142857142,1.0142857142857142,1.0142857142857142,1.0142857142857142,1.0142857142857142,1.0142857142857142,1.0142857142857142,1.0142857142857142,1.0142857142857142,1.0142857142857142,1.0142857142857142,1.0142857142857142,1.0142857142857142,1.0142857142857142,1.0142857142857142,1.0142857142857142,1.0142857142857142,1.0142857142857142,1.0142857142857142,1.0142857142857142,1.0142857142857142,1.0142857142857142,1.0142857142857142,1.0142857142857142,1.0142857142857142,1.0142857142857142,1.0142857142857142,1.0142857142857142,1.0142857142857142,1.0142857142857142,1.0142857142857142,1.0142857142857142,1.0142857142857142,1.0142857142857142,1.0238095238095237,1.042857142857143,1.061904761904762,1.0904761904761904,1.1,1.1285714285714286,1.1761904761904762,1.2142857142857142,1.2619047619047619,1.3095238095238095,1.3571428571428572,1.3952380952380952,1.4333333333333333,1.4714285714285715,1.5095238095238095,1.5380952380952382,1.5666666666666667,1.5952380952380953,1.6142857142857143,1.6333333333333333,1.6428571428571428,1.6428571428571428,1.6428571428571428,1.6428571428571428,1.6523809523809523,1.680952380952381,1.7095238095238094,1.7190476190476192,1.7476190476190476,1.7857142857142858,1.8047619047619048,1.8428571428571427,1.8714285714285714,1.880952380952381,1.880952380952381,1.880952380952381,1.880952380952381,1.8904761904761904,1.9,1.9095238095238096,1.9190476190476191,1.9190476190476191,1.9190476190476191,1.9190476190476191,1.9190476190476191,1.9095238095238096,1.8904761904761904,1.880952380952381,1.880952380952381,1.880952380952381,1.880952380952381,1.880952380952381,1.9,1.9,1.9095238095238096,1.9190476190476191,1.938095238095238,1.938095238095238,1.938095238095238,1.938095238095238,1.938095238095238,1.938095238095238,1.938095238095238,1.9285714285714286,1.9095238095238096,1.8904761904761904,1.8714285714285714,1.8428571428571427,1.8047619047619048,1.7857142857142858,1.776190476190476,1.7666666666666666,1.7666666666666666,1.7666666666666666,1.7666666666666666,1.7666666666666666,1.7666666666666666,1.7666666666666666,1.7666666666666666,1.7666666666666666,1.7666666666666666,1.7666666666666666,1.7666666666666666,1.7666666666666666,1.7666666666666666,1.7666666666666666,1.7666666666666666,1.7666666666666666,1.7666666666666666,1.7666666666666666,1.7666666666666666,1.7666666666666666,1.7666666666666666,1.7666666666666666,1.7666666666666666,1.7666666666666666,1.7666666666666666,1.7666666666666666,1.7666666666666666,1.7666666666666666,1.7666666666666666,1.7666666666666666,1.7666666666666666,1.7666666666666666,1.7666666666666666,1.7666666666666666,1.7666666666666666,1.7666666666666666,1.7666666666666666,1.7666666666666666,1.7666666666666666,1.7666666666666666,1.7666666666666666,1.7666666666666666,1.7666666666666666,1.7666666666666666,1.7666666666666666,1.7666666666666666,1.7666666666666666,1.7666666666666666,1.7666666666666666,1.7666666666666666,1.7666666666666666,1.7666666666666666,1.7666666666666666,1.7666666666666666,1.7666666666666666,1.7666666666666666,1.7666666666666666,1.7666666666666666,1.7666666666666666,1.7666666666666666,1.7666666666666666,1.7666666666666666,1.7666666666666666,1.7666666666666666,1.7666666666666666,1.7666666666666666,1.7666666666666666,1.7666666666666666,1.7666666666666666,1.7666666666666666,1.7666666666666666,1.7666666666666666,1.7666666666666666,1.7666666666666666,1.7666666666666666,1.7666666666666666,1.7666666666666666,1.7666666666666666,1.7666666666666666,1.7666666666666666,1.7666666666666666,1.7666666666666666,1.7666666666666666,1.7285714285714286,1.7,1.680952380952381,1.6523809523809523,1.6333333333333333,1.6333333333333333,1.6333333333333333,1.6523809523809523,1.6523809523809523,1.6523809523809523,1.6428571428571428,1.6428571428571428,1.6428571428571428,1.6428571428571428,1.6047619047619048,1.5380952380952382,1.4904761904761905,1.4142857142857144,1.3476190476190477,1.3,1.2333333333333334,1.1857142857142857,1.1285714285714286,1.0714285714285714,1.0333333333333334,0.9857142857142858,0.9476190476190476,0.9285714285714286,0.9095238095238095,0.9095238095238095,0.9,0.9,0.8904761904761904,0.861904761904762,0.8523809523809524,0.8333333333333334,0.8333333333333334,0.8238095238095238,0.8238095238095238,0.8238095238095238,0.8238095238095238,0.8238095238095238,0.8238095238095238,0.8238095238095238,0.8238095238095238,0.8238095238095238,0.8238095238095238,0.8238095238095238,0.8238095238095238,0.8238095238095238,0.8238095238095238,0.8238095238095238,0.8238095238095238,0.8238095238095238,0.8238095238095238,0.8238095238095238,0.8238095238095238,0.8238095238095238,0.8238095238095238,0.8238095238095238,0.8238095238095238,0.8238095238095238,0.8238095238095238,0.8238095238095238,0.8333333333333334,0.8333333333333334,0.8333333333333334,0.8333333333333334,0.8333333333333334,0.8333333333333334,0.8333333333333334,0.8333333333333334,0.8333333333333334,0.8333333333333334,0.8333333333333334,0.8333333333333334,0.8333333333333334,0.8333333333333334,0.8333333333333334,0.8333333333333334,0.8333333333333334,0.8523809523809524,0.8523809523809524,0.8523809523809524,0.861904761904762,0.861904761904762,0.8714285714285714,0.8714285714285714,0.8714285714285714,0.8714285714285714,0.7857142857142857,0.5857142857142857,0.4142857142857143,0.23333333333333334,0.05238095238095238,-0.05238095238095238,-0.10952380952380952,-0.14761904761904762,-0.23333333333333334,-0.35714285714285715,-0.4523809523809524,-0.5571428571428572,-0.7,-0.8238095238095238,-0.8904761904761904,-0.9666666666666667,-0.9952380952380953,-1.0142857142857142,-1.042857142857143,-1.0904761904761904,-1.138095238095238,-1.1857142857142857,-1.223809523809524,-1.2809523809523808,-1.338095238095238,-1.4047619047619047,-1.4714285714285715,-1.519047619047619,-1.5476190476190477,-1.5666666666666667,-1.5761904761904761,-1.5761904761904761,-1.5761904761904761,-1.5761904761904761,-1.5761904761904761,-1.6047619047619048,-1.6238095238095238,-1.6428571428571428,-1.6523809523809523,-1.661904761904762,-1.661904761904762,-1.6523809523809523,-1.6333333333333333,-1.6333333333333333,-1.6238095238095238,-1.6142857142857143,-1.6142857142857143,-1.6142857142857143,-1.6142857142857143,-1.6142857142857143,-1.6142857142857143,-1.6142857142857143,-1.6142857142857143,-1.6142857142857143,-1.6142857142857143,-1.6142857142857143,-1.6142857142857143,-1.6142857142857143,-1.6142857142857143,-1.6047619047619048,-1.5952380952380953,-1.5857142857142856,-1.5857142857142856,-1.5857142857142856,-1.5857142857142856,-1.5857142857142856,-1.5857142857142856,-1.5857142857142856,-1.5857142857142856,-1.5857142857142856,-1.5857142857142856,-1.5761904761904761,-1.5666666666666667,-1.5666666666666667,-1.5666666666666667,-1.5666666666666667,-1.5761904761904761,-1.5857142857142856,-1.5857142857142856,-1.5857142857142856,-1.5857142857142856,-1.5857142857142856,-1.5857142857142856,-1.5857142857142856,-1.5857142857142856,-1.5857142857142856,-1.5571428571428572,-1.5571428571428572,-1.5380952380952382,-1.5380952380952382,-1.5285714285714285,-1.5285714285714285,-1.5285714285714285,-1.5285714285714285,-1.5285714285714285,-1.5285714285714285,-1.5285714285714285,-1.519047619047619,-1.5095238095238095,-1.4904761904761905,-1.4904761904761905,-1.480952380952381,-1.480952380952381,-1.480952380952381,-1.480952380952381,-1.480952380952381,-1.480952380952381,-1.480952380952381,-1.480952380952381,-1.480952380952381,-1.480952380952381,-1.480952380952381,-1.480952380952381,-1.480952380952381,-1.480952380952381,-1.480952380952381,-1.4904761904761905,-1.4904761904761905,-1.4904761904761905,-1.5,-1.5,-1.5095238095238095,-1.5285714285714285,-1.5285714285714285,-1.5571428571428572,-1.5761904761904761,-1.5952380952380953,-1.6238095238095238,-1.6238095238095238,-1.6238095238095238,-1.6238095238095238,-1.6238095238095238,-1.6238095238095238,-1.6238095238095238,-1.6238095238095238,-1.6238095238095238,-1.6142857142857143,-1.6142857142857143,-1.6047619047619048,-1.6047619047619048,-1.5952380952380953,-1.5952380952380953,-1.5952380952380953,-1.5952380952380953,-1.5952380952380953,-1.5952380952380953,-1.5952380952380953,-1.5952380952380953,-1.5952380952380953,-1.5952380952380953,-1.6047619047619048,-1.6047619047619048,-1.6047619047619048,-1.6047619047619048,-1.6047619047619048,-1.6142857142857143,-1.6142857142857143,-1.6142857142857143,-1.6142857142857143,-1.6142857142857143,-1.6142857142857143,-1.6142857142857143,-1.6142857142857143,-1.6142857142857143,-1.6142857142857143,-1.6142857142857143,-1.6142857142857143,-1.6142857142857143,-1.6142857142857143,-1.6142857142857143,-1.6142857142857143,-1.6142857142857143,-1.6142857142857143,-1.5571428571428572,-1.5,-1.3952380952380952,-1.2523809523809524,-1.0904761904761904,-0.9095238095238095,-0.6714285714285714,-0.48095238095238096,-0.2619047619047619,-0.06190476190476191,0.09047619047619047,0.21428571428571427,0.2904761904761905,0.3476190476190476,0.38571428571428573,0.4142857142857143,0.43333333333333335,0.4523809523809524,0.48095238095238096,0.5095238095238095,0.5380952380952381,0.5761904761904761,0.5952380952380952,0.6142857142857143,0.6333333333333333,0.6523809523809524,0.6619047619047619,0.6714285714285714,0.680952380952381,0.680952380952381,0.680952380952381,0.680952380952381,0.680952380952381,0.680952380952381,0.680952380952381,0.680952380952381,0.6904761904761905,0.7,0.7095238095238096,0.7095238095238096,0.7095238095238096,0.7095238095238096,0.7095238095238096,0.7380952380952381,0.7666666666666667,0.7857142857142857,0.7952380952380952,0.8047619047619048,0.8047619047619048,0.8047619047619048,0.8238095238095238,0.8523809523809524,0.8809523809523809,0.9,0.919047619047619,0.9285714285714286,0.9380952380952381,0.9380952380952381,0.9476190476190476,0.9571428571428572,0.9571428571428572,0.9571428571428572,0.9571428571428572,0.9571428571428572,0.9571428571428572,0.9666666666666667,0.9666666666666667,0.9666666666666667,0.9571428571428572,0.9476190476190476,0.9476190476190476,0.9476190476190476,0.9380952380952381,0.9380952380952381,0.9095238095238095,0.8904761904761904,0.8809523809523809,0.8809523809523809,0.8714285714285714,0.8714285714285714,0.8714285714285714,0.8714285714285714,0.8714285714285714,0.861904761904762,0.8523809523809524,0.8333333333333334,0.8238095238095238,0.8142857142857143,0.8142857142857143,0.8047619047619048,0.7952380952380952,0.7857142857142857,0.7857142857142857,0.7666666666666667,0.7571428571428571,0.7476190476190476,0.7476190476190476,0.7380952380952381,0.7380952380952381,0.7285714285714285,0.719047619047619,0.7095238095238096,0.6904761904761905,0.680952380952381,0.6523809523809524,0.6142857142857143,0.5476190476190477,0.5,0.4714285714285714,0.4142857142857143,0.3476190476190476,0.24285714285714285,0.14761904761904762,0.04285714285714286,-0.05238095238095238,-0.11904761904761904,-0.20476190476190476,-0.3,-0.3952380952380952,-0.49047619047619045,-0.5857142857142857,-0.6619047619047619,-0.7666666666666667,-0.8809523809523809,-0.9857142857142858,-1.0904761904761904,-1.1571428571428573,-1.2142857142857142,-1.2523809523809524,-1.2714285714285714,-1.2904761904761906,-1.3095238095238095,-1.3285714285714285,-1.338095238095238,-1.3476190476190477,-1.3666666666666667,-1.3952380952380952,-1.4238095238095239,-1.4714285714285715,-1.5,-1.5285714285714285,-1.5380952380952382,-1.5380952380952382,-1.5380952380952382,-1.5476190476190477,-1.5666666666666667,-1.5857142857142856,-1.5857142857142856,-1.5952380952380953,-1.6047619047619048,-1.6047619047619048,-1.6142857142857143,-1.6142857142857143,-1.6142857142857143,-1.6238095238095238,-1.6238095238095238,-1.6238095238095238,-1.6238095238095238,-1.6333333333333333,-1.6333333333333333,-1.6333333333333333,-1.6333333333333333,-1.6333333333333333,-1.6333333333333333,-1.6333333333333333,-1.6333333333333333,-1.6333333333333333,-1.6333333333333333,-1.6333333333333333,-1.5761904761904761,-1.480952380952381,-1.2428571428571429,-0.9095238095238095,-0.5,-0.12857142857142856,0.14761904761904762,0.35714285714285715,0.5,0.5761904761904761,0.6238095238095238,0.6333333333333333,0.6333333333333333,0.6333333333333333,0.6333333333333333,0.6333333333333333,0.6333333333333333,0.6333333333333333,0.6333333333333333,0.6333333333333333,0.6333333333333333,0.6333333333333333,0.6333333333333333,0.6333333333333333,0.6333333333333333,0.6333333333333333,0.6333333333333333,0.6333333333333333,0.6333333333333333,0.6333333333333333,0.6142857142857143,0.6047619047619047,0.5857142857142857,0.5666666666666667,0.5571428571428572,0.5571428571428572,0.5571428571428572,0.5666666666666667,0.5666666666666667,0.5666666666666667,0.5761904761904761,0.5761904761904761,0.5761904761904761,0.5761904761904761,0.5761904761904761,0.5952380952380952,0.6142857142857143,0.6333333333333333,0.6523809523809524,0.6619047619047619,0.6714285714285714,0.6714285714285714,0.6714285714285714,0.6714285714285714,0.6714285714285714,0.6714285714285714,0.6714285714285714,0.6714285714285714,0.6714285714285714,0.6714285714285714,0.6714285714285714,0.6714285714285714,0.6714285714285714,0.6619047619047619,0.6333333333333333,0.6047619047619047,0.5761904761904761,0.5571428571428572,0.5476190476190477,0.5476190476190477,0.5380952380952381,0.5380952380952381,0.5285714285714286,0.5190476190476191,0.5190476190476191,0.5190476190476191,0.5190476190476191,0.5190476190476191,0.5190476190476191,0.5190476190476191,0.5190476190476191,0.5190476190476191,0.5190476190476191,0.5190476190476191,0.5190476190476191,0.5190476190476191,0.5190476190476191,0.5190476190476191,0.5190476190476191,0.5190476190476191,0.5190476190476191,0.5190476190476191,0.5190476190476191,0.5190476190476191,0.5190476190476191,0.5190476190476191,0.5190476190476191,0.5190476190476191,0.5190476190476191,0.5190476190476191,0.5190476190476191,0.5190476190476191,0.5190476190476191,0.5190476190476191,0.5190476190476191,0.5190476190476191,0.5190476190476191,0.5190476190476191,0.5190476190476191,0.5190476190476191,0.5190476190476191,0.5190476190476191,0.5190476190476191,0.5190476190476191,0.5190476190476191,0.5190476190476191,0.5190476190476191,0.5190476190476191,0.5190476190476191,0.5190476190476191,0.5190476190476191,0.5190476190476191,0.5190476190476191,0.5190476190476191,0.5952380952380952,0.6714285714285714,0.7285714285714285,0.8047619047619048,0.8714285714285714,0.9285714285714286,0.9666666666666667,1.0047619047619047,1.0333333333333334,1.042857142857143,1.0523809523809524,1.0523809523809524,1.0523809523809524,1.0523809523809524,1.0523809523809524,1.0523809523809524,1.0523809523809524,1.0523809523809524,1.0523809523809524,1.0523809523809524,1.0523809523809524,1.0523809523809524,1.0523809523809524,1.0523809523809524,1.0523809523809524,1.0523809523809524,1.0523809523809524,1.0523809523809524,1.0523809523809524,1.0523809523809524,1.0523809523809524,1.0523809523809524,1.0523809523809524,1.0523809523809524,1.0333333333333334,1.0047619047619047,0.9857142857142858,0.9761904761904762,0.9666666666666667,0.9571428571428572,0.9476190476190476,0.9380952380952381,0.9380952380952381,0.919047619047619,0.8904761904761904,0.8714285714285714,0.8428571428571429,0.8428571428571429,0.8428571428571429,0.8428571428571429,0.8428571428571429,0.8428571428571429,0.8428571428571429,0.8428571428571429,0.8428571428571429,0.8428571428571429,0.8428571428571429,0.8428571428571429,0.8428571428571429,0.8428571428571429,0.8428571428571429,0.8428571428571429,0.8428571428571429,0.8333333333333334,0.8333333333333334,0.8142857142857143,0.7761904761904762,0.7380952380952381,0.6904761904761905,0.6333333333333333,0.5761904761904761,0.5,0.40476190476190477,0.32857142857142857,0.24285714285714285,0.18571428571428572,0.1380952380952381,0.10952380952380952,0.09047619047619047,0.08095238095238096,0.07142857142857142,0.07142857142857142,0.06190476190476191,0.06190476190476191,0.05238095238095238,0.03333333333333333,0.023809523809523808,0.004761904761904762,-0.004761904761904762,-0.014285714285714285,-0.014285714285714285,-0.014285714285714285,-0.014285714285714285,-0.014285714285714285,-0.014285714285714285,-0.014285714285714285,-0.014285714285714285,-0.014285714285714285,-0.014285714285714285,-0.014285714285714285,-0.014285714285714285,-0.014285714285714285,-0.014285714285714285,-0.014285714285714285,-0.014285714285714285,-0.014285714285714285,-0.014285714285714285,-0.014285714285714285,-0.014285714285714285,-0.014285714285714285,-0.014285714285714285,-0.014285714285714285,-0.014285714285714285,-0.014285714285714285,-0.014285714285714285,-0.014285714285714285,-0.014285714285714285,-0.014285714285714285,-0.014285714285714285,-0.014285714285714285,-0.014285714285714285,-0.014285714285714285,-0.014285714285714285,-0.014285714285714285,-0.014285714285714285,-0.014285714285714285,-0.014285714285714285,-0.014285714285714285,-0.014285714285714285,0.023809523809523808,0.09047619047619047,0.12857142857142856,0.15714285714285714,0.18571428571428572,0.20476190476190476,0.21428571428571427,0.22380952380952382,0.23333333333333334,0.23333333333333334,0.23333333333333334,0.23333333333333334,0.23333333333333334,0.23333333333333334,0.23333333333333334,0.23333333333333334,0.23333333333333334,0.20476190476190476,0.16666666666666666,0.1380952380952381,0.10952380952380952,0.08095238095238096,0.05238095238095238,0.04285714285714286,0.023809523809523808,0.023809523809523808,0.014285714285714285,0.014285714285714285,0.014285714285714285,0.014285714285714285,0.014285714285714285,0.014285714285714285,0.014285714285714285,0.014285714285714285,0.014285714285714285,0.014285714285714285,0.014285714285714285,0.014285714285714285,0.014285714285714285,0.014285714285714285,0.014285714285714285,0.014285714285714285,0.014285714285714285,0.014285714285714285,0.014285714285714285,0.014285714285714285,0.014285714285714285,0.014285714285714285,0.014285714285714285,0.014285714285714285,0.014285714285714285,0.014285714285714285,0.014285714285714285,0.014285714285714285,0.014285714285714285,0.014285714285714285,0.014285714285714285,0.014285714285714285,0.014285714285714285,0.014285714285714285,0.014285714285714285,0.014285714285714285,0.014285714285714285,0.014285714285714285,0.014285714285714285,0.014285714285714285,0.014285714285714285,0.014285714285714285,0.014285714285714285,0.014285714285714285,0.014285714285714285,0.014285714285714285,0.014285714285714285,0.014285714285714285,0.014285714285714285,0.014285714285714285,0.014285714285714285,0.014285714285714285,0.014285714285714285,0.014285714285714285,0.014285714285714285,0.014285714285714285,0.014285714285714285,0.014285714285714285,0.03333333333333333,0.09047619047619047,0.11904761904761904,0.12857142857142856,0.12857142857142856,0.12857142857142856,0.12857142857142856,0.12857142857142856,0.12857142857142856,0.12857142857142856,0.12857142857142856,0.12857142857142856,0.12857142857142856,0.12857142857142856,0.12857142857142856,0.12857142857142856,0.12857142857142856,0.12857142857142856,0.12857142857142856,0.12857142857142856,0.12857142857142856,0.12857142857142856,0.12857142857142856,0.12857142857142856,0.12857142857142856,0.11904761904761904,0.11904761904761904,0.11904761904761904,0.11904761904761904,0.11904761904761904,0.11904761904761904,0.10952380952380952,0.1,0.09047619047619047,0.09047619047619047,0.09047619047619047,0.08095238095238096,0.08095238095238096,0.07142857142857142,0.06190476190476191,0.06190476190476191,0.06190476190476191,0.07142857142857142,0.07142857142857142,0.07142857142857142,0.07142857142857142,0.07142857142857142,0.07142857142857142,0.07142857142857142,0.07142857142857142,0.06190476190476191,0.06190476190476191,0.06190476190476191,0.06190476190476191,0.06190476190476191,0.06190476190476191,0.06190476190476191,0.06190476190476191,0.06190476190476191,0.06190476190476191,0.06190476190476191,0.06190476190476191,0.06190476190476191,0.06190476190476191,0.06190476190476191,0.06190476190476191,0.06190476190476191,0.08095238095238096,0.19523809523809524,0.2619047619047619,0.32857142857142857,0.38571428571428573,0.44285714285714284,0.5,0.5380952380952381,0.5857142857142857,0.6238095238095238,0.6619047619047619,0.6904761904761905,0.6904761904761905,0.6904761904761905,0.7,0.7,0.7,0.7,0.7095238095238096,0.7095238095238096,0.7095238095238096,0.7095238095238096,0.7095238095238096,0.7095238095238096,0.7095238095238096,0.7095238095238096,0.680952380952381,0.6523809523809524,0.6142857142857143,0.5857142857142857,0.5571428571428572,0.5380952380952381,0.5380952380952381,0.5380952380952381,0.5380952380952381,0.5380952380952381,0.5380952380952381,0.5285714285714286,0.5285714285714286,0.5285714285714286,0.5285714285714286,0.5285714285714286,0.5285714285714286,0.5285714285714286,0.5476190476190477,0.5666666666666667,0.5666666666666667,0.5666666666666667,0.5666666666666667,0.5666666666666667,0.5666666666666667,0.5666666666666667,0.5666666666666667,0.5666666666666667,0.5666666666666667,0.5666666666666667,0.5666666666666667,0.5666666666666667,0.5666666666666667,0.5666666666666667,0.5666666666666667,0.5666666666666667,0.5666666666666667,0.5666666666666667,0.5666666666666667,0.5666666666666667,0.5666666666666667,0.5666666666666667,0.5857142857142857,0.680952380952381,0.7571428571428571,0.8333333333333334,0.8809523809523809,0.919047619047619,0.9571428571428572,0.9857142857142858,0.9952380952380953,1.0047619047619047,1.0142857142857142,1.0238095238095237,1.0333333333333334,1.0333333333333334,1.0333333333333334,1.0333333333333334,1.0333333333333334,1.0333333333333334,1.042857142857143,1.042857142857143,1.0523809523809524,1.061904761904762,1.061904761904762,1.0714285714285714,1.0904761904761904,1.1,1.1095238095238096,1.119047619047619,1.1285714285714286,1.1285714285714286,1.138095238095238,1.138095238095238,1.138095238095238,1.1285714285714286,1.0714285714285714,1.0047619047619047,0.9476190476190476,0.8809523809523809,0.8428571428571429,0.7952380952380952,0.7666666666666667,0.7476190476190476,0.7285714285714285,0.7095238095238096,0.6904761904761905,0.6714285714285714,0.6714285714285714,0.6619047619047619,0.6523809523809524,0.6523809523809524,0.6523809523809524,0.6333333333333333,0.6047619047619047,0.5761904761904761,0.5571428571428572,0.5380952380952381,0.5285714285714286,0.5285714285714286,0.5285714285714286,0.5285714285714286,0.5285714285714286,0.5285714285714286,0.5285714285714286,0.5285714285714286,0.5285714285714286,0.5285714285714286,0.5285714285714286,0.5285714285714286,0.5285714285714286,0.5285714285714286,0.5380952380952381,0.5952380952380952,0.6523809523809524,0.6904761904761905,0.719047619047619,0.7285714285714285,0.7380952380952381,0.7380952380952381,0.7380952380952381,0.7380952380952381,0.7380952380952381,0.7380952380952381,0.7380952380952381,0.7380952380952381,0.7380952380952381,0.7380952380952381,0.7380952380952381,0.7380952380952381,0.6904761904761905,0.6619047619047619,0.6428571428571429,0.6142857142857143,0.6047619047619047,0.5952380952380952,0.5952380952380952,0.5952380952380952,0.5952380952380952,0.5952380952380952,0.5952380952380952,0.5952380952380952,0.5952380952380952,0.5952380952380952,0.5952380952380952,0.5857142857142857,0.5285714285714286,0.5190476190476191,0.5095238095238095,0.5095238095238095,0.5095238095238095,0.5095238095238095,0.5095238095238095,0.5095238095238095,0.5095238095238095,0.5095238095238095,0.5095238095238095,0.5095238095238095,0.5095238095238095,0.5095238095238095,0.5095238095238095,0.5095238095238095,0.5095238095238095,0.5190476190476191,0.5857142857142857,0.6523809523809524,0.7095238095238096,0.7571428571428571,0.7761904761904762,0.7857142857142857,0.7952380952380952,0.8047619047619048,0.8047619047619048,0.8142857142857143,0.8142857142857143,0.8142857142857143,0.8142857142857143,0.8238095238095238,0.8238095238095238,0.8238095238095238,0.8142857142857143,0.7952380952380952,0.7666666666666667,0.7476190476190476,0.7285714285714285,0.7095238095238096,0.6904761904761905,0.6714285714285714,0.652380952380952