[{"success":true,"trial_type":"fullscreen","trial_index":0,"time_elapsed":3870,"internal_node_id":"0.0-0.0","protocol_sum":"","subject_identifier":508,"subject_sum":[149,18,217,93,0,214,27,222,192,61,43,153,214,236,196,85,238,86,68,174,82,209,14,124,74,97,201,48,98,220,151,163],"subject_pair":254,"STUDY_ID":"66a3ed3c5d10d0e7d8a6b9da","PROLIFIC_PID":"665600778ac0edc5607cbfdd","SESSION_ID":"66a41d4f3b8103637e633dbe","practice_instructions":1,"leaderboard_instructions":0,"bonus":0,"reveal_word":false,"self_rating":"2","confidence":"78"},{"view_history":"[{\"page_index\":0,\"viewing_time\":4812.099999964237}]","rt":4812.299999952316,"trial_type":"instructions","trial_index":1,"time_elapsed":8683,"internal_node_id":"0.0-1.0","protocol_sum":"","subject_identifier":508,"subject_sum":[149,18,217,93,0,214,27,222,192,61,43,153,214,236,196,85,238,86,68,174,82,209,14,124,74,97,201,48,98,220,151,163],"subject_pair":254,"STUDY_ID":"66a3ed3c5d10d0e7d8a6b9da","PROLIFIC_PID":"665600778ac0edc5607cbfdd","SESSION_ID":"66a41d4f3b8103637e633dbe","practice_instructions":1,"leaderboard_instructions":0,"bonus":0,"reveal_word":false,"self_rating":"2","confidence":"78"},{"view_history":"[{\"page_index\":0,\"viewing_time\":47391}]","rt":47391.19999998808,"trial_type":"instructions","trial_index":2,"time_elapsed":56075,"internal_node_id":"0.0-2.0-0.0","protocol_sum":"","subject_identifier":508,"subject_sum":[149,18,217,93,0,214,27,222,192,61,43,153,214,236,196,85,238,86,68,174,82,209,14,124,74,97,201,48,98,220,151,163],"subject_pair":254,"STUDY_ID":"66a3ed3c5d10d0e7d8a6b9da","PROLIFIC_PID":"665600778ac0edc5607cbfdd","SESSION_ID":"66a41d4f3b8103637e633dbe","practice_instructions":1,"leaderboard_instructions":0,"bonus":0,"reveal_word":false,"self_rating":"2","confidence":"78"},{"rt":8358.799999952316,"responses":"{\"Q0\":\"... reveal the word with as <b>few letter guesses</b> as possible\"}","question_order":"[0]","trial_type":"survey-multi-choice","trial_index":3,"time_elapsed":64436,"internal_node_id":"0.0-2.0-1.0","protocol_sum":"","subject_identifier":508,"subject_sum":[149,18,217,93,0,214,27,222,192,61,43,153,214,236,196,85,238,86,68,174,82,209,14,124,74,97,201,48,98,220,151,163],"subject_pair":254,"correct":true,"test_part":"multichoice_nonpretend","STUDY_ID":"66a3ed3c5d10d0e7d8a6b9da","PROLIFIC_PID":"665600778ac0edc5607cbfdd","SESSION_ID":"66a41d4f3b8103637e633dbe","practice_instructions":1,"leaderboard_instructions":0,"bonus":0,"reveal_word":false,"self_rating":"2","confidence":"78"},{"view_history":"[{\"page_index\":0,\"viewing_time\":6565.5}]","rt":6565.699999988079,"trial_type":"instructions","trial_index":4,"time_elapsed":71003,"internal_node_id":"0.0-3.0","protocol_sum":"","subject_identifier":508,"subject_sum":[149,18,217,93,0,214,27,222,192,61,43,153,214,236,196,85,238,86,68,174,82,209,14,124,74,97,201,48,98,220,151,163],"subject_pair":254,"STUDY_ID":"66a3ed3c5d10d0e7d8a6b9da","PROLIFIC_PID":"665600778ac0edc5607cbfdd","SESSION_ID":"66a41d4f3b8103637e633dbe","practice_instructions":1,"leaderboard_instructions":0,"bonus":0,"reveal_word":false,"self_rating":"2","confidence":"78"},{"word":"ZEBRA","click_log":{"letter":["","C","A","Z","E","B","R"],"t":[0,5394.599999964237,8233.800000011921,14284.899999976158,17570.899999976158,18564,19586.599999964237],"hit":[null,0,1,1,1,1,1],"asked":["","C","CA","CAZ","CAZE","CAZEB","CAZEBR"],"word_state":["_____","_____","____A","Z___A","ZE__A","ZEB_A","ZEBRA"]},"hover_log":{"letter":["?","?","?","?","?","?","?","?","?","?","?","?","?","?","?","?","?","?","?","A","A","B","C","?","?","?","?","?","?","?","?","?","?","?","?","?","?","?","?","?","?","?","?","?","?","?","?","?","?","?","?","?","?","?","?","?","?","?","?","?","?","?","?","?","?","?","?","?","?","?","?","?","?","?","?","?","?","?","?","?","?","?","?","?","?","?","?","?","?","?","?","?","?","?","?","?","?","?","?","?","?","?","?","?","?","?","?","?","?","?","?","?","?","?","?","?","?","?","?","?","?","?","?","?","?","?","?","?","?","?","?","?","?","?","?","?","?","?","?","?","?","?","?","?","?","?","?","?","?","?","?","?","?","?","?","?","?","?","?","?","?","?","?","?","?","?","?","?","?","?","?","?","?","?","?","?","?","?","?","?","?","?","?","?","?","?","?","?","?","?","?","?","?","?","?","?","?","?","?","?","?","?","?","?","?","?","?","?","?","?","?","?","?","?","?","?","?","?","?","?","?","?","?","?","?","?","?","?","?","?","?","?","?","?","?","?","?","?","?","?","?","?","?","?","?","?","?","?","?","?","?","?","?","?","?","?","?","?","?","?","?","?","?","?","?","?","?","?","?","?","?","?","?","?","O","N","?","?","?","?","?","?","?","?","?","?","?","?","?","?","?","D","D","D","C","C","C","C","C","C","C","C","C","C","C","C","C","C","C","C","C","C","C","C","C","C","C","C","C","C","C","C","C","C","C","C","C","C","C","C","C","C","C","C","C","C","C","C","C","?","D","D","?","?","F","G","H","I","I","I","I","?","?","?","?","?","?","?","?","?","?","?","?","?","?","?","?","?","?","?","?","?","?","?","?","?","?","?","?","?","?","?","?","?","?","?","?","?","?","?","?","?","?","?","?","?","?","?","?","?","?","?","?","?","?","?","?","P","N","M","M","M","L","L","?","?","?","?","?","?","?","?","?","?","C","C","C","C","C","C","C","C","B","?","A","A","A","A","A","A","A","A","A","A","A","A","A","A","A","A","A","A","A","A","A","A","A","A","A","A","A","A","A","A","A","A","A","A","A","A","A","A","A","A","A","A","A","A","A","A","A","A","A","A","A","A","A","A","A","A","A","A","A","A","A","A","A","A","A","A","A","A","A","A","A","A","A","A","A","?","?","?","M","O","P","?","?","?","?","?","?","?","?","?","?","?","?","?","?","?","?","?","?","?","?","?","?","?","?","?","?","?","?","?","?","?","?","?","?","?","?","?","?","?","?","?","?","?","?","?","?","?","?","?","?","?","?","?","?","?","?","?","?","?","?","?","?","?","?","?","?","?","?","?","?","?","?","?","?","?","?","?","?","?","?","?","?","?","?","?","?","?","?","?","?","?","?","?","?","?","?","?","?","?","?","?","?","?","?","?","?","?","?","?","?","?","?","?","?","?","?","?","?","?","?","?","?","?","?","?","?","?","?","?","?","?","?","?","?","?","?","?","?","?","?","?","?","?","?","?","?","?","?","?","?","?","?","?","?","?","?","?","?","?","?","?","?","?","?","?","?","?","?","?","?","?","?","?","?","?","?","?","?","?","?","?","?","?","?","?","?","?","?","?","?","?","?","?","?","?","?","?","?","?","?","?","?","?","?","?","?","?","?","?","?","?","?","?","?","?","?","?","?","?","?","?","?","?","?","?","?","?","?","?","?","?","?","?","?","?","?","?","?","?","?","?","?","?","?","?","?","?","?","?","?","?","?","?","?","?","?","?","?","?","?","?","?","?","?","?","?","?","?","?","?","?","?","?","?","?","?","?","?","?","?","?","?","?","?","?","?","?","?","?","?","?","?","?","?","?","?","?","?","?","?","?","?","?","?","?","?","?","?","?","?","?","?","?","Z","Z","Z","Z","Z","Z","Z","Z","Z","Z","Z","Z","Z","Z","Z","Z","Z","Z","Z","Z","Z","Z","Z","Z","Z","Z","Z","Z","Z","Z","Z","Z","Z","Z","Z","Z","?","?","?","?","?","?","?","?","?","?","?","?","?","?","?","?","?","?","?","?","?","?","?","?","?","?","?","?","?","?","?","?","?","?","?","?","?","?","?","?","?","?","?","?","?","?","?","?","?","?","?","?","?","?","?","?","?","?","?","?","?","?","?","?","?","?","?","?","?","?","?","?","?","?","?","?","?","?","?","?","?","?","?","?","?","?","Z","Z","Z","?","?","?","?","P","P","P","?","?","?","?","?","?","?","?","?","?","?","?","?","?","?","D","D","D","D","D","D","D","D","D","D","?","?","?","E","E","E","E","E","E","E","E","E","E","E","E","E","E","E","E","E","E","E","E","E","E","E","E","E","E","E","E","E","E","E","E","E","E","E","E","E","E","E","E","E","E","E","E","E","E","E","E","E","E","E","E","E","E","E","E","E","E","E","E","E","E","E","E","E","E","E","E","?","D","D","?","C","C","C","C","C","C","C","C","C","?","B","B","B","B","B","B","B","B","B","B","B","B","B","B","B","B","B","B","B","B","B","B","B","B","B","B","B","B","B","B","B","B","B","B","B","B","B","B","B","B","B","B","B","B","B","B","B","?","?","?","?","M","N","O","P","?","?","?","?","?","Q","Q","?","R","R","R","R","R","R","R","R","R","R","R","R","R","R","R","R","R","R","R","R","R","R","R","R","R","R","R","R","R","R","R","R","R","R","R","R","R","R","R","R","R","R","R","R","R","R","R","R","R","R","R","R","R","R","R","R","R","R","R","R","R","R","R","R","R","R","R","R","R","R","R","R","R","?","?","?","?","?","?","?","?","?","?","?","?","?","?","?","?","?","?","?","?","?","?","?","?","?","?","?","?","?","?","?","?","?","?","?","?","?","?","?","?","?","?","?","?","?","?","?","?","?","?","?","?","?","?","?","?","?","?","?","?","?","?","?","?","?","?","?","?","?","?","?","?","?","?","?","?","?","?","?","?","?","?","?","?","?","?","?"],"t":[50,62,79,96,112,129,146,162,179,196,213,229,245,262,279,296,313,329,346,364,379,396,414,430,447,463,480,497,513,530,546,563,580,596,614,631,647,664,680,696,712,730,746,763,779,796,813,829,846,861,878,896,913,928,945,961,980,996,1013,1029,1045,1062,1079,1096,1112,1129,1146,1162,1179,1197,1212,1229,1246,1262,1279,1295,1311,1329,1345,1362,1379,1396,1412,1429,1445,1463,1477,1493,1510,1527,1543,1562,1579,1594,1612,1629,1645,1661,1679,1694,1711,1728,1744,1761,1777,1794,1811,1827,1844,1860,1878,1894,1910,1926,1943,1961,1978,1994,2011,2027,2043,2059,2076,2093,2110,2126,2142,2159,2176,2192,2209,2226,2242,2259,2277,2294,2311,2328,2344,2361,2378,2395,2411,2428,2445,2461,2477,2495,2511,2528,2547,2564,2578,2594,2612,2627,2644,2661,2681,2694,2711,2727,2744,2761,2779,2795,2811,2829,2845,2861,2878,2896,2913,2926,2943,2960,2976,2993,3010,3027,3043,3060,3076,3092,3108,3125,3142,3158,3175,3192,3208,3226,3242,3258,3276,3292,3309,3326,3341,3359,3376,3392,3408,3425,3441,3458,3476,3492,3510,3526,3543,3560,3577,3593,3612,3627,3643,3659,3675,3691,3709,3725,3742,3758,3775,3791,3808,3825,3842,3858,3875,3891,3908,3925,3941,3958,3975,3994,4010,4027,4044,4061,4077,4094,4110,4127,4143,4159,4175,4193,4209,4225,4243,4260,4276,4294,4310,4326,4342,4361,4377,4391,4408,4425,4442,4459,4475,4492,4508,4525,4541,4558,4576,4592,4610,4625,4642,4658,4674,4690,4707,4724,4740,4758,4775,4791,4808,4825,4842,4858,4875,4892,4908,4924,4941,4958,4974,4990,5007,5024,5040,5057,5074,5090,5107,5124,5140,5158,5175,5192,5208,5225,5241,5258,5277,5293,5309,5327,5342,5360,5376,5393,5408,5425,5440,5458,5475,5491,5507,5524,5543,5560,5576,5592,5612,5626,5642,5661,5678,5692,5709,5725,5742,5759,5775,5795,5809,5827,5841,5858,5875,5891,5908,5924,5940,5956,5973,5990,6007,6023,6039,6056,6073,6089,6107,6123,6139,6156,6173,6189,6206,6222,6239,6256,6272,6289,6306,6324,6340,6358,6373,6389,6406,6422,6439,6456,6472,6489,6506,6522,6540,6556,6573,6590,6606,6623,6639,6656,6672,6689,6707,6724,6740,6757,6774,6791,6806,6823,6840,6857,6872,6890,6907,6924,6939,6957,6973,6992,7008,7024,7040,7058,7075,7092,7108,7125,7141,7158,7174,7191,7207,7224,7241,7258,7276,7293,7306,7322,7338,7355,7372,7388,7406,7423,7440,7456,7473,7490,7506,7525,7542,7558,7574,7590,7609,7627,7640,7657,7673,7690,7705,7723,7739,7757,7772,7788,7806,7824,7840,7857,7874,7891,7905,7921,7938,7955,7972,7988,8006,8022,8039,8056,8072,8089,8106,8122,8138,8155,8172,8188,8205,8222,8240,8258,8272,8289,8307,8323,8339,8356,8372,8389,8406,8422,8439,8455,8472,8489,8506,8523,8540,8557,8573,8589,8607,8623,8639,8655,8672,8689,8715,8737,8754,8770,8787,8803,8820,8837,8853,8870,8887,8904,8920,8936,8953,8970,8987,9004,9020,9036,9053,9070,9086,9103,9120,9137,9153,9170,9186,9203,9220,9237,9253,9270,9286,9304,9324,9340,9355,9374,9390,9407,9423,9440,9456,9473,9490,9508,9523,9541,9557,9573,9591,9608,9622,9638,9655,9671,9688,9704,9721,9738,9754,9771,9788,9805,9823,9839,9854,9872,9888,9905,9921,9938,9955,9971,9988,10005,10021,10037,10054,10069,10091,10104,10121,10137,10155,10170,10186,10203,10221,10239,10255,10272,10290,10305,10322,10339,10355,10373,10388,10404,10422,10437,10454,10470,10487,10503,10523,10540,10555,10572,10590,10605,10625,10639,10655,10675,10690,10706,10721,10737,10755,10772,10788,10806,10821,10839,10854,10871,10888,10904,10922,10938,10955,10972,10988,11004,11022,11038,11060,11071,11087,11102,11119,11135,11153,11171,11187,11202,11219,11236,11255,11270,11287,11305,11322,11339,11356,11371,11387,11404,11421,11437,11455,11471,11489,11507,11520,11536,11552,11569,11585,11602,11620,11636,11652,11668,11686,11702,11718,11734,11751,11768,11785,11801,11821,11838,11855,11872,11888,11903,11919,11936,11953,11969,11986,12002,12020,12036,12053,12069,12086,12103,12119,12137,12152,12169,12186,12202,12219,12237,12253,12269,12286,12301,12319,12336,12353,12370,12385,12401,12418,12436,12453,12469,12486,12503,12519,12536,12552,12569,12586,12602,12619,12635,12652,12670,12684,12701,12718,12735,12751,12769,12786,12803,12819,12836,12853,12870,12887,12903,12919,12939,12952,12968,12985,13001,13018,13034,13051,13067,13084,13104,13120,13136,13153,13169,13186,13203,13220,13236,13253,13269,13286,13303,13320,13338,13352,13369,13386,13402,13419,13436,13452,13469,13485,13501,13517,13534,13551,13567,13584,13602,13618,13634,13651,13668,13684,13704,13720,13736,13752,13771,13787,13803,13820,13836,13853,13869,13886,13901,13918,13934,13951,13968,13985,14001,14017,14034,14051,14068,14086,14103,14118,14134,14151,14167,14184,14202,14217,14234,14251,14268,14284,14301,14316,14333,14350,14368,14387,14400,14417,14434,14451,14468,14484,14500,14517,14534,14550,14566,14583,14601,14618,14634,14651,14667,14684,14700,14717,14734,14750,14767,14784,14800,14817,14834,14851,14868,14884,14900,14917,14934,14951,14967,14983,15001,15018,15034,15051,15068,15085,15101,15118,15134,15151,15167,15184,15200,15217,15234,15251,15267,15284,15301,15317,15333,15350,15367,15383,15400,15416,15432,15450,15467,15484,15500,15516,15532,15550,15565,15582,15599,15615,15634,15650,15668,15684,15700,15717,15733,15757,15782,15799,15815,15832,15848,15865,15881,15898,15915,15932,15948,15965,15982,15998,16014,16031,16048,16065,16082,16098,16115,16131,16147,16164,16181,16198,16214,16230,16247,16264,16281,16297,16314,16330,16347,16364,16381,16398,16414,16431,16447,16464,16481,16498,16514,16531,16547,16564,16581,16597,16614,16630,16648,16664,16681,16697,16714,16730,16747,16764,16781,16797,16814,16831,16847,16864,16881,16897,16914,16931,16947,16964,16980,16997,17013,17030,17048,17064,17080,17097,17114,17130,17146,17163,17180,17196,17213,17229,17250,17267,17283,17299,17316,17333,17350,17366,17382,17400,17417,17432,17451,17466,17482,17499,17516,17534,17549,17566,17580,17596,17613,17631,17647,17666,17680,17698,17714,17731,17748,17764,17780,17796,17813,17830,17847,17864,17880,17897,17914,17931,17947,17963,17980,17998,18013,18032,18046,18065,18081,18097,18114,18129,18146,18162,18181,18198,18214,18231,18248,18264,18282,18298,18315,18331,18348,18364,18381,18397,18414,18431,18447,18466,18481,18498,18514,18531,18548,18564,18581,18598,18614,18630,18647,18663,18680,18696,18714,18731,18747,18764,18780,18797,18813,18830,18846,18863,18879,18896,18913,18930,18947,18963,18979,18995,19014,19030,19047,19064,19080,19097,19114,19131,19147,19164,19181,19198,19214,19231,19248,19264,19281,19297,19314,19330,19347,19364,19380,19397,19413,19430,19447,19463,19481,19497,19513,19530,19547,19564,19580,19599,19613,19630,19645,19662,19678,19696,19711,19729,19745,19761,19779,19795,19811,19831,19847,19864,19880,19897,19912,19929,19945,19964,19979,19995,20011,20028,20045,20061,20078,20095,20113,20129,20146,20162,20179,20196,20212,20228,20245,20262,20279,20295,20312,20329,20346,20362,20379,20396,20412,20429,20446,20462,20479,20496,20512,20530,20547,20564,20581,20598,20616,20629,20646,20662,20679,20695,20712,20729,20745,20762,20779,20797,20814,20832,20847,20863,20879,20895,20912,20929,20947,20962,20979,20996,21012,21029,21046,21062,21079,21096,21111,21128,21144,21161,21179,21196,21212,21229,21245,21263,21282,21294,21311,21327,21344,21361,21377,21393,21412,21429,21444,21460,21477,21493,21510,21527,21544,21562,21578,21596],"hit":[null],"x":[-1.903061224489796,-1.903061224489796,-1.903061224489796,-1.903061224489796,-1.903061224489796,-1.903061224489796,-1.903061224489796,-1.903061224489796,-1.903061224489796,-1.903061224489796,-0.1777983944432265,-0.17439703389900882,-0.17099567335479113,-0.17099567335479113,-0.16419295226635577,-0.14718614954526732,-0.13698206791261427,-0.10977118355887276,-0.06895485702826053,-0.014533088320777529,0.05009276201935853,0.13852813616901838,0.25757575521663745,0.42764378242752177,0.48206555113500477,0.5092764354887462,0.5602968436520116,0.6215213334479299,0.6963512654207191,0.7473716735839844,0.7881880001145967,0.8119975239241204,0.8324056871894265,0.8460111293662973,0.8800247348084742,0.9480519456928279,1.0092764354887462,1.056895483107794,1.1011131701826238,1.1487322178016715,1.2167594286860253,1.2609771157608551,1.2983920817472496,1.3153988844683382,1.329004326645209,1.329004326645209,1.3256029661009912,1.329004326645209,1.3324056871894265,1.3324056871894265,1.3324056871894265,1.3324056871894265,1.3324056871894265,1.3324056871894265,1.3324056871894265,1.3324056871894265,1.3085961633799028,1.2915893606588142,1.2813852790261613,1.274582557937726,1.2677798368492905,1.2677798368492905,1.271181197393508,1.305194802835685,1.339208408277862,1.3800247348084742,1.3970315375295626,1.424242421883304,1.4378478640601748,1.4514533062370456,1.468460108958134,1.4956709933118755,1.5296845987540524,1.5398886803867056,1.5500927620193585,1.5500927620193585,1.5500927620193585,1.5602968436520115,1.5705009252846647,1.5739022858288823,1.5739022858288823,1.5841063674615354,1.5841063674615354,1.5841063674615354,1.5841063674615354,1.5841063674615354,1.5841063674615354,1.5841063674615354,1.5841063674615354,1.5841063674615354,1.5841063674615354,1.5841063674615354,1.5841063674615354,1.5841063674615354,1.5807050069173176,1.5670995647404469,1.5636982041962293,1.5296845987540524,1.5194805171213994,1.5194805171213994,1.5194805171213994,1.5194805171213994,1.5194805171213994,1.5194805171213994,1.5194805171213994,1.5194805171213994,1.5194805171213994,1.5194805171213994,1.5194805171213994,1.5194805171213994,1.5194805171213994,1.5194805171213994,1.5194805171213994,1.5194805171213994,1.5194805171213994,1.5194805171213994,1.512677796032964,1.5058750749445287,1.4990723538560933,1.492269632767658,1.492269632767658,1.492269632767658,1.492269632767658,1.492269632767658,1.492269632767658,1.492269632767658,1.492269632767658,1.492269632767658,1.492269632767658,1.492269632767658,1.492269632767658,1.492269632767658,1.492269632767658,1.492269632767658,1.492269632767658,1.492269632767658,1.492269632767658,1.492269632767658,1.492269632767658,1.492269632767658,1.492269632767658,1.48886827222344,1.48886827222344,1.48886827222344,1.492269632767658,1.492269632767658,1.492269632767658,1.492269632767658,1.492269632767658,1.492269632767658,1.48886827222344,1.4786641905907871,1.4752628300465693,1.4752628300465693,1.4752628300465693,1.4752628300465693,1.4752628300465693,1.4752628300465693,1.4752628300465693,1.468460108958134,1.4548546667812632,1.4480519456928278,1.4446505851486102,1.4412492246043926,1.4378478640601748,1.4310451429717395,1.4310451429717395,1.4412492246043926,1.4446505851486102,1.4548546667812632,1.4820655511350047,1.4990723538560933,1.512677796032964,1.5194805171213994,1.5194805171213994,1.5194805171213994,1.5058750749445287,1.4820655511350047,1.4446505851486102,1.4276437824275219,1.4140383402506511,1.403834258617998,1.4004328980737804,1.4004328980737804,1.4004328980737804,1.4004328980737804,1.4004328980737804,1.4004328980737804,1.4004328980737804,1.4004328980737804,1.4004328980737804,1.4004328980737804,1.3970315375295626,1.3970315375295626,1.393630176985345,1.3868274558969096,1.3800247348084742,1.3766233742642564,1.3766233742642564,1.3732220137200388,1.369820653175821,1.3630179320873856,1.3630179320873856,1.3630179320873856,1.3630179320873856,1.3630179320873856,1.3630179320873856,1.359616571543168,1.359616571543168,1.359616571543168,1.359616571543168,1.359616571543168,1.359616571543168,1.359616571543168,1.359616571543168,1.359616571543168,1.359616571543168,1.359616571543168,1.359616571543168,1.359616571543168,1.359616571543168,1.359616571543168,1.359616571543168,1.359616571543168,1.359616571543168,1.359616571543168,1.359616571543168,1.359616571543168,1.359616571543168,1.359616571543168,1.359616571543168,1.359616571543168,1.359616571543168,1.359616571543168,1.359616571543168,1.359616571543168,1.359616571543168,1.359616571543168,1.359616571543168,1.359616571543168,1.359616571543168,1.359616571543168,1.359616571543168,1.359616571543168,1.359616571543168,1.359616571543168,1.359616571543168,1.359616571543168,1.359616571543168,1.359616571543168,1.359616571543168,1.359616571543168,1.359616571543168,1.3358070477336443,1.3358070477336443,1.2983920817472496,1.1793444626996306,1.175943102155413,1.175943102155413,1.175943102155413,1.175943102155413,1.1827458232438484,1.2031539865091545,1.2167594286860253,1.230364870862896,1.2439703130397668,1.2439703130397668,1.2439703130397668,1.230364870862896,1.175943102155413,1.1691403810669776,1.1623376599785422,1.0364873198424878,0.8766233742642565,0.7201607892302428,0.5568954831077939,0.5126777960329639,0.48886827222344015,0.48886827222344015,0.48886827222344015,0.48886827222344015,0.48886827222344015,0.48886827222344015,0.48206555113500477,0.4786641905907871,0.4786641905907871,0.4752628300465694,0.4752628300465694,0.4752628300465694,0.4752628300465694,0.4752628300465694,0.46846010895813406,0.4480519456928279,0.3902288164411272,0.3426097688220796,0.3222016055567735,0.3222016055567735,0.3222016055567735,0.31199752392412045,0.31199752392412045,0.31199752392412045,0.31199752392412045,0.31199752392412045,0.31199752392412045,0.31199752392412045,0.31199752392412045,0.31199752392412045,0.31199752392412045,0.31199752392412045,0.31199752392412045,0.31199752392412045,0.31199752392412045,0.31199752392412045,0.31199752392412045,0.31199752392412045,0.31199752392412045,0.31199752392412045,0.31199752392412045,0.31199752392412045,0.31199752392412045,0.31199752392412045,0.31199752392412045,0.31199752392412045,0.31199752392412045,0.31199752392412045,0.31199752392412045,0.30519480283568506,0.30519480283568506,0.30519480283568506,0.30519480283568506,0.30519480283568506,0.30519480283568506,0.30519480283568506,0.30519480283568506,0.30519480283568506,0.30519480283568506,0.30519480283568506,0.30519480283568506,0.31199752392412045,0.349412489910515,0.3902288164411272,0.43784786406017484,0.5126777960329639,0.6555349388901068,0.7643784763050728,0.8766233742642565,0.9854669116792225,1.1011131701826238,1.1079158912710592,1.1181199729037123,1.175943102155413,1.230364870862896,1.2881880001145967,1.3256029661009912,1.3664192926316034,1.3664192926316034,1.3732220137200388,1.3800247348084742,1.3800247348084742,1.3834260953526918,1.3834260953526918,1.3834260953526918,1.3834260953526918,1.3834260953526918,1.3834260953526918,1.3834260953526918,1.3834260953526918,1.3834260953526918,1.3834260953526918,1.3834260953526918,1.3834260953526918,1.3834260953526918,1.3834260953526918,1.3834260953526918,1.3834260953526918,1.3834260953526918,1.3834260953526918,1.3868274558969096,1.393630176985345,1.393630176985345,1.4004328980737804,1.4004328980737804,1.4004328980737804,1.4004328980737804,1.4004328980737804,1.4004328980737804,1.4004328980737804,1.4004328980737804,1.4004328980737804,1.4004328980737804,1.4004328980737804,1.4004328980737804,1.4004328980737804,1.4004328980737804,1.4004328980737804,1.4004328980737804,1.4004328980737804,1.4004328980737804,1.4004328980737804,1.4004328980737804,1.4004328980737804,1.4004328980737804,1.393630176985345,1.2609771157608551,1.1555349388901068,1.152133578345889,1.0670995647404469,0.8800247348084742,0.5977118096384061,0.4616573878696987,0.4616573878696987,0.38342609535269184,0.2677798368492905,0.240568952495549,0.22696351031867826,0.22696351031867826,0.22696351031867826,0.22356214977446057,0.22356214977446057,0.22356214977446057,0.22356214977446057,0.22356214977446057,0.240568952495549,0.25757575521663745,0.28138527902616123,0.2881880001145966,0.2881880001145966,0.2915893606588143,0.2915893606588143,0.2915893606588143,0.27798391848194354,0.24737167358398438,0.1623376599785422,0.06369820419622928,0.0024737144003109056,-0.03834261213030134,-0.04174397267451903,-0.04174397267451903,-0.04174397267451903,-0.04174397267451903,-0.0485466937629544,-0.0485466937629544,-0.0485466937629544,-0.0485466937629544,-0.0485466937629544,-0.0485466937629544,-0.0485466937629544,-0.0485466937629544,-0.0485466937629544,-0.04174397267451903,-0.017934448864995216,0.016079156577181654,0.01948051712139934,0.01948051712139934,0.01948051712139934,0.01948051712139934,0.01948051712139934,0.01948051712139934,0.01948051712139934,0.01948051712139934,0.01948051712139934,0.01948051712139934,0.01948051712139934,0.02288187766561703,0.02288187766561703,0.02288187766561703,0.02288187766561703,0.02288187766561703,0.01948051712139934,0.005875074944528593,-0.014533088320777529,-0.017934448864995216,-0.017934448864995216,-0.017934448864995216,-0.017934448864995216,-0.017934448864995216,-0.017934448864995216,-0.017934448864995216,-0.017934448864995216,-0.017934448864995216,-0.017934448864995216,-0.017934448864995216,-0.017934448864995216,-0.017934448864995216,-0.017934448864995216,-0.017934448864995216,-0.017934448864995216,-0.017934448864995216,-0.017934448864995216,-0.017934448864995216,-0.017934448864995216,-0.017934448864995216,-0.017934448864995216,-0.017934448864995216,-0.017934448864995216,-0.017934448864995216,-0.017934448864995216,-0.017934448864995216,-0.017934448864995216,-0.017934448864995216,-0.017934448864995216,-0.017934448864995216,-0.017934448864995216,-0.017934448864995216,-0.017934448864995216,-0.017934448864995216,-0.017934448864995216,0.005875074944528593,0.02288187766561703,0.05349412256357621,0.15213357834588914,0.27798391848194354,0.43444650351595715,0.6827458232438484,0.8324056871894265,0.9684601089581341,1.056895483107794,1.141929496713236,1.2167594286860253,1.2677798368492905,1.3017934422914674,1.305194802835685,1.305194802835685,1.305194802835685,1.305194802835685,1.305194802835685,1.305194802835685,1.305194802835685,1.305194802835685,1.305194802835685,1.305194802835685,1.305194802835685,1.305194802835685,1.305194802835685,1.305194802835685,1.305194802835685,1.305194802835685,1.305194802835685,1.305194802835685,1.305194802835685,1.305194802835685,1.305194802835685,1.305194802835685,1.305194802835685,1.305194802835685,1.305194802835685,1.305194802835685,1.305194802835685,1.305194802835685,1.305194802835685,1.271181197393508,1.2575757552166373,1.2541743946724198,1.2541743946724198,1.2541743946724198,1.2541743946724198,1.2337662314071136,1.2269635103186782,1.2269635103186782,1.2269635103186782,1.2269635103186782,1.2167594286860253,1.2133580681418075,1.206555347053372,1.206555347053372,1.1997526259649367,1.1997526259649367,1.1997526259649367,1.1997526259649367,1.1997526259649367,1.1997526259649367,1.1997526259649367,1.1963512654207191,1.1827458232438484,1.141929496713236,1.0364873198424878,0.9616573878696987,0.9004328980737802,0.8732220137200388,0.8732220137200388,0.8732220137200388,0.8732220137200388,0.8732220137200388,0.8732220137200388,0.8732220137200388,0.8664192926316034,0.8358070477336442,0.8256029661009912,0.805194802835685,0.7983920817472496,0.7745825579377259,0.7575757552166374,0.7541743946724198,0.7473716735839844,0.7337662314071136,0.7099567075975898,0.6521335783458891,0.631725415080583,0.6249226939921476,0.6147186123594945,0.6147186123594945,0.6147186123594945,0.6113172518152769,0.5875077280057531,0.5602968436520116,0.5296845987540524,0.5194805171213993,0.5126777960329639,0.5126777960329639,0.5126777960329639,0.5126777960329639,0.5126777960329639,0.5126777960329639,0.5126777960329639,0.5126777960329639,0.5126777960329639,0.5126777960329639,0.5126777960329639,0.5126777960329639,0.5126777960329639,0.5126777960329639,0.5126777960329639,0.5194805171213993,0.5194805171213993,0.5194805171213993,0.5194805171213993,0.5194805171213993,0.5194805171213993,0.5194805171213993,0.5194805171213993,0.5194805171213993,0.5194805171213993,0.5194805171213993,0.5194805171213993,0.5194805171213993,0.5194805171213993,0.5194805171213993,0.5773036463731,0.6249226939921476,0.6657390205227599,0.6725417416111953,0.6725417416111953,0.6725417416111953,0.6555349388901068,0.6385281361690184,0.6351267756248007,0.6351267756248007,0.6725417416111953,0.7711811973935082,0.8324056871894265,0.8664192926316034,0.893630176985345,0.9004328980737802,0.9174397007948687,0.9344465035159571,0.9548546667812633,0.9684601089581341,0.9990723538560932,1.0160791565771816,1.046691401475141,1.0670995647404469,1.1181199729037123,1.1181199729037123,1.1181199729037123,1.1181199729037123,1.1181199729037123,1.131725415080583,1.141929496713236,1.152133578345889,1.152133578345889,1.152133578345889,1.152133578345889,1.152133578345889,1.152133578345889,1.152133578345889,1.152133578345889,1.152133578345889,1.152133578345889,1.1487322178016715,1.1453308572574539,1.1453308572574539,1.1453308572574539,1.1453308572574539,1.1453308572574539,1.1453308572574539,1.1453308572574539,1.1453308572574539,1.1453308572574539,1.1453308572574539,1.1453308572574539,1.1453308572574539,1.1453308572574539,1.1453308572574539,1.1453308572574539,1.1351267756248007,1.131725415080583,1.131725415080583,1.131725415080583,1.131725415080583,1.131725415080583,1.131725415080583,1.131725415080583,1.131725415080583,1.131725415080583,1.131725415080583,1.131725415080583,1.131725415080583,1.131725415080583,1.131725415080583,1.131725415080583,1.131725415080583,1.131725415080583,1.131725415080583,1.131725415080583,1.131725415080583,1.131725415080583,1.131725415080583,1.131725415080583,1.131725415080583,1.131725415080583,1.131725415080583,1.131725415080583,1.131725415080583,1.131725415080583,1.131725415080583,1.1283240545363653,1.1283240545363653,1.1283240545363653,1.1283240545363653,1.1283240545363653,1.1283240545363653,1.1283240545363653,1.1283240545363653,1.1283240545363653,1.1283240545363653,1.1283240545363653,1.1283240545363653,1.1283240545363653,1.1283240545363653,1.1283240545363653,1.1283240545363653,1.1283240545363653,1.1283240545363653,1.1283240545363653,1.1283240545363653,1.1283240545363653,1.1283240545363653,1.1283240545363653,1.1283240545363653,1.1283240545363653,1.1283240545363653,1.1283240545363653,1.1283240545363653,1.1283240545363653,1.1283240545363653,1.1283240545363653,1.1283240545363653,1.1283240545363653,1.1283240545363653,1.1283240545363653,1.1283240545363653,1.1283240545363653,1.1283240545363653,1.1283240545363653,1.1283240545363653,1.1283240545363653,1.1283240545363653,1.1283240545363653,1.1283240545363653,1.1283240545363653,1.1283240545363653,1.1283240545363653,1.1283240545363653,1.1283240545363653,1.1283240545363653,1.1283240545363653,1.1283240545363653,1.1283240545363653,1.1283240545363653,1.1283240545363653,1.1283240545363653,1.1283240545363653,1.1283240545363653,1.1249226939921477,1.1249226939921477,1.1249226939921477,1.1249226939921477,1.1249226939921477,1.1249226939921477,1.1249226939921477,1.1249226939921477,1.1249226939921477,1.1249226939921477,1.1249226939921477,1.1249226939921477,1.1249226939921477,1.1249226939921477,1.12152133344793,1.12152133344793,1.12152133344793,1.12152133344793,1.111317251815277,1.0705009252846647,1.0194805171213994,0.9684601089581341,0.9480519456928279,0.9446505851486102,0.9446505851486102,0.9446505851486102,0.9446505851486102,0.9446505851486102,0.9446505851486102,0.9446505851486102,0.9446505851486102,0.9446505851486102,0.9446505851486102,0.9446505851486102,0.9446505851486102,0.9446505851486102,0.9446505851486102,0.9446505851486102,0.9446505851486102,0.9446505851486102,0.9446505851486102,0.9412492246043925,0.9412492246043925,0.9412492246043925,0.9446505851486102,0.9548546667812633,0.958256027325481,0.9616573878696987,0.9616573878696987,0.9616573878696987,0.9616573878696987,0.9616573878696987,0.9616573878696987,0.9616573878696987,0.9616573878696987,0.9616573878696987,0.9616573878696987,0.9616573878696987,0.9616573878696987,0.9650587484139164,0.9684601089581341,0.9752628300465694,0.9752628300465694,0.9752628300465694,0.9752628300465694,0.9752628300465694,0.9752628300465694,0.9752628300465694,0.9752628300465694,0.9752628300465694,0.9752628300465694,0.9752628300465694,0.9752628300465694,0.9752628300465694,0.9752628300465694,0.9752628300465694,0.9888682722234402,0.9922696327676579,0.9922696327676579,1.0024737144003109,1.0024737144003109,1.0160791565771816,1.0262832382098348,1.0330859592982702,1.0398886803867056,1.0500927620193585,1.053494122563576,1.053494122563576,1.053494122563576,1.053494122563576,1.053494122563576,1.053494122563576,1.053494122563576,1.053494122563576,1.053494122563576,1.053494122563576,1.053494122563576,1.053494122563576,1.053494122563576,1.053494122563576,1.053494122563576,1.053494122563576,1.053494122563576,1.053494122563576,1.0432900409309231,1.0398886803867056,1.0398886803867056,1.0398886803867056,1.0398886803867056,1.0398886803867056,1.0398886803867056,1.0398886803867056,1.0398886803867056,1.0398886803867056,1.0330859592982702,1.0058750749445287,0.9888682722234402,0.9684601089581341,0.9514533062370456,0.9344465035159571,0.9242424218833041,0.9106369797064333,0.9072356191622156,0.9004328980737802,0.893630176985345,0.8902288164411273,0.8698206531758211,0.8426097688220796,0.8119975239241204,0.8017934422914673,0.7745825579377259,0.7439703130397667,0.7167594286860252,0.6725417416111953,0.6113172518152769,0.5534941225635762,0.4990723538560932,0.4548546667812633,0.43444650351595715,0.42764378242752177,0.42764378242752177,0.42764378242752177,0.42764378242752177,0.42764378242752177,0.42764378242752177,0.42764378242752177,0.42764378242752177,0.42764378242752177,0.42764378242752177,0.42764378242752177,0.42764378242752177,0.42764378242752177,0.42764378242752177,0.43104514297173946,0.4616573878696987,0.5126777960329639,0.5534941225635762,0.5841063674615354,0.6249226939921476,0.6657390205227599,0.7575757552166374,0.8222016055567735,0.8902288164411273,0.9174397007948687,0.9378478640601748,0.9480519456928279,0.9480519456928279,0.9616573878696987,0.9684601089581341,0.9684601089581341,0.9684601089581341,0.9684601089581341,0.9548546667812633,0.9344465035159571,0.9004328980737802,0.8664192926316034,0.8392084082778619,0.7779839184819436,0.7065553470533721,0.6453308572574538,0.6147186123594945,0.6113172518152769,0.6113172518152769,0.6113172518152769,0.6113172518152769,0.6113172518152769,0.6113172518152769,0.6113172518152769,0.5909090885499708,0.5500927620193585,0.49567099331187553,0.48206555113500477,0.47186146950235175,0.47186146950235175,0.47186146950235175,0.47186146950235175,0.47186146950235175,0.47186146950235175,0.47186146950235175,0.46846010895813406,0.4786641905907871,0.48546691167922246,0.48886827222344015,0.49567099331187553,0.5024737144003109,0.5160791565771816,0.5160791565771816,0.5160791565771816,0.5160791565771816,0.5160791565771816,0.5160791565771816,0.5160791565771816,0.5160791565771816,0.5160791565771816,0.5160791565771816,0.5160791565771816,0.5160791565771816,0.5160791565771816,0.5330859592982701,0.5807050069173177,0.6011131701826238,0.6147186123594945,0.6147186123594945,0.6147186123594945,0.6147186123594945,0.6147186123594945,0.6147186123594945,0.6147186123594945,0.6147186123594945,0.6147186123594945,0.6147186123594945,0.6113172518152769,0.6011131701826238,0.5943104490941885,0.5909090885499708,0.5909090885499708,0.5909090885499708,0.5909090885499708,0.5909090885499708,0.5909090885499708,0.5807050069173177,0.5807050069173177,0.5807050069173177,0.5807050069173177,0.5807050069173177,0.5807050069173177,0.5807050069173177,0.5807050069173177,0.5807050069173177,0.5807050069173177,0.5807050069173177,0.5807050069173177,0.5807050069173177,0.5807050069173177,0.5807050069173177,0.5807050069173177,0.5807050069173177,0.5807050069173177,0.5773036463731,0.5773036463731,0.5773036463731,0.5773036463731,0.5773036463731,0.5773036463731,0.5773036463731,0.5773036463731,0.5773036463731,0.5773036463731,0.5773036463731,0.5773036463731,0.5773036463731,0.5636982041962293,0.5364873198424878,0.5024737144003109,0.46505874841391637,0.3970315375295626,0.3460111293662973,0.2915893606588143,0.27798391848194354,0.2677798368492905,0.26437847630507283,0.26437847630507283,0.26437847630507283,0.26437847630507283,0.25757575521663745,0.23376623140711364,0.20655534705337214,0.18954854433228369,0.17934446269963064,0.17594310215541295,0.17254174161119526,0.17254174161119526,0.17254174161119526,0.17254174161119526,0.17254174161119526,0.17254174161119526,0.17254174161119526,0.17254174161119526,0.17254174161119526,0.16914038106697757,0.16914038106697757,0.16914038106697757,0.16914038106697757,0.16914038106697757,0.16914038106697757,0.16914038106697757,0.16914038106697757,0.16914038106697757,0.16914038106697757,0.16914038106697757,0.16914038106697757,0.16914038106697757,0.16914038106697757,0.16914038106697757,0.16914038106697757,0.16914038106697757,0.16914038106697757,0.16914038106697757,0.16914038106697757,0.16914038106697757,0.16914038106697757,0.16914038106697757,0.16914038106697757,0.16914038106697757,0.16914038106697757,0.16914038106697757,0.16914038106697757,0.16914038106697757,0.16914038106697757,0.16914038106697757,0.16914038106697757,0.17254174161119526,0.17594310215541295,0.19294990487650138,0.20315398650915445,0.2371675919513313,0.2915893606588143,0.37322201372003877,0.4752628300465694,0.6011131701826238,0.7473716735839844,0.8800247348084742,0.9208410613390864,0.9344465035159571,0.9344465035159571,0.9378478640601748,0.9378478640601748,0.958256027325481,1.0024737144003109,1.0602968436520115,1.0977118096384062,1.1079158912710592,1.1079158912710592,1.1079158912710592,1.1079158912710592,1.1079158912710592,1.1079158912710592,1.1079158912710592,1.1079158912710592,1.1079158912710592,1.1079158912710592,1.1079158912710592,1.1079158912710592,1.1079158912710592,1.1079158912710592,1.1147186123594945,1.1147186123594945,1.1385281361690185,1.1453308572574539,1.1453308572574539,1.1453308572574539,1.1453308572574539,1.1453308572574539,1.1453308572574539,1.1453308572574539,1.1453308572574539,1.1453308572574539,1.1453308572574539,1.1453308572574539,1.1453308572574539,1.1453308572574539,1.1453308572574539,1.1453308572574539,1.1453308572574539,1.1453308572574539,1.1453308572574539,1.1453308572574539,1.1453308572574539,1.1453308572574539,1.1453308572574539,1.1453308572574539,1.1453308572574539,1.1453308572574539,1.1453308572574539,1.1453308572574539,1.1453308572574539,1.1453308572574539,1.1453308572574539,1.1453308572574539,1.1453308572574539,1.1453308572574539,1.1453308572574539,1.1453308572574539,1.1453308572574539,1.1453308572574539,1.1453308572574539,1.1453308572574539,1.1453308572574539,1.1453308572574539,1.1453308572574539,1.1453308572574539,1.1453308572574539,1.1487322178016715,1.1487322178016715,1.1487322178016715,1.1487322178016715,1.1487322178016715,1.1487322178016715,1.1487322178016715,1.1487322178016715,1.152133578345889,1.152133578345889,1.152133578345889,1.1691403810669776,1.1895485443322837,1.240568952495549,1.2847866395703789,1.2881880001145967,1.3222016055567736,1.3868274558969096,1.4616573878696986,1.4854669116792225,1.492269632767658,1.492269632767658,1.492269632767658,1.492269632767658,1.492269632767658,1.492269632767658,1.492269632767658,1.492269632767658,1.492269632767658,1.492269632767658,1.492269632767658,1.492269632767658,1.492269632767658,1.492269632767658,1.492269632767658,1.492269632767658,1.5160791565771816,1.5739022858288823,1.587507728005753,1.587507728005753,1.587507728005753,1.587507728005753,1.587507728005753,1.587507728005753,1.587507728005753,1.587507728005753,1.587507728005753,1.587507728005753,1.587507728005753,1.5909090885499708,1.5909090885499708,1.5909090885499708,1.5909090885499708,1.5909090885499708,1.5909090885499708,1.5909090885499708,1.5909090885499708,1.5909090885499708,1.5909090885499708,1.5909090885499708,1.5909090885499708,1.5909090885499708,1.5909090885499708,1.5909090885499708,1.5909090885499708,1.5909090885499708,1.5909090885499708,1.5909090885499708,1.5909090885499708,1.5909090885499708,1.5909090885499708,1.5909090885499708,1.5909090885499708,1.5909090885499708,1.5909090885499708,1.5909090885499708,1.5909090885499708,1.5909090885499708,1.5909090885499708,1.5909090885499708,1.5909090885499708,1.5909090885499708,1.5909090885499708,1.5909090885499708,1.5909090885499708,1.5909090885499708,1.5909090885499708,1.5909090885499708,1.5909090885499708,1.5909090885499708,1.5909090885499708,1.5909090885499708,1.5909090885499708,1.5909090885499708,1.5909090885499708,1.5943104490941884,1.5943104490941884,1.5943104490941884],"y":[-3.246031746031746,-3.246031746031746,-3.246031746031746,-3.246031746031746,-3.246031746031746,-3.246031746031746,-3.246031746031746,-3.246031746031746,-3.246031746031746,-3.246031746031746,0.3006674145895339,0.3006674145895339,0.3006674145895339,0.3006674145895339,0.3006674145895339,0.2911436050657244,0.2625721764942958,0.23400074792286724,0.18638170030381962,0.14828646220858152,0.06257217649429582,-0.042189728267608945,-0.12790401398189466,-0.261237347315228,-0.3183802044580851,-0.35647544255332325,-0.3945706806485613,-0.4707611568390375,-0.5469516330295137,-0.5945706806485613,-0.6517135377914185,-0.6993325854104661,-0.7564754425533232,-0.7755230616009423,-0.842189728267609,-0.9279040139818947,-0.9659992520771328,-0.9850468711247518,-0.9850468711247518,-0.9850468711247518,-0.9850468711247518,-0.9659992520771328,-0.880284966362847,-0.7850468711247518,-0.6898087758866566,-0.6707611568390375,-0.6517135377914185,-0.5850468711247518,-0.5564754425533233,-0.5564754425533233,-0.5564754425533233,-0.5564754425533233,-0.5564754425533233,-0.5564754425533233,-0.5564754425533233,-0.5564754425533233,-0.5564754425533233,-0.5564754425533233,-0.5564754425533233,-0.5564754425533233,-0.5850468711247518,-0.5850468711247518,-0.6040944901723708,-0.6707611568390375,-0.6993325854104661,-0.7469516330295137,-0.7564754425533232,-0.7755230616009423,-0.7945706806485613,-0.7945706806485613,-0.7945706806485613,-0.7945706806485613,-0.7945706806485613,-0.7945706806485613,-0.7945706806485613,-0.7945706806485613,-0.7945706806485613,-0.7850468711247518,-0.7564754425533232,-0.7088563949342757,-0.6707611568390375,-0.6421897282676089,-0.5945706806485613,-0.5850468711247518,-0.5755230616009422,-0.5755230616009422,-0.5755230616009422,-0.5755230616009422,-0.5755230616009422,-0.5755230616009422,-0.5755230616009422,-0.5755230616009422,-0.5755230616009422,-0.5755230616009422,-0.5659992520771328,-0.5279040139818947,-0.4707611568390375,-0.2326659187437994,-0.03266591874379942,0.16733408125620058,0.2911436050657244,0.35781027173239105,0.3673340812562006,0.3673340812562006,0.3673340812562006,0.3673340812562006,0.3673340812562006,0.3673340812562006,0.3673340812562006,0.3673340812562006,0.3673340812562006,0.3673340812562006,0.3673340812562006,0.3673340812562006,0.3673340812562006,0.3673340812562006,0.3673340812562006,0.3482864622085815,0.3482864622085815,0.3482864622085815,0.3482864622085815,0.3482864622085815,0.3482864622085815,0.3482864622085815,0.3482864622085815,0.3482864622085815,0.3482864622085815,0.3482864622085815,0.3482864622085815,0.3482864622085815,0.3482864622085815,0.3482864622085815,0.3482864622085815,0.3482864622085815,0.3482864622085815,0.3482864622085815,0.3482864622085815,0.3482864622085815,0.3482864622085815,0.3482864622085815,0.3482864622085815,0.338762652684772,0.338762652684772,0.338762652684772,0.338762652684772,0.338762652684772,0.338762652684772,0.338762652684772,0.338762652684772,0.338762652684772,0.35781027173239105,0.3768578907800101,0.3959055098276292,0.3959055098276292,0.3959055098276292,0.3959055098276292,0.3959055098276292,0.3959055098276292,0.3959055098276292,0.3959055098276292,0.3959055098276292,0.4149531288752482,0.43400074792286725,0.43400074792286725,0.43400074792286725,0.4435245574466768,0.4435245574466768,0.46257217649429583,0.46257217649429583,0.4720959860181053,0.5006674145895339,0.5292388431609625,0.5673340812562006,0.6244769383990577,0.6911436050657244,0.738762652684772,0.8244769383990577,0.8530483669704862,0.9006674145895339,0.9101912241133434,0.9101912241133434,0.9101912241133434,0.919715033637153,0.919715033637153,0.919715033637153,0.919715033637153,0.919715033637153,0.919715033637153,0.919715033637153,0.919715033637153,0.919715033637153,0.919715033637153,0.9292388431609625,0.9292388431609625,0.9292388431609625,0.9292388431609625,0.9292388431609625,0.9292388431609625,0.9292388431609625,0.9292388431609625,0.919715033637153,0.9101912241133434,0.9101912241133434,0.9101912241133434,0.9101912241133434,0.9101912241133434,0.9101912241133434,0.9101912241133434,0.9101912241133434,0.9101912241133434,0.9101912241133434,0.9101912241133434,0.9101912241133434,0.9101912241133434,0.9101912241133434,0.9101912241133434,0.9101912241133434,0.9101912241133434,0.9101912241133434,0.9101912241133434,0.9101912241133434,0.9101912241133434,0.9101912241133434,0.9101912241133434,0.9101912241133434,0.9101912241133434,0.9101912241133434,0.9101912241133434,0.9101912241133434,0.9101912241133434,0.9101912241133434,0.9101912241133434,0.9101912241133434,0.9101912241133434,0.9101912241133434,0.9101912241133434,0.9101912241133434,0.9101912241133434,0.9101912241133434,0.9101912241133434,0.9101912241133434,0.9101912241133434,0.9101912241133434,0.9101912241133434,0.9101912241133434,0.9101912241133434,0.9101912241133434,0.9101912241133434,0.9101912241133434,0.9101912241133434,0.9101912241133434,0.9101912241133434,0.9101912241133434,0.9101912241133434,0.9101912241133434,0.8911436050657244,0.7768578907800101,0.7768578907800101,0.7768578907800101,0.7768578907800101,0.757810271732391,0.7101912241133435,0.6340007479228672,0.5673340812562006,0.4911436050657244,0.4244769383990577,0.3768578907800101,0.338762652684772,0.2625721764942958,0.22447693839905772,0.22447693839905772,0.22447693839905772,0.23400074792286724,0.2911436050657244,0.3482864622085815,0.4244769383990577,0.4244769383990577,0.4244769383990577,0.4244769383990577,0.4244769383990577,0.4244769383990577,0.4244769383990577,0.4244769383990577,0.38638170030381963,0.3768578907800101,0.35781027173239105,0.3006674145895339,0.2625721764942958,0.20542931935143868,0.1768578907800101,0.16733408125620058,0.11971503363715295,0.06257217649429582,0.014953128875248196,-0.0231421092199899,-0.03266591874379942,-0.03266591874379942,-0.03266591874379942,-0.061237347315227994,-0.061237347315227994,-0.061237347315227994,-0.061237347315227994,-0.061237347315227994,-0.061237347315227994,-0.061237347315227994,-0.061237347315227994,-0.061237347315227994,-0.061237347315227994,-0.061237347315227994,-0.061237347315227994,-0.061237347315227994,-0.061237347315227994,-0.061237347315227994,-0.061237347315227994,-0.061237347315227994,-0.061237347315227994,-0.061237347315227994,-0.061237347315227994,-0.061237347315227994,-0.061237347315227994,-0.061237347315227994,-0.061237347315227994,-0.061237347315227994,-0.061237347315227994,-0.061237347315227994,-0.061237347315227994,-0.042189728267608945,-0.042189728267608945,-0.042189728267608945,-0.042189728267608945,-0.042189728267608945,-0.042189728267608945,-0.042189728267608945,-0.042189728267608945,-0.042189728267608945,-0.042189728267608945,-0.042189728267608945,-0.0231421092199899,0.005429319351438673,0.034000747922867246,0.05304836697048629,0.08161979554191487,0.08161979554191487,0.08161979554191487,0.08161979554191487,0.08161979554191487,0.08161979554191487,0.07209598601810534,0.07209598601810534,0.07209598601810534,0.07209598601810534,0.07209598601810534,0.07209598601810534,0.07209598601810534,0.08161979554191487,0.08161979554191487,0.08161979554191487,0.08161979554191487,0.08161979554191487,0.08161979554191487,0.08161979554191487,0.08161979554191487,0.08161979554191487,0.08161979554191487,0.08161979554191487,0.08161979554191487,0.08161979554191487,0.08161979554191487,0.08161979554191487,0.08161979554191487,0.08161979554191487,0.08161979554191487,0.08161979554191487,0.08161979554191487,0.08161979554191487,0.08161979554191487,0.08161979554191487,0.08161979554191487,0.08161979554191487,0.08161979554191487,0.08161979554191487,0.08161979554191487,0.08161979554191487,0.08161979554191487,0.08161979554191487,0.08161979554191487,0.08161979554191487,0.08161979554191487,0.08161979554191487,0.08161979554191487,0.08161979554191487,0.08161979554191487,0.08161979554191487,0.08161979554191487,0.08161979554191487,0.08161979554191487,0.08161979554191487,0.08161979554191487,0.08161979554191487,0.08161979554191487,0.08161979554191487,0.08161979554191487,0.08161979554191487,0.138762652684772,0.24352455744667678,0.24352455744667678,0.2911436050657244,0.35781027173239105,0.4244769383990577,0.4244769383990577,0.4244769383990577,0.4244769383990577,0.4244769383990577,0.4244769383990577,0.4244769383990577,0.4244769383990577,0.4244769383990577,0.4244769383990577,0.40542931935143867,0.338762652684772,0.338762652684772,0.32923884316096247,0.2149531288752482,0.15781027173239107,0.07209598601810534,0.02447693839905772,0.005429319351438673,-0.013618299696180376,-0.013618299696180376,-0.013618299696180376,-0.03266591874379942,-0.03266591874379942,-0.03266591874379942,-0.0231421092199899,0.005429319351438673,0.014953128875248196,0.014953128875248196,0.014953128875248196,0.014953128875248196,0.014953128875248196,0.014953128875248196,0.014953128875248196,0.014953128875248196,0.014953128875248196,0.014953128875248196,0.014953128875248196,0.014953128875248196,0.014953128875248196,0.014953128875248196,0.005429319351438673,-0.03266591874379942,-0.061237347315227994,-0.07076115683903751,-0.07076115683903751,-0.07076115683903751,-0.07076115683903751,-0.07076115683903751,-0.07076115683903751,-0.07076115683903751,-0.07076115683903751,-0.07076115683903751,-0.07076115683903751,-0.07076115683903751,-0.07076115683903751,-0.07076115683903751,-0.07076115683903751,-0.07076115683903751,-0.061237347315227994,-0.042189728267608945,-0.03266591874379942,-0.013618299696180376,0.005429319351438673,0.005429319351438673,0.005429319351438673,0.005429319351438673,0.005429319351438673,0.005429319351438673,0.005429319351438673,0.005429319351438673,0.005429319351438673,0.005429319351438673,0.005429319351438673,0.005429319351438673,0.005429319351438673,0.005429319351438673,0.005429319351438673,0.005429319351438673,0.005429319351438673,0.005429319351438673,0.005429319351438673,0.005429319351438673,0.005429319351438673,0.005429319351438673,0.005429319351438673,0.005429319351438673,0.005429319351438673,0.005429319351438673,0.005429319351438673,0.005429319351438673,0.005429319351438673,0.005429319351438673,0.005429319351438673,0.005429319351438673,0.005429319351438673,0.005429319351438673,0.005429319351438673,0.04352455744667677,0.07209598601810534,0.07209598601810534,0.12923884316096249,0.16733408125620058,0.24352455744667678,0.338762652684772,0.4530483669704863,0.5673340812562006,0.6816197955419149,0.7482864622085815,0.8340007479228673,0.9578102717323911,1.0530483669704862,1.1292388431609626,1.157810271732391,1.1863817003038197,1.1863817003038197,1.1863817003038197,1.1863817003038197,1.1863817003038197,1.1863817003038197,1.1863817003038197,1.1863817003038197,1.1863817003038197,1.1863817003038197,1.1863817003038197,1.1863817003038197,1.1863817003038197,1.1863817003038197,1.1863817003038197,1.1863817003038197,1.1863817003038197,1.1863817003038197,1.1863817003038197,1.1863817003038197,1.1863817003038197,1.1863817003038197,1.1863817003038197,1.1863817003038197,1.1863817003038197,1.1863817003038197,1.1863817003038197,1.17685789078001,1.17685789078001,1.17685789078001,1.17685789078001,1.17685789078001,1.17685789078001,1.17685789078001,1.17685789078001,1.2054293193514387,1.2244769383990577,1.2244769383990577,1.2720959860181054,1.3006674145895338,1.357810271732391,1.4435245574466768,1.519715033637153,1.5959055098276291,1.6340007479228673,1.7101912241133435,1.77685789078001,1.795905509827629,1.8054293193514386,1.8054293193514386,1.8435245574466768,1.8530483669704862,1.8530483669704862,1.8530483669704862,1.8530483669704862,1.8435245574466768,1.8340007479228673,1.8054293193514386,1.8054293193514386,1.8054293193514386,1.8054293193514386,1.8054293193514386,1.8054293193514386,1.8054293193514386,1.8054293193514386,1.8054293193514386,1.8149531288752483,1.8530483669704862,1.8911436050657244,1.9101912241133434,1.919715033637153,1.9292388431609624,1.938762652684772,1.957810271732391,1.957810271732391,1.957810271732391,1.957810271732391,1.957810271732391,1.957810271732391,1.957810271732391,1.9482864622085816,1.9101912241133434,1.900667414589534,1.8625721764942957,1.8625721764942957,1.8435245574466768,1.8435245574466768,1.8435245574466768,1.8435245574466768,1.8435245574466768,1.8435245574466768,1.8435245574466768,1.8435245574466768,1.8435245574466768,1.8435245574466768,1.8435245574466768,1.8435245574466768,1.8435245574466768,1.8435245574466768,1.8435245574466768,1.8435245574466768,1.8435245574466768,1.8530483669704862,1.8530483669704862,1.8530483669704862,1.8530483669704862,1.8530483669704862,1.8530483669704862,1.8530483669704862,1.8530483669704862,1.8530483669704862,1.8530483669704862,1.8530483669704862,1.8530483669704862,1.8530483669704862,1.8340007479228673,1.77685789078001,1.7482864622085816,1.7482864622085816,1.7482864622085816,1.7482864622085816,1.7482864622085816,1.77685789078001,1.7863817003038196,1.7863817003038196,1.7673340812562006,1.6816197955419148,1.6530483669704863,1.6340007479228673,1.6244769383990578,1.6244769383990578,1.6054293193514386,1.5863817003038196,1.557810271732391,1.5482864622085815,1.5482864622085815,1.519715033637153,1.4911436050657243,1.4720959860181053,1.4340007479228671,1.4340007479228671,1.4340007479228671,1.4340007479228671,1.4340007479228671,1.4244769383990576,1.4149531288752482,1.3863817003038197,1.3863817003038197,1.3863817003038197,1.3863817003038197,1.3863817003038197,1.3863817003038197,1.3863817003038197,1.3768578907800102,1.338762652684772,1.319715033637153,1.2720959860181054,1.2530483669704864,1.2530483669704864,1.2530483669704864,1.2530483669704864,1.2530483669704864,1.2530483669704864,1.2530483669704864,1.2530483669704864,1.2530483669704864,1.2530483669704864,1.2530483669704864,1.2530483669704864,1.2530483669704864,1.2530483669704864,1.2530483669704864,1.2530483669704864,1.2530483669704864,1.2530483669704864,1.2530483669704864,1.2530483669704864,1.2530483669704864,1.2530483669704864,1.2530483669704864,1.2530483669704864,1.2530483669704864,1.2530483669704864,1.2530483669704864,1.2530483669704864,1.2530483669704864,1.2530483669704864,1.2530483669704864,1.2530483669704864,1.2530483669704864,1.2530483669704864,1.2530483669704864,1.2530483669704864,1.2530483669704864,1.2530483669704864,1.2530483669704864,1.2530483669704864,1.2530483669704864,1.2530483669704864,1.2530483669704864,1.2530483669704864,1.2530483669704864,1.2530483669704864,1.2435245574466767,1.2435245574466767,1.2435245574466767,1.2435245574466767,1.2435245574466767,1.2435245574466767,1.2435245574466767,1.2435245574466767,1.2435245574466767,1.2435245574466767,1.2435245574466767,1.2435245574466767,1.2435245574466767,1.2435245574466767,1.2435245574466767,1.2435245574466767,1.2435245574466767,1.2435245574466767,1.2435245574466767,1.2435245574466767,1.2435245574466767,1.2435245574466767,1.2435245574466767,1.2435245574466767,1.2435245574466767,1.2435245574466767,1.2435245574466767,1.2435245574466767,1.2435245574466767,1.2435245574466767,1.2435245574466767,1.2435245574466767,1.2435245574466767,1.2435245574466767,1.2435245574466767,1.2435245574466767,1.2435245574466767,1.2435245574466767,1.2435245574466767,1.2435245574466767,1.2435245574466767,1.2435245574466767,1.2435245574466767,1.2435245574466767,1.2435245574466767,1.2435245574466767,1.2435245574466767,1.2435245574466767,1.2435245574466767,1.2435245574466767,1.2435245574466767,1.2435245574466767,1.2435245574466767,1.2435245574466767,1.2435245574466767,1.2435245574466767,1.2435245574466767,1.2435245574466767,1.2435245574466767,1.2435245574466767,1.2435245574466767,1.2435245574466767,1.2435245574466767,1.2435245574466767,1.2435245574466767,1.2435245574466767,1.2435245574466767,1.2435245574466767,1.2435245574466767,1.2435245574466767,1.2435245574466767,1.2435245574466767,1.2435245574466767,1.2435245574466767,1.2435245574466767,1.2435245574466767,1.2435245574466767,1.2435245574466767,1.2435245574466767,1.2435245574466767,1.2435245574466767,1.2435245574466767,1.2435245574466767,1.2435245574466767,1.2435245574466767,1.2435245574466767,1.2435245574466767,1.2435245574466767,1.2435245574466767,1.2435245574466767,1.2435245574466767,1.2435245574466767,1.2435245574466767,1.2435245574466767,1.2435245574466767,1.2435245574466767,1.2435245574466767,1.2435245574466767,1.2435245574466767,1.1863817003038197,1.157810271732391,1.1006674145895339,1.062572176494296,1.0435245574466767,1.0340007479228672,1.0340007479228672,1.0340007479228672,1.0340007479228672,1.0340007479228672,1.0340007479228672,1.0340007479228672,1.0340007479228672,1.0340007479228672,1.0340007479228672,1.0340007479228672,1.0340007479228672,1.0340007479228672,1.0244769383990577,0.9863817003038197,0.9768578907800101,0.9768578907800101,0.9768578907800101,0.9768578907800101,0.9768578907800101,0.9768578907800101,0.9768578907800101,0.9768578907800101,0.9768578907800101,0.9768578907800101,0.9768578907800101,0.9768578907800101,0.9768578907800101,0.9768578907800101,0.9768578907800101,0.9768578907800101,0.9959055098276292,1.0244769383990577,1.081619795541915,1.1101912241133434,1.1863817003038197,1.2625721764942959,1.338762652684772,1.4149531288752482,1.500667414589534,1.5292388431609625,1.538762652684772,1.538762652684772,1.538762652684772,1.557810271732391,1.557810271732391,1.557810271732391,1.557810271732391,1.557810271732391,1.557810271732391,1.557810271732391,1.557810271732391,1.557810271732391,1.557810271732391,1.557810271732391,1.557810271732391,1.557810271732391,1.557810271732391,1.557810271732391,1.557810271732391,1.557810271732391,1.557810271732391,1.557810271732391,1.557810271732391,1.557810271732391,1.557810271732391,1.557810271732391,1.557810271732391,1.519715033637153,1.4911436050657243,1.4530483669704863,1.4149531288752482,1.3959055098276292,1.3768578907800102,1.357810271732391,1.3482864622085815,1.3482864622085815,1.3482864622085815,1.3292388431609625,1.319715033637153,1.319715033637153,1.319715033637153,1.319715033637153,1.319715033637153,1.3292388431609625,1.357810271732391,1.357810271732391,1.357810271732391,1.357810271732391,1.357810271732391,1.357810271732391,1.357810271732391,1.357810271732391,1.3673340812562005,1.3673340812562005,1.3673340812562005,1.3673340812562005,1.3768578907800102,1.3768578907800102,1.3768578907800102,1.3768578907800102,1.3768578907800102,1.3768578907800102,1.3768578907800102,1.3768578907800102,1.3768578907800102,1.3863817003038197,1.3863817003038197,1.357810271732391,1.338762652684772,1.338762652684772,1.338762652684772,1.338762652684772,1.319715033637153,1.2720959860181054,1.2625721764942959,1.2054293193514387,1.17685789078001,1.1673340812562005,1.138762652684772,1.138762652684772,1.062572176494296,0.9863817003038197,0.9292388431609625,0.8149531288752482,0.738762652684772,0.6435245574466768,0.5482864622085816,0.4720959860181053,0.4149531288752482,0.38638170030381963,0.319715033637153,0.2625721764942958,0.24352455744667678,0.24352455744667678,0.24352455744667678,0.24352455744667678,0.24352455744667678,0.24352455744667678,0.24352455744667678,0.24352455744667678,0.24352455744667678,0.24352455744667678,0.19590550982762914,0.138762652684772,0.11019122411334344,0.1006674145895339,0.1006674145895339,0.1006674145895339,0.1006674145895339,0.1006674145895339,0.1006674145895339,0.1006674145895339,0.08161979554191487,0.034000747922867246,0.014953128875248196,-0.004094490172370851,-0.013618299696180376,-0.03266591874379942,-0.061237347315227994,-0.061237347315227994,-0.061237347315227994,-0.061237347315227994,-0.061237347315227994,-0.061237347315227994,-0.061237347315227994,-0.061237347315227994,-0.061237347315227994,-0.061237347315227994,-0.061237347315227994,-0.061237347315227994,-0.061237347315227994,-0.061237347315227994,-0.061237347315227994,-0.061237347315227994,-0.061237347315227994,-0.061237347315227994,-0.061237347315227994,-0.061237347315227994,-0.061237347315227994,-0.061237347315227994,-0.061237347315227994,-0.061237347315227994,-0.061237347315227994,-0.061237347315227994,-0.061237347315227994,-0.061237347315227994,-0.08028496636284704,-0.08980877588665656,-0.08980877588665656,-0.08980877588665656,-0.08980877588665656,-0.08980877588665656,-0.08980877588665656,-0.08980877588665656,-0.08980877588665656,-0.08980877588665656,-0.08980877588665656,-0.08980877588665656,-0.08980877588665656,-0.08980877588665656,-0.08980877588665656,-0.08980877588665656,-0.08980877588665656,-0.08980877588665656,-0.08980877588665656,-0.08980877588665656,-0.08980877588665656,-0.08980877588665656,-0.08980877588665656,-0.08980877588665656,-0.08980877588665656,-0.08980877588665656,-0.08980877588665656,-0.08980877588665656,-0.08980877588665656,-0.08980877588665656,-0.08980877588665656,-0.08980877588665656,-0.08980877588665656,-0.08980877588665656,-0.08980877588665656,-0.08980877588665656,-0.08980877588665656,-0.08980877588665656,-0.08980877588665656,-0.042189728267608945,-0.013618299696180376,-0.013618299696180376,0.04352455744667677,0.04352455744667677,0.07209598601810534,0.07209598601810534,0.07209598601810534,0.07209598601810534,0.07209598601810534,0.07209598601810534,0.07209598601810534,0.07209598601810534,0.07209598601810534,0.07209598601810534,0.07209598601810534,0.07209598601810534,0.07209598601810534,0.07209598601810534,0.07209598601810534,0.07209598601810534,0.07209598601810534,0.07209598601810534,0.07209598601810534,0.07209598601810534,0.07209598601810534,0.07209598601810534,0.06257217649429582,0.05304836697048629,0.05304836697048629,0.05304836697048629,0.05304836697048629,0.05304836697048629,0.05304836697048629,0.05304836697048629,0.05304836697048629,0.05304836697048629,0.05304836697048629,0.05304836697048629,0.05304836697048629,0.05304836697048629,0.05304836697048629,0.05304836697048629,0.05304836697048629,0.05304836697048629,0.05304836697048629,0.05304836697048629,0.05304836697048629,0.05304836697048629,0.05304836697048629,0.05304836697048629,0.05304836697048629,0.05304836697048629,0.05304836697048629,0.05304836697048629,0.05304836697048629,0.05304836697048629,0.05304836697048629,0.05304836697048629,0.05304836697048629,0.05304836697048629,0.07209598601810534,0.08161979554191487,0.15781027173239107,0.25304836697048627,0.338762652684772,0.4244769383990577,0.4530483669704863,0.4530483669704863,0.4530483669704863,0.4530483669704863,0.4530483669704863,0.4530483669704863,0.4530483669704863,0.4530483669704863,0.4720959860181053,0.4720959860181053,0.5006674145895339,0.5006674145895339,0.5006674145895339,0.5006674145895339,0.5006674145895339,0.5006674145895339,0.5006674145895339,0.5006674145895339,0.5006674145895339,0.5006674145895339,0.5006674145895339,0.5006674145895339,0.5006674145895339,0.5006674145895339,0.5006674145895339,0.5006674145895339,0.5006674145895339,0.5006674145895339,0.5006674145895339,0.5006674145895339,0.5006674145895339,0.5006674145895339,0.5006674145895339,0.5006674145895339,0.5006674145895339,0.5006674145895339,0.5006674145895339,0.5006674145895339,0.5006674145895339,0.5006674145895339,0.5006674145895339,0.5006674145895339,0.5006674145895339,0.5006674145895339,0.5006674145895339,0.5006674145895339,0.5006674145895339,0.5006674145895339,0.5006674145895339,0.5006674145895339,0.5006674145895339,0.5006674145895339,0.5006674145895339,0.5006674145895339,0.5006674145895339,0.5006674145895339,0.5006674145895339,0.5006674145895339,0.5006674145895339,0.5006674145895339,0.5006674145895339,0.5006674145895339,0.5006674145895339,0.5006674145895339,0.5006674145895339,0.5006674145895339,0.5006674145895339,0.5006674145895339,0.5006674145895339,0.5006674145895339,0.5006674145895339,0.5006674145895339,0.5006674145895339,0.5006674145895339,0.5006674145895339,0.5006674145895339,0.5006674145895339,0.5006674145895339,0.5006674145895339,0.5006674145895339,0.5006674145895339,0.5006674145895339,0.5578102717323911,0.5863817003038196,0.6816197955419149,0.7292388431609624,0.7959055098276292,0.8340007479228673,0.8340007479228673,0.9101912241133434,1.0054293193514388,1.1292388431609626,1.1959055098276292,1.2054293193514387,1.2054293193514387,1.2054293193514387,1.2054293193514387,1.2054293193514387,1.2054293193514387,1.2054293193514387,1.2054293193514387,1.2054293193514387,1.2054293193514387,1.2054293193514387,1.2054293193514387,1.2054293193514387,1.2054293193514387,1.2054293193514387,1.2054293193514387,1.1863817003038197,1.157810271732391,1.138762652684772,1.138762652684772,1.138762652684772,1.138762652684772,1.138762652684772,1.138762652684772,1.138762652684772,1.138762652684772,1.138762652684772,1.138762652684772,1.138762652684772,1.138762652684772,1.2054293193514387,1.2340007479228672,1.2435245574466767,1.2435245574466767,1.2435245574466767,1.2435245574466767,1.2435245574466767,1.2435245574466767,1.2435245574466767,1.2435245574466767,1.2435245574466767,1.2435245574466767,1.2435245574466767,1.2435245574466767,1.2435245574466767,1.2435245574466767,1.2435245574466767,1.2435245574466767,1.2435245574466767,1.2435245574466767,1.2435245574466767,1.2435245574466767,1.2435245574466767,1.2435245574466767,1.2435245574466767,1.2435245574466767,1.2435245574466767,1.2435245574466767,1.2435245574466767,1.2435245574466767,1.2435245574466767,1.2435245574466767,1.2435245574466767,1.2435245574466767,1.2435245574466767,1.2435245574466767,1.2435245574466767,1.2435245574466767,1.2435245574466767,1.2435245574466767,1.2435245574466767,1.2435245574466767,1.2435245574466767,1.2435245574466767,1.2435245574466767,1.2435245574466767,1.2435245574466767,1.2435245574466767]},"final_keyboard_state":["C","A","Z","E","B","R"],"num_clicks":6,"points":14,"cheat":false,"trial_type":"Hangman","trial_index":5,"time_elapsed":92603,"internal_node_id":"0.0-4.0","protocol_sum":"","subject_identifier":508,"subject_sum":[149,18,217,93,0,214,27,222,192,61,43,153,214,236,196,85,238,86,68,174,82,209,14,124,74,97,201,48,98,220,151,163],"subject_pair":254,"STUDY_ID":"66a3ed3c5d10d0e7d8a6b9da","PROLIFIC_PID":"665600778ac0edc5607cbfdd","SESSION_ID":"66a41d4f3b8103637e633dbe","practice_instructions":1,"leaderboard_instructions":0,"bonus":0,"reveal_word":false,"self_rating":"2","confidence":"78"},{"view_history":"[{\"page_index\":0,\"viewing_time\":4182.599999964237},{\"page_index\":1,\"viewing_time\":84415.69999998808}]","rt":88598.79999995232,"trial_type":"instructions","trial_index":6,"time_elapsed":181204,"internal_node_id":"0.0-5.0","protocol_sum":"","subject_identifier":508,"subject_sum":[149,18,217,93,0,214,27,222,192,61,43,153,214,236,196,85,238,86,68,174,82,209,14,124,74,97,201,48,98,220,151,163],"subject_pair":254,"STUDY_ID":"66a3ed3c5d10d0e7d8a6b9da","PROLIFIC_PID":"665600778ac0edc5607cbfdd","SESSION_ID":"66a41d4f3b8103637e633dbe","practice_instructions":1,"leaderboard_instructions":0,"bonus":0,"reveal_word":false,"self_rating":"2","confidence":"78"},{"rt":6430.899999976158,"responses":"{\"Q0\":\"...from <b>a previous session</b> that is not part of the upcoming tournament.\"}","question_order":"[0]","trial_type":"survey-multi-choice","trial_index":7,"time_elapsed":187635,"internal_node_id":"0.0-6.0","protocol_sum":"","subject_identifier":508,"subject_sum":[149,18,217,93,0,214,27,222,192,61,43,153,214,236,196,85,238,86,68,174,82,209,14,124,74,97,201,48,98,220,151,163],"subject_pair":254,"correct":true,"test_part":"multichoice_leaderboard","STUDY_ID":"66a3ed3c5d10d0e7d8a6b9da","PROLIFIC_PID":"665600778ac0edc5607cbfdd","SESSION_ID":"66a41d4f3b8103637e633dbe","practice_instructions":1,"leaderboard_instructions":0,"bonus":0,"reveal_word":false,"self_rating":"2","confidence":"78"},{"view_history":"[{\"page_index\":0,\"viewing_time\":25686.5}]","rt":25686.600000023842,"trial_type":"instructions","trial_index":8,"time_elapsed":213323,"internal_node_id":"0.0-8.0","protocol_sum":"","subject_identifier":508,"subject_sum":[149,18,217,93,0,214,27,222,192,61,43,153,214,236,196,85,238,86,68,174,82,209,14,124,74,97,201,48,98,220,151,163],"subject_pair":254,"STUDY_ID":"66a3ed3c5d10d0e7d8a6b9da","PROLIFIC_PID":"665600778ac0edc5607cbfdd","SESSION_ID":"66a41d4f3b8103637e633dbe","practice_instructions":1,"leaderboard_instructions":0,"bonus":0,"reveal_word":false,"self_rating":"2","confidence":"78"},{"rt":7671.400000035763,"responses":"{\"Q0\":\"...players' leaderboard position (in terms of <b>points</b>) in an <b>upcoming tournament.</b>\"}","question_order":"[0]","trial_type":"survey-multi-choice","trial_index":9,"time_elapsed":220995,"internal_node_id":"0.0-9.0","protocol_sum":"","subject_identifier":508,"subject_sum":[149,18,217,93,0,214,27,222,192,61,43,153,214,236,196,85,238,86,68,174,82,209,14,124,74,97,201,48,98,220,151,163],"subject_pair":254,"correct":true,"test_part":"multichoice_tournament","STUDY_ID":"66a3ed3c5d10d0e7d8a6b9da","PROLIFIC_PID":"665600778ac0edc5607cbfdd","SESSION_ID":"66a41d4f3b8103637e633dbe","practice_instructions":1,"leaderboard_instructions":0,"bonus":0,"reveal_word":false,"self_rating":"2","confidence":"78"},{"view_history":"[{\"page_index\":0,\"viewing_time\":40710.19999998808}]","rt":40710.39999997616,"trial_type":"instructions","trial_index":10,"time_elapsed":261707,"internal_node_id":"0.0-11.0","protocol_sum":"","subject_identifier":508,"subject_sum":[149,18,217,93,0,214,27,222,192,61,43,153,214,236,196,85,238,86,68,174,82,209,14,124,74,97,201,48,98,220,151,163],"subject_pair":254,"STUDY_ID":"66a3ed3c5d10d0e7d8a6b9da","PROLIFIC_PID":"665600778ac0edc5607cbfdd","SESSION_ID":"66a41d4f3b8103637e633dbe","practice_instructions":1,"leaderboard_instructions":0,"bonus":0,"reveal_word":false,"self_rating":"2","confidence":"78"},{"view_history":"[{\"page_index\":0,\"viewing_time\":14647}]","rt":14647.100000023842,"trial_type":"instructions","trial_index":11,"time_elapsed":276355,"internal_node_id":"0.0-12.0-0.0","protocol_sum":"","subject_identifier":508,"subject_sum":[149,18,217,93,0,214,27,222,192,61,43,153,214,236,196,85,238,86,68,174,82,209,14,124,74,97,201,48,98,220,151,163],"subject_pair":254,"STUDY_ID":"66a3ed3c5d10d0e7d8a6b9da","PROLIFIC_PID":"665600778ac0edc5607cbfdd","SESSION_ID":"66a41d4f3b8103637e633dbe","practice_instructions":1,"leaderboard_instructions":0,"bonus":0,"reveal_word":false,"self_rating":"2","confidence":"78"},{"word":"THIRTY FOUR","click_log":{"letter":["","F","O","U","R","T","H","I","Y"],"t":[0,16009.5,17122.80000001192,20836.5,24117.100000023842,31245,33975.30000001192,34408.200000047684,35707.60000002384],"hit":[null,1,1,1,2,2,1,1,1],"asked":["","F","FO","FOU","FOUR","FOURT","FOURTH","FOURTHI","FOURTHIY"],"word_state":["______ ____","______ F___","______ FO__","______ FOU_","___R__ FOUR","T__RT_ FOUR","TH_RT_ FOUR","THIRT_ FOUR","THIRTY FOUR"]},"hover_log":{"letter":["?","?","?","?","?","?","?","?","?","?","?","?","?","?","?","?","?","?","?","?","?","?","?","?","?","?","?","?","?","?","?","?","?","?","?","?","?","?","?","?","?","?","?","?","?","?","?","?","?","?","?","?","?","?","?","?","?","?","?","?","?","?","?","?","?","?","?","?","?","?","?","?","?","?","?","?","?","?","?","?","?","?","?","?","?","?","?","?","?","?","?","?","?","?","?","?","?","?","?","?","?","?","?","?","?","?","?","?","?","?","?","?","?","?","?","?","?","?","?","?","?","?","?","?","?","?","?","?","?","?","?","?","?","?","?","?","?","?","?","?","?","?","?","?","?","?","?","?","?","?","?","?","?","?","?","?","?","?","?","?","?","?","?","?","?","?","?","?","?","?","?","?","?","?","?","?","?","?","?","?","?","?","?","?","?","?","?","?","?","?","?","?","?","?","?","?","?","?","?","?","?","?","?","?","?","?","?","?","?","?","?","?","?","?","?","?","?","?","?","?","?","?","?","?","?","?","?","?","?","?","?","?","?","?","?","?","?","?","?","?","?","?","?","?","?","?","?","?","?","?","?","?","?","?","?","?","?","?","?","?","?","?","?","?","?","?","?","?","?","?","?","?","?","?","?","?","?","?","?","?","?","?","?","?","?","?","?","?","?","?","?","?","?","?","?","?","?","?","?","?","?","?","?","?","S","?","?","?","?","?","?","?","?","?","?","?","?","?","?","?","?","?","?","?","?","?","?","?","?","?","?","?","?","?","?","?","?","?","?","?","?","?","?","?","?","?","?","?","?","?","?","?","?","?","?","?","?","?","?","?","?","?","?","?","?","?","?","?","?","?","?","?","?","?","?","?","?","?","?","?","?","?","?","?","?","?","?","?","?","?","?","?","?","?","?","?","?","?","?","?","?","?","?","?","?","?","?","?","?","?","?","?","?","?","?","?","?","?","?","?","?","?","?","?","?","?","?","?","?","?","?","?","?","?","?","?","?","?","?","?","?","?","?","?","?","?","?","?","?","?","?","?","?","?","?","?","?","?","?","?","?","?","?","?","?","?","?","?","?","?","?","?","?","?","?","?","?","?","?","?","?","?","?","?","?","?","?","?","?","?","?","?","?","?","?","?","?","?","?","?","?","?","?","?","?","?","?","?","?","?","?","?","?","?","?","?","?","?","?","?","?","?","?","?","?","?","?","?","?","?","?","?","?","?","?","?","?","?","?","?","?","?","?","?","?","?","?","?","?","?","?","?","?","?","?","?","?","?","?","?","?","?","?","?","?","?","?","?","?","?","?","?","?","?","?","?","?","?","?","?","?","?","?","?","?","?","?","?","?","?","?","?","?","?","?","?","?","?","?","?","?","?","?","?","?","?","?","?","?","?","?","?","?","?","?","?","?","?","?","?","?","?","?","?","?","?","?","?","?","?","?","?","?","?","?","?","?","?","?","?","?","?","?","?","?","?","?","?","?","?","?","?","?","?","?","?","?","?","?","?","?","?","?","N","?","?","?","?","?","?","?","?","?","?","?","?","?","?","?","?","?","?","?","?","?","?","?","?","?","N","?","?","?","?","?","?","?","?","?","?","?","?","?","?","?","?","?","?","?","?","?","?","?","?","?","N","?","?","?","?","?","?","?","?","?","?","?","?","?","?","?","?","?","?","?","?","?","?","?","?","?","?","O","?","?","?","?","?","?","?","?","?","?","?","?","?","?","?","?","?","?","?","?","?","?","?","?","?","?","?","?","?","?","?","?","?","?","?","?","?","?","?","?","?","?","?","?","?","?","?","?","?","?","?","?","?","?","?","?","?","?","?","?","?","?","?","?","?","?","?","?","?","?","?","?","?","?","?","?","?","?","?","?","?","?","?","?","?","?","?","?","?","?","?","?","?","?","?","?","?","?","?","?","?","?","?","?","?","?","?","?","?","?","?","?","?","?","?","?","?","?","?","?","?","?","?","?","?","?","?","?","?","?","?","?","?","?","?","?","?","?","?","?","?","?","?","?","?","?","?","G","?","?","?","?","?","?","?","?","?","?","?","?","?","?","?","?","?","?","?","?","?","?","?","?","?","G","?","?","?","?","?","?","?","?","?","?","?","?","?","?","?","?","?","?","?","?","?","?","?","?","?","G","?","?","?","?","?","?","?","?","?","?","?","?","?","?","?","?","?","?","?","?","?","?","?","?","?","G","?","?","?","?","?","?","?","?","?","?","?","?","?","?","?","?","?","?","?","?","?","?","?","?","?","G","?","?","?","?","?","?","?","?","?","?","?","?","?","?","?","?","?","?","?","?","?","?","?","?","?","G","?","?","?","?","?","?","?","?","?","?","?","?","?","?","?","?","?","?","?","?","?","?","?","?","?","G","?","?","?","?","?","?","?","?","?","?","?","?","?","?","?","?","?","?","?","?","?","?","?","?","?","G","?","?","?","?","?","?","?","?","?","?","?","?","?","?","?","?","?","?","?","?","?","?","?","?","?","G","?","?","?","?","?","?","?","?","?","?","?","?","?","?","?","?","?","?","?","?","?","?","?","?","?","G","?","?","?","?","?","?","?","?","?","?","?","?","?","?","?","?","?","?","?","?","?","?","?","?","?","G","?","?","?","?","?","?","?","?","?","?","?","?","?","?","?","?","?","?","?","?","?","?","?","?","?","G","?","?","?","?","?","?","?","?","?","?","?","?","?","?","?","?","?","?","?","?","?","?","?","?","?","G","?","?","?","?","?","?","?","?","?","?","?","?","?","?","?","?","?","?","?","?","?","?","?","?","?","G","?","?","?","?","?","?","?","?","?","?","?","?","?","?","?","?","?","?","?","?","?","?","?","?","?","G","?","?","?","?","?","?","?","?","?","?","?","?","?","?","?","?","?","?","?","?","?","?","?","?","?","G","?","?","?","?","?","?","?","?","?","?","?","?","?","?","?","?","?","?","?","?","?","?","?","?","?","G","?","?","?","?","?","?","?","?","?","?","?","?","?","?","?","?","?","?","?","?","?","?","?","?","?","G","?","?","?","?","?","?","?","?","?","?","?","?","?","?","?","?","?","?","?","?","?","?","?","?","?","G","?","?","?","?","?","?","?","?","?","?","?","?","?","?","?","?","?","?","?","?","?","?","?","?","?","G","?","?","?","?","?","?","?","?","?","?","?","?","?","?","?","?","?","?","?","?","?","?","?","?","?","G","?","?","?","?","?","?","?","?","?","?","?","?","?","?","?","?","?","?","?","?","?","?","?","?","?","?","?","?","?","?","?","?","?","?","?","?","?","?","?","?","?","?","?","?","?","?","?","?","?","?","?","?","?","?","?","?","?","?","?","?","?","?","?","?","?","?","?","?","?","?","?","?","?","?","?","?","?","?","?","?","?","?","?","?","?","?","?","?","?","?","?","?","?","?","?","?","?","?","?","?","?","?","?","?","?","?","?","?","?","?","?","?","?","?","?","?","?","?","?","?","?","?","?","?","?","?","?","?","?","?","?","?","?","?","?","?","?","?","?","?","?","?","?","?","?","?","?","?","?","?","?","?","?","?","?","?","?","?","?","?","?","?","?","?","?","?","?","?","?","?","?","?","?","?","?","?","?","?","?","?","?","?","?","?","?","?","?","?","?","?","?","?","?","?","?","?","?","?","?","?","?","?","?","?","?","?","?","?","?","?","?","?","?","?","?","?","?","?","?","?","?","?","?","?","?","?","?","?","?","?","?","?","?","?","?","?","?","?","?","?","?","?","?","?","?","?","?","?","?","?","?","?","?","?","?","?","?","?","?","?","?","?","?","?","?","?","?","?","?","?","?","?","?","?","?","?","?","?","?","?","?","?","?","?","?","?","?","?","?","?","?","?","?","?","?","?","?","?","?","?","?","?","?","?","?","?","?","?","?","?","?","?","?","?","?","?","?","?","?","?","?","?","?","?","?","?","?","?","?","?","?","?","?","?","?","?","?","?","?","?","?","?","?","?","?","?","?","?","?","?","?","?","?","?","?","?","?","?","?","?","?","?","?","?","?","?","?","?","?","?","?","?","?","?","?","?","?","?","?","?","?","?","?","?","?","?","?","?","?","?","?","?","?","?","?","?","?","?","?","Q","?","?","?","?","?","?","?","?","?","?","?","?","?","?","?","?","?","?","?","?","?","?","?","?","?","Q","?","?","?","?","?","?","?","?","?","?","?","?","?","?","?","?","?","?","?","?","?","?","?","?","?","Q","?","?","?","?","?","?","?","?","?","?","?","?","?","?","?","?","?","?","?","?","?","?","?","?","?","Q","?","?","?","?","?","?","?","?","?","?","?","?","?","?","?","?","?","?","?","?","?","?","?","?","?","Q","?","?","?","?","?","?","?","?","?","?","?","?","?","?","?","?","?","?","?","?","?","?","?","?","?","Q","?","?","?","?","?","?","?","?","?","?","?","?","?","?","?","?","?","?","?","?","?","?","?","?","?","Q","?","?","?","?","?","?","?","?","?","?","?","?","?","?","?","?","?","?","?","?","?","?","?","?","?","Q","?","?","?","?","?","?","?","?","?","?","?","?","?","?","?","?","?","?","?","?","?","?","?","?","?","Q","?","?","?","?","?","?","?","?","?","?","?","?","?","?","?","?","?","?","?","?","?","?","?","?","?","Q","?","?","?","?","?","?","?","?","?","?","?","?","?","?","?","?","?","?","?","?","?","?","?","?","?","Q","?","?","?","?","?","?","?","?","?","?","?","?","?","?","?","?","?","?","?","?","?","?","?","?","?","Q","?","?","?","?","?","?","?","?","?","?","?","?","?","?","?","?","?","?","?","?","?","?","?","?","?","Q","?","?","?","?","?","?","?","?","?","?","?","?","?","?","?","?","?","?","?","?","?","?","?","?","?","Q","?","?","?","?","?","?","?","?","?","?","?","?","?","?","?","?","?","?","?","?","?","?","?","?","?","Q","?","?","?","?","?","?","?","?","?","?","?","?","?","?","?","?","?","?","?","?","?","?","?","?","?","Q","?","?","?","?","?","?","?","?","?","?","?","?","?","?","?","?","?","?","?","?","?","?","?","?","?","Q","?","?","?","?","?","?","?","?","?","?","?","?","?","?","?","?","?","?","?","?","?","?","?","?","?","Q","?","?","?","?","?","?","?","?","?","?","?","?","?","?","?","?","?","?","?","?","?","?","?","?","?","Q","?","?","?","?","?","?","?","?","?","?","?","?","?","?","?","?","?","?","?","?","?","?","?","?","?","Q","?","?","?","?","?","?","?","?","?","?","?","?","?","?","?","?","?","?","?","?","?","?","?","?","?","?","?","?","?","?","?","?","?","?","?","?","?","?","?","?","?","?","?","?","?","?","?","?","?","?","?","?","R","?","?","?","?","?","?","?","?","?","?","?","?","?","?","?","?","?","?","?","?","?","?","?","?","?","R","?","?","?","?","?","?","?","?","?","?","?","?","?","?","?","?","?","?","?","?","?","?","?","?","?","?","?","?","?","?","?","?","?","?","?","?","?","?","?","?","?","?","?","?","?","?","?","?","?","?","?","?","?","?","?","?","?","?","?","?","?","?","?","?","?","?","?","?","?","?","?","?","?","?","?","?","?","?","?","?","?","?","?","?","?","?","?","?","?","?","?","?","?","?","?","?","?","?","?","?","?","?","?","?","?","?","?","?","?","?","?","?","?","?","?","?","?","?","?","?","?","?","?","?","?","?","?","?","?","?","?","?","?","?","?","?","?","?","?","?","?","?","?","?","?","?","?","?","?","?","?","?","?","?","?","?","?","?","?","?","?","?","?","?","?","?","?","?","?","?","?","?","?","?","?","?","?","?","?","?","?","?","?","?","?","?","?","?","?","?","?","?","?","?","?","?","?","?","?","?","?","?","?","?","?","?","?","?","?","?","?","?","?","?","?","?","?","?","?","?","?","?","?","?","?","?","?","?","?","?","?","?","?","?","?","?","?","?","?","?","?","?","?","?","?","?","?","?","?","?","?","?","?","?","?","?","?","?","?","?","?","?","?","?","?","?","?","?","?","?","?","?","?","?","?","?","?","?","?","?","?","?","?","?","?","?","?","?","?","?","?","?","?","?","?","?","?","?","?","?","?","?","?","?","?","?","?","?","?","?","?","?","?","?","?","?","?","?","?","?","?","?","?","?","?","?","?","?","?","?","?","?","?","?","?","?","?","?","?","?","?","?","?","?","?","?","?","?","?","?","?","?","?","?","?","?","?","?","?","?","?","?","?","?","?","?","?","?","?","?","?","?","?","?","?","?","?","?","?","?","?","?","?","?","?","?","?","?","?","?","?","?","?","?","?","?","?","?","?","?","?","?","?","?","?","?","?","?","?","?","?","?","?","?","?","?","?","?","?","?","?","?","?","?","?","?","?","?","?","?","?","?","?","?","?","?","?","?","?","?","?","?","?","?","?","?","?","?","?","?","?","?","?","?","?","?","?","?","?","?","?","?","?","?","?","?","?","?","?","?","?","?","?","?","?","?","?","?","?","?","?","?","?","?","?","?","?","?","?","?","?","?","?","?","?","?","?","?","?","?","?","?","?","?","?","?","?","?","?","?","?","?","?","?","?","?","?","?","?","?","?","?","?","?","?","?","?","?","?","?","?","?","?","?","?","?","?","?","?","?","?","?","?","?","?","?","?","?","?","?","?","?","?","?","?","?","?","?","?","?","?","?","?","?","?","?","?","?","?","?","?","?","?","?","?","?","?","?","?","?","?","?","?","?","?","?","?","?","?","?","?","?","?","?","?","?","?","?","?","?","?","?","?","?","?","?","?","?","?","?","?","?","?","?","?","?","?","?","?","?","?","?","?","?","?","?","?","?","?","?","?","?","?","?","?","?","?","?","?","?","?","?","?","?","?","?","?","?","?","?","?","?","?","?","?","?","?","?","?","?","?","?","?","?","?","?","?","?","?","?","?","?","?","?","?","?","?","?","?","?","?","?","?","?","?","?","?","?","?","?","?","?","?","?","?","?","?","?","?","?","?","?","?","?","?","?","?","?","?","?","?","?","?","?","?","?","?","?","?","?","?","?","?","?","?","?","?","?","?","?","?","?","?","?","?","?","?","?","?","?","?","?","?","?","?","?","?","?","?","?","?","?","?","?","?","?","?","?","?","?","?","?","?","?","?","?","?","?","?","?","?","?","?","?","?","?","?","?","?","?","?","?","?","?","?","?","?","?","?","?","?","?","?","?","?","?","?","?","?","?","?","?","?","?","?","?","?","?","?","?","?","?","?","?","?","?","?","?","?","?","?","?","?","?","?","?","?","?","?","?","?","?","?","?","?","?","?","?","?","?","?","?","?","?","?","?","?","?","?","?","?","?","?","?","?","?","?","?","?","?","?","?","?","?","?","?","?","?","?","?","?","?","?","?","?","?","?","?","?","?","?","?","?","?","?","?","?","?","?","?","?","?","?","?","?","?","?","?","?","?","?","?","?","?","?","?","?","?","?","?","?","?","?","?","?","?","?","?","?","?","?","?","?","?","?","?","?","?","?","?","?","?","?","?","?","?","?","?","?","?","?","?","?","?","?","?","?","?","?","?","?","?","?","?","?","?","?","?","?","?","?","?","?","?","?","?","?","?","?","?","?","?","?","?","?","?","?","?","?","?","?","?","?","?","?","?","?","?","?","?","?","?","?","?","?","?","?","?","?","?","?","?","?","?","?","?","?","?","?","?","?","?","?","?","?","?","?","?","?","?","?","?","?","?","?","?","?","?","?","?","?","?","?","?","?","?","?","?","?","?","?","?","?","?","?","?","?","?","?","?","?","?","?","?","?","?","?","?","?","?","?","?","?","?","?","?","?","?","?","?","?","?","?","?","?","?","?","?","?","?","?","?","?","?","?","?","?","?","?","?","?","?","?","?","?","?","?","?","?","?","?","?","?","?","?","?","?","?","?","?","?","?","?","?","?","?","?","?","?","?","?","?","?","?","?","?","?","?","?","?","?","?","?","?","?","?","?","?","?","?","?","?","?","?","?","?","?","?","?","?","?","?","?","?","?","?","?","?","?","?","?","?","?","?","?","?","?","?","?","?","?","?","?","?","?","?","?","?","?","?","?","?","?","?","?","?","?","?","?","?","?","?","?","?","?","?","?","?","?","?","?","?","?","?","?","?","?","?","?","?","?","?","?","?","?","?","?","?","?","?","?","?","?","?","?","?","?","?","?","?","?","?","?","?","?","?","?","?","?","?","?","?","?","?","?","?","?","?","?","?","?","?","?","?","?","?","?","?","?","?","?","?","?","?","?","?","?","?","?","?","?","?","?","?","?","?","?","?","?","?","?","?","?","?","?","?","?","?","?","?","?","?","?","?","?","?","?","?","?","?","?","?","?","?","?","?","?","?","?","?","?","?","?","?","?","?","?","?","?","?","?","?","?","?","?","?","?","?","?","?","?","?","?","?","?","?","?","?","?","?","?","?","?","?","?","?","?","?","?","?","?","?","?","?","?","?","?","?","?","?","?","?","?","?","?","?","?","?","?","?","?","?","?","?","?","?","?","?","?","?","?","?","?","?","?","?","?","?","?","?","?","?","?","?","?","?","?","?","?","?","?","?","?","?","?","?","?","?","?","?","?","?","?","?","?","?","?","?","?","?","?","?","?","?","?","?","?","?","?","?","?","?","?","?","?","?","?","?","?","?","?","?","?","?","?","?","?","?","?","?","?","?","?","?","?","?","?","?","?","?","?","?","?","?","?","?","?","?","?","?","?","?","?","?","?","?","?","?","?","?","?","?","?","?","?","?","?","?","?","?","?","?","?","?","?","?","?","?","?","?","?","?","?","?","?","?","?","?","?","?","?","?","?","?","?","?","?","?","?","?","?","?","?","?","?","?","?","?","?","?","?","?","?","?","?","?","?","?","?","?","?","?","?","?","?","?","?","?","?","?","?","?","?","?","?","?","?","?","?","?","?","?","?","?","?","?","?","?","?","?","?","?","?","?","?","?","?","?","?","?","?","?","?","?","?","?","?","?","?","?","?","?","?","?","?","?","?","?","?","?","?","?","?","?","?","?","?","?","?","?","?","?","?","?","?","?","?","?","?","?","?","?","?","?","?","?","?","?","?","?","?","?","?","?","?","?","?","?","?","?","?","?","?","?","?","?","?","?","?","?","?","?","?","?","?","?","?","?","?","?","?","?","?","?","?","?","?","?","?","?","?","?","?","?","?","?","?","?","?","?","?","?","?","?","?","?","?","?","?","?","?","?","?","?","?","?","?","?","?","?","?","?","?","?","?","?","?","?","?","?","?","?","?","?","?","?","?","?","?","?","?","?","?","?","?","?","?","?","?","?","?","?","?","?","?","?","?","?","?","?","?","?","?","?","?","?","?","?","?","?","?","?","?","?","?","?","?","?","?","?","?","?","?","?","?","?","?","?","?","?","?","?","?","?","?","?","?","?","?","?","?","?","?","?","?","?","?","?","?","?","?","?","?","?","?","?","?","?","?","?","?","?","?","?","?","?","?","?","?","?","?","?","?","?","?","?","?","?","?","?","?","?","?","?","?","?","?","?","?","?","?","?","?","?","?","?","?","?","?","?","?","?","?","?","?","?","?","?","?","?","?","?","?","?","?","?","?","?","?","?","?","?","?","?","?","?","?","?","?","?","?","?","?","?","?","?","?","?","?","?","?","?","?","?","?","?","?","?","?","?","?","?","?","?","?","?","?","?","?","?","?","?","?","?","?","?","?","?","?","?","?","?","?","?","?","?","?","?","?","?","?","?","?","?","?","?","?","?","?","?","?","?","?","?","?","?","?","?","?","?","?","?","?","?","?","?","?","?","?","?","?","?","?","?","?","?","?","?","?","?","?","?","?","?","?","?","?","?","?","?","?","?","?","?","?","?","?","?","?","?","?","?","?","?","?","?","?","?","?","?","?","?","?","?","?","?","?","?","?","?","?","?","?","?","?","?","?","?","?","?","?","?","?","?","?","?","?","?","?","?","?","?","?","?","?","?","?","?","?","?","?","?","?","?","?","?","?","?","?","?","?","?","?","?","?","?","?","?","?","?","?","?","?","?","?","?","?","?","?","?","?","?","?","?","?","?","?","?","?","?","?","?","?","?","?","?","?","?","?","?","?","?","?","?","?","?","?","?","?","?","?","?","?","?","?","?","?","?","?","?","?","?","?","?","?","?","?","?","?","?","?","?","?","?","?","?","?","?","?","?","?","?","?","?","?","?","?","?","?","?","?","?","?","?","?","?","?","?","?","?","?","?","?","?","?","?","?","?","?","?","?","?","?","?","?","?","?","?","?","?","?","?","?","?","?","?","?","?","?","?","?","?","?","?","?","?","?","?","?","?","?","?","?","?","?","?","?","?","?","?","?","?","?","?","?","?","?","?","?","?","?","?","?","?","?","?","?","?","?","?","?","?","?","?","?","?","?","?","?","?","?","?","?","?","?","?","?","?","?","?","?","?","?","?","?","?","?","?","?","?","?","?","?","?","?","?","?","?","?","?","?","?","?","?","?","?","?","?","?","?","?","?","?","?","?","?","?","?","?","?","?","?","?","?","?","?","?","?","?","?","?","?","?","?","?","?","?","?","?","?","?","?","?","?","?","?","?","?","?","?","?","?","?","?","?","?","?","?","?","?","?","?","?","?","?","?","?","?","?","?","?","?","?","?","?","?","?","?","?","?","?","?","?","?","?","?","?","?","?","?","?","?","?","?","?","?","?","?","?","?","?","?","?","?","?","?","?","?","?","?","?","?","?","?","?","?","?","?","?","?","?","?","?","?","?","?","?","?","?","?","?","?","?","?","?","?","?","?","?","?","?","?","?","?","?","?","?","?","?","?","?","?","?","?","?","?","?","?","?","?","?","?","?","?","?","?","?","?","?","?","?","?","?","?","?","?","?","?","?","?","?","?","?","?","?","?","?","?","?","?","?","?","?","?","?","?","?","?","?","?","?","?","?","?","?","?","?","?","?","?","?","?","?","?","?","?","?","?","?","?","?","?","?","?","?","?","?","?","?","?","?","?","?","?","?","?","?","?","?","?","?","?","?","?","?","?","?","?","?","?","?","?","?","?","?","?","?","?","?","?","?","?","?","?","?","?","?","?","?","?","?","?","?","?","?","?","?","?","?","?","?","?","?","?","?","?","?","?","?","?","?","?","?","?","?","?","?","?","?","?","?","?","?","?","?","?","?","?","?","?","?","?","?","?","?","?","?","?","?","?","?","?","?","?","?","?","?","?","?","?","?","?","?","?","?","?","?","?","?","?","?","?","?","?","?","?","?","?","?","?","?","?","?","?","?","?","?","?","?","?","?","?","?","?","?","?","?","?","?","?","?","?","?","?","?","?","?","?","?","?","?","?","?","?","?","?","?","?","?","?","?","?","?","?","?","?","?","?","?","?","?","?","?","?","?","?","?","?","?","?","?","?","?","?","?","?","?","?","?","?","?","?","?","?","?","?","?","?","?","?","?","?","?","?","?","?","?","?","?","?","?","?","?","?","?","?","?","?","?","?","?","?","?","?","?","?","?","?","?","?","?","?","?","?","?","?","?","?","?","?","?","?","?","?","?","?","?","?","?","?","?","?","?","?","?","?","?","?","?","?","?","?","?","?","?","?","?","?","?","?","?","?","?","?","?","?","?","?","?","?","?","?","?","?","?","?","?","?","?","?","?","?","?","?","?","?","?","?","?","?","?","?","?","?","?","?","?","?","?","?","?","?","?","?","?","?","?","?","?","?","?","?","?","?","?","?","?","?","?","?","?","?","?","?","?","?","?","?","?","?","?","?","?","?","?","?","?","?","?","?","?","?","?","?","?","?","?","?","?","?","?","?","?","?","?","?","?","?","?","?","?","?","?","?","?","?","?","?","?","?","?","?","?","?","?","?","?","?","?","?","?","?","?","?","?","?","?","?","?","?","?","?","?","?","?","?","?","?","?","?","?","?","?","?","?","?","?","?","?","?","?","?","?","?","?","?","?","?","?","?","?","?","?","?","?","?","?","?","?","?","?","?","?","?","?","?","?","?","?","?","?","?","?","?","?","?","?","?","?","?","?","?","?","?","?","?","?","?","?","?","?","?","?","?","?","?","?","?","?","?","?","?","?","?","?","?","?","?","?","?","?","?","?","?","?","?","?","?","?","?","?","?","?","?","?","?","?","?","?","?","?","?","?","?","?","?","?","?","?","?","?","?","?","?","?","?","?","?","?","?","?","?","?","?","?","?","?","?","?","?","?","?","?","?","?","?","?","?","?","?","?","?","?","?","?","?","?","?","?","?","?","?","?","?","?","?","?","?","?","?","?","?","?","?","?","?","?","?","?","?","?","?","?","?","?","?","?","?","?","?","?","?","?","?","?","?","?","?","?","?","?","?","?","?","?","?","?","?","?","?","?","?","?","?","?","?","?","?","?","?","?","?","?","?","?","?","?","?","?","?","?","?","?","?","?","?","?","?","?","?","?","?","?","?","?","?","?","?","?","?","?","?","?","?","?","?","?","?","?","?","?","?","?","?","?","?","?","?","?","?","?","?","?","?","?","?","?","?","?","?","?","?","?","?","?","?","?","?","?","?","?","?","?","?","?","?","?","?","?","?","?","?","?","?","?","?","?","?","?","?","?","?","?","?","?","?","?","?","?","?","?","?","?","?","?","?","?","?","?","?","?","?","?","?","?","?","?","?","?","?","?","?","?","?","?","?","?","?","?","?","?","?","?","?","?","?","?","?","?","?","?","?","?","?","?","?","?","?","?","?","?","?","?","?","?","?","?","?","?","?","?","?","?","?","?","?","?","?","?","?","?","?","?","?","?","?","?","?","?","?","?","?","?","?","?","?","?","?","?","?","?","?","?","?","?","?","?","?","?","?","?","?","?","?","?","?","?","?","?","?","?","?","?","?","?","?","?","?","?","?","?","?","?","?","?","?","?","?","?","?","?","?","?","?","?","?","?","?","?","?","?","?","?","?","?","?","?","?","?","?","?","?","?","?","?","?","?","?","?","?","?","?","?","?","?","?","?","?","?","?","?","?","?","?","?","?","?","?","?","?","?","?","?","?","?","?","?","?","?","?","?","?","?","?","?","?","?","?","?","?","?","?","?","?","?","?","?","?","?","?","?","?","?","?","?","?","?","?","?","?","?","?","?","?","?","?","?","?","?","?","?","?","?","?","?","?","?","?","?","?","?","?","?","?","?","?","?","?","?","?","?","?","?","?","?","?","?","?","?","?","?","?","?","?","?","?","?","?","?","?","?","?","?","?","?","?","?","?","?","?","?","?","?","?","?","?","?","?","?","?","?","?","?","?","?","?","?","?","?","?","?","?","?","?","?","?","?","?","?","?","?","?","?","?","?","?","?","?","?","?","?","?","?","?","?","?","?","?","?","?","?","?","?","?","?","?","?","?","?","?","?","?","?","?","?","?","?","?","?","?","?","?","?","?","?","?","?","?","?","?","?","?","?","?","?","?","?","?","?","?","?","?","?","?","?","?","?","?","?","?","?","?","?","?","?","?","?","?","?","?","?","?","?","?","?","?","?","?","?","?","?","?","?","?","?","?","?","?","?","?","?","?","?","?","?","?","?","?","?","?","?","?","?","?","?","?","?","?","?","?","?","?","?","?","?","?","?","?","?","?","?","?","?","?","?","?","?","?","?","?","?","?","?","?","?","?","?","?","?","?","?","?","?","?","?","?","?","?","?","?","?","?","?","?","?","?","?","?","?","?","?","?","?","?","?","?","?","?","?","?","?","?","?","?","?","?","?","?","?","?","?","?","?","?","?","?","?","?","?","?","?","?","?","?","?","?","?","?","?","?","?","?","?","?","?","?","?","?","?","?","?","?","?","?","?","?","?","?","?","?","?","?","?","?","?","?","?","?","?","?","?","?","?","?","?","?","?","?","?","?","?","?","?","?","?","?","?","?","?","?","?","?","?","?","?","?","?","?","?","?","?","?","?","?","?","?","?","?","?","?","?","?","?","?","?","?","?","?","?","?","?","?","?","?","?","?","?","?","?","?","?","?","?","?","?","?","?","?","?","?","?","?","?","?","?","?","?","?","?","?","?","?","?","?","?","?","?","?","?","?","?","?","?","?","?","?","?","?","?","?","?","?","?","?","?","?","?","?","?","?","?","?","?","?","?","?","?","?","?","?","?","?","?","?","?","?","?","?","?","?","?","?","?","?","?","?","?","?","?","?","?","?","?","?","?","?","?","?","?","?","?","?","?","?","?","?","?","?","?","?","?","?","?","?","?","?","?","?","?","?","?","?","?","?","?","?","?","?","?","?","?","?","?","?","?","?","?","?","?","?","?","?","?","?","?","?","?","?","?","?","?","?","?","?","?","?","?","?","?","?","?","?","?","?","?","?","?","?","?","?","?","?","?","?","?","?","?","?","?","?","?","?","?","?","?","?","?","?","?","?","?","?","?","?","?","?","?","?","?","?","?","?","?","?","?","?","?","?","?","?","?","?","?","?","?","?","?","?","?","?","?","?","?","?","?","?","?","?","?","?","?","?","?","?","?","?","?","?","?","?","?","?","?","?","?","?","?","?","?","?","?","?","?","?","?","?","?","?","?","?","?","?","?","?","?","?","?","?","?","?","?","?","?","?","?","?","?","?","?","?","?","?","?","?","?","?","?","?","?","?","?","?","?","?","?","?","?","?","?","?","?","?","?","?","?","?","?","?","?","?","?","?","?","?","?","?","?","?","?","?","?","?","?","?","?","?","?","?","?","?","?","?","?","?","?","?","?","?","?","?","?","?","?","?","?","?","?","?","?","?","?","?","?","?","?","?","?","?","?","?","?","?","?","?","?","?","?","?","?","?","?","?","?","?","?","?","?","?","?","?","?","?","?","?","?","?","?","?","?","?","?","?","?","?","?","?","?","?","?","?","?","?","?","?","?","?","?","?","?","?","?","?","?","?","?","?","?","?","?","?","?","?","?","?","?","?","?","?","?","?","?","?","?","?","?","?","?","?","?","?","?","?","?","?","?","?","?","?","?","?","?","?","?","?","?","?","?","?","?","?","?","?","?","?","?","?","?","?","?","?","?","?","?","?","?","?","?","?","?","?","?","?","?","?","?","?","?","?","?","?","?","?","?","?","?","?","?","?","?","?","?","?","?","?","?","?","?","?","?","?","?","?","?","?","?","?","?","?","?","?","?","?","?","?","?","?","?","?","?","?","?","?","?","?","?","?","?","?","?","?","?","?","?","?","?","?","?","?","?","?","?","?","?","?","?","?","?","?","?","?","?","?","?","?","?","?","?","?","?","?","?","?","?","?","?","?","?","?","?","?","?","?","?","?","?","?","?","?","?","?","?","?","?","?","?","?","?","?","?","?","?","?","?","?","?","?","?","?","?","?","?","?","?","?","?","?","?","?","?","?","?","?","?","?","?","?","?","?","?","?","?","?","?","?","?","?","?","?","?","?","?","?","?","?","?","?","?","?","?","?","?","?","?","?","?","?","?","?","?","?","?","?","?","?","?","?","?","?","?","?","?","?","?","?","?","?","?","?","?","?","?","?","?","?","?","?","?","?","?","?","?","?","?","?","?","?","?","?","?","?","?","?","?","?","?","?","?","?","?","?","?","?","?","?","?","?","?","?","?","?","?","?","?","?","?","?","?","?","?","?","?","?","?","?","?","?","?","?","?","?","?","?","?","?","?","?","?","?","?","?","?","?","?","?","?","?","?","?","?","?","?","?","?","?","?","?","?","?","?","?","?","?","?","?","?","?","?","?","?","?","?","?","?","?","?","?","?","?","?","?","?","?","?","?","?","?","?","?","?","?","?","?","?","?","?","?","?","?","?","?","?","?","?","?","?","?","?","?","?","?","?","?","?","?","?","?","?","?","?","?","?","?","?","?","?","?","?","?","?","?","?","?","?","?","?","?","?","?","?","?","?","?","?","?","?","?","?","?","?","?","?","?","?","?","?","?","?","?","?","?","?","?","?","?","?","?","?","?","?","?","?","?","?","?","?","?","?","?","?","?","?","?","?","?","?","?","?","?","?","?","?","?","?","?","?","?","?","?","?","?","?","?","?","?","?","?","?","?","?","?","?","?","?","?","?","?","?","?","?","?","?","?","?","?","?","?","?","?","?","?","?","?","?","?","?","?","?","?","?","?","?","?","?","?","?","?","?","?","?","?","?","?","?","?","?","?","?","?","?","?","?","?","?","?","?","?","?","?","?","?","?","?","?","?","?","?","?","?","?","?","?","?","?","?","?","?","?","?","?","?","?","?","?","?","?","?","?","?","?","?","?","?","?","?","?","?","?","?","?","?","?","?","?","?","?","?","?","?","?","?","?","?","?","?","?","?","?","?","?","?","?","?","?","?","?","?","?","?","?","?","?","?","?","?","?","?","?","?","?","?","?","?","?","?","?","?","?","?","?","?","?","?","?","?","?","?","?","?","?","?","?","?","?","?","?","?","?","?","?","?","?","?","?","?","?","?","?","?","?","?","?","?","?","?","?","?","?","?","?","?","?","?","?","?","?","?","?","?","?","?","?","?","?","?","?","?","?","?","?","?","?","?","?","?","?","?","?","?","?","?","?","?","?","?","?","?","?","?","?","?","?","?","?"