[{"success":true,"trial_type":"fullscreen","trial_index":0,"time_elapsed":5720,"internal_node_id":"0.0-0.0","protocol_sum":"","subject_identifier":330,"subject_sum":[188,82,221,99,66,119,196,163,74,45,98,16,153,74,154,94,42,182,211,59,180,163,168,150,52,16,224,12,166,193,90,2],"subject_pair":165,"STUDY_ID":"66a0b3911f23dfc7665bb169","PROLIFIC_PID":"6641d2f67974f4346cca44c1","SESSION_ID":"66a1616f6242b8130080b5f3","practice_instructions":1,"leaderboard_instructions":0,"bonus":0,"reveal_word":false,"self_rating":"3","confidence":"83"},{"view_history":"[{\"page_index\":0,\"viewing_time\":26610.5}]","rt":26610.79999999702,"trial_type":"instructions","trial_index":1,"time_elapsed":32333,"internal_node_id":"0.0-1.0","protocol_sum":"","subject_identifier":330,"subject_sum":[188,82,221,99,66,119,196,163,74,45,98,16,153,74,154,94,42,182,211,59,180,163,168,150,52,16,224,12,166,193,90,2],"subject_pair":165,"STUDY_ID":"66a0b3911f23dfc7665bb169","PROLIFIC_PID":"6641d2f67974f4346cca44c1","SESSION_ID":"66a1616f6242b8130080b5f3","practice_instructions":1,"leaderboard_instructions":0,"bonus":0,"reveal_word":false,"self_rating":"3","confidence":"83"},{"view_history":"[{\"page_index\":0,\"viewing_time\":178663.1000000015}]","rt":178663.5,"trial_type":"instructions","trial_index":2,"time_elapsed":210997,"internal_node_id":"0.0-2.0-0.0","protocol_sum":"","subject_identifier":330,"subject_sum":[188,82,221,99,66,119,196,163,74,45,98,16,153,74,154,94,42,182,211,59,180,163,168,150,52,16,224,12,166,193,90,2],"subject_pair":165,"STUDY_ID":"66a0b3911f23dfc7665bb169","PROLIFIC_PID":"6641d2f67974f4346cca44c1","SESSION_ID":"66a1616f6242b8130080b5f3","practice_instructions":1,"leaderboard_instructions":0,"bonus":0,"reveal_word":false,"self_rating":"3","confidence":"83"},{"rt":49854.20000000298,"responses":"{\"Q0\":\"... reveal the word with as <b>few letter guesses</b> as possible\"}","question_order":"[0]","trial_type":"survey-multi-choice","trial_index":3,"time_elapsed":260854,"internal_node_id":"0.0-2.0-1.0","protocol_sum":"","subject_identifier":330,"subject_sum":[188,82,221,99,66,119,196,163,74,45,98,16,153,74,154,94,42,182,211,59,180,163,168,150,52,16,224,12,166,193,90,2],"subject_pair":165,"correct":true,"test_part":"multichoice_nonpretend","STUDY_ID":"66a0b3911f23dfc7665bb169","PROLIFIC_PID":"6641d2f67974f4346cca44c1","SESSION_ID":"66a1616f6242b8130080b5f3","practice_instructions":1,"leaderboard_instructions":0,"bonus":0,"reveal_word":false,"self_rating":"3","confidence":"83"},{"view_history":"[{\"page_index\":0,\"viewing_time\":4653.20000000298}]","rt":4653.4000000059605,"trial_type":"instructions","trial_index":4,"time_elapsed":265509,"internal_node_id":"0.0-3.0","protocol_sum":"","subject_identifier":330,"subject_sum":[188,82,221,99,66,119,196,163,74,45,98,16,153,74,154,94,42,182,211,59,180,163,168,150,52,16,224,12,166,193,90,2],"subject_pair":165,"STUDY_ID":"66a0b3911f23dfc7665bb169","PROLIFIC_PID":"6641d2f67974f4346cca44c1","SESSION_ID":"66a1616f6242b8130080b5f3","practice_instructions":1,"leaderboard_instructions":0,"bonus":0,"reveal_word":false,"self_rating":"3","confidence":"83"},{"word":"ZEBRA","click_log":{"letter":["","L","I","O","N","S","R","A","E","P","G","H","D","B","Z"],"t":[0,8974.10000000149,11445.39999999851,12149.60000000149,13871.39999999851,18197.70000000298,35886.39999999851,42502.5,56822.10000000149,148773.8999999985,153758,154765.5,156597.70000000298,161374,164214.20000000298],"hit":[null,0,0,0,0,0,1,1,1,0,0,0,0,1,1],"asked":["","L","LI","LIO","LION","LIONS","LIONSR","LIONSRA","LIONSRAE","LIONSRAEP","LIONSRAEPG","LIONSRAEPGH","LIONSRAEPGHD","LIONSRAEPGHDB","LIONSRAEPGHDBZ"],"word_state":["_____","_____","_____","_____","_____","_____","___R_","___RA","_E_RA","_E_RA","_E_RA","_E_RA","_E_RA","_EBRA","ZEBRA"]},"hover_log":{"letter":["?","?","?","?","?","?","?","?","?","?","?","?","?","?","?","?","?","?","?","?","?","?","J","J","J","?","?","?","?","?","?","?","?","?","?","?","?","?","?","?","?","?","?","?","?","J","J","J","J","J","J","J","J","J","J","J","J","J","J","J","J","J","J","J","J","J","?","?","?","?","?","?","?","?","?","?","?","?","?","?","?","?","?","?","?","?","?","?","?","?","?","?","?","?","?","?","?","?","?","?","?","?","?","?","?","?","?","?","?","?","?","?","?","?","?","?","?","?","?","?","?","?","?","?","?","?","?","?","?","?","?","?","?","?","?","?","?","?","?","?","?","?","?","?","?","?","?","?","?","?","?","?","?","?","?","?","?","?","?","?","?","?","?","?","?","?","?","?","?","?","?","?","?","?","?","?","?","?","?","?","?","?","?","?","?","?","?","?","?","?","?","?","?","?","?","?","?","?","?","?","?","?","?","?","?","?","?","?","?","?","?","?","?","?","?","?","?","?","?","?","?","?","?","?","?","?","?","?","?","?","?","?","?","?","?","?","?","?","?","?","?","?","?","?","?","?","?","?","?","?","?","?","?","?","?","?","?","?","?","?","?","?","?","?","?","?","?","?","?","?","?","?","?","?","?","?","?","?","?","?","?","?","?","?","K","K","?","?","L","L","L","L","L","L","L","L","L","L","L","L","L","L","L","L","L","L","L","L","L","L","L","L","L","L","L","L","L","L","L","L","L","L","L","L","L","L","L","L","L","L","L","L","L","L","L","L","L","L","L","L","L","L","L","L","?","?","?","?","?","?","?","?","?","?","?","?","?","?","?","?","?","?","?","?","?","?","?","?","?","?","?","?","?","?","?","?","?","?","?","?","?","?","?","?","?","?","?","?","?","?","?","?","?","?","?","?","?","?","?","?","?","?","?","?","?","?","?","?","?","?","?","?","?","?","?","?","?","?","?","?","?","?","?","?","?","?","?","?","?","?","?","?","?","?","?","?","?","?","?","?","?","?","?","?","?","?","?","?","?","?","?","?","?","?","?","?","?","?","?","?","?","?","?","?","?","?","?","?","?","?","?","?","?","?","?","?","?","?","?","?","?","?","?","?","?","?","?","?","?","?","?","?","?","?","?","?","?","?","?","?","?","?","?","?","L","L","L","L","L","L","L","L","L","L","L","L","L","L","L","L","L","L","L","L","L","L","L","L","L","L","L","L","L","L","L","L","L","L","L","L","L","L","L","L","?","M","M","?","N","N","?","?","?","O","O","O","?","?","?","?","?","?","?","?","?","?","?","?","?","?","?","?","?","?","?","?","?","?","?","?","?","?","?","?","?","?","?","?","?","?","?","?","?","?","?","?","?","?","?","?","?","?","?","?","?","?","?","?","?","?","?","?","?","?","I","I","I","I","I","I","I","I","I","I","I","I","I","I","I","I","I","I","I","I","I","I","I","I","I","I","I","I","I","I","I","I","I","I","I","I","I","I","I","I","I","I","I","I","I","I","I","I","I","I","I","I","I","I","I","I","I","I","I","I","I","I","I","I","I","I","I","I","I","I","I","I","I","I","I","I","I","I","?","H","?","?","?","P","P","?","?","?","?","?","?","O","O","O","O","O","O","O","O","O","O","O","O","O","O","O","O","O","O","O","O","O","O","O","O","O","O","O","O","O","O","O","O","?","?","?","?","?","?","?","?","?","?","?","W","W","W","V","V","V","V","V","V","?","?","?","?","?","?","?","?","?","?","?","?","U","U","U","U","U","U","U","U","?","?","?","?","?","?","?","?","L","L","L","?","?","?","?","?","?","?","?","?","?","?","?","?","?","?","?","?","?","N","N","N","N","N","N","N","N","N","N","N","N","N","N","N","N","N","N","N","N","N","N","N","N","N","N","N","N","N","N","N","N","N","N","N","N","N","N","N","N","N","N","?","M","M","?","?","?","?","?","?","?","?","?","?","T","T","T","T","T","?","S","S","S","S","S","S","S","S","S","S","S","S","S","S","S","S","S","S","S","S","S","S","S","S","S","S","S","S","S","S","S","S","S","S","S","S","S","S","S","S","S","S","S","S","S","S","S","S","S","S","S","S","S","S","S","S","S","S","S","S","S","S","S","S","S","S","S","S","S","S","S","S","S","S","S","S","S","S","S","S","S","S","S","S","S","S","S","S","S","S","S","S","S","S","S","S","S","S","S","S","S","S","S","S","S","S","S","S","S","S","S","S","S","S","S","S","S","S","S","S","S","S","S","S","S","S","S","S","S","S","S","S","S","S","S","S","S","S","S","S","S","S","S","S","S","S","S","S","S","S","S","S","S","S","S","S","S","S","S","S","S","S","S","S","S","S","S","S","S","S","S","S","S","S","S","S","S","S","S","S","S","S","S","S","S","S","S","S","S","S","S","S","S","S","S","S","S","S","S","S","S","S","S","S","S","S","S","S","S","S","S","S","S","S","S","S","S","S","S","S","S","S","S","S","S","S","S","S","S","S","S","S","S","S","S","S","S","S","S","S","S","S","S","S","S","S","S","S","S","S","S","S","S","S","S","S","S","S","S","S","S","S","S","S","S","S","S","S","S","S","S","S","S","S","S","S","S","S","S","S","S","S","S","S","S","S","S","S","S","S","S","S","S","S","S","S","S","S","S","S","S","S","S","S","S","S","S","S","S","S","S","S","S","S","S","S","S","S","S","S","S","S","S","S","S","S","S","S","S","S","S","S","S","S","S","S","S","S","S","S","S","S","S","S","S","S","S","S","S","S","S","S","S","S","S","S","S","S","S","S","S","S","S","?","?","?","?","?","?","?","?","?","?","?","?","?","?","?","?","?","?","?","?","?","?","?","?","?","?","?","?","?","?","?","?","?","?","?","?","?","?","?","?","?","?","?","S","S","S","S","S","S","S","S","S","S","S","S","S","S","S","S","S","S","S","S","S","S","S","S","S","S","S","S","S","S","S","S","S","S","S","S","S","S","S","S","S","S","S","S","S","S","S","S","S","S","S","S","S","S","S","S","S","S","S","S","S","S","S","S","S","S","S","S","S","S","S","S","S","S","S","S","S","S","S","S","S","S","S","S","?","?","?","?","?","?","?","?","?","?","?","?","?","?","?","?","?","?","?","?","?","?","?","?","?","?","?","?","?","?","?","?","?","?","?","?","?","?","?","?","?","?","?","?","?","?","?","?","?","?","?","?","?","?","?","?","?","?","?","?","?","?","?","?","?","?","?","?","?","?","?","?","?","?","?","?","?","?","?","?","?","?","?","?","?","?","?","?","?","?","?","?","?","?","?","?","?","?","?","?","?","?","?","?","?","?","?","?","?","?","?","?","?","?","?","?","?","?","?","?","?","?","?","?","?","?","?","?","?","?","?","?","?","?","?","?","?","?","?","?","?","?","?","?","?","?","?","?","?","?","?","?","?","?","?","?","?","?","?","?","?","?","?","?","?","?","?","?","?","?","?","?","?","?","?","?","?","?","?","?","?","?","?","?","?","?","?","?","?","?","?","?","?","?","?","?","?","?","?","?","?","?","?","?","?","?","?","?","?","?","?","?","?","?","?","?","?","?","?","?","?","?","?","?","?","?","?","?","?","?","?","?","?","?","?","?","?","?","?","?","?","?","?","?","?","?","?","?","?","?","?","?","?","?","?","?","?","?","?","?","?","?","?","?","?","?","?","?","?","?","?","?","?","?","?","?","?","?","?","?","?","?","?","?","?","?","?","?","?","?","?","?","?","?","?","?","?","?","?","?","?","?","?","?","?","?","?","?","?","?","?","?","?","?","?","?","?","?","?","?","?","?","?","?","?","?","?","?","?","?","?","?","?","?","?","?","?","?","?","?","?","?","?","?","?","?","?","?","?","?","?","?","?","?","?","?","?","?","?","?","?","?","?","V","V","V","V","V","V","V","V","?","?","?","?","?","?","?","?","?","?","?","?","?","?","?","?","?","?","?","?","?","?","?","?","?","?","?","?","?","?","?","?","?","?","?","?","?","?","?","?","?","?","?","?","?","?","?","?","?","?","?","?","?","?","?","?","?","?","?","?","?","?","?","?","?","?","?","?","?","?","?","?","?","?","?","?","?","?","?","?","?","?","?","?","?","?","?","?","?","?","?","?","?","?","?","?","?","?","?","?","?","?","?","?","?","?","?","?","?","?","N","?","F","F","F","F","F","?","?","?","?","?","?","?","?","?","?","?","?","?","?","?","?","?","?","?","?","F","F","F","F","F","F","F","F","F","F","F","F","F","F","F","F","F","F","F","F","F","F","F","F","F","F","F","F","F","F","F","F","F","F","F","F","F","F","F","F","F","F","F","F","F","F","F","F","F","F","F","F","F","F","F","F","F","F","F","F","F","F","F","F","F","F","F","F","F","F","F","F","F","F","F","F","F","F","F","F","F","F","F","F","F","F","F","F","F","F","F","F","F","F","F","F","F","F","F","F","F","F","F","F","F","F","F","F","F","F","F","F","F","F","F","F","F","F","F","F","F","F","F","F","F","F","F","F","F","F","F","F","F","F","F","F","F","F","F","F","F","F","F","F","F","F","F","F","F","F","F","F","F","F","F","F","F","F","F","F","F","F","F","F","F","F","F","F","F","F","F","F","F","F","F","F","F","F","F","F","F","F","F","F","F","F","F","F","F","F","F","F","F","F","F","F","F","F","F","F","F","F","F","F","F","F","F","F","F","F","F","F","F","F","F","?","?","?","?","?","?","?","?","?","?","?","?","?","?","?","?","?","?","?","?","?","?","?","?","?","?","?","?","Q","Q","Q","Q","Q","Q","Q","Q","Q","Q","Q","Q","Q","?","?","R","R","R","R","R","R","R","R","R","R","R","R","R","R","R","R","R","R","R","R","R","R","R","R","R","R","R","R","R","R","R","R","R","R","R","R","R","R","?","Q","Q","P","?","?","?","?","?","?","C","C","?","?","?","B","B","B","?","?","A","A","A","A","A","A","A","A","A","A","A","A","A","A","A","A","A","A","A","A","A","A","A","A","A","A","A","A","A","A","A","A","A","A","A","A","A","A","A","A","A","A","A","A","A","A","A","A","A","A","A","A","A","A","A","A","A","A","A","A","A","A","A","A","A","A","A","A","A","A","A","A","A","A","A","A","A","A","A","A","A","A","A","A","A","A","A","A","A","A","A","A","A","A","A","A","A","A","A","A","A","A","A","A","A","A","A","A","A","A","A","A","A","A","A","A","A","A","A","A","A","A","A","A","A","A","A","A","A","A","A","A","A","A","A","A","A","A","A","A","A","A","A","A","A","A","A","A","A","A","A","A","A","A","A","A","A","A","A","A","A","A","A","A","A","A","A","A","A","A","A","A","A","A","A","A","A","A","A","A","A","A","A","A","A","A","A","A","A","A","A","A","A","A","A","A","A","A","A","A","A","A","A","A","A","A","A","A","A","A","A","A","A","A","A","A","A","A","A","A","A","A","A","A","A","A","A","A","A","A","A","A","A","A","A","A","A","A","A","A","A","A","A","A","A","A","A","A","A","A","A","A","A","A","A","A","A","A","A","A","A","A","A","A","A","A","A","A","A","A","A","A","A","A","A","A","A","A","A","A","A","A","A","A","A","A","A","A","A","A","A","A","A","A","A","A","A","A","A","A","A","A","A","A","A","A","A","A","A","A","A","A","A","A","A","A","A","A","A","A","A","A","A","A","A","A","A","A","A","A","A","A","A","A","A","A","A","A","A","A","A","A","A","A","A","A","A","A","A","A","A","A","A","A","A","A","A","A","A","A","A","A","A","A","A","A","A","A","A","A","A","A","A","A","A","A","A","A","A","A","A","A","A","A","A","A","A","A","A","A","A","A","A","A","A","A","A","A","A","A","A","A","A","A","A","A","A","A","A","A","A","A","A","A","A","A","?","B","?","?","?","?","M","M","?","N","N","N","N","N","N","N","N","N","N","N","N","N","N","N","N","N","N","N","N","N","N","N","N","N","N","N","N","N","N","N","N","N","N","N","N","N","N","N","N","N","N","N","N","N","N","N","N","N","N","N","N","N","N","N","N","N","N","N","N","N","N","N","N","N","N","N","N","N","N","N","N","N","N","N","N","N","N","N","N","N","N","N","N","N","N","N","N","N","N","N","N","N","N","N","N","N","N","N","N","N","N","N","N","N","N","N","N","N","N","N","N","N","N","N","N","N","N","N","N","N","N","N","N","N","N","N","N","N","N","N","N","N","N","N","N","N","N","N","N","N","N","N","N","N","N","N","N","N","N","N","N","N","N","N","N","N","N","N","N","N","N","N","N","N","N","N","N","N","N","N","N","N","N","N","N","N","N","N","N","N","N","N","N","N","N","N","N","N","N","N","N","N","N","N","N","N","N","N","N","N","N","N","N","N","N","N","N","N","N","N","N","N","N","N","N","N","N","N","N","N","N","N","N","N","N","N","N","N","N","N","N","N","N","N","N","N","N","N","N","N","N","N","N","N","N","N","N","N","N","N","N","N","N","N","N","N","N","N","N","N","N","N","N","N","N","N","N","N","N","N","N","N","N","N","N","N","N","N","N","N","N","N","N","N","N","N","N","N","N","N","N","N","N","N","N","N","N","N","N","N","N","N","N","N","N","N","N","N","N","N","N","N","N","N","N","N","N","N","N","N","N","N","N","N","N","N","N","N","N","N","N","N","N","N","N","N","N","N","N","N","N","N","N","N","N","N","N","N","N","N","N","N","N","N","N","N","N","N","N","N","N","N","N","N","N","N","N","N","N","N","N","N","N","N","N","N","N","N","N","N","N","N","N","N","N","N","N","N","N","N","N","N","N","N","N","N","N","N","N","N","N","N","N","N","N","N","N","N","N","N","N","N","N","N","N","N","N","N","N","N","N","N","N","N","N","N","N","N","N","N","N","N","N","N","N","N","N","N","N","N","N","N","N","N","N","N","N","N","N","N","N","N","N","N","N","N","N","N","N","N","N","N","N","N","N","N","N","N","N","N","N","N","N","N","N","N","N","N","N","N","N","N","N","N","N","O","Q","?","?","?","?","?","?","?","?","?","?","?","?","?","?","?","?","?","?","?","?","?","Y","Y","Y","?","?","?","?","?","?","?","?","?","?","?","?","?","?","?","?","?","?","?","?","?","?","?","?","?","?","?","?","?","?","?","?","?","?","?","?","?","?","?","?","?","?","?","?","?","?","?","?","?","?","?","?","?","?","?","?","?","?","?","?","?","X","X","X","X","X","?","?","W","W","W","W","W","W","W","W","W","W","W","W","W","W","W","W","W","W","W","W","W","W","W","W","W","W","W","W","W","W","W","W","W","W","W","W","W","W","W","W","W","W","W","W","W","W","W","W","W","W","W","W","W","W","W","W","W","W","W","W","W","W","W","W","W","W","W","W","W","W","W","W","W","W","W","W","W","W","W","W","W","W","W","W","W","W","W","W","W","W","W","W","W","W","W","W","W","W","W","W","W","W","W","W","W","W","W","W","W","W","W","W","W","W","W","W","W","W","W","W","W","W","W","W","W","W","W","W","W","W","W","W","W","W","W","W","W","W","W","W","W","W","W","W","W","W","W","W","W","W","W","W","W","W","W","W","W","W","?","?","N","?","?","?","?","?","?","?","?","?","?","?","?","?","?","?","?","?","?","?","?","?","?","?","?","?","?","?","?","?","?","?","E","E","E","E","E","E","E","E","E","E","E","E","E","E","E","E","E","E","E","E","E","E","E","E","E","E","E","E","E","E","E","E","E","E","E","E","E","E","E","E","E","E","E","E","E","E","E","E","E","E","E","E","E","E","E","E","E","E","E","E","E","E","E","E","E","E","E","E","E","E","E","E","E","?","?","?","?","?","?","?","?","?","?","?","?","?","?","?","?","M","M","M","M","M","M","M","M","M","M","M","M","M","M","M","M","M","M","M","M","M","M","M","M","M","M","M","M","M","M","M","M","M","M","M","M","M","M","M","M","M","M","M","M","M","M","M","M","M","M","M","M","M","M","M","M","M","M","M","M","M","M","M","M","M","M","M","M","M","M","M","M","M","M","M","M","M","M","M","M","M","M","M","M","M","M","M","M","M","M","M","M","M","M","M","M","M","M","M","M","M","M","M","M","M","M","M","M","M","M","M","M","M","M","M","M","M","M","M","M","M","M","M","M","M","M","M","M","M","M","M","M","M","M","M","M","M","M","M","M","M","M","M","M","M","M","M","M","M","M","M","M","M","M","M","M","M","M","M","M","M","M","M","M","M","M","M","M","M","M","M","M","M","M","M","M","M","M","M","M","M","M","M","M","M","M","M","M","M","M","M","M","M","M","M","M","M","M","M","M","M","M","M","M","M","M","M","M","M","M","M","M","M","M","M","M","M","M","M","M","M","M","M","M","M","M","M","M","M","M","M","M","M","M","M","M","M","M","M","M","M","M","M","M","M","M","M","M","M","M","M","M","M","M","M","M","M","M","M","M","M","M","M","M","M","M","M","M","M","M","M","M","M","M","M","M","M","M","M","M","M","M","M","M","M","M","M","M","M","M","M","M","M","M","M","M","M","M","M","M","M","M","M","M","M","M","M","M","M","M","M","M","M","M","M","M","M","M","M","M","M","M","M","M","M","M","M","M","M","M","M","M","M","M","M","M","M","M","M","M","M","M","M","M","M","M","M","M","M","M","M","M","M","M","M","M","M","M","M","M","M","M","M","M","M","M","M","M","M","M","M","M","M","M","M","M","M","M","M","M","M","M","M","M","M","M","M","M","M","M","M","M","M","M","M","M","M","M","M","M","M","M","M","M","M","M","M","M","M","M","M","M","M","M","M","M","M","M","M","M","M","M","M","M","M","M","M","M","M","M","M","M","M","M","M","M","M","M","M","M","M","M","M","M","M","M","M","M","M","M","M","M","M","M","M","M","M","M","M","M","M","M","M","M","M","M","M","M","M","M","M","M","M","M","M","M","M","M","M","M","M","M","M","M","M","M","M","M","M","M","M","M","M","M","M","M","M","M","M","M","M","M","M","M","M","M","M","M","M","M","M","M","M","M","M","M","M","M","M","M","M","M","M","M","M","M","M","M","M","M","M","M","M","M","M","M","M","M","M","M","M","M","M","M","M","M","M","M","M","M","M","M","M","M","M","M","M","M","M","M","M","M","M","M","M","M","M","M","M","M","M","M","M","M","M","M","M","M","M","M","M","M","M","M","M","M","M","M","M","M","M","M","M","M","M","M","M","M","M","M","M","M","M","M","M","M","M","M","M","M","M","M","M","M","M","M","M","M","M","M","M","M","M","M","M","M","M","M","M","M","M","M","M","M","M","M","M","M","M","M","M","M","M","M","M","M","M","M","M","M","M","M","M","M","M","M","M","M","M","M","M","M","M","M","M","M","M","M","M","M","M","M","M","M","M","M","M","M","M","M","M","M","M","M","M","M","M","M","M","M","M","M","M","M","M","M","M","M","M","M","M","M","M","M","M","M","M","M","M","M","M","M","M","M","M","M","M","M","M","M","M","M","M","M","M","M","M","M","M","M","M","M","M","M","M","M","M","M","M","M","M","M","M","M","M","M","M","M","M","M","M","M","M","M","M","M","M","M","M","M","M","M","M","M","M","M","M","M","M","M","M","M","M","M","M","M","M","M","M","M","M","M","M","M","M","M","M","M","M","M","M","M","M","M","M","M","M","M","M","M","M","M","M","M","M","M","M","M","M","M","M","M","M","M","M","M","M","M","M","M","M","M","M","M","M","M","M","M","M","M","M","M","M","M","M","M","M","M","M","M","M","M","M","M","M","M","M","M","M","M","M","M","M","M","M","M","M","M","M","M","M","M","M","M","M","M","M","M","M","M","M","M","M","M","M","M","M","M","M","M","M","M","M","M","M","M","M","M","M","M","M","M","M","M","M","M","M","M","M","M","M","M","M","M","M","M","M","M","M","M","M","M","M","M","M","M","M","M","M","M","M","M","M","M","M","M","M","M","M","M","M","M","M","M","M","M","M","M","M","M","M","M","M","M","M","M","M","M","M","M","M","M","M","M","M","M","M","M","M","M","M","M","M","M","M","M","M","M","M","M","M","M","M","M","M","M","M","M","M","M","M","M","M","M","M","M","M","M","M","M","M","M","M","M","M","M","M","M","M","M","M","M","M","M","M","M","M","M","M","M","M","M","M","M","M","M","M","M","M","M","M","M","M","M","M","M","M","M","M","M","M","M","M","M","M","M","M","M","M","M","M","M","M","M","M","M","M","M","M","M","M","M","M","M","M","M","M","M","M","M","M","M","M","M","M","M","M","M","M","M","M","M","M","M","M","M","M","M","M","M","M","M","M","M","M","M","M","M","M","M","M","M","M","M","M","M","M","M","M","M","M","M","M","M","M","M","M","M","M","M","M","M","M","M","M","M","M","M","M","M","M","M","M","M","M","M","M","M","M","M","M","M","M","M","M","M","M","M","M","M","M","M","M","M","M","M","M","M","M","M","M","M","M","M","M","M","M","M","M","M","M","M","M","M","M","M","M","M","M","M","M","M","M","M","M","M","M","M","M","M","M","M","M","M","M","M","M","M","M","M","M","M","M","M","M","M","M","M","M","M","M","M","M","M","M","M","M","M","M","M","M","M","M","M","M","M","M","M","M","M","M","M","M","M","M","M","M","M","M","M","M","M","M","M","M","M","M","M","M","M","M","M","M","M","M","M","M","M","M","M","M","M","M","M","M","M","M","M","M","M","M","M","M","M","M","M","M","M","M","M","M","M","M","M","M","M","M","M","M","M","M","M","M","M","M","M","M","M","M","M","M","M","M","M","M","M","M","M","M","M","M","M","M","M","M","M","M","M","M","M","M","M","M","M","M","M","M","M","M","M","M","M","M","M","M","M","M","M","M","M","M","M","M","M","M","M","M","M","M","M","M","M","M","M","M","M","M","M","M","M","M","M","M","M","M","M","M","M","M","M","M","M","M","M","M","M","M","M","M","M","M","M","M","M","M","M","M","M","M","M","M","M","M","M","M","M","M","M","M","M","M","M","M","M","M","M","M","M","M","M","M","M","M","M","M","M","M","M","M","M","M","M","M","M","M","M","M","M","M","M","M","M","M","M","M","M","M","M","M","M","M","M","M","M","M","M","M","M","M","M","M","M","M","M","M","M","M","M","M","M","M","M","M","M","M","M","M","M","M","M","M","M","M","M","M","M","M","M","M","M","M","M","M","M","M","M","M","M","M","M","M","M","M","M","M","M","M","M","M","M","M","M","M","M","M","M","M","M","M","M","M","M","M","M","M","M","M","M","M","M","M","M","M","M","M","M","M","M","M","M","M","M","M","M","M","M","M","M","M","M","M","M","M","M","M","M","M","M","M","M","M","M","M","M","M","M","M","M","M","M","M","M","M","M","M","M","M","M","M","M","M","M","M","M","M","M","M","M","M","M","M","M","M","M","M","M","M","M","M","M","M","M","M","M","M","M","M","M","M","M","M","M","M","M","M","M","M","M","M","M","M","M","M","M","M","M","M","M","M","M","M","M","M","M","M","M","M","M","M","M","M","M","M","M","M","M","M","M","M","M","M","M","M","M","M","M","M","M","M","M","M","M","M","M","M","M","M","M","M","M","M","M","M","M","M","M","M","M","M","M","M","M","M","M","M","M","M","M","M","M","M","M","M","M","M","M","M","M","M","M","M","M","M","M","M","M","M","M","M","M","M","M","M","M","M","M","M","M","M","M","M","M","M","M","M","M","M","M","M","M","M","M","M","M","M","M","M","M","M","M","M","M","M","M","M","M","M","M","M","M","M","M","M","M","M","M","M","M","M","M","M","M","M","M","M","M","M","M","M","M","M","M","M","M","M","M","M","M","M","M","M","M","M","M","M","M","M","M","M","M","M","M","M","M","M","M","M","M","M","M","M","M","M","M","M","M","M","M","M","M","M","M","M","M","M","M","M","M","M","M","M","M","M","M","M","M","M","M","M","M","M","M","M","M","M","M","M","M","M","M","M","M","M","M","M","M","M","M","M","M","M","M","M","M","M","M","M","M","M","M","M","M","M","M","M","M","M","M","M","M","M","M","M","M","M","M","M","M","M","M","M","M","M","M","M","M","M","M","M","M","M","M","M","M","M","M","M","M","M","M","M","M","M","M","M","M","M","M","M","M","M","M","M","M","M","M","M","M","M","M","M","M","M","M","M","M","M","M","M","M","M","M","M","M","M","M","M","M","M","M","M","M","M","M","M","M","M","M","M","M","M","M","M","M","M","M","M","M","M","M","M","M","M","M","M","M","M","M","M","M","M","M","M","M","M","M","M","M","M","M","M","M","M","M","M","M","M","M","M","M","M","M","M","M","M","M","M","M","M","M","M","M","M","M","M","M","M","M","M","M","M","M","M","M","M","M","M","M","M","M","M","M","M","M","M","M","M","M","M","M","M","M","M","M","M","M","M","M","M","M","M","M","M","M","M","M","M","M","M","M","M","M","M","M","M","M","M","M","M","M","M","M","M","M","M","M","M","M","M","M","M","M","M","M","M","M","M","M","M","M","M","M","M","M","M","M","M","M","M","M","M","M","M","M","M","M","M","M","M","M","M","M","M","M","M","M","M","M","M","M","M","M","M","M","M","M","M","M","M","M","M","M","M","M","M","M","M","M","M","M","M","M","M","M","M","M","M","M","M","M","M","M","M","M","M","M","M","M","M","M","M","M","M","M","M","M","M","M","M","M","M","M","M","M","M","M","M","M","M","M","M","M","M","M","M","M","M","M","M","M","M","M","M","M","M","M","M","M","M","M","M","M","M","M","M","M","M","M","M","M","M","M","M","M","M","M","M","M","M","M","M","M","M","M","M","M","M","M","M","M","M","M","M","M","M","M","M","M","M","M","M","M","M","M","M","M","M","M","M","M","M","M","M","M","M","M","M","M","M","M","M","M","M","M","M","M","M","M","M","M","M","M","M","M","M","M","M","M","M","M","M","M","M","M","M","M","M","M","M","M","M","M","M","M","M","M","M","M","M","M","M","M","M","M","M","M","M","M","M","M","M","M","M","M","M","M","M","M","M","M","M","M","M","M","M","M","M","M","M","M","M","M","M","M","M","M","M","M","M","M","M","M","M","M","M","M","M","M","M","M","M","M","M","M","M","M","M","M","M","M","M","M","M","M","M","M","M","M","M","M","M","M","M","M","M","M","M","M","M","M","M","M","M","M","M","M","M","M","M","M","M","M","M","M","M","M","M","M","M","M","M","M","M","M","M","M","M","M","M","M","M","M","M","M","M","M","M","M","M","M","M","M","M","M","M","M","M","M","M","M","M","M","M","M","M","M","M","M","M","M","M","M","M","M","M","M","M","M","M","M","M","M","M","M","M","M","M","M","M","M","M","M","M","M","M","M","M","M","M","M","M","M","M","M","M","M","M","M","M","M","M","M","M","M","M","M","M","M","M","M","M","M","M","M","M","M","M","M","M","M","M","M","M","M","M","M","M","M","M","M","M","M","M","M","M","M","M","M","M","M","M","M","M","M","M","M","M","M","M","M","M","M","M","M","M","M","M","M","M","M","M","M","M","M","M","M","M","M","M","M","M","M","M","M","M","M","M","M","M","M","M","M","M","M","M","M","M","M","M","M","M","M","M","M","M","M","M","M","M","M","M","M","M","M","M","M","M","M","M","M","M","M","M","M","M","M","M","M","M","M","M","M","M","M","M","M","M","M","M","M","M","M","M","M","M","M","M","M","M","M","M","M","M","M","M","M","M","M","M","M","M","M","M","M","M","M","M","M","M","M","M","M","M","M","M","M","M","M","M","M","M","M","M","M","M","M","M","M","M","M","M","M","M","M","M","M","M","M","M","M","M","M","M","M","M","M","M","M","M","M","M","M","M","M","M","M","M","M","M","M","M","M","M","M","M","M","M","M","M","M","M","M","M","M","M","M","M","M","M","M","M","M","M","M","M","M","M","M","M","M","M","M","M","M","M","M","M","M","M","M","M","M","M","M","M","M","M","M","M","M","M","M","M","M","M","M","M","M","M","M","M","M","M","M","M","M","M","M","M","M","M","M","M","M","M","M","M","M","M","M","M","M","M","M","M","M","M","M","M","M","M","M","M","M","M","M","M","M","M","M","M","M","M","M","M","M","M","M","M","M","M","M","M","M","M","M","M","M","M","M","M","M","M","M","M","M","M","M","M","M","M","M","M","M","M","M","M","M","M","M","M","M","M","M","M","M","M","M","M","M","M","M","M","M","M","M","M","M","M","M","M","M","M","M","M","M","M","M","M","M","M","M","M","M","M","M","M","M","M","M","M","M","M","M","M","M","M","M","M","M","M","M","M","M","M","M","M","M","M","M","M","M","M","M","M","M","M","M","M","M","M","M","M","M","M","M","M","M","M","M","M","M","M","M","M","M","M","M","M","M","M","M","M","M","M","M","M","M","M","M","M","M","M","M","M","M","M","M","M","M","M","M","M","M","M","M","M","M","M","M","M","M","M","M","M","M","M","M","M","M","M","M","M","M","M","M","M","M","M","M","M","M","M","M","M","M","M","M","M","M","M","M","M","M","M","M","M","M","M","M","M","M","M","M","M","M","M","M","M","M","M","M","M","M","M","M","M","M","M","M","M","M","M","M","M","M","M","M","M","M","M","M","M","M","M","M","M","M","M","M","M","M","M","M","M","M","M","M","M","M","M","M","M","M","M","M","M","M","M","M","M","M","M","M","M","M","M","M","M","M","M","M","M","M","M","M","M","M","M","M","M","M","M","M","M","M","M","M","M","M","M","M","M","M","M","M","M","M","M","M","M","M","M","M","M","M","M","M","M","M","M","M","M","M","M","M","M","M","M","M","M","M","M","M","M","M","M","M","M","M","M","M","M","M","M","M","M","M","M","M","M","M","M","M","M","M","M","M","M","M","M","M","M","M","M","M","M","M","M","M","M","M","M","M","M","M","M","M","M","M","M","M","M","M","M","M","M","M","M","M","M","M","M","M","M","M","M","M","M","M","M","M","M","M","M","M","M","M","M","M","M","M","M","M","M","M","M","M","M","M","M","M","M","M","M","M","M","M","M","M","M","M","M","M","M","M","M","M","M","M","M","M","M","M","M","M","M","M","M","M","M","M","M","M","M","M","M","M","M","M","M","M","M","M","M","M","M","M","M","M","M","M","M","M","M","M","M","M","M","M","M","M","M","M","M","M","M","M","M","M","M","M","M","M","M","M","M","M","M","M","M","M","M","M","M","M","M","M","M","M","M","M","M","M","M","M","M","M","M","M","M","M","M","M","M","M","M","M","M","M","M","M","M","M","M","M","M","M","M","M","M","M","M","M","M","M","M","M","M","M","M","M","M","M","M","M","M","M","M","M","M","M","M","M","M","M","M","M","M","M","M","M","M","M","M","M","M","M","M","M","M","M","M","M","M","M","M","M","M","M","M","M","M","M","M","M","M","M","M","M","M","M","M","M","M","M","M","M","M","M","M","M","M","M","M","M","M","M","M","M","M","M","M","M","M","M","M","M","M","M","M","M","M","M","M","M","M","M","M","M","M","M","M","M","M","M","M","M","M","M","M","M","M","M","M","M","M","M","M","M","M","M","M","M","M","M","M","M","M","M","M","M","M","M","M","M","M","M","M","M","M","M","M","M","M","M","M","M","M","M","M","M","M","M","M","M","M","M","M","M","M","M","M","M","M","M","M","M","M","M","M","M","M","M","M","M","M","M","M","M","M","M","M","M","M","M","M","M","M","M","M","M","M","M","M","M","M","M","M","M","M","M","M","M","M","M","M","M","M","M","M","M","M","M","M","M","M","M","M","M","M","M","M","M","M","M","M","M","M","M","M","M","M","M","M","M","M","M","M","M","M","M","M","M","M","M","M","M","M","M","M","M","M","M","M","M","M","M","M","M","M","M","M","M","M","M","M","M","M","M","M","M","M","M","M","M","M","M","M","M","M","M","M","M","M","M","M","M","M","M","M","M","M","M","M","M","M","M","M","M","M","M","M","M","M","M","M","M","M","M","M","M","M","M","M","M","M","M","M","M","M","M","M","M","M","M","M","M","M","M","M","M","M","M","M","M","M","M","M","M","M","M","M","M","M","M","M","M","M","M","M","M","M","M","M","M","M","M","M","M","M","M","M","M","M","M","M","M","M","M","M","M","M","M","M","M","M","M","M","M","M","M","M","M","M","M","M","M","M","M","M","M","M","M","M","M","M","M","M","M","M","M","M","M","M","M","M","M","M","M","M","M","M","M","M","M","M","M","M","M","M","M","M","M","M","M","M","M","M","M","M","M","M","M","M","M","M","M","M","M","M","M","M","M","M","M","M","M","M","M","M","M","M","M","M","M","M","M","M","M","M","M","M","M","M","M","M","M","M","M","M","M","M","M","M","M","M","M","M","M","M","M","M","M","M","M","M","M","M","M","M","M","M","M","M","M","M","M","M","M","M","M","M","M","M","M","M","M","M","M","M","M","M","M","M","M","M","M","M","M","M","M","M","M","M","M","M","M","M","M","M","M","M","M","M","M","M","M","M","M","M","M","M","M","M","M","M","M","M","M","M","M","M","M","M","M","M","M","M","M","M","M","M","M","M","M","M","M","M","M","M","M","M","M","M","M","M","M","M","M","M","M","M","M","M","M","M","M","M","M","M","M","M","M","M","M","M","M","M","M","M","M","M","M","M","M","M","M","M","M","M","M","M","M","M","M","M","M","M","M","M","M","M","M","M","M","M","M","M","M","M","M","M","M","M","M","M","M","M","M","M","M","M","M","M","M","M","M","M","M","M","M","M","M","M","M","M","M","M","M","M","M","M","M","M","M","M","M","M","M","M","M","M","M","M","M","M","M","M","M","M","M","M","M","M","M","M","M","M","M","M","M","M","M","M","M","M","M","M","M","M","M","M","M","M","M","M","M","M","M","M","M","M","M","M","M","M","M","M","M","M","M","M","M","M","M","M","M","M","M","M","M","M","M","M","M","M","M","M","M","M","M","M","M","M","M","M","M","M","M","M","M","M","M","M","M","M","M","M","M","M","M","M","M","M","M","M","M","M","M","M","M","M","M","M","M","M","M","M","M","M","M","M","M","M","M","M","M","M","M","M","M","M","M","M","M","M","M","M","M","M","M","M","M","M","M","M","M","M","M","M","M","M","M","M","M","M","M","M","M","M","M","M","M","M","M","M","M","M","M","M","M","M","M","M","M","M","M","M","M","M","M","M","M","M","M","M","M","M","M","M","M","M","M","M","M","M","M","M","M","M","M","M","M","M","M","M","M","M","M","M","M","M","M","M","M","M","M","M","M","M","M","M","M","M","M","M","M","M","M","M","M","M","M","M","M","M","M","M","M","M","M","M","M","M","M","M","M","M","M","M","M","M","M","M","M","M","M","M","M","M","M","M","M","M","M","M","M","M","M","M","M","M","M","M","M","M","M","M","M","M","M","M","M","M","M","M","M","M","M","M","M","M","M","M","M","M","M","M","M","M","M","M","M","M","M","M","M","M","M","M","M","M","M","M","M","M","M","M","M","M","M","M","M","M","M","M","M","M","M","M","M","M","M","M","M","M","M","M","M","M","M","M","M","M","M","M","M","M","M","M","M","M","M","M","M","M","M","M","M","M","M","M","M","M","M","M","M","M","M","M","M","M","M","M","M","M","M","M","M","M","M","M","M","M","M","M","M","M","M","M","M","M","M","M","M","M","M","M","M","M","M","M","M","M","M","M","M","M","M","M","M","M","M","M","M","M","M","M","M","M","M","M","M","M","M","M","M","M","M","M","M","M","M","M","M","M","M","M","M","M","M","M","M","M","M","M","M","M","M","M","M","M","M","M","M","M","M","M","M","M","M","M","M","M","M","M","M","M","M","M","M","M","M","M","M","M","M","M","M","M","M","M","M","M","M","M","M","M","M","M","M","M","M","M","M","M","M","M","M","M","M","M","M","M","M","M","M","M","M","M","M","M","M","M","M","M","M","M","M","M","M","M","M","M","M","M","M","M","M","M","M","M","M","M","M","M","M","M","M","M","M","M","M","M","M","M","M","M","M","M","M","M","M","M","M","M","M","M","M","M","M","M","M","M","M","M","M","M","M","M","M","M","M","M","M","M","M","M","M","M","M","M","M","M","M","M","M","M","M","M","M","M","M","M","M","M","M","M","M","M","M","M","M","M","M","M","M","M","M","M","M","M","M","M","M","M","M","M","M","M","M","M","M","M","M","M","M","M","M","M","M","M","M","M","M","M","M","M","M","M","M","M","M","M","M","M","M","M","M","M","M","M","M","M","M","M","M","M","M","M","M","M","M","M","M","M","M","M","M","M","M","M","M","M","M","M","M","M","M","M","M","M","M","M","M","M","M","M","M","M","M","M","M","M","M","M","M","M","M","M","M","M","M","M","M","M","M","M","M","M","M","M","M","M","M","M","M","M","M","M","M","M","M","M","M","M","M","M","M","M","M","M","M","M","M","M","M","M","M","M","M","M","M","M","M","M","M","M","M","M","M","M","M","M","M","M","M","M","M","M","M","M","M","M","M","M","M","M","M","M","M","M","M","M","M","M","M","M","M","M","M","M","M","M","M","M","M","M","M","M","M","M","M","M","M","M","M","M","M","M","M","M","M","M","M","M","M","M","M","M","M","M","M","M","M","M","M","M","M","M","M","M","M","M","M","M","M","M","M","M","M","M","M","M","M","M","M","M","M","M","M","M","M","M","M","M","M","M","M","M","M","M","M","M","M","M","M","M","M","M","M","M","M","M","M","M","M","M","M","M","M","M","M","M","M","M","M","M","M","M","M","M","M","M","M","M","M","M","M","M","M","M","M","M","M","M","M","M","M","M","M","M","M","M","M","M","M","M","M","M","M","M","M","M","M","M","M","M","M","M","M","M","M","M","M","M","M","M","M","M","M","M","M","M","M","M","M","M","M","M","M","M","M","M","M","M","M","M","M","M","M","M","M","M","M","M","M","M","M","M","M","M","M","M","M","M","M","M","M","M","M","M","M","M","M","M","M","M","M","M","M","M","M","M","M","M","M","M","M","M","M","M","M","M","M","M","M","M","M","M","M","M","M","M","M","M","M","M","M","M","M","M","M","M","M","M","M","M","M","M","M","M","M","M","M","M","M","M","M","M","M","M","M","M","M","M","M","M","M","M","M","M","M","M","M","M","M","M","M","M","M","M","M","M","M","M","M","M","M","M","M","M","M","M","M","M","M","M","M","M","M","M","M","M","M","M","M","M","M","M","M","M","M","M","M","M","M","M","M","M","M","M","M","M","M","M","M","M","M","M","M","M","M","M","M","M","M","M","M","M","M","M","M","M","M","M","M","M","M","M","M","M","M","M","M","M","M","M","M","M","M","M","M","M","M","M","M","M","M","M","M","M","M","M","M","M","M","M","M","M","M","M","M","M","M","M","M","M","M","M","M","M","M","M","M","M","M","M","M","M","M","M","M","M","M","M","M","M","M","M","M","M","M","M","M","M","M","M","M","M","M","M","M","M","M","M","M","M","M","M","M","M","M","M","M","M","M","M","M","M","M","M","M","M","M","M","M","M","M","M","M","M","M","M","M","M","M","M","M","M","M","M","M","M","M","M","M","M","M","M","M","M","M","M","M","M","M","M","M","M","M","M","M","M","M","M","M","M","M","M","M","M","M","M","M","M","M","M","M","M","M","M","M","M","M","M","M","M","M","M","M","M","M","M","M","M","M","M","M","M","M","M","M","M","M","M","M","M","M","M","M","M","M","M","M","M","M","M","M","M","M","M","M","M","M","M","M","M","M","M","M","M","M","M","M","M","M","M","M","M","M","M","M","M","M","M","M","M","M","M","M","M","M","M","M","M","M","M","M","M","M","M","M","M","M","M","M","M","M","M","M","M","M","M","M","M","M","M","M","M","M","M","M","M","M","M","M","M","M","M","M","M","M","M","M","M","M","M","M","M","M","M","M","M","M","M","M","M","M","M","M","M","M","M","M","M","M","M","M","M","M","M","M","M","M","M","M","M","M","M","M","M","M","M","M","M","M","M","M","M","M","M","?","?","N","O","?","?","?","?","?","?","?","?","?","?","?","?","?","?","?","?","?","?","?","?","?","?","?","?","?","?","?","?","?","?","G","G","?","?","?","P","P","P","P","P","P","P","P","P","P","P","P","P","P","P","P","P","P","P","P","P","P","P","P","P","P","P","P","P","P","P","P","P","P","P","P","P","P","P","P","P","P","P","P","P","P","P","P","P","P","P","P","P","P","P","P","P","P","P","P","P","P","P","P","P","P","?","?","?","?","?","?","?","?","?","?","?","?","?","?","?","?","?","?","?","?","?","?","?","?","?","?","?","?","?","?","?","X","X","X","X","X","X","?","?","?","?","?","?","?","?","?","?","?","?","?","?","?","?","?","?","?","?","?","?","?","?","?","?","?","?","?","?","?","?","?","?","?","?","?","?","?","?","?","?","?","?","?","?","?","?","?","?","?","?","?","?","?","?","?","?","?","?","?","?","?","?","?","?","?","?","?","?","?","?","?","?","?","?","?","?","?","?","?","?","?","?","?","?","?","?","?","?","?","?","?","?","?","?","?","?","?","?","?","?","?","?","?","?","?","?","?","?","?","?","?","?","?","?","?","?","?","?","?","?","?","?","?","?","?","?","?","?","?","?","?","?","?","?","?","?","?","?","?","?","?","?","?","?","?","?","?","?","?","?","?","?","?","?","?","?","?","?","?","?","?","?","?","?","?","?","?","?","W","W","W","W","?","?","?","?","O","O","O","O","?","?","P","P","P","?","?","?","?","?","?","?","?","?","?","?","G","G","G","G","G","G","G","G","G","G","G","G","G","G","G","G","G","G","G","G","G","G","G","G","G","G","G","G","G","G","G","G","G","G","G","G","G","G","G","G","G","G","G","G","G","G","G","G","G","G","G","G","G","G","G","G","G","G","G","G","G","G","G","G","G","G","G","G","G","?","?","?","?","H","H","H","H","H","H","H","H","H","H","H","H","H","H","H","H","H","H","H","H","H","H","H","H","H","H","H","H","H","H","H","H","H","H","H","H","H","H","H","H","H","H","H","H","H","H","H","H","?","G","G","G","G","G","G","F","F","F","F","F","F","F","F","?","?","E","E","E","E","E","E","?","?","?","?","?","?","D","D","D","D","D","D","D","D","D","D","D","D","D","D","D","D","?","?","?","?","?","?","?","?","?","?","?","?","?","?","?","?","D","D","D","D","D","D","D","D","D","D","D","D","D","D","D","D","D","D","D","D","D","D","D","D","D","D","D","D","D","D","D","D","D","D","D","D","D","D","D","D","D","D","D","D","D","D","D","D","D","D","D","D","D","D","D","D","D","D","D","D","?","?","?","?","M","?","M","M","M","M","M","M","?","?","?","?","?","?","?","?","?","?","?","?","?","?","?","?","?","?","?","?","?","?","?","?","?","?","?","?","?","?","?","?","?","?","?","?","?","?","?","?","?","?","?","?","?","?","?","?","?","?","?","?","?","?","?","?","?","?","?","?","?","?","?","?","?","?","?","?","?","?","?","?","?","?","?","?","?","?","?","?","?","?","?","?","?","?","?","?","?","?","?","?","?","?","?","?","?","?","?","?","?","?","?","?","?","?","?","?","?","?","?","?","?","?","?","?","?","?","?","?","?","?","?","?","?","?","?","?","?","?","?","?","?","?","?","?","?","?","?","?","?","?","?","?","?","?","?","?","?","?","?","?","?","?","?","?","?","U","U","?","?","?","?","?","?","?","?","?","K","K","K","?","?","?","?","?","J","J","J","J","J","J","J","J","J","J","J","J","J","J","J","J","J","J","J","J","J","?","?","?","?","?","?","?","?","?","?","?","?","?","?","?","?","?","?","?","B","B","B","B","B","B","B","B","B","B","B","B","B","B","B","B","B","B","B","B","B","B","B","B","B","B","B","B","B","B","B","B","B","B","B","B","B","B","B","B","B","B","B","B","B","B","B","B","B","B","B","B","B","B","B","B","B","C","C","C","C","C","C","C","C","C","C","C","C","C","C","C","C","C","C","C","C","C","C","C","C","C","C","C","C","C","C","C","C","C","C","C","C","C","C","C","C","C","?","?","?","?","?","?","?","?","?","?","?","?","?","?","?","?","?","?","?","?","?","?","?","?","?","?","?","?","?","?","?","?","?","?","V","V","V","V","?","W","W","W","?","?","X","X","X","X","X","?","?","Y","?","?","?","?","?","?","?","?","?","?","?","?","?","Z","Z","Z","Z","Z","Z","Z","Z","Z","Z","Z","Z","Z","Z","Z","Z","Z","Z","Z","Z","Z","Z","Z","Z","Z","Z","Z","Z","Z","Z","Z","Z","Z","Z","Z","Z","Z","Z","Z","Z","Z","Z","Z","Z","Z","Z","Z","Z","Z","Z","Z","Z","Z","Z","Z","Z","Z","Z","Z","Z","Z","Z","Z","Z","Z","Z","Z","Z","Z","Z","Z","Z","Y","?","X","X","?","W","?","?","?","L","?","?","?","?","?","?","?","?","?","?","?","?","?","?","?","?","?","?","?","?","?","?","?","?","?","?","?","?","?","?","?","?","?","?","?","?","?","?","?","?","?","?","?","?","?","?","?","?","?","?","?","?","?","?","?","?","?","?","?","?","?","?","?","?","?","?","?","?"],"t":[41,51,72,89,105,122,144,155,172,189,206,222,239,256,273,289,305,322,339,355,372,392,414,425,443,458,474,490,507,524,540,557,574,590,607,623,640,657,674,690,707,724,740,757,774,790,807,824,840,857,873,890,907,924,941,957,974,989,1005,1022,1039,1055,1073,1090,1106,1124,1140,1157,1174,1190,1207,1223,1240,1257,1273,1290,1307,1324,1340,1357,1373,1390,1407,1423,1440,1457,1473,1490,1506,1523,1539,1556,1573,1589,1606,1622,1640,1656,1673,1689,1706,1723,1740,1757,1773,1790,1807,1824,1840,1856,1873,1890,1905,1922,1939,1956,1973,1989,2006,2023,2038,2055,2072,2089,2106,2123,2140,2157,2173,2190,2206,2223,2239,2256,2273,2289,2306,2323,2340,2356,2373,2390,2406,2423,2440,2456,2473,2490,2506,2523,2540,2556,2573,2590,2606,2623,2640,2656,2674,2690,2707,2723,2739,2755,2773,2789,2806,2824,2840,2856,2873,2890,2907,2923,2938,2955,2972,2989,3006,3023,3040,3056,3073,3090,3106,3123,3140,3156,3173,3190,3206,3223,3240,3255,3272,3288,3306,3324,3340,3357,3374,3390,3407,3424,3440,3457,3473,3490,3507,3523,3540,3557,3574,3590,3607,3623,3640,3657,3673,3690,3707,3723,3740,3757,3773,3790,3806,3823,3840,3856,3873,3890,3906,3923,3940,3956,3974,3990,4007,4022,4039,4055,4072,4088,4106,4122,4139,4155,4173,4189,4206,4222,4239,4255,4272,4289,4306,4322,4339,4356,4373,4388,4405,4422,4438,4455,4473,4490,4506,4523,4540,4557,4574,4590,4607,4624,4640,4656,4673,4690,4706,4723,4739,4756,4773,4789,4806,4823,4839,4856,4873,4889,4905,4923,4939,4956,4972,4989,5005,5022,5038,5055,5072,5089,5106,5123,5139,5156,5173,5189,5206,5223,5239,5256,5273,5289,5306,5322,5339,5356,5373,5389,5406,5423,5438,5454,5472,5488,5507,5524,5540,5557,5574,5590,5606,5623,5639,5656,5673,5689,5706,5723,5739,5756,5773,5789,5805,5822,5838,5854,5872,5889,5905,5922,5939,5955,5972,5989,6005,6022,6039,6055,6072,6089,6106,6121,6138,6155,6172,6189,6206,6223,6240,6256,6273,6289,6306,6323,6339,6356,6373,6389,6406,6423,6439,6456,6473,6490,6506,6523,6539,6556,6574,6589,6606,6623,6640,6656,6673,6689,6706,6723,6739,6756,6773,6789,6806,6823,6839,6856,6873,6889,6906,6923,6939,6956,6973,6989,7006,7023,7039,7056,7073,7089,7106,7123,7139,7156,7173,7189,7206,7223,7239,7255,7271,7288,7304,7321,7338,7354,7371,7388,7405,7422,7438,7456,7472,7488,7505,7522,7539,7556,7572,7589,7605,7622,7639,7656,7672,7689,7705,7722,7739,7755,7772,7789,7806,7822,7839,7855,7872,7889,7905,7922,7939,7955,7972,7989,8006,8022,8039,8054,8071,8088,8105,8123,8139,8156,8173,8189,8206,8223,8239,8256,8273,8289,8306,8323,8339,8357,8373,8389,8406,8423,8439,8456,8473,8489,8506,8523,8539,8557,8573,8589,8607,8623,8637,8654,8671,8688,8704,8721,8738,8755,8772,8788,8805,8822,8839,8856,8872,8890,8905,8922,8938,8955,8972,8989,9005,9022,9039,9055,9072,9089,9105,9122,9139,9155,9172,9189,9205,9222,9239,9256,9272,9289,9305,9322,9339,9355,9372,9389,9405,9422,9438,9455,9471,9488,9505,9522,9538,9555,9571,9588,9605,9622,9639,9655,9672,9688,9705,9722,9738,9756,9772,9788,9805,9822,9839,9855,9872,9889,9905,9922,9938,9955,9972,9989,10005,10022,10038,10055,10072,10088,10106,10121,10138,10154,10171,10188,10205,10222,10239,10255,10272,10288,10305,10321,10338,10355,10372,10389,10405,10422,10438,10455,10472,10489,10505,10522,10538,10555,10572,10588,10605,10622,10638,10655,10672,10688,10705,10722,10739,10755,10772,10788,10805,10822,10838,10855,10872,10889,10905,10922,10938,10955,10972,10988,11005,11022,11038,11055,11072,11088,11104,11121,11138,11155,11172,11188,11205,11222,11238,11255,11272,11288,11305,11322,11338,11355,11372,11388,11405,11422,11438,11455,11472,11488,11505,11522,11538,11555,11571,11587,11604,11621,11638,11654,11672,11688,11704,11721,11737,11754,11772,11788,11805,11822,11838,11855,11872,11888,11905,11922,11938,11955,11972,11989,12006,12023,12039,12056,12072,12089,12106,12121,12138,12155,12171,12188,12205,12222,12238,12255,12272,12288,12305,12322,12338,12355,12372,12388,12405,12422,12439,12455,12471,12488,12506,12522,12538,12555,12572,12588,12605,12622,12638,12655,12672,12688,12705,12722,12738,12755,12772,12788,12805,12822,12838,12855,12872,12888,12905,12922,12938,12955,12972,12988,13005,13021,13037,13054,13071,13087,13104,13121,13138,13154,13171,13188,13204,13221,13238,13254,13271,13287,13304,13321,13338,13354,13371,13388,13405,13422,13438,13455,13471,13488,13505,13521,13538,13555,13571,13588,13605,13622,13639,13655,13672,13688,13705,13721,13738,13755,13771,13788,13805,13821,13838,13855,13871,13888,13904,13921,13937,13955,13971,13988,14004,14022,14038,14055,14072,14088,14105,14120,14137,14153,14171,14187,14204,14221,14238,14254,14271,14288,14304,14321,14338,14354,14371,14388,14407,14421,14437,14454,14470,14487,14504,14521,14537,14554,14571,14588,14605,14622,14638,14655,14672,14688,14705,14722,14738,14755,14772,14788,14805,14822,14838,14855,14871,14888,14905,14922,14938,14955,14972,14988,15005,15022,15038,15055,15071,15088,15105,15122,15137,15154,15171,15187,15204,15221,15238,15255,15270,15287,15303,15320,15337,15355,15372,15388,15405,15422,15438,15455,15471,15488,15505,15522,15538,15555,15572,15589,15605,15622,15638,15655,15672,15688,15703,15720,15736,15753,15770,15787,15805,15821,15838,15854,15871,15888,15903,15920,15937,15954,15971,15988,16005,16022,16038,16055,16072,16088,16105,16122,16138,16155,16172,16188,16205,16222,16238,16255,16272,16288,16305,16322,16338,16355,16371,16388,16405,16421,16438,16455,16472,16488,16505,16522,16538,16555,16572,16588,16605,16622,16638,16655,16672,16688,16705,16721,16738,16755,16771,16788,16805,16821,16838,16855,16872,16888,16905,16922,16938,16955,16972,16988,17005,17021,17038,17055,17071,17088,17105,17121,17138,17154,17170,17187,17204,17222,17238,17254,17271,17288,17304,17321,17338,17354,17371,17388,17404,17420,17436,17453,17470,17487,17504,17521,17538,17555,17571,17588,17605,17621,17638,17655,17671,17688,17705,17721,17738,17755,17771,17788,17805,17822,17838,17855,17871,17888,17905,17921,17938,17955,17971,17988,18005,18021,18038,18054,18071,18088,18103,18120,18137,18154,18170,18187,18204,18221,18237,18253,18271,18287,18304,18321,18337,18354,18371,18387,18404,18421,18437,18454,18471,18487,18504,18521,18537,18554,18571,18587,18604,18621,18637,18654,18671,18687,18704,18721,18737,18754,18771,18787,18804,18821,18837,18854,18869,18886,18903,18919,18937,18954,18971,18988,19004,19021,19038,19055,19071,19088,19105,19121,19138,19154,19171,19188,19204,19221,19238,19255,19271,19288,19304,19321,19338,19355,19371,19388,19404,19421,19438,19454,19471,19488,19504,19521,19538,19555,19571,19588,19604,19621,19638,19655,19671,19688,19704,19721,19738,19754,19771,19788,19805,19821,19838,19854,19871,19888,19904,19921,19938,19955,19971,19988,20003,20020,20036,20053,20070,20087,20104,20120,20137,20154,20170,20187,20204,20221,20237,20254,20271,20287,20304,20320,20337,20354,20370,20387,20403,20419,20436,20453,20471,20487,20504,20520,20537,20554,20571,20587,20604,20621,20637,20654,20671,20687,20704,20719,20736,20753,20769,20786,20804,20820,20837,20854,20870,20887,20904,20920,20937,20954,20970,20987,21004,21020,21037,21054,21070,21087,21104,21120,21137,21154,21170,21186,21203,21219,21236,21253,21270,21286,21303,21320,21336,21354,21371,21388,21405,21421,21438,21455,21471,21488,21505,21521,21538,21555,21571,21588,21606,21622,21637,21654,21671,21687,21704,21720,21737,21754,21771,21787,21804,21820,21837,21854,21871,21887,21904,21920,21937,21954,21970,21987,22004,22020,22037,22054,22070,22087,22104,22120,22137,22154,22170,22186,22203,22219,22237,22254,22270,22287,22304,22320,22337,22354,22370,22387,22404,22420,22437,22453,22470,22487,22503,22520,22537,22553,22571,22588,22604,22621,22638,22655,22671,22688,22704,22721,22738,22754,22771,22787,22805,22821,22838,22854,22871,22887,22904,22921,22937,22954,22971,22988,23005,23021,23037,23054,23071,23087,23104,23121,23138,23154,23171,23187,23203,23219,23236,23253,23272,23286,23303,23319,23336,23353,23370,23387,23403,23420,23437,23453,23470,23486,23504,23520,23537,23554,23570,23587,23604,23620,23637,23654,23670,23687,23704,23720,23737,23754,23770,23787,23803,23820,23837,23853,23870,23887,23904,23920,23937,23954,23971,23987,24004,24019,24036,24053,24071,24088,24105,24121,24136,24153,24169,24186,24203,24219,24237,24254,24271,24287,24304,24321,24337,24355,24371,24387,24404,24421,24437,24454,24471,24487,24504,24520,24536,24553,24569,24586,24603,24621,24638,24655,24671,24688,24704,24721,24736,24753,24769,24786,24803,24819,24837,24854,24870,24887,24904,24920,24937,24954,24970,24987,25003,25020,25037,25053,25070,25087,25104,25120,25137,25154,25170,25187,25203,25220,25237,25254,25270,25286,25302,25319,25337,25354,25370,25387,25404,25420,25437,25454,25470,25487,25504,25521,25537,25554,25570,25587,25603,25620,25636,25653,25669,25686,25703,25720,25737,25754,25770,25785,25802,25818,25835,25852,25868,25885,25903,25921,25937,25954,25971,25987,26004,26020,26037,26054,26071,26087,26104,26120,26137,26154,26171,26187,26203,26218,26235,26252,26269,26286,26304,26320,26337,26354,26370,26387,26404,26420,26437,26454,26470,26487,26504,26520,26537,26554,26570,26587,26604,26620,26637,26653,26670,26687,26704,26720,26737,26754,26770,26787,26804,26820,26837,26854,26870,26887,26904,26920,26937,26954,26970,26987,27005,27020,27037,27054,27070,27087,27103,27120,27137,27154,27170,27187,27204,27220,27236,27253,27269,27286,27303,27319,27336,27353,27370,27386,27404,27420,27437,27454,27470,27487,27504,27520,27537,27554,27570,27587,27604,27620,27636,27653,27668,27685,27702,27719,27736,27755,27771,27787,27804,27821,27837,27854,27871,27887,27904,27921,27937,27954,27971,27987,28004,28020,28037,28054,28071,28087,28104,28120,28137,28154,28170,28187,28204,28221,28237,28253,28269,28286,28303,28319,28336,28354,28370,28387,28403,28420,28437,28454,28470,28487,28504,28520,28537,28554,28570,28587,28604,28620,28637,28654,28671,28687,28703,28720,28737,28753,28770,28787,28804,28820,28837,28854,28870,28886,28903,28920,28937,28953,28969,28986,29003,29019,29035,29053,29070,29085,29102,29119,29135,29152,29170,29186,29203,29219,29236,29252,29268,29285,29302,29319,29336,29353,29370,29386,29403,29420,29436,29454,29470,29486,29503,29520,29536,29554,29570,29587,29603,29620,29636,29654,29670,29686,29704,29720,29736,29753,29769,29786,29803,29819,29836,29854,29870,29887,29904,29920,29937,29954,29970,29987,30004,30020,30037,30054,30070,30087,30104,30120,30137,30154,30170,30187,30204,30220,30236,30253,30269,30285,30302,30319,30336,30353,30369,30386,30403,30420,30436,30454,30470,30486,30503,30520,30536,30553,30568,30585,30601,30618,30635,30652,30669,30686,30703,30719,30734,30751,30768,30785,30803,30819,30836,30853,30869,30886,30903,30919,30936,30953,30969,30986,31003,31019,31036,31053,31069,31086,31103,31119,31136,31153,31169,31186,31203,31219,31236,31253,31269,31285,31302,31318,31335,31352,31368,31385,31402,31419,31435,31452,31469,31486,31503,31519,31536,31553,31569,31586,31603,31618,31634,31652,31669,31686,31703,31719,31736,31753,31769,31786,31802,31819,31836,31853,31869,31886,31903,31919,31936,31953,31969,31986,32003,32018,32035,32052,32069,32086,32103,32120,32136,32153,32169,32186,32203,32220,32236,32253,32269,32286,32303,32319,32336,32353,32369,32386,32403,32420,32436,32453,32469,32486,32503,32519,32536,32553,32570,32586,32603,32619,32636,32653,32669,32686,32703,32720,32734,32751,32768,32785,32802,32819,32836,32853,32869,32886,32903,32919,32936,32953,32969,32986,33003,33019,33036,33053,33069,33086,33103,33119,33136,33153,33169,33186,33203,33219,33236,33253,33269,33284,33301,33318,33335,33352,33369,33386,33403,33419,33436,33453,33469,33485,33501,33518,33534,33552,33569,33585,33602,33619,33636,33653,33669,33686,33702,33719,33736,33752,33769,33786,33802,33819,33836,33852,33869,33885,33903,33919,33935,33952,33969,33986,34002,34019,34035,34052,34069,34086,34103,34119,34136,34152,34169,34186,34202,34219,34235,34253,34269,34286,34302,34319,34335,34352,34368,34385,34402,34419,34436,34452,34469,34486,34502,34519,34536,34552,34569,34586,34603,34619,34636,34653,34670,34686,34703,34721,34735,34751,34768,34784,34801,34818,34835,34852,34868,34885,34902,34919,34934,34951,34968,34985,35002,35018,35035,35052,35069,35085,35102,35118,35135,35152,35169,35185,35202,35218,35235,35252,35269,35285,35302,35318,35335,35352,35368,35385,35402,35419,35435,35452,35468,35485,35502,35518,35535,35551,35568,35585,35602,35617,35634,35651,35668,35688,35702,35718,35735,35752,35768,35785,35802,35818,35835,35852,35868,35885,35902,35918,35935,35952,35968,35985,36002,36018,36035,36052,36069,36086,36102,36119,36135,36152,36168,36185,36202,36219,36235,36252,36268,36285,36302,36318,36334,36351,36368,36385,36402,36418,36435,36452,36468,36485,36502,36518,36535,36552,36568,36585,36602,36619,36635,36652,36668,36685,36702,36718,36735,36752,36768,36785,36802,36818,36835,36852,36868,36885,36902,36918,36935,36952,36968,36985,37002,37018,37035,37052,37068,37085,37102,37118,37135,37152,37168,37185,37202,37218,37235,37252,37268,37285,37302,37318,37335,37352,37368,37385,37402,37418,37435,37452,37468,37485,37502,37518,37535,37552,37568,37585,37602,37618,37635,37652,37668,37685,37702,37718,37735,37752,37768,37784,37800,37817,37834,37851,37869,37885,37902,37918,37935,37952,37968,37985,38002,38018,38035,38051,38068,38085,38102,38118,38135,38152,38168,38185,38202,38218,38235,38252,38268,38285,38302,38318,38334,38351,38367,38385,38402,38418,38435,38452,38468,38485,38502,38518,38535,38552,38568,38585,38602,38618,38635,38652,38668,38685,38702,38718,38734,38751,38767,38784,38802,38819,38836,38852,38869,38885,38902,38919,38935,38952,38969,38986,39002,39019,39035,39052,39069,39086,39102,39119,39135,39152,39169,39186,39202,39218,39234,39250,39267,39284,39301,39318,39335,39351,39368,39385,39401,39418,39435,39452,39469,39485,39502,39519,39535,39552,39568,39585,39602,39618,39635,39652,39669,39685,39702,39719,39736,39752,39768,39785,39802,39818,39835,39852,39868,39885,39902,39918,39935,39952,39969,39985,40002,40018,40035,40052,40068,40085,40102,40118,40136,40152,40167,40184,40200,40218,40234,40251,40267,40284,40301,40318,40335,40352,40368,40385,40402,40418,40435,40452,40468,40485,40502,40518,40535,40552,40568,40585,40601,40618,40634,40650,40667,40684,40701,40718,40735,40751,40768,40785,40801,40818,40835,40851,40868,40885,40901,40918,40934,40951,40968,40985,41002,41018,41035,41052,41068,41085,41102,41118,41135,41152,41168,41185,41202,41218,41235,41252,41268,41285,41302,41318,41333,41350,41367,41383,41401,41418,41435,41451,41468,41485,41501,41518,41535,41551,41568,41585,41601,41618,41635,41651,41668,41685,41701,41718,41735,41751,41768,41785,41801,41818,41834,41851,41868,41884,41901,41918,41935,41951,41968,41985,42001,42018,42035,42052,42066,42083,42100,42117,42135,42152,42168,42185,42202,42218,42235,42251,42268,42285,42302,42318,42335,42351,42368,42384,42400,42417,42434,42451,42467,42484,42501,42517,42534,42551,42567,42584,42601,42617,42634,42650,42667,42684,42701,42717,42734,42751,42767,42784,42801,42818,42834,42851,42868,42884,42902,42918,42935,42952,42968,42985,43002,43018,43035,43052,43068,43085,43102,43118,43135,43152,43168,43185,43202,43218,43235,43252,43268,43285,43302,43319,43336,43351,43367,43383,43400,43416,43433,43450,43467,43483,43500,43517,43534,43551,43568,43584,43601,43618,43634,43651,43668,43684,43701,43717,43734,43751,43768,43784,43801,43818,43834,43851,43868,43885,43901,43918,43935,43951,43968,43985,44002,44018,44035,44052,44068,44085,44101,44118,44135,44151,44168,44185,44201,44218,44235,44251,44268,44285,44301,44318,44335,44351,44368,44384,44400,44417,44433,44450,44467,44484,44501,44517,44534,44551,44567,44584,44601,44618,44634,44651,44668,44685,44701,44718,44733,44749,44766,44784,44801,44818,44834,44851,44867,44883,44900,44916,44933,44951,44968,44984,45001,45017,45034,45051,45067,45084,45101,45117,45134,45151,45167,45184,45201,45218,45234,45250,45266,45283,45300,45316,45333,45350,45367,45383,45400,45417,45434,45451,45467,45484,45501,45518,45535,45551,45568,45584,45601,45618,45634,45651,45668,45685,45701,45718,45733,45749,45766,45783,45800,45817,45834,45850,45868,45884,45901,45917,45934,45950,45967,45984,46000,46017,46034,46051,46067,46084,46101,46117,46134,46150,46167,46184,46201,46217,46233,46249,46266,46283,46300,46317,46334,46351,46367,46384,46401,46417,46434,46451,46467,46484,46500,46517,46534,46551,46567,46584,46601,46617,46634,46651,46667,46684,46701,46717,46734,46751,46767,46784,46800,46817,46834,46850,46867,46884,46901,46917,46934,46951,46967,46984,47001,47016,47033,47050,47067,47084,47101,47117,47135,47151,47167,47184,47201,47217,47234,47251,47267,47284,47301,47317,47334,47350,47366,47383,47399,47416,47433,47450,47466,47484,47501,47518,47534,47551,47568,47584,47601,47618,47633,47649,47666,47683,47700,47717,47734,47750,47767,47784,47801,47818,47834,47851,47868,47884,47901,47917,47934,47951,47967,47984,48001,48017,48034,48051,48067,48084,48101,48117,48134,48151,48168,48184,48201,48217,48234,48251,48267,48284,48301,48317,48334,48351,48367,48384,48399,48416,48433,48450,48467,48485,48501,48518,48534,48551,48567,48584,48601,48618,48634,48651,48667,48685,48701,48718,48734,48751,48767,48784,48801,48818,48834,48851,48867,48884,48901,48917,48934,48951,48968,48984,49000,49016,49033,49049,49066,49083,49100,49117,49134,49150,49167,49184,49200,49217,49233,49250,49267,49284,49300,49317,49334,49349,49366,49383,49399,49416,49433,49451,49468,49485,49501,49518,49535,49550,49567,49584,49600,49617,49634,49651,49667,49684,49700,49717,49734,49751,49767,49784,49800,49817,49834,49850,49867,49885,49901,49918,49934,49951,49968,49985,50001,50018,50034,50051,50068,50085,50101,50118,50134,50151,50167,50185,50201,50218,50234,50251,50268,50285,50301,50317,50335,50351,50366,50383,50399,50416,50433,50449,50466,50484,50500,50517,50534,50551,50567,50584,50600,50617,50634,50651,50667,50684,50700,50717,50734,50751,50767,50784,50800,50817,50834,50850,50867,50884,50901,50917,50933,50950,50967,50984,51000,51017,51034,51050,51067,51084,51101,51117,51134,51151,51167,51184,51201,51217,51234,51250,51267,51284,51300,51317,51334,51350,51366,51382,51399,51416,51433,51450,51467,51484,51500,51517,51534,51551,51568,51584,51601,51617,51634,51651,51667,51684,51701,51717,51733,51749,51766,51782,51799,51816,51833,51849,51866,51883,51899,51916,51933,51950,51966,51983,51999,52016,52033,52050,52067,52084,52100,52117,52133,52150,52167,52184,52200,52217,52234,52250,52267,52284,52301,52317,52334,52350,52367,52384,52400,52417,52432,52449,52465,52483,52500,52517,52534,52550,52567,52584,52600,52617,52634,52650,52667,52684,52700,52717,52734,52750,52767,52784,52800,52817,52834,52850,52867,52884,52901,52917,52934,52950,52967,52984,53001,53018,53034,53050,53067,53083,53100,53116,53133,53149,53165,53182,53199,53216,53233,53250,53267,53283,53300,53316,53333,53350,53366,53383,53400,53416,53434,53450,53466,53483,53500,53516,53533,53550,53566,53584,53600,53617,53634,53650,53667,53684,53700,53717,53734,53750,53767,53784,53800,53817,53834,53850,53867,53884,53900,53917,53934,53950,53967,53984,54000,54017,54034,54049,54066,54083,54099,54116,54133,54149,54166,54183,54199,54216,54233,54250,54266,54283,54299,54316,54333,54349,54366,54383,54399,54417,54434,54450,54467,54484,54499,54515,54532,54549,54566,54583,54599,54616,54633,54649,54666,54684,54700,54717,54733,54750,54767,54784,54800,54817,54834,54850,54867,54883,54900,54916,54934,54950,54967,54984,55000,55017,55034,55050,55066,55084,55100,55116,55134,55150,55166,55184,55200,55216,55233,55250,55267,55284,55299,55315,55332,55349,55365,55382,55399,55416,55433,55449,55466,55482,55499,55516,55533,55549,55566,55583,55599,55616,55633,55649,55666,55683,55699,55716,55733,55750,55766,55783,55800,55816,55833,55849,55866,55885,55898,55915,55932,55949,55966,55983,55999,56016,56032,56049,56066,56083,56099,56116,56133,56149,56166,56183,56199,56216,56232,56249,56266,56283,56299,56316,56334,56350,56367,56383,56399,56416,56433,56450,56466,56482,56498,56515,56532,56550,56566,56583,56600,56616,56633,56649,56666,56683,56701,56715,56731,56748,56765,56782,56799,56816,56833,56849,56866,56883,56899,56915,56933,56949,56966,56983,56999,57016,57033,57049,57066,57083,57099,57116,57133,57150,57165,57182,57198,57215,57233,57249,57266,57283,57300,57315,57332,57348,57365,57381,57398,57415,57432,57449,57466,57483,57499,57516,57533,57549,57566,57584,57599,57616,57633,57649,57666,57683,57699,57716,57733,57749,57766,57783,57799,57816,57833,57849,57866,57883,57899,57916,57933,57949,57966,57983,57999,58016,58033,58049,58066,58083,58099,58116,58133,58149,58166,58183,58199,58216,58233,58249,58266,58283,58299,58316,58333,58349,58366,58383,58399,58416,58433,58449,58466,58482,58499,58516,58533,58549,58566,58583,58599,58616,58633,58649,58666,58683,58698,58715,58731,58748,58765,58783,58800,58817,58834,58850,58867,58884,58900,58917,58934,58950,58967,58984,59000,59017,59034,59050,59067,59084,59100,59117,59134,59150,59167,59184,59200,59216,59233,59249,59266,59283,59299,59316,59332,59349,59366,59383,59399,59416,59433,59449,59466,59483,59498,59514,59531,59548,59565,59583,59599,59616,59633,59649,59666,59683,59699,59715,59732,59749,59766,59783,59799,59816,59833,59849,59866,59883,59899,59915,59932,59949,59966,59982,59999,60016,60032,60049,60064,60081,60098,60115,60131,60148,60165,60182,60200,60216,60233,60249,60266,60283,60300,60316,60333,60349,60366,60383,60399,60416,60433,60449,60466,60483,60499,60515,60531,60548,60565,60582,60599,60616,60633,60649,60666,60683,60699,60716,60733,60749,60766,60783,60800,60816,60833,60849,60866,60883,60899,60916,60933,60949,60966,60983,60999,61016,61033,61049,61066,61083,61099,61116,61133,61149,61166,61183,61199,61216,61233,61249,61266,61283,61299,61316,61333,61348,61365,61382,61398,61414,61431,61448,61465,61481,61498,61515,61532,61549,61566,61582,61598,61616,61632,61649,61665,61682,61699,61715,61732,61749,61765,61782,61799,61816,61832,61849,61866,61882,61899,61914,61931,61948,61965,61982,61998,62015,62032,62049,62066,62082,62098,62115,62132,62148,62165,62182,62199,62215,62232,62249,62265,62282,62299,62315,62332,62349,62365,62382,62399,62415,62432,62449,62465,62482,62498,62514,62531,62547,62565,62584,62600,62616,62633,62650,62666,62683,62700,62716,62734,62750,62766,62783,62800,62817,62833,62850,62867,62881,62897,62914,62931,62948,62965,62983,63000,63017,63033,63050,63066,63083,63100,63116,63133,63150,63166,63183,63199,63216,63233,63250,63266,63283,63300,63316,63333,63350,63366,63383,63400,63415,63432,63448,63465,63482,63499,63515,63532,63549,63566,63582,63599,63615,63632,63649,63666,63682,63699,63715,63731,63748,63764,63781,63798,63815,63832,63848,63865,63882,63899,63916,63932,63949,63965,63982,63999,64016,64032,64049,64066,64082,64099,64116,64132,64149,64164,64181,64197,64214,64231,64247,64264,64281,64298,64315,64332,64348,64365,64382,64399,64415,64432,64448,64465,64482,64498,64516,64531,64548,64565,64582,64597,64614,64631,64648,64665,64682,64698,64715,64732,64748,64765,64782,64798,64815,64832,64848,64865,64882,64899,64915,64932,64949,64965,64982,64998,65015,65032,65048,65066,65082,65098,65115,65132,65148,65165,65182,65198,65215,65232,65248,65265,65282,65299,65315,65332,65348,65365,65382,65399,65415,65432,65448,65465,65482,65498,65515,65532,65548,65565,65582,65599,65615,65630,65647,65664,65681,65698,65715,65732,65749,65766,65782,65799,65815,65832,65849,65865,65882,65899,65915,65932,65949,65965,65982,65999,66015,66032,66049,66065,66082,66099,66116,66133,66147,66164,66180,66197,66215,66232,66248,66265,66282,66298,66315,66332,66348,66365,66381,66398,66415,66432,66448,66465,66482,66499,66515,66532,66548,66565,66581,66598,66614,66631,66648,66665,66681,66698,66714,66731,66748,66765,66781,66798,66815,66831,66848,66865,66881,66898,66915,66931,66948,66965,66981,66998,67014,67030,67047,67064,67080,67097,67115,67131,67148,67165,67181,67198,67215,67231,67248,67265,67281,67298,67314,67332,67348,67365,67382,67398,67414,67430,67447,67464,67481,67497,67515,67531,67548,67563,67580,67597,67614,67632,67648,67665,67682,67698,67715,67732,67749,67765,67782,67799,67815,67832,67848,67865,67882,67898,67915,67932,67948,67965,67982,67999,68015,68032,68048,68065,68082,68098,68115,68132,68148,68165,68182,68198,68215,68232,68248,68265,68282,68298,68315,68332,68348,68365,68382,68398,68415,68430,68446,68463,68480,68497,68515,68532,68549,68565,68581,68597,68614,68631,68647,68664,68681,68697,68715,68731,68748,68764,68781,68798,68814,68831,68848,68864,68881,68898,68915,68930,68947,68963,68980,68998,69014,69031,69048,69064,69081,69098,69114,69131,69148,69164,69181,69198,69214,69231,69248,69264,69281,69298,69314,69331,69348,69364,69381,69398,69414,69431,69448,69464,69481,69498,69514,69531,69548,69564,69581,69598,69614,69631,69647,69664,69681,69697,69715,69731,69748,69764,69781,69797,69814,69830,69846,69863,69880,69897,69914,69931,69947,69964,69981,69997,70014,70031,70048,70064,70081,70098,70114,70131,70147,70164,70181,70198,70214,70231,70247,70264,70281,70297,70314,70331,70348,70364,70381,70397,70414,70431,70448,70464,70481,70497,70514,70531,70548,70564,70580,70596,70613,70630,70647,70664,70681,70697,70715,70731,70747,70764,70781,70798,70814,70832,70849,70865,70882,70899,70915,70932,70948,70964,70981,70997,71015,71031,71048,71064,71081,71097,71114,71131,71148,71164,71181,71197,71214,71229,71246,71263,71280,71298,71315,71331,71348,71365,71381,71398,71415,71431,71448,71465,71481,71498,71515,71531,71548,71565,71581,71598,71615,71631,71648,71665,71681,71698,71715,71731,71748,71765,71781,71798,71814,71831,71848,71865,71881,71898,71915,71931,71948,71964,71981,71998,72015,72031,72048,72064,72081,72098,72115,72131,72148,72164,72181,72198,72215,72231,72248,72264,72281,72298,72314,72331,72348,72365,72381,72398,72415,72431,72448,72465,72481,72498,72514,72531,72548,72565,72581,72598,72614,72630,72646,72663,72680,72697,72714,72730,72746,72763,72779,72796,72814,72830,72847,72864,72880,72897,72914,72931,72948,72965,72981,72998,73015,73031,73048,73064,73081,73098,73114,73131,73148,73164,73181,73198,73214,73231,73248,73264,73281,73297,73315,73331,73348,73364,73381,73398,73414,73430,73447,73463,73480,73497,73513,73530,73547,73564,73580,73597,73613,73630,73647,73664,73680,73697,73714,73730,73747,73764,73781,73797,73814,73830,73847,73864,73880,73897,73914,73930,73947,73964,73980,73996,74012,74029,74046,74064,74080,74097,74114,74131,74148,74164,74181,74198,74214,74231,74248,74265,74281,74298,74314,74331,74348,74364,74381,74398,74414,74431,74448,74464,74481,74498,74514,74531,74548,74564,74581,74597,74613,74629,74646,74663,74680,74697,74714,74730,74747,74764,74780,74797,74814,74830,74847,74864,74880,74897,74914,74930,74947,74963,74980,74997,75014,75030,75047,75064,75080,75097,75114,75131,75148,75162,75179,75196,75213,75231,75248,75264,75282,75298,75314,75330,75347,75364,75381,75397,75413,75430,75446,75463,75480,75497,75514,75530,75547,75564,75580,75597,75613,75629,75646,75663,75680,75697,75714,75730,75747,75764,75780,75797,75814,75830,75846,75863,75880,75896,75913,75930,75948,75964,75981,75997,76014,76031,76047,76064,76081,76097,76115,76131,76147,76164,76180,76197,76214,76231,76247,76264,76281,76297,76314,76330,76347,76364,76380,76397,76414,76430,76447,76464,76481,76497,76514,76530,76547,76564,76580,76596,76613,76629,76646,76663,76680,76697,76715,76731,76747,76763,76779,76796,76812,76829,76846,76864,76880,76897,76914,76930,76947,76964,76980,76997,77014,77030,77047,77064,77081,77097,77114,77130,77147,77164,77180,77197,77214,77230,77247,77264,77280,77297,77314,77330,77347,77364,77380,77397,77414,77431,77446,77463,77480,77496,77514,77529,77546,77564,77580,77597,77614,77631,77647,77664,77680,77697,77714,77731,77747,77764,77781,77797,77814,77831,77847,77864,77881,77897,77914,77931,77948,77964,77981,77997,78014,78030,78047,78064,78081,78097,78114,78130,78146,78163,78179,78196,78212,78229,78246,78264,78280,78297,78314,78330,78347,78364,78380,78397,78414,78431,78447,78464,78480,78497,78514,78530,78547,78564,78581,78597,78614,78630,78647,78663,78680,78696,78713,78730,78746,78763,78780,78796,78813,78830,78846,78863,78880,78896,78913,78930,78946,78963,78980,78996,79013,79030,79046,79063,79080,79096,79113,79130,79146,79163,79180,79196,79213,79229,79246,79263,79280,79297,79313,79330,79347,79364,79380,79397,79413,79429,79445,79462,79479,79497,79514,79530,79545,79562,79579,79595,79612,79631,79647,79664,79679,79696,79713,79729,79746,79763,79780,79796,79813,79830,79846,79864,79880,79897,79914,79930,79947,79964,79980,79997,80014,80030,80047,80064,80080,80097,80114,80130,80147,80164,80180,80197,80214,80230,80247,80264,80280,80297,80314,80330,80347,80364,80380,80397,80414,80430,80447,80464,80480,80497,80514,80530,80547,80564,80580,80597,80614,80630,80647,80663,80679,80696,80713,80729,80746,80763,80779,80796,80814,80830,80847,80864,80880,80897,80914,80928,80945,80962,80979,80996,81013,81029,81046,81063,81080,81096,81113,81130,81146,81163,81179,81196,81213,81229,81246,81263,81279,81296,81313,81329,81346,81363,81380,81396,81413,81429,81446,81463,81479,81496,81513,81529,81546,81563,81579,81596,81613,81630,81646,81663,81679,81696,81713,81729,81746,81763,81779,81796,81812,81830,81847,81864,81881,81897,81914,81930,81947,81964,81980,81997,82014,82031,82047,82064,82081,82097,82115,82131,82147,82164,82181,82197,82214,82230,82247,82264,82279,82296,82313,82329,82345,82362,82379,82396,82413,82429,82446,82463,82479,82496,82513,82529,82546,82563,82579,82596,82613,82629,82646,82662,82679,82696,82712,82729,82746,82763,82779,82796,82813,82830,82847,82864,82880,82897,82914,82931,82947,82964,82980,82997,83014,83030,83047,83064,83080,83097,83114,83130,83146,83163,83179,83196,83213,83229,83246,83263,83279,83296,83313,83329,83346,83363,83379,83396,83413,83429,83446,83463,83479,83496,83513,83529,83546,83563,83579,83596,83613,83629,83646,83661,83678,83695,83712,83728,83745,83762,83779,83796,83813,83829,83846,83863,83879,83896,83913,83929,83946,83963,83979,83996,84012,84029,84046,84063,84079,84096,84113,84129,84146,84163,84179,84196,84213,84229,84246,84262,84279,84296,84313,84329,84346,84363,84379,84396,84413,84429,84446,84462,84479,84496,84513,84529,84546,84563,84579,84596,84613,84629,84646,84663,84679,84696,84712,84729,84746,84763,84779,84796,84813,84829,84846,84863,84879,84896,84913,84929,84946,84962,84979,84996,85013,85029,85046,85062,85079,85096,85111,85128,85144,85162,85179,85196,85213,85230,85246,85262,85278,85295,85312,85328,85345,85363,85379,85396,85413,85429,85446,85462,85479,85496,85513,85529,85546,85562,85579,85596,85613,85629,85646,85662,85679,85696,85713,85729,85745,85763,85779,85796,85813,85829,85846,85863,85879,85896,85912,85929,85946,85962,85979,85996,86012,86029,86046,86062,86079,86096,86112,86129,86146,86163,86179,86196,86212,86229,86246,86262,86279,86296,86312,86329,86346,86362,86379,86396,86412,86429,86445,86462,86479,86494,86511,86528,86545,86563,86580,86596,86613,86629,86646,86663,86679,86695,86712,86729,86745,86762,86779,86795,86812,86829,86846,86863,86879,86896,86913,86929,86946,86963,86979,86996,87013,87029,87046,87062,87077,87094,87111,87128,87146,87163,87179,87196,87213,87229,87246,87263,87279,87296,87313,87329,87346,87363,87379,87396,87413,87428,87445,87461,87478,87495,87512,87528,87545,87562,87579,87595,87612,87629,87645,87662,87679,87695,87712,87728,87745,87762,87778,87795,87812,87828,87845,87862,87879,87894,87911,87927,87945,87962,87979,87996,88013,88029,88046,88063,88079,88096,88113,88129,88146,88163,88179,88196,88213,88229,88246,88263,88279,88296,88313,88329,88346,88363,88379,88396,88413,88429,88446,88463,88479,88496,88512,88529,88546,88563,88579,88596,88613,88629,88646,88663,88679,88695,88712,88728,88745,88762,88778,88795,88812,88828,88845,88862,88878,88895,88912,88928,88945,88962,88978,88995,89013,89029,89046,89062,89079,89096,89112,89129,89146,89162,89179,89196,89212,89229,89246,89262,89278,89294,89311,89327,89344,89362,89378,89396,89412,89429,89446,89463,89479,89496,89512,89529,89545,89562,89579,89595,89612,89629,89646,89662,89679,89694,89711,89728,89744,89762,89778,89795,89812,89829,89845,89862,89878,89895,89912,89928,89945,89962,89979,89995,90012,90029,90045,90062,90079,90095,90112,90129,90145,90162,90178,90195,90212,90228,90245,90262,90278,90295,90312,90328,90345,90362,90378,90395,90412,90428,90445,90462,90478,90495,90512,90528,90545,90562,90578,90595,90612,90629,90644,90661,90677,90694,90711,90728,90744,90761,90778,90795,90812,90828,90845,90862,90878,90895,90912,90928,90945,90962,90978,90995,91012,91028,91045,91062,91079,91095,91112,91128,91146,91163,91179,91196,91213,91229,91245,91262,91279,91296,91312,91329,91346,91363,91379,91396,91413,91429,91446,91462,91479,91496,91512,91529,91546,91562,91579,91596,91612,91629,91646,91662,91679,91695,91711,91728,91745,91761,91778,91796,91813,91829,91846,91863,91879,91896,91913,91929,91946,91962,91979,91996,92013,92028,92044,92061,92077,92094,92111,92127,92145,92162,92179,92195,92212,92229,92245,92262,92278,92295,92312,92329,92345,92362,92379,92395,92412,92428,92445,92462,92478,92495,92512,92528,92545,92562,92578,92595,92612,92628,92645,92662,92678,92695,92710,92727,92743,92761,92778,92795,92812,92828,92845,92861,92878,92895,92912,92928,92945,92961,92978,92995,93012,93028,93045,93061,93078,93095,93111,93128,93145,93161,93178,93195,93212,93229,93245,93262,93279,93295,93312,93328,93345,93362,93378,93394,93410,93427,93444,93461,93478,93495,93512,93528,93545,93562,93578,93595,93612,93628,93644,93660,93677,93694,93710,93726,93743,93760,93778,93795,93812,93829,93846,93862,93879,93895,93912,93929,93945,93962,93978,93995,94012,94029,94045,94062,94078,94095,94112,94128,94145,94162,94178,94195,94212,94228,94245,94262,94278,94295,94312,94329,94345,94362,94378,94395,94412,94428,94445,94462,94478,94495,94512,94528,94545,94562,94578,94595,94612,94628,94645,94662,94679,94695,94712,94727,94743,94760,94777,94793,94810,94827,94844,94861,94878,94894,94911,94927,94944,94961,94978,94994,95011,95028,95044,95061,95078,95094,95111,95128,95144,95161,95178,95194,95211,95228,95244,95261,95278,95294,95311,95328,95344,95361,95378,95394,95411,95428,95444,95461,95477,95494,95511,95528,95544,95561,95577,95594,95611,95627,95644,95661,95678,95694,95711,95727,95743,95760,95776,95794,95812,95828,95845,95861,95878,95895,95911,95928,95945,95961,95978,95995,96011,96028,96045,96062,96079,96093,96110,96126,96143,96160,96176,96193,96210,96227,96245,96262,96278,96295,96311,96328,96345,96361,96378,96395,96411,96428,96445,96461,96478,96495,96511,96528,96545,96561,96578,96595,96611,96628,96645,96661,96678,96695,96711,96728,96743,96760,96776,96793,96811,96829,96845,96862,96879,96896,96912,96929,96945,96962,96979,96995,97012,97028,97044,97061,97078,97094,97111,97128,97144,97161,97178,97194,97211,97228,97244,97261,97278,97294,97311,97328,97344,97361,97378,97394,97411,97428,97445,97461,97477,97494,97511,97527,97544,97560,97576,97593,97610,97627,97645,97661,97678,97695,97711,97729,97745,97761,97777,97793,97810,97827,97844,97861,97877,97894,97911,97928,97944,97961,97978,97994,98011,98028,98045,98061,98077,98094,98111,98128,98144,98161,98177,98194,98211,98227,98244,98261,98278,98294,98311,98328,98345,98361,98377,98394,98411,98428,98444,98461,98478,98494,98511,98527,98544,98561,98577,98594,98611,98627,98645,98661,98678,98694,98711,98726,98743,98760,98776,98793,98811,98828,98844,98860,98877,98894,98911,98927,98944,98960,98977,98993,99010,99027,99043,99060,99077,99094,99111,99127,99144,99160,99177,99194,99210,99227,99244,99261,99277,99294,99311,99327,99343,99360,99377,99394,99410,99427,99444,99460,99477,99494,99510,99527,99544,99560,99577,99594,99611,99628,99644,99661,99678,99694,99711,99728,99744,99761,99778,99794,99811,99827,99845,99861,99878,99894,99911,99927,99944,99961,99978,99994,100011,100027,100044,100061,100078,100094,100111,100128,100144,100161,100178,100194,100211,100227,100244,100261,100278,100294,100311,100326,100343,100359,100376,100393,100410,100427,100445,100461,100478,100494,100511,100528,100544,100561,100577,100594,100611,100627,100644,100661,100677,100694,100711,100727,100745,100761,100778,100794,100809,100826,100842,100860,100877,100894,100911,100928,100944,100960,100977,100993,101010,101027,101044,101060,101077,101093,101110,101127,101144,101161,101177,101194,101211,101227,101244,101261,101278,101294,101311,101327,101344,101361,101377,101394,101411,101427,101444,101460,101476,101493,101511,101528,101545,101561,101578,101595,101611,101628,101644,101661,101678,101694,101711,101727,101743,101759,101776,101793,101810,101826,101843,101859,101876,101895,101911,101928,101945,101961,101977,101995,102011,102028,102045,102061,102077,102095,102111,102127,102144,102161,102178,102194,102211,102227,102244,102261,102278,102294,102311,102327,102344,102361,102377,102395,102411,102428,102444,102461,102477,102494,102511,102527,102544,102561,102577,102594,102611,102627,102644,102661,102677,102694,102711,102727,102744,102761,102777,102794,102811,102826,102843,102859,102876,102894,102911,102928,102944,102961,102977,102994,103011,103027,103044,103061,103077,103093,103109,103126,103142,103160,103177,103195,103212,103228,103245,103261,103278,103295,103311,103328,103345,103361,103378,103395,103411,103428,103445,103462,103478,103494,103510,103527,103544,103560,103577,103594,103610,103627,103644,103660,103677,103694,103711,103727,103744,103760,103777,103794,103810,103827,103842,103859,103876,103893,103910,103927,103944,103960,103977,103993,104010,104027,104044,104060,104077,104094,104110,104127,104144,104161,104177,104194,104211,104227,104244,104261,104277,104294,104311,104327,104344,104360,104377,104394,104411,104426,104442,104459,104475,104492,104510,104527,104544,104561,104577,104594,104611,104627,104644,104660,104677,104694,104710,104726,104742,104759,104776,104794,104810,104827,104843,104859,104875,104893,104909,104927,104944,104960,104977,104994,105011,105027,105044,105060,105077,105094,105110,105127,105144,105161,105177,105194,105210,105227,105244,105260,105277,105294,105310,105327,105344,105360,105377,105394,105410,105427,105444,105460,105476,105493,105510,105526,105544,105560,105576,105593,105610,105626,105643,105659,105676,105694,105710,105727,105744,105760,105777,105794,105810,105825,105841,105858,105876,105893,105910,105927,105943,105960,105977,105994,106010,106026,106043,106060,106077,106093,106110,106126,106143,106160,106176,106193,106210,106226,106243,106260,106277,106293,106310,106326,106343,106360,106376,106393,106409,106426,106443,106460,106476,106493,106510,106525,106542,106559,106576,106594,106610,106627,106644,106660,106677,106694,106710,106727,106744,106760,106777,106794,106810,106827,106844,106860,106877,106894,106910,106927,106944,106960,106977,106994,107010,107027,107044,107060,107077,107093,107110,107127,107144,107160,107177,107194,107208,107225,107242,107258,107275,107293,107310,107326,107343,107360,107376,107393,107410,107426,107443,107460,107476,107493,107509,107526,107543,107559,107576,107593,107609,107626,107643,107660,107676,107693,107710,107726,107743,107760,107776,107793,107810,107826,107843,107859,107876,107892,107908,107925,107943,107960,107977,107994,108010,108027,108044,108060,108077,108094,108110,108127,108144,108160,108177,108194,108210,108227,108244,108260,108277,108294,108310,108327,108344,108360,108377,108394,108408,108425,108442,108459,108477,108493,108510,108526,108544,108560,108576,108592,108608,108625,108642,108659,108675,108692,108710,108726,108742,108759,108776,108793,108810,108826,108843,108860,108876,108892,108908,108925,108942,108959,108976,108993,109009,109026,109043,109060,109075,109091,109108,109124,109141,109158,109174,109191,109208,109225,109241,109258,109274,109291,109308,109325,109341,109358,109374,109391,109408,109424,109441,109458,109474,109491,109508,109524,109541,109558,109575,109591,109608,109624,109641,109658,109674,109691,109708,109724,109741,109758,109774,109791,109808,109825,109841,109858,109875,109892,109908,109925,109942,109958,109975,109992,110008,110025,110043,110060,110076,110093,110110,110126,110143,110160,110176,110194,110210,110226,110243,110260,110276,110293,110310,110326,110343,110360,110376,110393,110410,110426,110443,110460,110476,110493,110510,110526,110543,110560,110576,110593,110608,110624,110642,110658,110675,110693,110709,110726,110743,110759,110776,110793,110809,110826,110843,110859,110876,110893,110909,110926,110942,110959,110976,110993,111009,111026,111043,111059,111076,111093,111109,111125,111143,111159,111176,111193,111209,111226,111243,111259,111276,111293,111309,111326,111343,111359,111374,111391,111408,111425,111442,111460,111476,111493,111510,111526,111543,111559,111576,111593,111610,111626,111643,111660,111675,111692,111708,111725,111742,111758,111775,111792,111809,111826,111843,111859,111876,111893,111909,111927,111941,111958,111974,111991,112007,112024,112041,112058,112075,112093,112109,112126,112142,112159,112175,112192,112209,112226,112243,112259,112275,112292,112309,112325,112342,112359,112376,112392,112409,112425,112442,112459,112475,112492,112509,112526,112543,112559,112576,112592,112609,112626,112642,112659,112676,112692,112709,112725,112743,112760,112774,112791,112808,112825,112842,112859,112875,112892,112909,112926,112943,112959,112976,112993,113009,113026,113043,113059,113076,113093,113109,113126,113143,113159,113176,113193,113209,113226,113243,113259,113276,113293,113309,113326,113343,113359,113376,113393,113409,113426,113443,113459,113476,113493,113509,113526,113543,113559,113576,113593,113609,113626,113643,113659,113676,113693,113709,113726,113743,113759,113776,113793,113809,113826,113843,113859,113876,113892,113909,113926,113943,113957,113974,113991,114008,114026,114043,114059,114076,114093,114110,114126,114143,114158,114174,114191,114208,114224,114242,114259,114276,114292,114309,114326,114343,114359,114376,114393,114409,114426,114442,114459,114476,114492,114509,114526,114543,114559,114576,114593,114607,114624,114641,114657,114674,114691,114708,114725,114741,114758,114775,114792,114808,114825,114842,114858,114875,114892,114909,114925,114942,114958,114975,114992,115009,115025,115042,115058,115075,115092,115109,115125,115142,115159,115175,115192,115209,115225,115242,115258,115275,115292,115308,115325,115342,115358,115375,115392,115409,115425,115442,115458,115475,115492,115508,115525,115541,115558,115574,115591,115608,115626,115642,115659,115675,115692,115709,115725,115742,115759,115775,115792,115809,115825,115842,115859,115875,115892,115909,115925,115942,115959,115975,115991,116007,116025,116042,116059,116076,116092,116109,116126,116142,116159,116176,116192,116209,116226,116243,116259,116276,116293,116309,116326,116342,116359,116376,116392,116409,116426,116442,116459,116476,116492,116509,116526,116542,116559,116575,116592,116609,116626,116642,116659,116676,116692,116709,116726,116741,116757,116774,116791,116808,116825,116842,116859,116876,116892,116907,116924,116941,116957,116974,116991,117008,117025,117042,117059,117075,117092,117108,117125,117142,117158,117175,117192,117208,117225,117242,117258,117275,117292,117308,117325,117342,117358,117375,117392,117408,117425,117442,117458,117475,117491,117507,117524,117542,117558,117575,117592,117608,117625,117642,117658,117675,117692,117708,117725,117742,117758,117775,117792,117808,117825,117842,117858,117875,117892,117908,117925,117942,117958,117975,117990,118007,118024,118041,118059,118075,118092,118109,118126,118142,118159,118176,118192,118209,118226,118242,118259,118275,118290,118307,118324,118341,118357,118374,118392,118409,118425,118442,118458,118475,118492,118508,118525,118542,118558,118575,118592,118609,118625,118642,118659,118675,118692,118708,118725,118742,118758,118775,118792,118808,118825,118842,118858,118875,118892,118908,118925,118942,118958,118975,118991,119007,119023,119040,119057,119075,119092,119108,119125,119142,119158,119175,119192,119209,119225,119242,119259,119275,119292,119309,119325,119342,119359,119375,119392,119409,119425,119442,119458,119475,119491,119508,119525,119541,119558,119575,119591,119608,119623,119640,119657,119674,119692,119709,119725,119742,119759,119775,119792,119809,119825,119842,119858,119877,119892,119909,119925,119942,119958,119975,119992,120008,120025,120042,120058,120075,120092,120109,120125,120142,120159,120175,120192,120208,120225,120242,120258,120275,120292,120308,120325,120342,120359,120375,120392,120408,120425,120442,120458,120475,120492,120508,120525,120542,120558,120575,120592,120609,120625,120642,120658,120675,120692,120708,120725,120742,120758,120775,120792,120808,120825,120842,120858,120875,120892,120909,120925,120942,120958,120975,120992,121009,121025,121040,121057,121073,121090,121107,121125,121142,121158,121175,121192,121208,121225,121242,121258,121275,121292,121308,121325,121342,121358,121375,121392,121408,121425,121442,121458,121475,121491,121507,121524,121540,121557,121574,121591,121608,121624,121641,121657,121674,121691,121707,121724,121741,121757,121774,121791,121807,121824,121841,121857,121874,121891,121907,121923,121940,121957,121974,121992,122007,122023,122040,122057,122074,122092,122108,122125,122142,122158,122175,122191,122208,122225,122241,122258,122275,122291,122308,122325,122342,122358,122375,122391,122408,122425,122440,122456,122473,122490,122508,122524,122541,122557,122574,122591,122608,122624,122641,122657,122674,122691,122708,122724,122741,122758,122774,122791,122808,122824,122841,122857,122874,122891,122908,122924,122941,122958,122974,122991,123007,123023,123040,123056,123074,123092,123108,123125,123141,123158,123175,123191,123208,123224,123241,123258,123275,123291,123308,123325,123341,123358,123375,123391,123408,123425,123441,123458,123475,123491,123508,123525,123541,123558,123575,123591,123608,123625,123641,123658,123675,123691,123708,123725,123741,123758,123775,123791,123808,123825,123840,123856,123873,123890,123907,123924,123941,123957,123974,123991,124007,124024,124041,124057,124074,124091,124108,124124,124141,124157,124174,124192,124208,124225,124241,124258,124274,124291,124308,124325,124341,124358,124375,124391,124408,124424,124441,124458,124475,124491,124508,124525,124541,124558,124575,124591,124608,124624,124641,124658,124674,124691,124708,124725,124741,124758,124775,124791,124808,124824,124842,124858,124875,124891,124908,124925,124941,124958,124974,124991,125008,125025,125041,125057,125074,125090,125107,125124,125141,125158,125174,125191,125207,125223,125239,125256,125273,125291,125307,125324,125340,125357,125374,125391,125407,125424,125440,125457,125474,125490,125507,125523,125540,125557,125574,125590,125607,125624,125640,125657,125674,125690,125707,125724,125740,125756,125773,125790,125807,125825,125841,125857,125874,125891,125907,125924,125941,125958,125974,125991,126007,126024,126041,126058,126074,126091,126107,126124,126141,126158,126173,126190,126206,126223,126242,126258,126275,126292,126309,126325,126342,126358,126375,126392,126408,126425,126442,126458,126474,126490,126507,126524,126541,126557,126574,126591,126607,126623,126639,126656,126672,126689,126707,126724,126740,126757,126774,126790,126807,126824,126841,126857,126874,126890,126907,126924,126940,126957,126974,126991,127007,127022,127039,127056,127073,127090,127107,127124,127140,127157,127174,127190,127207,127224,127240,127257,127273,127290,127307,127324,127340,127357,127374,127390,127407,127424,127440,127457,127474,127490,127506,127522,127539,127556,127574,127591,127607,127624,127641,127657,127674,127691,127707,127724,127741,127757,127774,127791,127807,127824,127841,127857,127874,127891,127907,127924,127941,127957,127974,127991,128007,128022,128039,128056,128073,128089,128106,128123,128140,128157,128174,128190,128207,128224,128240,128257,128274,128290,128307,128324,128340,128357,128373,128390,128407,128424,128440,128457,128473,128490,128507,128524,128540,128557,128574,128590,128607,128623,128640,128657,128674,128690,128707,128724,128740,128757,128773,128789,128806,128822,128840,128857,128874,128891,128907,128924,128941,128958,128974,128991,129007,129024,129041,129058,129074,129091,129106,129123,129140,129157,129173,129190,129207,129224,129240,129255,129273,129290,129307,129324,129340,129357,129374,129389,129405,129423,129439,129456,129474,129491,129507,129524,129541,129557,129574,129591,129607,129624,129641,129657,129674,129691,129707,129724,129741,129757,129774,129791,129807,129824,129840,129857,129874,129891,129907,129924,129941,129957,129974,129991,130007,130024,130041,130057,130074,130091,130105,130123,130139,130157,130174,130190,130207,130224,130240,130257,130274,130291,130307,130324,130341,130357,130374,130390,130407,130424,130441,130457,130474,130491,130507,130524,130540,130557,130574,130591,130607,130624,130640,130657,130674,130690,130707,130724,130740,130757,130774,130789,130806,130823,130839,130857,130873,130890,130907,130923,130940,130957,130974,130990,131007,131023,131040,131057,131074,131090,131106,131123,131140,131157,131173,131190,131206,131224,131240,131256,131273,131290,131306,131324,131340,131357,131374,131390,131407,131424,131440,131457,131474,131490,131507,131523,131540,131557,131574,131590,131607,131624,131640,131657,131674,131690,131707,131724,131740,131757,131774,131790,131807,131824,131840,131857,131873,131890,131907,131924,131940,131957,131974,131990,132007,132024,132040,132057,132074,132090,132107,132124,132140,132157,132174,132188,132205,132222,132239,132256,132274,132291,132308,132324,132341,132358,132375,132391,132407,132424,132440,132457,132474,132490,132507,132524,132541,132557,132573,132590,132606,132624,132640,132656,132673,132690,132707,132723,132740,132757,132773,132790,132807,132823,132840,132857,132874,132890,132907,132923,132940,132956,132974,132990,133007,133023,133040,133056,133073,133090,133106,133123,133139,133156,133173,133189,133206,133224,133240,133257,133274,133290,133307,133324,133340,133357,133374,133390,133407,133424,133440,133457,133474,133490,133507,133523,133541,133557,133573,133589,133605,133622,133639,133656,133673,133689,133706,133723,133740,133756,133773,133790,133806,133823,133839,133856,133873,133889,133906,133923,133940,133956,133973,133989,134007,134023,134039,134056,134073,134089,134107,134121,134138,134155,134172,134190,134207,134224,134241,134257,134274,134291,134308,134324,134340,134357,134374,134391,134407,134424,134441,134457,134474,134491,134507,134524,134540,134557,134575,134591,134607,134624,134641,134657,134675,134691,134707,134725,134739,134755,134772,134789,134805,134823,134840,134856,134873,134890,134906,134923,134939,134955,134972,134988,135005,135023,135040,135056,135073,135090,135107,135124,135140,135157,135174,135189,135206,135222,135239,135256,135273,135289,135306,135323,135340,135357,135373,135390,135406,135423,135440,135456,135473,135490,135506,135523,135540,135556,135573,135590,135606,135623,135640,135656,135674,135690,135706,135723,135740,135756,135773,135790,135806,135823,135840,135856,135873,135890,135906,135923,135940,135956,135973,135990,136006,136023,136040,136056,136073,136090,136106,136123,136140,136155,136172,136189,136206,136222,136239,136256,136273,136289,136306,136322,136338,136355,136372,136388,136406,136423,136440,136457,136473,136490,136506,136523,136540,136556,136573,136590,136606,136623,136640,136656,136673,136690,136707,136723,136740,136756,136773,136788,136804,136822,136839,136855,136873,136890,136906,136923,136940,136956,136973,136989,137006,137023,137039,137057,137073,137089,137106,137123,137139,137156,137173,137189,137206,137223,137239,137256,137273,137289,137306,137323,137340,137356,137373,137389,137406,137423,137439,137456,137471,137488,137505,137522,137539,137556,137573,137590,137606,137623,137640,137656,137673,137690,137707,137722,137738,137755,137772,137788,137805,137822,137839,137856,137873,137889,137906,137923,137939,137956,137973,137989,138006,138023,138039,138056,138073,138089,138106,138123,138139,138156,138172,138188,138205,138222,138239,138256,138273,138289,138306,138322,138338,138355,138372,138388,138405,138422,138439,138456,138473,138489,138506,138523,138539,138556,138573,138589,138606,138623,138639,138656,138673,138689,138706,138723,138739,138756,138773,138789,138806,138823,138839,138856,138873,138889,138906,138923,138939,138956,138973,138989,139006,139022,139039,139056,139073,139090,139104,139121,139138,139155,139172,139189,139206,139224,139240,139256,139273,139289,139306,139323,139339,139356,139373,139389,139406,139423,139440,139456,139472,139488,139505,139522,139538,139555,139572,139589,139607,139621,139639,139655,139672,139690,139707,139723,139740,139756,139773,139790,139806,139824,139840,139857,139873,139890,139906,139923,139940,139956,139973,139990,140006,140023,140040,140056,140073,140090,140106,140123,140139,140156,140173,140190,140206,140222,140239,140256,140272,140289,140306,140322,140339,140356,140373,140389,140406,140423,140439,140456,140473,140488,140504,140521,140538,140554,140572,140589,140605,140622,140639,140655,140672,140689,140705,140722,140738,140755,140772,140788,140805,140822,140839,140855,140872,140888,140905,140922,140938,140955,140972,140988,141005,141022,141039,141055,141072,141089,141105,141122,141138,141155,141172,141188,141204,141221,141238,141254,141272,141289,141306,141323,141339,141356,141373,141389,141406,141423,141439,141456,141472,141488,141505,141522,141538,141555,141572,141588,141605,141622,141638,141655,141672,141688,141705,141722,141738,141755,141772,141788,141805,141821,141837,141854,141871,141888,141904,141922,141939,141955,141972,141988,142005,142022,142038,142055,142072,142088,142105,142121,142137,142154,142172,142188,142205,142221,142237,142255,142273,142289,142306,142322,142339,142356,142372,142389,142406,142422,142439,142456,142472,142489,142506,142522,142539,142556,142573,142589,142606,142622,142639,142656,142672,142689,142706,142723,142739,142756,142773,142789,142806,142822,142839,142855,142872,142889,142906,142922,142939,142955,142972,142989,143006,143022,143039,143056,143073,143087,143104,143121,143137,143154,143172,143189,143205,143221,143237,143254,143271,143288,143305,143322,143338,143355,143371,143388,143405,143422,143438,143455,143472,143488,143505,143522,143538,143555,143571,143588,143605,143622,143638,143655,143671,143688,143705,143722,143738,143755,143772,143789,143805,143822,143839,143855,143872,143889,143905,143922,143939,143956,143972,143989,144005,144022,144039,144055,144072,144089,144105,144122,144139,144155,144172,144188,144205,144222,144238,144255,144271,144288,144305,144322,144338,144355,144371,144388,144404,144421,144438,144455,144471,144488,144505,144521,144538,144555,144571,144588,144603,144620,144637,144653,144671,144689,144706,144722,144739,144755,144772,144789,144805,144822,144839,144855,144872,144889,144905,144922,144939,144955,144972,144989,145005,145022,145039,145055,145072,145088,145106,145122,145139,145156,145172,145189,145206,145222,145238,145254,145271,145287,145305,145322,145338,145355,145371,145388,145405,145422,145438,145455,145471,145488,145504,145521,145538,145554,145571,145588,145604,145621,145638,145655,145671,145688,145705,145721,145738,145754,145771,145788,145805,145821,145838,145854,145871,145888,145904,145921,145938,145955,145971,145986,146004,146020,146037,146053,146071,146089,146105,146122,146138,146155,146172,146188,146205,146222,146239,146255,146272,146288,146305,146322,146339,146355,146372,146389,146405,146422,146438,146455,146472,146489,146505,146522,146538,146555,146572,146588,146605,146622,146639,146655,146672,146688,146705,146722,146738,146755,146772,146789,146805,146822,146838,146855,146872,146889,146905,146922,146938,146955,146972,146988,147005,147022,147038,147055,147072,147088,147105,147120,147137,147154,147170,147187,147204,147221,147238,147255,147271,147287,147304,147321,147337,147355,147371,147387,147404,147420,147437,147454,147471,147487,147504,147521,147538,147554,147571,147588,147604,147621,147638,147654,147671,147687,147704,147721,147737,147754,147771,147787,147804,147821,147837,147854,147871,147888,147904,147921,147938,147954,147971,147988,148004,148021,148037,148054,148071,148088,148104,148121,148138,148154,148171,148188,148204,148221,148237,148254,148271,148288,148304,148321,148338,148354,148371,148388,148404,148421,148437,148454,148471,148488,148504,148521,148537,148554,148571,148587,148604,148621,148637,148655,148671,148688,148704,148720,148736,148753,148770,148788,148803,148820,148837,148854,148871,148887,148904,148921,148937,148954,148970,148987,149004,149021,149038,149054,149071,149088,149104,149121,149137,149154,149171,149187,149204,149221,149238,149254,149271,149288,149304,149321,149338,149355,149371,149388,149405,149421,149438,149454,149471,149488,149504,149521,149538,149554,149571,149587,149604,149621,149637,149654,149671,149688,149705,149721,149737,149753,149770,149787,149803,149820,149837,149854,149871,149887,149904,149