[{"success":true,"trial_type":"fullscreen","trial_index":0,"time_elapsed":3774,"internal_node_id":"0.0-0.0","protocol_sum":"","subject_identifier":117,"subject_sum":[98,8,239,15,119,80,193,17,84,140,249,11,110,161,208,208,166,111,107,255,64,219,239,7,203,69,236,67,98,99,199,214],"subject_pair":58,"STUDY_ID":"669a702db1122fc5150a13ce","PROLIFIC_PID":"66231fc6e1ecba676935943a","SESSION_ID":"669ace511ec16852f3e72f65","practice_instructions":1,"leaderboard_instructions":0,"bonus":1,"reveal_word":true,"self_rating":"6","confidence":"12"},{"view_history":"[{\"page_index\":0,\"viewing_time\":5131}]","rt":5131.099999904633,"trial_type":"instructions","trial_index":1,"time_elapsed":8905,"internal_node_id":"0.0-1.0","protocol_sum":"","subject_identifier":117,"subject_sum":[98,8,239,15,119,80,193,17,84,140,249,11,110,161,208,208,166,111,107,255,64,219,239,7,203,69,236,67,98,99,199,214],"subject_pair":58,"STUDY_ID":"669a702db1122fc5150a13ce","PROLIFIC_PID":"66231fc6e1ecba676935943a","SESSION_ID":"669ace511ec16852f3e72f65","practice_instructions":1,"leaderboard_instructions":0,"bonus":1,"reveal_word":true,"self_rating":"6","confidence":"12"},{"view_history":"[{\"page_index\":0,\"viewing_time\":15393.899999976158}]","rt":15394,"trial_type":"instructions","trial_index":2,"time_elapsed":24300,"internal_node_id":"0.0-2.0-0.0","protocol_sum":"","subject_identifier":117,"subject_sum":[98,8,239,15,119,80,193,17,84,140,249,11,110,161,208,208,166,111,107,255,64,219,239,7,203,69,236,67,98,99,199,214],"subject_pair":58,"STUDY_ID":"669a702db1122fc5150a13ce","PROLIFIC_PID":"66231fc6e1ecba676935943a","SESSION_ID":"669ace511ec16852f3e72f65","practice_instructions":1,"leaderboard_instructions":0,"bonus":1,"reveal_word":true,"self_rating":"6","confidence":"12"},{"rt":8047.299999952316,"responses":"{\"Q0\":\"... reveal the word with as <b>few letter guesses</b> as possible\"}","question_order":"[0]","trial_type":"survey-multi-choice","trial_index":3,"time_elapsed":32348,"internal_node_id":"0.0-2.0-1.0","protocol_sum":"","subject_identifier":117,"subject_sum":[98,8,239,15,119,80,193,17,84,140,249,11,110,161,208,208,166,111,107,255,64,219,239,7,203,69,236,67,98,99,199,214],"subject_pair":58,"correct":true,"test_part":"multichoice_nonpretend","STUDY_ID":"669a702db1122fc5150a13ce","PROLIFIC_PID":"66231fc6e1ecba676935943a","SESSION_ID":"669ace511ec16852f3e72f65","practice_instructions":1,"leaderboard_instructions":0,"bonus":1,"reveal_word":true,"self_rating":"6","confidence":"12"},{"view_history":"[{\"page_index\":0,\"viewing_time\":2193.100000023842}]","rt":2193.100000023842,"trial_type":"instructions","trial_index":4,"time_elapsed":34541,"internal_node_id":"0.0-3.0","protocol_sum":"","subject_identifier":117,"subject_sum":[98,8,239,15,119,80,193,17,84,140,249,11,110,161,208,208,166,111,107,255,64,219,239,7,203,69,236,67,98,99,199,214],"subject_pair":58,"STUDY_ID":"669a702db1122fc5150a13ce","PROLIFIC_PID":"66231fc6e1ecba676935943a","SESSION_ID":"669ace511ec16852f3e72f65","practice_instructions":1,"leaderboard_instructions":0,"bonus":1,"reveal_word":true,"self_rating":"6","confidence":"12"},{"word":"ZEBRA","click_log":{"letter":["","S","C","O","A","D","B","E","Z","R"],"t":[0,8399.799999952316,12510.799999952316,15773.700000047684,19380.299999952316,29298.799999952316,30751.100000023842,39976.60000002384,42433.5,43927.60000002384],"hit":[null,0,0,0,1,0,1,1,1,1],"asked":["","S","SC","SCO","SCOA","SCOAD","SCOADB","SCOADBE","SCOADBEZ","SCOADBEZR"],"word_state":["_____","_____","_____","_____","____A","____A","__B_A","_EB_A","ZEB_A","ZEBRA"]},"hover_log":{"letter":["?","?","?","?","K","?","?","?","?","?","?","?","?","?","?","?","?","?","?","?","?","?","?","?","?","?","?","?","?","?","?","?","?","?","?","?","?","?","?","?","?","?","?","?","?","?","?","?","?","?","?","?","?","?","?","?","?","?","?","?","?","?","?","?","?","?","?","?","?","?","?","?","?","?","?","?","?","?","?","?","?","?","?","?","?","?","?","?","?","?","?","?","?","D","D","D","D","D","D","D","D","?","?","?","?","?","?","?","?","?","?","?","?","?","?","?","?","?","?","?","?","?","?","?","?","?","?","?","?","?","?","?","?","?","?","?","?","?","?","?","?","?","?","?","?","?","?","?","?","?","?","?","?","?","?","?","?","?","?","?","?","?","?","?","?","?","?","?","?","?","?","?","?","?","?","?","?","?","?","?","?","?","?","?","?","?","?","?","?","?","?","?","?","?","?","?","?","?","?","?","?","?","?","?","?","?","?","?","?","?","?","?","?","?","?","?","?","?","?","?","?","?","?","?","?","?","?","?","?","?","?","?","?","?","?","?","?","?","?","?","?","?","?","?","?","?","?","?","?","?","?","?","?","?","?","?","?","?","?","?","?","?","?","?","?","?","?","?","?","?","?","?","?","?","?","?","?","?","?","?","?","?","?","?","?","?","?","?","?","?","?","?","?","?","?","?","?","?","?","?","?","?","?","?","?","?","?","?","?","?","?","?","?","?","?","?","?","?","?","?","?","?","?","?","?","?","?","?","?","?","?","?","?","?","?","?","?","?","?","?","?","?","?","?","?","?","?","?","?","?","?","?","?","?","?","?","?","?","?","?","?","?","?","?","?","?","?","?","?","?","?","?","?","?","?","?","?","?","?","?","?","?","?","?","?","?","?","?","?","?","?","?","?","?","?","?","?","?","?","?","?","?","?","?","?","?","?","?","?","?","?","?","?","?","?","?","?","?","?","?","?","?","?","?","?","?","?","?","?","?","?","?","?","?","?","?","?","?","?","?","?","?","?","?","?","?","?","?","?","?","?","?","?","?","?","?","?","?","?","?","?","?","?","?","?","?","?","?","?","?","?","?","?","G","G","G","G","G","G","G","?","?","?","?","?","?","?","?","?","?","?","?","?","?","?","?","?","?","?","?","?","?","?","?","?","?","?","?","?","?","?","?","?","?","?","?","?","P","P","P","P","P","?","?","?","?","?","?","?","?","P","P","O","?","N","?","M","M","M","M","?","?","?","L","L","L","L","L","L","L","L","?","?","?","?","?","?","?","?","?","?","?","?","?","?","?","?","?","?","?","?","?","?","?","?","?","?","?","S","S","S","S","S","S","S","S","S","S","S","S","S","S","S","S","S","S","S","S","S","S","S","S","S","S","S","S","S","S","S","S","S","S","S","S","S","S","?","?","?","?","?","?","?","?","?","?","?","?","?","?","?","?","?","?","?","?","?","?","?","?","?","?","?","?","?","?","?","?","?","?","?","?","?","?","?","?","?","?","?","?","?","?","?","?","?","?","?","?","?","?","?","?","?","?","?","?","?","?","?","?","?","?","?","?","?","?","?","?","?","?","?","?","?","?","T","?","?","K","K","K","K","K","K","K","K","K","K","K","K","K","K","K","K","K","K","K","K","K","K","K","K","K","K","K","K","K","K","K","K","K","K","K","K","K","K","K","K","K","K","K","K","K","K","K","?","B","B","B","?","?","?","?","?","?","?","?","?","?","?","?","?","?","?","?","?","?","?","?","?","?","?","?","?","?","?","?","?","?","?","?","?","?","?","?","?","?","?","?","?","?","?","?","?","?","?","?","?","?","?","?","?","?","?","?","?","?","?","?","?","?","?","?","?","?","?","?","?","?","?","?","?","?","?","?","?","?","?","?","?","?","?","?","?","?","?","?","?","?","?","?","?","?","?","?","D","D","D","D","D","D","D","D","D","D","D","D","D","D","D","D","D","D","D","D","?","?","?","?","?","?","?","?","?","?","?","?","?","?","?","?","C","C","C","C","C","C","C","C","C","C","C","C","C","C","C","C","C","C","C","C","C","C","C","C","C","C","C","?","L","U","?","?","?","?","?","?","?","?","?","?","?","?","?","?","?","?","?","?","?","?","?","?","?","?","?","?","?","?","?","?","?","?","?","?","?","?","?","?","?","?","?","?","?","?","?","?","?","?","?","?","?","?","?","?","?","?","?","?","?","?","?","?","?","?","T","T","T","T","T","?","S","S","?","?","?","?","?","?","?","?","?","?","?","?","?","?","?","?","?","?","?","S","T","T","T","T","T","T","T","T","T","T","T","?","?","?","?","?","?","?","?","?","?","?","?","?","?","?","?","?","?","?","?","?","?","?","?","?","?","?","?","?","?","?","?","N","N","N","?","O","O","O","O","O","O","O","O","O","O","O","O","O","O","O","?","?","N","N","N","N","N","N","N","N","N","N","N","N","N","N","N","N","N","N","N","N","N","N","N","N","N","N","N","N","N","N","N","?","?","O","O","O","O","O","O","O","O","O","O","O","O","O","O","O","O","O","O","O","O","O","O","O","O","O","O","O","O","O","O","O","O","O","O","O","O","O","O","O","O","O","O","?","?","?","?","?","?","?","?","?","?","?","?","?","?","?","?","?","?","?","?","?","?","?","?","?","?","?","?","?","?","?","?","?","?","?","?","?","?","?","?","?","?","?","?","?","?","?","?","?","?","?","?","?","?","?","?","?","?","?","?","?","?","?","?","?","?","?","?","?","?","?","?","?","?","?","?","?","?","?","?","?","?","?","?","?","?","?","?","?","?","?","?","?","?","?","?","?","?","?","?","?","?","?","?","?","?","?","?","?","?","?","?","?","?","W","W","W","?","?","?","?","?","?","?","?","?","?","?","?","?","?","?","?","?","?","?","?","?","?","?","?","?","?","?","?","?","?","?","P","P","P","P","P","P","P","P","P","P","P","P","P","?","O","O","?","?","N","?","?","?","?","?","?","?","V","V","V","V","V","V","V","V","V","V","V","V","V","V","V","V","V","V","V","V","?","?","?","?","L","L","L","L","?","?","?","?","?","?","B","B","B","B","B","B","B","B","B","?","?","?","?","?","?","?","?","?","?","?","?","?","?","A","A","A","A","A","A","A","A","A","A","A","A","A","A","A","A","A","A","A","A","A","A","A","A","A","A","A","A","?","?","?","?","?","?","?","?","?","?","?","?","?","?","?","?","?","?","?","?","?","?","?","?","?","?","?","?","?","?","?","?","?","?","?","?","?","?","?","?","?","?","?","?","?","?","?","?","?","?","?","?","?","?","?","?","?","?","?","?","?","?","?","?","?","?","?","?","?","?","?","?","?","?","?","?","?","?","?","?","?","?","?","?","?","?","?","?","?","?","?","?","?","?","?","?","?","?","?","?","?","?","?","?","?","?","?","?","?","?","?","?","?","?","?","?","?","?","?","?","?","?","?","?","D","D","?","?","?","?","?","?","?","?","?","?","?","?","?","?","?","?","?","?","?","?","?","?","?","?","?","?","?","?","?","?","?","?","?","?","?","?","?","?","?","?","?","?","?","?","?","?","?","?","?","?","?","?","?","?","?","?","?","?","?","?","?","?","?","?","?","?","?","?","?","?","?","?","?","?","?","?","?","?","?","?","?","?","?","?","?","?","?","?","?","?","?","?","?","?","?","?","?","?","?","?","?","?","?","?","?","?","?","?","?","?","?","?","?","?","?","?","?","?","?","?","?","?","?","?","?","?","?","?","?","?","?","?","?","?","?","?","?","?","?","?","?","?","?","?","?","?","?","?","?","?","?","?","?","?","?","?","?","?","?","?","?","?","?","?","D","D","D","D","D","D","D","D","D","D","D","D","D","D","D","D","D","D","D","D","D","D","D","D","D","D","D","D","D","D","D","D","D","D","D","D","D","D","D","D","D","D","D","D","D","D","D","D","D","D","D","D","D","D","D","D","D","D","D","D","D","D","D","D","D","D","D","D","D","D","D","D","D","D","D","D","D","D","D","D","D","D","D","D","D","D","D","D","D","D","D","D","?","?","C","C","C","C","C","C","C","C","C","C","C","C","C","C","C","C","C","C","C","C","C","C","C","C","C","C","C","C","C","C","C","C","C","C","C","C","C","C","C","C","C","C","C","C","C","C","C","C","C","C","C","C","C","C","C","C","C","C","C","C","C","C","C","C","C","C","C","C","C","C","C","C","C","C","C","C","C","C","C","C","C","C","C","C","C","C","C","C","C","C","C","C","C","C","C","C","C","C","C","C","C","C","C","C","C","C","C","C","C","C","?","B","B","B","B","B","B","B","B","B","B","B","B","B","B","B","B","B","B","B","B","B","B","B","B","B","B","B","B","B","B","B","B","B","B","B","B","B","B","B","B","B","B","B","B","B","B","B","B","B","B","B","B","B","B","B","B","B","B","B","B","B","B","B","B","B","B","B","B","B","B","B","B","B","B","B","B","B","B","B","B","?","C","C","C","?","D","D","D","D","D","D","D","D","D","D","D","D","D","D","D","D","D","D","D","D","D","D","D","D","D","D","D","D","D","D","D","D","D","D","D","D","D","D","D","D","D","D","D","D","D","D","D","D","D","D","D","D","D","D","D","D","D","D","D","D","D","D","D","D","D","D","D","D","D","D","D","D","D","D","D","D","D","D","D","D","D","D","D","D","D","D","D","D","D","D","D","D","D","D","D","D","D","D","D","D","D","D","D","D","D","D","D","D","D","D","D","D","D","D","D","D","D","D","D","D","D","D","D","D","D","D","D","D","D","D","D","D","D","?","W","?","?","?","?","?","?","?","?","?","?","?","?","?","?","?","?","?","?","?","W","?","M","?","?","?","C","C","C","?","C","?","?","?","?","?","?","?","?","?","?","?","?","?","?","?","?","?","?","?","?","?","?","?","C","C","C","C","C","C","C","C","C","C","C","C","C","C","C","C","C","C","C","C","C","C","C","C","C","C","?","?","?","?","?","B","B","B","B","B","B","B","B","B","B","B","B","B","B","B","B","B","B","K","?","?","?","?","?","?","?","?","?","?","?","?","?","?","?","?","?","?","?","?","?","?","?","?","?","?","?","?","?","?","?","?","?","?","?","?","?","?","?","?","?","?","?","?","?","?","?","?","?","?","?","?","?","?","?","?","?","?","?","?","?","?","?","?","?","?","?","?","?","?","U","U","?","?","?","?","L","L","L","?","?","?","?","?","?","?","?","?","?","?","?","?","?","?","C","?","D","?","?","?","?","?","?","?","?","?","?","?","?","?","?","?","?","?","?","?","?","?","?","?","?","?","?","?","?","?","?","?","?","?","?","?","?","?","?","?","?","?","?","?","?","?","?","?","?","?","?","?","?","?","?","?","?","?","?","?","?","?","?","?","?","?","?","?","?","?","?","?","?","?","?","?","?","?","?","?","?","?","?","?","?","?","?","?","?","?","?","?","?","?","?","?","?","?","?","?","?","?","?","?","?","?","?","?","?","?","?","?","?","?","?","?","?","?","?","?","?","?","?","?","?","?","?","?","?","?","?","?","?","?","?","?","?","?","?","?","?","?","?","?","?","?","?","?","?","?","?","?","?","?","?","?","?","?","?","?","?","?","?","?","?","?","?","?","?","?","?","?","?","?","?","?","?","?","?","?","?","?","?","?","?","?","?","?","?","?","?","?","?","?","?","?","?","?","?","?","?","?","?","?","?","?","?","?","?","?","?","?","?","?","?","?","?","?","?","?","?","?","?","?","?","?","?","?","?","?","?","?","?","?","?","?","?","?","?","?","?","?","?","?","?","?","?","?","?","?","?","?","?","?","?","?","?","?","?","?","?","?","?","?","?","?","?","?","?","?","?","?","?","?","?","?","?","?","?","?","?","?","?","?","?","?","?","?","?","?","?","?","?","?","?","?","?","?","?","?","?","?","?","?","?","?","?","?","?","?","?","?","?","?","?","?","?","?","?","?","?","?","?","?","?","?","?","?","?","?","?","?","?","?","?","?","?","?","?","?","?","?","?","?","?","?","?","?","?","?","?","?","?","?","?","?","?","?","?","?","?","?","?","?","?","?","?","?","?","?","?","?","?","?","?","?","?","?","?","?","?","?","?","?","?","?","?","?","?","?","?","?","?","?","?","?","?","?","?","?","?","?","?","?","?","?","?","?","?","?","?","?","?","?","?","?","?","?","?","?","?","?","?","?","?","?","?","?","?","?","?","?","?","?","?","?","?","?","?","?","?","?","?","?","?","?","?","?","?","?","?","?","?","?","?","?","?","?","?","?","?","?","?","?","?","?","?","?","?","?","?","?","?","?","?","?","?","?","?","?","?","?","?","?","?","?","?","?","?","?","?","?","?","?","?","?","?","?","?","?","?","?","?","?","?","?","?","?","?","?","?","?","?","?","?","?","?","?","?","?","?","?","?","?","?","?","?","?","?","?","?","?","?","?","D","D","D","D","D","D","D","D","?","?","?","E","E","E","E","E","E","E","E","E","E","E","E","E","E","E","E","E","E","E","E","E","E","E","E","E","E","E","?","?","N","?","W","?","?","?","?","?","?","?","?","?","?","?","?","?","?","?","?","?","?","?","?","?","?","?","?","?","?","?","?","?","?","?","?","?","?","?","?","?","?","?","?","?","?","?","?","?","?","?","?","?","?","?","?","?","?","?","?","?","?","?","?","?","?","?","?","?","?","?","?","K","K","K","K","K","K","K","?","L","?","?","?","?","?","?","F","?","?","?","?","?","G","G","G","G","G","?","?","?","?","?","?","?","?","?","Q","Q","Q","Q","Q","Q","Q","Q","Q","?","?","?","?","?","?","Z","Z","Z","Z","Z","Z","Z","Z","Z","Z","Z","Z","Z","Z","Z","Z","Z","Z","Z","Z","Z","Z","Z","Z","Z","Z","Z","Z","Z","Z","Z","Z","Z","Z","Z","Z","Z","Z","Z","Z","Z","Z","Z","Z","Z","Z","Z","Z","Z","Z","Z","Z","Z","Z","Z","Z","Z","Z","Z","Z","Z","Z","Z","Z","Z","Z","Z","Z","Z","Z","Z","Z","Z","Z","?","Y","Y","Y","Y","Y","?","X","X","X","X","X","X","X","X","X","X","?","?","?","?","?","?","?","?","O","O","O","O","O","O","O","O","O","O","O","O","O","O","O","?","?","P","P","P","?","?","Q","Q","Q","Q","?","?","?","?","?","?","?","R","R","R","R","R","R","R","R","R","R","R","R","R","R","R","R","R","R","R","R","R","R","R","R","R","R","?","?","?","?","?","?","?","?","?","?","?","?","?","?","?","?","?","?","?","?","?","?","?","?","?","?","?","?","?","?","K","K","?","J","J","J","?","?","?","?","?","?","?","?","?","?","?","?","?","?","?","?","?","?","?","?","?","?","?","?","?","?","?","?","?","?","?","?","?","?","?","?","?","?","?","?","?","?","?","?","?","?","?","?","?","?","?","?","?","?","?","?","?","?","?","?","?","?","?","?","?","?","?","?","?","?","?","?","?","?","?","?","?","?","?","?","?","?","?","?","?","?","?","?","?","?","?","?","?","?","?","?","?","?","?","?","?","?","?","?","?"],"t":[27,34,52,66,81,94,108,121,136,149,163,177,191,204,218,232,246,260,274,288,302,316,329,343,357,371,385,399,413,426,441,456,468,482,496,511,524,539,552,565,579,593,607,621,635,649,663,677,690,704,718,732,746,760,773,787,801,815,829,843,857,871,885,898,913,926,940,954,968,982,996,1010,1024,1037,1051,1065,1079,1093,1107,1121,1134,1148,1163,1176,1190,1204,1218,1232,1246,1260,1273,1287,1301,1315,1329,1343,1357,1370,1385,1398,1412,1427,1440,1454,1468,1481,1495,1510,1523,1537,1551,1565,1578,1594,1607,1620,1634,1648,1662,1676,1690,1704,1717,1731,1745,1759,1773,1787,1801,1815,1828,1843,1856,1870,1884,1898,1912,1926,1940,1953,1967,1981,1995,2009,2023,2037,2051,2065,2079,2092,2106,2120,2134,2148,2162,2175,2189,2203,2217,2231,2245,2259,2273,2286,2301,2314,2328,2342,2356,2370,2384,2398,2412,2426,2439,2453,2467,2481,2495,2509,2523,2537,2551,2564,2578,2593,2606,2620,2634,2647,2661,2675,2689,2703,2717,2731,2745,2759,2773,2786,2800,2814,2828,2842,2856,2870,2883,2897,2911,2925,2940,2953,2967,2981,2995,3009,3022,3036,3050,3064,3078,3092,3106,3120,3133,3147,3161,3175,3189,3203,3216,3231,3244,3258,3272,3286,3300,3314,3328,3341,3356,3370,3383,3397,3411,3425,3439,3453,3467,3481,3494,3508,3522,3536,3550,3564,3577,3591,3606,3619,3633,3647,3661,3675,3689,3703,3717,3730,3744,3758,3772,3786,3800,3814,3828,3842,3855,3869,3883,3897,3911,3925,3939,3952,3966,3980,3994,4008,4022,4036,4050,4064,4078,4091,4105,4120,4133,4147,4161,4175,4189,4202,4216,4230,4244,4258,4272,4285,4301,4313,4327,4341,4355,4369,4383,4397,4411,4424,4438,4452,4466,4480,4494,4508,4522,4535,4549,4563,4577,4591,4607,4619,4633,4646,4660,4674,4688,4702,4716,4730,4744,4758,4772,4786,4799,4813,4827,4841,4855,4869,4884,4896,4910,4924,4938,4952,4966,4981,4994,5008,5021,5035,5049,5064,5077,5091,5105,5119,5132,5146,5160,5174,5188,5202,5215,5230,5243,5257,5271,5285,5299,5313,5327,5341,5355,5368,5382,5396,5410,5424,5438,5452,5466,5479,5493,5507,5521,5535,5549,5563,5577,5591,5604,5618,5632,5646,5660,5674,5688,5702,5715,5729,5743,5757,5771,5785,5799,5813,5826,5840,5854,5868,5882,5896,5910,5924,5937,5951,5965,5979,5994,6007,6021,6036,6049,6062,6076,6090,6104,6118,6132,6146,6160,6173,6187,6201,6215,6229,6243,6257,6271,6285,6299,6312,6326,6340,6354,6368,6382,6396,6410,6423,6437,6451,6465,6479,6493,6507,6521,6534,6548,6563,6576,6590,6604,6618,6632,6646,6660,6675,6688,6701,6715,6729,6743,6757,6770,6784,6798,6812,6826,6840,6854,6868,6881,6895,6909,6923,6937,6951,6965,6979,6993,7006,7020,7034,7048,7062,7076,7090,7104,7119,7131,7145,7159,7173,7187,7201,7215,7229,7242,7256,7270,7284,7298,7312,7326,7339,7354,7367,7381,7395,7409,7423,7437,7451,7465,7478,7492,7506,7520,7534,7548,7562,7576,7590,7604,7617,7631,7645,7659,7673,7687,7701,7714,7728,7742,7756,7770,7784,7798,7812,7826,7839,7853,7867,7881,7895,7909,7923,7937,7950,7964,7979,7993,8006,8020,8034,8048,8061,8075,8089,8103,8117,8131,8145,8159,8172,8186,8200,8214,8228,8242,8257,8270,8283,8297,8311,8325,8339,8353,8367,8381,8395,8409,8423,8437,8452,8465,8480,8492,8506,8520,8534,8548,8561,8575,8589,8603,8617,8631,8645,8659,8672,8686,8700,8715,8728,8742,8756,8770,8784,8797,8811,8825,8839,8853,8868,8881,8895,8908,8922,8936,8950,8964,8978,8992,9006,9021,9033,9047,9061,9075,9089,9103,9117,9132,9144,9158,9173,9186,9200,9214,9228,9241,9255,9270,9283,9297,9311,9325,9339,9352,9366,9380,9394,9408,9422,9436,9450,9464,9478,9492,9505,9519,9533,9547,9561,9575,9589,9602,9616,9630,9644,9658,9672,9686,9700,9714,9728,9741,9755,9769,9783,9797,9811,9825,9838,9853,9866,9880,9894,9908,9922,9935,9950,9964,9977,9992,10005,10020,10033,10047,10061,10074,10088,10102,10116,10131,10145,10158,10172,10185,10199,10213,10227,10241,10255,10269,10283,10296,10310,10324,10338,10352,10366,10380,10395,10407,10421,10435,10449,10463,10477,10491,10505,10519,10533,10546,10560,10574,10588,10602,10616,10630,10644,10658,10671,10685,10699,10713,10727,10741,10755,10769,10782,10796,10812,10824,10838,10852,10866,10879,10893,10907,10921,10935,10949,10963,10977,10990,11005,11018,11032,11046,11060,11074,11088,11102,11115,11129,11143,11157,11171,11185,11199,11213,11227,11241,11254,11269,11282,11296,11310,11324,11338,11352,11365,11379,11393,11407,11421,11435,11449,11463,11476,11490,11504,11518,11532,11546,11560,11574,11588,11601,11615,11629,11643,11657,11671,11685,11699,11713,11726,11740,11754,11768,11782,11796,11810,11823,11837,11851,11865,11879,11893,11907,11921,11935,11949,11963,11976,11990,12004,12018,12032,12046,12059,12073,12087,12101,12115,12129,12143,12157,12171,12184,12198,12212,12227,12240,12254,12268,12282,12296,12309,12323,12337,12351,12365,12379,12393,12407,12420,12434,12448,12462,12476,12491,12504,12518,12532,12546,12560,12573,12587,12601,12616,12629,12643,12657,12671,12684,12698,12712,12726,12740,12754,12767,12781,12796,12809,12823,12837,12851,12865,12879,12893,12906,12920,12934,12948,12962,12976,12990,13003,13017,13032,13045,13059,13073,13087,13101,13114,13128,13142,13156,13170,13184,13198,13212,13226,13240,13253,13267,13281,13295,13309,13323,13336,13351,13364,13378,13392,13406,13420,13434,13448,13462,13476,13489,13503,13517,13531,13545,13559,13573,13587,13600,13614,13628,13642,13656,13670,13684,13697,13711,13725,13739,13753,13767,13781,13795,13809,13822,13836,13850,13864,13878,13892,13906,13920,13934,13947,13961,13975,13989,14003,14017,14031,14045,14059,14073,14087,14100,14114,14128,14142,14155,14170,14184,14197,14211,14225,14239,14253,14267,14281,14295,14308,14322,14336,14350,14364,14378,14392,14406,14419,14433,14447,14461,14475,14489,14503,14517,14531,14544,14558,14572,14586,14600,14614,14628,14642,14655,14669,14683,14697,14711,14726,14739,14752,14767,14780,14794,14808,14822,14836,14850,14863,14878,14891,14905,14919,14933,14947,14961,14975,14989,15002,15016,15030,15044,15058,15072,15086,15100,15114,15128,15141,15155,15169,15183,15197,15211,15225,15238,15253,15266,15280,15294,15308,15322,15336,15350,15365,15377,15391,15405,15420,15433,15447,15461,15474,15488,15502,15516,15530,15544,15558,15572,15586,15600,15613,15627,15641,15655,15669,15683,15697,15712,15724,15738,15752,15766,15780,15794,15808,15823,15835,15850,15863,15877,15891,15905,15919,15933,15947,15960,15974,15988,16002,16016,16031,16044,16058,16072,16085,16099,16113,16127,16141,16155,16169,16183,16196,16210,16224,16238,16252,16266,16279,16294,16307,16321,16335,16349,16363,16377,16391,16405,16418,16433,16446,16460,16474,16488,16502,16516,16530,16543,16557,16571,16585,16599,16613,16627,16642,16655,16668,16682,16696,16710,16724,16738,16752,16766,16780,16794,16807,16821,16835,16849,16864,16877,16890,16904,16918,16932,16946,16960,16974,16988,17002,17015,17029,17043,17057,17071,17085,17099,17113,17127,17140,17154,17168,17182,17196,17211,17224,17239,17251,17265,17279,17293,17307,17321,17335,17349,17362,17376,17390,17404,17418,17432,17446,17459,17473,17488,17501,17515,17529,17543,17557,17571,17584,17598,17612,17626,17640,17654,17668,17682,17695,17710,17724,17737,17751,17765,17779,17793,17807,17820,17834,17848,17862,17876,17890,17904,17918,17932,17945,17959,17973,17987,18001,18015,18029,18042,18056,18070,18084,18098,18112,18126,18140,18154,18167,18182,18195,18209,18223,18237,18251,18265,18279,18293,18307,18320,18334,18348,18362,18376,18390,18405,18418,18431,18445,18459,18473,18487,18501,18515,18529,18542,18556,18570,18584,18598,18612,18626,18639,18653,18667,18681,18695,18709,18723,18736,18751,18764,18778,18792,18806,18820,18834,18848,18862,18876,18890,18903,18917,18931,18945,18959,18972,18987,19001,19014,19028,19042,19056,19070,19084,19098,19111,19125,19139,19153,19167,19181,19195,19209,19223,19237,19251,19264,19278,19292,19306,19320,19334,19348,19361,19375,19391,19403,19417,19431,19445,19459,19473,19486,19501,19514,19528,19542,19556,19570,19585,19597,19612,19625,19639,19653,19667,19681,19695,19709,19722,19736,19750,19764,19778,19792,19806,19820,19833,19847,19861,19875,19889,19903,19917,19931,19944,19958,19972,19986,20000,20014,20028,20042,20056,20069,20083,20097,20111,20125,20139,20152,20167,20181,20194,20208,20222,20236,20250,20264,20278,20291,20305,20319,20333,20347,20361,20375,20389,20404,20417,20430,20444,20459,20472,20486,20500,20513,20527,20541,20555,20569,20583,20597,20611,20625,20639,20652,20667,20681,20695,20708,20722,20736,20749,20763,20777,20791,20805,20819,20833,20847,20861,20875,20888,20902,20916,20930,20944,20958,20972,20986,21000,21014,21027,21041,21055,21070,21083,21097,21111,21124,21138,21152,21166,21180,21194,21208,21222,21235,21249,21263,21277,21291,21305,21319,21333,21347,21361,21374,21388,21402,21416,21430,21444,21458,21472,21485,21499,21513,21527,21541,21555,21569,21583,21597,21610,21624,21638,21652,21666,21680,21694,21707,21721,21735,21750,21763,21777,21791,21805,21819,21832,21846,21860,21874,21889,21902,21916,21929,21943,21957,21971,21986,21999,22013,22027,22041,22055,22068,22082,22096,22110,22124,22138,22152,22165,22180,22194,22208,22221,22235,22250,22263,22277,22291,22304,22318,22332,22346,22360,22374,22388,22401,22415,22429,22443,22457,22471,22485,22499,22513,22526,22541,22554,22568,22582,22596,22610,22624,22638,22651,22665,22679,22693,22707,22721,22735,22748,22763,22776,22790,22804,22818,22832,22846,22860,22873,22887,22901,22915,22929,22943,22957,22971,22985,22998,23013,23026,23040,23054,23068,23082,23096,23110,23123,23137,23151,23165,23179,23193,23207,23221,23235,23248,23262,23277,23290,23304,23318,23332,23345,23360,23373,23388,23401,23415,23429,23443,23456,23471,23484,23498,23512,23526,23540,23554,23568,23582,23595,23610,23624,23637,23651,23665,23679,23693,23706,23721,23734,23748,23762,23776,23790,23804,23818,23831,23845,23859,23873,23887,23902,23915,23928,23942,23956,23970,23984,23998,24012,24026,24041,24054,24068,24081,24095,24109,24123,24137,24152,24165,24178,24193,24206,24220,24234,24248,24262,24276,24290,24303,24317,24331,24345,24359,24373,24387,24401,24414,24428,24443,24456,24471,24484,24498,24512,24526,24539,24554,24567,24582,24595,24609,24623,24636,24650,24664,24678,24693,24706,24720,24734,24748,24762,24776,24789,24803,24817,24831,24845,24859,24872,24886,24900,24914,24929,24942,24956,24970,24983,24998,25011,25025,25039,25053,25067,25081,25095,25108,25122,25136,25151,25164,25178,25192,25206,25220,25233,25247,25261,25275,25289,25303,25317,25332,25345,25359,25372,25386,25400,25414,25428,25442,25456,25470,25484,25497,25511,25525,25539,25553,25567,25581,25594,25608,25622,25636,25650,25664,25678,25692,25705,25719,25734,25747,25761,25775,25789,25804,25816,25830,25844,25858,25872,25886,25900,25914,25928,25942,25955,25969,25983,25997,26011,26025,26039,26053,26066,26080,26094,26108,26122,26136,26150,26164,26177,26193,26205,26219,26233,26247,26261,26275,26289,26303,26316,26330,26344,26358,26372,26386,26400,26413,26427,26441,26455,26469,26483,26497,26511,26525,26538,26552,26566,26581,26594,26608,26623,26636,26650,26664,26677,26691,26705,26719,26733,26746,26760,26776,26788,26802,26816,26830,26844,26858,26872,26886,26900,26913,26927,26941,26955,26969,26983,26997,27011,27024,27038,27052,27066,27080,27094,27107,27121,27136,27149,27163,27177,27191,27205,27219,27233,27248,27260,27274,27288,27302,27316,27330,27344,27357,27371,27387,27399,27413,27427,27441,27454,27468,27482,27496,27510,27524,27538,27552,27566,27580,27593,27607,27621,27635,27649,27663,27677,27690,27704,27718,27733,27746,27760,27774,27789,27802,27816,27830,27843,27857,27873,27885,27899,27913,27928,27940,27954,27968,27982,27996,28010,28024,28038,28052,28065,28079,28093,28107,28121,28135,28149,28163,28176,28192,28204,28218,28232,28246,28260,28274,28288,28301,28315,28329,28343,28357,28371,28385,28399,28412,28426,28440,28454,28468,28482,28496,28510,28524,28537,28551,28565,28579,28593,28607,28621,28635,28648,28662,28676,28690,28704,28718,28732,28746,28759,28773,28787,28801,28815,28829,28843,28856,28870,28884,28898,28913,28926,28940,28954,28968,28981,28995,29010,29023,29037,29051,29065,29080,29093,29106,29121,29134,29149,29162,29176,29190,29204,29218,29233,29245,29259,29274,29287,29302,29315,29330,29342,29357,29370,29384,29398,29412,29426,29440,29454,29467,29481,29495,29509,29523,29537,29551,29565,29579,29592,29606,29620,29634,29648,29662,29676,29690,29704,29717,29731,29745,29759,29773,29787,29801,29815,29828,29842,29856,29870,29884,29898,29912,29926,29939,29953,29967,29981,29995,30009,30023,30038,30050,30065,30078,30092,30106,30120,30134,30148,30161,30175,30189,30203,30218,30231,30245,30259,30273,30286,30300,30314,30328,30342,30356,30370,30384,30398,30411,30425,30439,30453,30467,30481,30495,30509,30522,30536,30550,30564,30578,30592,30606,30620,30634,30647,30661,30676,30689,30703,30717,30731,30744,30758,30772,30786,30800,30814,30828,30842,30856,30870,30883,30897,30912,30925,30939,30953,30967,30981,30995,31008,31022,31036,31050,31064,31078,31092,31106,31120,31133,31147,31161,31175,31189,31203,31217,31231,31245,31258,31272,31286,31300,31314,31328,31341,31356,31370,31383,31397,31412,31425,31439,31452,31467,31481,31494,31508,31523,31536,31550,31564,31578,31591,31605,31619,31633,31648,31661,31675,31689,31703,31716,31731,31744,31758,31772,31786,31800,31814,31828,31841,31855,31869,31883,31897,31911,31925,31938,31954,31966,31980,31994,32008,32022,32035,32049,32064,32078,32091,32105,32119,32133,32147,32161,32174,32188,32202,32216,32230,32244,32258,32272,32285,32300,32313,32327,32341,32355,32369,32383,32397,32410,32424,32439,32453,32466,32480,32494,32508,32522,32536,32549,32564,32577,32591,32605,32619,32633,32646,32660,32674,32688,32702,32716,32730,32744,32757,32771,32785,32800,32813,32827,32841,32855,32869,32883,32896,32911,32924,32938,32952,32966,32979,32994,33008,33021,33035,33049,33063,33077,33091,33105,33119,33132,33146,33160,33174,33188,33203,33216,33230,33244,33257,33271,33285,33299,33313,33327,33342,33354,33368,33382,33396,33410,33424,33438,33452,33465,33480,33494,33507,33521,33535,33549,33563,33577,33590,33605,33619,33632,33646,33660,33674,33688,33702,33715,33730,33743,33757,33771,33785,33799,33813,33826,33840,33854,33868,33882,33896,33910,33924,33938,33951,33965,33979,33993,34007,34021,34035,34049,34062,34076,34091,34104,34118,34132,34146,34160,34174,34188,34201,34215,34229,34243,34257,34271,34285,34298,34312,34326,34340,34354,34368,34382,34396,34409,34424,34437,34451,34465,34479,34493,34507,34520,34534,34548,34562,34576,34590,34604,34618,34632,34646,34659,34673,34687,34701,34715,34729,34743,34757,34770,34784,34798,34812,34826,34840,34854,34868,34882,34896,34909,34923,34937,34951,34965,34979,34993,35006,35021,35035,35048,35062,35076,35090,35104,35118,35131,35145,35159,35173,35187,35201,35215,35228,35243,35256,35272,35284,35298,35312,35325,35339,35353,35367,35381,35395,35409,35423,35437,35451,35464,35478,35492,35506,35520,35534,35548,35562,35575,35589,35603,35617,35631,35645,35659,35673,35687,35700,35714,35728,35742,35756,35770,35784,35798,35812,35826,35840,35853,35867,35881,35895,35909,35923,35936,35950,35964,35978,35992,36006,36020,36034,36047,36061,36075,36089,36103,36117,36131,36145,36159,36172,36186,36201,36214,36228,36242,36256,36270,36284,36297,36311,36325,36339,36353,36367,36381,36394,36408,36422,36436,36452,36464,36478,36492,36506,36519,36534,36547,36561,36575,36589,36603,36617,36631,36645,36658,36672,36686,36700,36714,36728,36742,36757,36770,36783,36797,36811,36825,36839,36853,36867,36880,36894,36908,36922,36936,36952,36964,36977,36992,37005,37019,37033,37047,37061,37075,37089,37103,37116,37130,37144,37158,37172,37186,37200,37214,37227,37241,37255,37269,37283,37297,37311,37325,37339,37352,37366,37380,37394,37408,37422,37436,37450,37464,37477,37491,37505,37519,37533,37548,37561,37575,37588,37602,37616,37630,37645,37658,37672,37686,37699,37713,37727,37741,37755,37769,37783,37797,37811,37824,37838,37852,37866,37880,37894,37908,37922,37936,37949,37963,37977,37991,38005,38019,38033,38047,38060,38074,38089,38102,38116,38130,38144,38158,38171,38185,38199,38213,38227,38241,38255,38268,38283,38296,38310,38324,38338,38352,38366,38380,38393,38407,38421,38435,38449,38463,38477,38491,38505,38518,38533,38547,38560,38575,38588,38602,38616,38630,38643,38657,38671,38685,38699,38713,38727,38741,38755,38768,38783,38797,38811,38824,38838,38852,38865,38879,38893,38907,38921,38935,38949,38963,38976,38990,39004,39018,39032,39046,39060,39074,39088,39102,39115,39129,39143,39157,39171,39185,39199,39213,39227,39240,39255,39268,39282,39296,39310,39324,39337,39352,39365,39379,39393,39407,39421,39436,39449,39462,39476,39490,39504,39518,39532,39546,39560,39573,39587,39601,39615,39629,39643,39657,39670,39685,39698,39712,39726,39740,39754,39768,39782,39796,39810,39823,39837,39851,39865,39879,39893,39907,39921,39934,39948,39962,39976,39990,40004,40018,40032,40045,40060,40073,40087,40101,40115,40129,40143,40157,40170,40184,40198,40212,40226,40240,40254,40268,40282,40297,40309,40323,40337,40351,40365,40379,40393,40407,40421,40434,40448,40462,40476,40490,40504,40518,40531,40545,40559,40573,40587,40601,40615,40628,40642,40656,40670,40684,40698,40712,40726,40740,40753,40767,40781,40795,40809,40823,40837,40851,40864,40878,40893,40906,40921,40934,40948,40962,40976,40990,41004,41017,41031,41045,41059,41073,41086,41101,41115,41128,41142,41156,41170,41184,41198,41211,41225,41239,41253,41267,41281,41295,41309,41323,41337,41350,41364,41378,41392,41406,41420,41434,41448,41462,41475,41489,41503,41517,41531,41545,41559,41572,41587,41600,41614,41628,41642,41656,41670,41684,41697,41711,41725,41739,41753,41767,41781,41795,41809,41822,41836,41850,41864,41878,41892,41906,41920,41933,41949,41961,41976,41989,42003,42017,42030,42045,42058,42072,42086,42100,42114,42128,42142,42156,42170,42184,42197,42211,42225,42239,42253,42267,42280,42294,42308,42322,42336,42350,42364,42377,42391,42405,42420,42433,42447,42461,42475,42489,42503,42516,42530,42546,42558,42572,42586,42600,42614,42628,42641,42655,42669,42683,42697,42711,42725,42739,42752,42766,42780,42794,42808,42822,42836,42850,42864,42877,42891,42905,42919,42933,42947,42961,42975,42989,43002,43017,43030,43044,43058,43072,43086,43099,43113,43127,43142,43155,43169,43183,43197,43211,43225,43238,43252,43266,43280,43294,43308,43322,43336,43349,43363,43378,43391,43405,43419,43433,43447,43460,43474,43488,43502,43516,43530,43544,43558,43572,43585,43599,43613,43627,43641,43655,43669,43682,43696,43710,43725,43738,43752,43766,43780,43794,43807,43822,43835,43849,43863,43877,43891,43905,43918,43934,43947,43960,43974,43988,44002,44016,44030,44044,44058,44071,44085,44099,44113,44127,44141,44155,44169,44182,44196,44210,44224,44238,44252,44266,44280,44293,44307,44321,44335,44349,44363,44377,44390,44405,44418,44432,44447,44460,44474,44488,44502,44515,44530,44543,44557,44571,44585,44599,44613,44626,44640,44654,44668,44682,44696,44711,44724,44738,44752,44766,44780,44794,44808,44821,44835,44849,44863,44876,44890,44904,44918,44932,44946,44960,44974,44987,45002,45015,45029,45043,45057,45071,45085,45099,45113,45126,45140,45154,45168,45182,45196,45210,45224,45237,45252,45266,45279,45293,45307,45321,45335,45349,45362,45376,45390,45404,45418,45432,45445,45459,45474,45487,45501,45515,45529,45543,45557,45571,45584,45599,45613,45627,45640,45654,45668,45682,45695,45710,45723,45737,45751,45765,45779,45793,45807,45820,45834,45848,45862,45876,45890,45904,45918,45933],"hit":[null],"x":[-2.0408163265306123,-2.0408163265306123,-2.0408163265306123,-2.0408163265306123,0.10884353741496598,0.15306122448979592,0.23129251700680273,0.35714285714285715,0.5306122448979592,0.7074829931972789,0.8435374149659864,0.9387755102040817,0.9931972789115646,1.0204081632653061,1.030612244897959,1.034013605442177,1.034013605442177,1.034013605442177,1.0272108843537415,1.0204081632653061,1.0204081632653061,1.0136054421768708,1.010204081632653,1.0068027210884354,1.0068027210884354,1.0068027210884354,1.0068027210884354,1.0068027210884354,1.0068027210884354,1.0068027210884354,1.0068027210884354,1.0068027210884354,1.0068027210884354,1.0068027210884354,1.0068027210884354,1.0068027210884354,1.0068027210884354,1.0068027210884354,1.0068027210884354,1.0068027210884354,1.0068027210884354,1.0068027210884354,1.0068027210884354,1.0068027210884354,1,0.9863945578231292,0.9659863945578231,0.9523809523809523,0.9319727891156463,0.9183673469387755,0.9115646258503401,0.9047619047619048,0.8979591836734694,0.8877551020408163,0.8775510204081632,0.8639455782312925,0.8503401360544217,0.8367346938775511,0.826530612244898,0.8129251700680272,0.7959183673469388,0.7755102040816326,0.7551020408163265,0.7312925170068028,0.6938775510204082,0.6530612244897959,0.6122448979591837,0.5850340136054422,0.5612244897959183,0.5476190476190477,0.5340136054421769,0.5272108843537415,0.5204081632653061,0.5136054421768708,0.5068027210884354,0.5,0.4931972789115646,0.4897959183673469,0.4897959183673469,0.48299319727891155,0.47959183673469385,0.47619047619047616,0.47278911564625853,0.46598639455782315,0.46258503401360546,0.46258503401360546,0.4557823129251701,0.4523809523809524,0.4489795918367347,0.4387755102040816,0.43537414965986393,0.42857142857142855,0.4217687074829932,0.41496598639455784,0.40816326530612246,0.40816326530612246,0.40816326530612246,0.40816326530612246,0.40816326530612246,0.40816326530612246,0.40816326530612246,0.41496598639455784,0.4489795918367347,0.48299319727891155,0.5170068027210885,0.5374149659863946,0.5578231292517006,0.5714285714285714,0.5782312925170068,0.5816326530612245,0.5850340136054422,0.5850340136054422,0.5952380952380952,0.6020408163265306,0.608843537414966,0.608843537414966,0.6122448979591837,0.6122448979591837,0.6122448979591837,0.6156462585034014,0.6156462585034014,0.6156462585034014,0.6156462585034014,0.6156462585034014,0.6156462585034014,0.6156462585034014,0.6156462585034014,0.6156462585034014,0.6156462585034014,0.6156462585034014,0.6156462585034014,0.6156462585034014,0.6156462585034014,0.6156462585034014,0.6156462585034014,0.6122448979591837,0.6020408163265306,0.5986394557823129,0.5884353741496599,0.5782312925170068,0.5680272108843537,0.5544217687074829,0.54421768707483,0.5306122448979592,0.5170068027210885,0.5034013605442177,0.4965986394557823,0.47959183673469385,0.46938775510204084,0.4557823129251701,0.4387755102040816,0.42857142857142855,0.41496598639455784,0.40816326530612246,0.40476190476190477,0.3945578231292517,0.3877551020408163,0.3741496598639456,0.3673469387755102,0.35374149659863946,0.3469387755102041,0.336734693877551,0.3299319727891156,0.3231292517006803,0.3197278911564626,0.3129251700680272,0.30612244897959184,0.30612244897959184,0.30612244897959184,0.29931972789115646,0.29931972789115646,0.29931972789115646,0.29931972789115646,0.29931972789115646,0.29591836734693877,0.2857142857142857,0.2687074829931973,0.25170068027210885,0.24149659863945577,0.23129251700680273,0.21768707482993196,0.21428571428571427,0.20748299319727892,0.20748299319727892,0.20748299319727892,0.20748299319727892,0.20748299319727892,0.2108843537414966,0.2108843537414966,0.2108843537414966,0.21428571428571427,0.21428571428571427,0.21768707482993196,0.22789115646258504,0.23129251700680273,0.23809523809523808,0.24489795918367346,0.24489795918367346,0.25170068027210885,0.25170068027210885,0.25170068027210885,0.25170068027210885,0.25170068027210885,0.25170068027210885,0.25170068027210885,0.25170068027210885,0.25170068027210885,0.25170068027210885,0.25170068027210885,0.25170068027210885,0.25170068027210885,0.25170068027210885,0.25170068027210885,0.25170068027210885,0.25170068027210885,0.25170068027210885,0.25170068027210885,0.25170068027210885,0.25510204081632654,0.2585034013605442,0.2619047619047619,0.2687074829931973,0.272108843537415,0.282312925170068,0.29591836734693877,0.3129251700680272,0.3333333333333333,0.3435374149659864,0.35714285714285715,0.3707482993197279,0.37755102040816324,0.37755102040816324,0.37755102040816324,0.37755102040816324,0.37755102040816324,0.37755102040816324,0.37755102040816324,0.37755102040816324,0.37755102040816324,0.37755102040816324,0.37755102040816324,0.37755102040816324,0.37755102040816324,0.37755102040816324,0.37755102040816324,0.37755102040816324,0.37755102040816324,0.37755102040816324,0.37755102040816324,0.37755102040816324,0.37755102040816324,0.3673469387755102,0.35714285714285715,0.3435374149659864,0.32653061224489793,0.30952380952380953,0.2925170068027211,0.2755102040816326,0.2653061224489796,0.25510204081632654,0.25170068027210885,0.25170068027210885,0.25170068027210885,0.25170068027210885,0.25170068027210885,0.25170068027210885,0.25170068027210885,0.25170068027210885,0.25170068027210885,0.25170068027210885,0.25170068027210885,0.25170068027210885,0.25170068027210885,0.25170068027210885,0.25170068027210885,0.25170068027210885,0.25170068027210885,0.25170068027210885,0.25170068027210885,0.25170068027210885,0.25170068027210885,0.25170068027210885,0.25170068027210885,0.25170068027210885,0.25170068027210885,0.25170068027210885,0.25170068027210885,0.25170068027210885,0.25170068027210885,0.25170068027210885,0.25170068027210885,0.25170068027210885,0.25170068027210885,0.25170068027210885,0.25170068027210885,0.25170068027210885,0.25170068027210885,0.25170068027210885,0.25170068027210885,0.25170068027210885,0.25170068027210885,0.25170068027210885,0.25170068027210885,0.25170068027210885,0.25170068027210885,0.25170068027210885,0.25170068027210885,0.25170068027210885,0.25170068027210885,0.25170068027210885,0.25170068027210885,0.25170068027210885,0.25170068027210885,0.25170068027210885,0.25170068027210885,0.25170068027210885,0.25170068027210885,0.25170068027210885,0.25170068027210885,0.25170068027210885,0.25170068027210885,0.25170068027210885,0.25170068027210885,0.24829931972789115,0.24829931972789115,0.24829931972789115,0.24829931972789115,0.24829931972789115,0.24489795918367346,0.24489795918367346,0.24489795918367346,0.24489795918367346,0.24489795918367346,0.24489795918367346,0.24489795918367346,0.24489795918367346,0.24489795918367346,0.24489795918367346,0.24489795918367346,0.24489795918367346,0.24489795918367346,0.24489795918367346,0.24489795918367346,0.24489795918367346,0.24489795918367346,0.24489795918367346,0.24489795918367346,0.24489795918367346,0.24489795918367346,0.24489795918367346,0.24489795918367346,0.24489795918367346,0.24489795918367346,0.24489795918367346,0.24489795918367346,0.24489795918367346,0.24489795918367346,0.24489795918367346,0.24489795918367346,0.24489795918367346,0.24489795918367346,0.24489795918367346,0.24489795918367346,0.24489795918367346,0.24489795918367346,0.24489795918367346,0.24489795918367346,0.24489795918367346,0.24489795918367346,0.24489795918367346,0.24489795918367346,0.24489795918367346,0.24489795918367346,0.24489795918367346,0.24489795918367346,0.24489795918367346,0.24489795918367346,0.24489795918367346,0.24489795918367346,0.24489795918367346,0.24489795918367346,0.24489795918367346,0.24489795918367346,0.24489795918367346,0.24489795918367346,0.24489795918367346,0.24489795918367346,0.25170068027210885,0.2653061224489796,0.2857142857142857,0.3163265306122449,0.3469387755102041,0.3673469387755102,0.38095238095238093,0.38095238095238093,0.38095238095238093,0.38095238095238093,0.38095238095238093,0.38095238095238093,0.38095238095238093,0.3877551020408163,0.4013605442176871,0.40816326530612246,0.40816326530612246,0.40816326530612246,0.40816326530612246,0.40816326530612246,0.40816326530612246,0.40816326530612246,0.40816326530612246,0.40816326530612246,0.40816326530612246,0.41496598639455784,0.4217687074829932,0.43537414965986393,0.45918367346938777,0.5,0.5340136054421769,0.5680272108843537,0.5884353741496599,0.6054421768707483,0.6224489795918368,0.6326530612244898,0.6394557823129252,0.6394557823129252,0.6394557823129252,0.6394557823129252,0.6394557823129252,0.6462585034013606,0.6598639455782312,0.6802721088435374,0.7006802721088435,0.7278911564625851,0.7517006802721088,0.7721088435374149,0.7891156462585034,0.8027210884353742,0.8163265306122449,0.8367346938775511,0.8571428571428571,0.8707482993197279,0.8877551020408163,0.8945578231292517,0.8979591836734694,0.9081632653061225,0.9115646258503401,0.9115646258503401,0.9115646258503401,0.9115646258503401,0.9047619047619048,0.8979591836734694,0.8945578231292517,0.891156462585034,0.891156462585034,0.8877551020408163,0.8843537414965986,0.8809523809523809,0.8775510204081632,0.8707482993197279,0.8571428571428571,0.8503401360544217,0.8401360544217688,0.8333333333333334,0.826530612244898,0.8197278911564626,0.8163265306122449,0.8095238095238095,0.8027210884353742,0.8027210884353742,0.8027210884353742,0.8027210884353742,0.8027210884353742,0.8027210884353742,0.8027210884353742,0.8027210884353742,0.8027210884353742,0.8027210884353742,0.8027210884353742,0.8027210884353742,0.8027210884353742,0.8027210884353742,0.8027210884353742,0.8027210884353742,0.8027210884353742,0.8027210884353742,0.8027210884353742,0.8027210884353742,0.8027210884353742,0.8027210884353742,0.8027210884353742,0.8027210884353742,0.8027210884353742,0.7959183673469388,0.7925170068027211,0.7891156462585034,0.7857142857142857,0.7857142857142857,0.782312925170068,0.782312925170068,0.7789115646258503,0.7755102040816326,0.7755102040816326,0.7755102040816326,0.7755102040816326,0.7721088435374149,0.7721088435374149,0.7721088435374149,0.7721088435374149,0.7721088435374149,0.7721088435374149,0.7721088435374149,0.7721088435374149,0.7721088435374149,0.7755102040816326,0.7857142857142857,0.7959183673469388,0.8095238095238095,0.8231292517006803,0.8435374149659864,0.8571428571428571,0.8741496598639455,0.8945578231292517,0.9149659863945578,0.9285714285714286,0.935374149659864,0.9387755102040817,0.9387755102040817,0.9387755102040817,0.9387755102040817,0.9251700680272109,0.8775510204081632,0.8197278911564626,0.7414965986394558,0.6530612244897959,0.5714285714285714,0.4931972789115646,0.4421768707482993,0.40816326530612246,0.3843537414965986,0.37755102040816324,0.3673469387755102,0.36054421768707484,0.35374149659863946,0.3435374149659864,0.336734693877551,0.32653061224489793,0.3197278911564626,0.30612244897959184,0.2857142857142857,0.272108843537415,0.25170068027210885,0.23129251700680273,0.21428571428571427,0.19727891156462585,0.17346938775510204,0.15306122448979592,0.1360544217687075,0.12244897959183673,0.1054421768707483,0.08843537414965986,0.08163265306122448,0.08163265306122448,0.08163265306122448,0.08163265306122448,0.08163265306122448,0.08163265306122448,0.08163265306122448,0.08163265306122448,0.08163265306122448,0.08163265306122448,0.08163265306122448,0.0782312925170068,0.07482993197278912,0.06802721088435375,0.06802721088435375,0.06802721088435375,0.061224489795918366,0.05442176870748299,0.04421768707482993,0.034013605442176874,0.023809523809523808,0.02040816326530612,0.013605442176870748,0.013605442176870748,0.013605442176870748,0.013605442176870748,0.013605442176870748,0.013605442176870748,0.013605442176870748,0.013605442176870748,0.013605442176870748,0.013605442176870748,0.013605442176870748,0.013605442176870748,0.006802721088435374,0.006802721088435374,0.003401360544217687,0.003401360544217687,0.003401360544217687,0.003401360544217687,0.003401360544217687,0.003401360544217687,0.003401360544217687,0.003401360544217687,0.003401360544217687,0.003401360544217687,0.003401360544217687,0.003401360544217687,0.003401360544217687,0.003401360544217687,0.003401360544217687,0.003401360544217687,0.003401360544217687,0.003401360544217687,0.003401360544217687,0.023809523809523808,0.04081632653061224,0.061224489795918366,0.08163265306122448,0.10204081632653061,0.11904761904761904,0.1326530612244898,0.1360544217687075,0.13945578231292516,0.13945578231292516,0.13945578231292516,0.13945578231292516,0.13945578231292516,0.13945578231292516,0.13945578231292516,0.13945578231292516,0.1360544217687075,0.1360544217687075,0.1360544217687075,0.1360544217687075,0.1326530612244898,0.1292517006802721,0.1292517006802721,0.1292517006802721,0.12585034013605442,0.12244897959183673,0.12244897959183673,0.12244897959183673,0.12244897959183673,0.12244897959183673,0.12244897959183673,0.12244897959183673,0.11564625850340136,0.10884353741496598,0.10204081632653061,0.09523809523809523,0.08843537414965986,0.08163265306122448,0.08163265306122448,0.0782312925170068,0.07482993197278912,0.07142857142857142,0.07142857142857142,0.07142857142857142,0.07142857142857142,0.07142857142857142,0.07142857142857142,0.07142857142857142,0.07142857142857142,0.07142857142857142,0.07142857142857142,0.07142857142857142,0.06802721088435375,0.061224489795918366,0.05442176870748299,0.047619047619047616,0.04081632653061224,0.034013605442176874,0.027210884353741496,0.02040816326530612,0.013605442176870748,0,-0.013605442176870748,-0.027210884353741496,-0.04421768707482993,-0.05442176870748299,-0.06802721088435375,-0.08503401360544217,-0.09523809523809523,-0.1054421768707483,-0.10884353741496598,-0.10884353741496598,-0.10884353741496598,-0.10884353741496598,-0.09523809523809523,-0.03741496598639456,0.04081632653061224,0.09863945578231292,0.14285714285714285,0.16666666666666666,0.17687074829931973,0.17687074829931973,0.16666666666666666,0.16326530612244897,0.1564625850340136,0.14965986394557823,0.14965986394557823,0.14285714285714285,0.14285714285714285,0.14285714285714285,0.13945578231292516,0.1360544217687075,0.1360544217687075,0.1360544217687075,0.1360544217687075,0.1360544217687075,0.1360544217687075,0.1360544217687075,0.1360544217687075,0.1360544217687075,0.1360544217687075,0.1360544217687075,0.1360544217687075,0.1360544217687075,0.1360544217687075,0.1360544217687075,0.1360544217687075,0.1360544217687075,0.1360544217687075,0.1360544217687075,0.1360544217687075,0.1360544217687075,0.1360544217687075,0.1360544217687075,0.1360544217687075,0.1360544217687075,0.1360544217687075,0.1360544217687075,0.1360544217687075,0.1360544217687075,0.1360544217687075,0.1360544217687075,0.1360544217687075,0.1360544217687075,0.1360544217687075,0.1360544217687075,0.1360544217687075,0.1360544217687075,0.1360544217687075,0.14625850340136054,0.1564625850340136,0.16666666666666666,0.18027210884353742,0.19047619047619047,0.20408163265306123,0.21768707482993196,0.23469387755102042,0.2653061224489796,0.2891156462585034,0.3163265306122449,0.3401360544217687,0.35714285714285715,0.37755102040816324,0.391156462585034,0.3945578231292517,0.3979591836734694,0.3979591836734694,0.3979591836734694,0.3945578231292517,0.391156462585034,0.38095238095238093,0.37755102040816324,0.3673469387755102,0.35714285714285715,0.3401360544217687,0.32653061224489793,0.30952380952380953,0.2857142857142857,0.2687074829931973,0.25170068027210885,0.24149659863945577,0.23129251700680273,0.22789115646258504,0.22789115646258504,0.22108843537414966,0.21768707482993196,0.21428571428571427,0.20748299319727892,0.20748299319727892,0.20408163265306123,0.20408163265306123,0.20068027210884354,0.19727891156462585,0.19047619047619047,0.19047619047619047,0.18027210884353742,0.17687074829931973,0.17687074829931973,0.16666666666666666,0.16326530612244897,0.1598639455782313,0.14965986394557823,0.14625850340136054,0.1360544217687075,0.1326530612244898,0.12585034013605442,0.12244897959183673,0.11904761904761904,0.11904761904761904,0.11904761904761904,0.11904761904761904,0.11904761904761904,0.11904761904761904,0.11904761904761904,0.11904761904761904,0.11904761904761904,0.11904761904761904,0.11564625850340136,0.11564625850340136,0.11564625850340136,0.11564625850340136,0.11564625850340136,0.11564625850340136,0.11564625850340136,0.11564625850340136,0.11564625850340136,0.11564625850340136,0.11564625850340136,0.11564625850340136,0.11564625850340136,0.11564625850340136,0.11564625850340136,0.11564625850340136,0.11564625850340136,0.11564625850340136,0.11564625850340136,0.11904761904761904,0.1360544217687075,0.1598639455782313,0.19047619047619047,0.22108843537414966,0.25510204081632654,0.29931972789115646,0.3401360544217687,0.38095238095238093,0.3979591836734694,0.41836734693877553,0.42857142857142855,0.43537414965986393,0.43537414965986393,0.43537414965986393,0.43537414965986393,0.43537414965986393,0.43537414965986393,0.43537414965986393,0.43537414965986393,0.43537414965986393,0.43537414965986393,0.43197278911564624,0.42857142857142855,0.4217687074829932,0.4217687074829932,0.41836734693877553,0.41496598639455784,0.41496598639455784,0.41156462585034015,0.40476190476190477,0.3945578231292517,0.37755102040816324,0.36394557823129253,0.3469387755102041,0.3333333333333333,0.3231292517006803,0.3163265306122449,0.3129251700680272,0.3129251700680272,0.30952380952380953,0.30952380952380953,0.30952380952380953,0.30952380952380953,0.30952380952380953,0.30952380952380953,0.30952380952380953,0.30952380952380953,0.30612244897959184,0.29931972789115646,0.29931972789115646,0.29931972789115646,0.29931972789115646,0.29591836734693877,0.29591836734693877,0.29591836734693877,0.29591836734693877,0.2925170068027211,0.2925170068027211,0.2925170068027211,0.2925170068027211,0.2925170068027211,0.2925170068027211,0.2925170068027211,0.2925170068027211,0.2925170068027211,0.2925170068027211,0.2925170068027211,0.2925170068027211,0.2925170068027211,0.2925170068027211,0.2891156462585034,0.2857142857142857,0.282312925170068,0.282312925170068,0.2789115646258503,0.272108843537415,0.2653061224489796,0.2755102040816326,0.3231292517006803,0.391156462585034,0.46258503401360546,0.5170068027210885,0.5782312925170068,0.6258503401360545,0.6496598639455783,0.6598639455782312,0.6632653061224489,0.6632653061224489,0.6632653061224489,0.6632653061224489,0.6632653061224489,0.6632653061224489,0.6632653061224489,0.6632653061224489,0.6666666666666666,0.6666666666666666,0.6666666666666666,0.6666666666666666,0.6666666666666666,0.6666666666666666,0.6666666666666666,0.6666666666666666,0.6666666666666666,0.6666666666666666,0.6666666666666666,0.6666666666666666,0.6598639455782312,0.6462585034013606,0.6224489795918368,0.5986394557823129,0.5748299319727891,0.54421768707483,0.5340136054421769,0.5272108843537415,0.5272108843537415,0.5272108843537415,0.5204081632653061,0.5204081632653061,0.5204081632653061,0.5170068027210885,0.5068027210884354,0.5,0.4897959183673469,0.47959183673469385,0.46598639455782315,0.4489795918367347,0.43197278911564624,0.3979591836734694,0.36394557823129253,0.336734693877551,0.3163265306122449,0.30272108843537415,0.2925170068027211,0.2789115646258503,0.2653061224489796,0.25510204081632654,0.24489795918367346,0.23809523809523808,0.22789115646258504,0.21768707482993196,0.2108843537414966,0.20068027210884354,0.19047619047619047,0.17687074829931973,0.1598639455782313,0.1360544217687075,0.10204081632653061,0.06802721088435375,0.017006802721088437,-0.04081632653061224,-0.11224489795918367,-0.1870748299319728,-0.2585034013605442,-0.32653061224489793,-0.391156462585034,-0.4489795918367347,-0.4897959183673469,-0.5170068027210885,-0.5272108843537415,-0.5340136054421769,-0.5408163265306123,-0.5408163265306123,-0.5340136054421769,-0.5068027210884354,-0.46258503401360546,-0.41836734693877553,-0.36054421768707484,-0.2891156462585034,-0.1836734693877551,-0.05442176870748299,0.11564625850340136,0.14285714285714285,0.14285714285714285,0.14285714285714285,0.14285714285714285,0.14285714285714285,0.14285714285714285,0.14285714285714285,0.14285714285714285,0.14285714285714285,0.14285714285714285,0.07142857142857142,0.047619047619047616,0.06462585034013606,0.09863945578231292,0.11904761904761904,0.11904761904761904,0.12244897959183673,0.12585034013605442,0.13945578231292516,0.15306122448979592,0.16666666666666666,0.18027210884353742,0.19047619047619047,0.19727891156462585,0.20408163265306123,0.2108843537414966,0.21768707482993196,0.22789115646258504,0.24149659863945577,0.2585034013605442,0.2789115646258503,0.29931972789115646,0.32653061224489793,0.3469387755102041,0.3741496598639456,0.3945578231292517,0.42517006802721086,0.4489795918367347,0.46598639455782315,0.48299319727891155,0.5034013605442177,0.5238095238095238,0.5544217687074829,0.5850340136054422,0.6156462585034014,0.6394557823129252,0.6598639455782312,0.6666666666666666,0.6666666666666666,0.6666666666666666,0.6666666666666666,0.6666666666666666,0.6666666666666666,0.6700680272108843,0.6700680272108843,0.6700680272108843,0.6700680272108843,0.6700680272108843,0.6666666666666666,0.6666666666666666,0.6564625850340136,0.6530612244897959,0.6394557823129252,0.6258503401360545,0.6122448979591837,0.6020408163265306,0.5884353741496599,0.5816326530612245,0.5782312925170068,0.5782312925170068,0.5782312925170068,0.5782312925170068,0.5782312925170068,0.5782312925170068,0.5782312925170068,0.5782312925170068,0.5782312925170068,0.5782312925170068,0.5782312925170068,0.5782312925170068,0.5782312925170068,0.5782312925170068,0.5782312925170068,0.5782312925170068,0.5782312925170068,0.5782312925170068,0.5782312925170068,0.5782312925170068,0.5782312925170068,0.5782312925170068,0.5782312925170068,0.5782312925170068,0.5918367346938775,0.6122448979591837,0.6326530612244898,0.6530612244897959,0.6632653061224489,0.6700680272108843,0.6768707482993197,0.6870748299319728,0.6938775510204082,0.7040816326530612,0.7074829931972789,0.7074829931972789,0.7142857142857143,0.7142857142857143,0.7142857142857143,0.7142857142857143,0.7142857142857143,0.7142857142857143,0.7142857142857143,0.7142857142857143,0.7142857142857143,0.7142857142857143,0.7142857142857143,0.7142857142857143,0.7142857142857143,0.7142857142857143,0.7142857142857143,0.7142857142857143,0.7142857142857143,0.7142857142857143,0.7142857142857143,0.7142857142857143,0.7142857142857143,0.7142857142857143,0.7142857142857143,0.7142857142857143,0.7142857142857143,0.7142857142857143,0.7142857142857143,0.7142857142857143,0.7142857142857143,0.7142857142857143,0.7142857142857143,0.7142857142857143,0.7142857142857143,0.717687074829932,0.7414965986394558,0.7789115646258503,0.7993197278911565,0.7993197278911565,0.7925170068027211,0.7755102040816326,0.7619047619047619,0.7585034013605442,0.7551020408163265,0.7517006802721088,0.7517006802721088,0.7517006802721088,0.7517006802721088,0.7517006802721088,0.7482993197278912,0.7482993197278912,0.7482993197278912,0.7482993197278912,0.7414965986394558,0.7278911564625851,0.7074829931972789,0.673469387755102,0.6326530612244898,0.5918367346938775,0.5680272108843537,0.564625850340136,0.564625850340136,0.564625850340136,0.564625850340136,0.564625850340136,0.564625850340136,0.564625850340136,0.564625850340136,0.564625850340136,0.564625850340136,0.564625850340136,0.564625850340136,0.564625850340136,0.564625850340136,0.5578231292517006,0.54421768707483,0.5306122448979592,0.5034013605442177,0.48299319727891155,0.46938775510204084,0.45918367346938777,0.45918367346938777,0.45918367346938777,0.45918367346938777,0.45918367346938777,0.45918367346938777,0.45918367346938777,0.45918367346938777,0.45918367346938777,0.45918367346938777,0.45918367346938777,0.45918367346938777,0.45918367346938777,0.45918367346938777,0.45918367346938777,0.45918367346938777,0.45918367346938777,0.45918367346938777,0.45918367346938777,0.45918367346938777,0.45918367346938777,0.45918367346938777,0.45918367346938777,0.45918367346938777,0.45918367346938777,0.45918367346938777,0.45918367346938777,0.45918367346938777,0.45918367346938777,0.45918367346938777,0.45918367346938777,0.45918367346938777,0.45918367346938777,0.45918367346938777,0.45918367346938777,0.45918367346938777,0.45918367346938777,0.45918367346938777,0.45918367346938777,0.45918367346938777,0.45918367346938777,0.45918367346938777,0.45918367346938777,0.45918367346938777,0.45918367346938777,0.45918367346938777,0.45918367346938777,0.45918367346938777,0.45918367346938777,0.45918367346938777,0.45918367346938777,0.45918367346938777,0.45918367346938777,0.45918367346938777,0.45918367346938777,0.45918367346938777,0.45918367346938777,0.45918367346938777,0.45918367346938777,0.45918367346938777,0.45918367346938777,0.45918367346938777,0.45918367346938777,0.46258503401360546,0.47278911564625853,0.47959183673469385,0.4897959183673469,0.5034013605442177,0.5170068027210885,0.5306122448979592,0.54421768707483,0.5578231292517006,0.5714285714285714,0.5884353741496599,0.6020408163265306,0.6156462585034014,0.6258503401360545,0.6326530612244898,0.6428571428571429,0.6530612244897959,0.6666666666666666,0.6870748299319728,0.7074829931972789,0.7346938775510204,0.7551020408163265,0.7755102040816326,0.7993197278911565,0.8231292517006803,0.8469387755102041,0.8707482993197279,0.8877551020408163,0.9013605442176871,0.9149659863945578,0.9251700680272109,0.9285714285714286,0.9285714285714286,0.9285714285714286,0.9285714285714286,0.9319727891156463,0.935374149659864,0.935374149659864,0.9319727891156463,0.9217687074829932,0.9115646258503401,0.9047619047619048,0.8979591836734694,0.8979591836734694,0.8945578231292517,0.8877551020408163,0.8843537414965986,0.8775510204081632,0.8707482993197279,0.8571428571428571,0.8435374149659864,0.826530612244898,0.8095238095238095,0.7755102040816326,0.7380952380952381,0.6972789115646258,0.6564625850340136,0.6190476190476191,0.5850340136054422,0.5578231292517006,0.5408163265306123,0.5204081632653061,0.5068027210884354,0.5,0.4897959183673469,0.48639455782312924,0.47619047619047616,0.47278911564625853,0.47278911564625853,0.47278911564625853,0.47278911564625853,0.47278911564625853,0.47278911564625853,0.47278911564625853,0.47278911564625853,0.47278911564625853,0.47278911564625853,0.47278911564625853,0.47278911564625853,0.46258503401360546,0.45918367346938777,0.4489795918367347,0.4387755102040816,0.42857142857142855,0.41836734693877553,0.4013605442176871,0.3843537414965986,0.3673469387755102,0.35374149659863946,0.336734693877551,0.3163265306122449,0.29931972789115646,0.2789115646258503,0.2619047619047619,0.24829931972789115,0.23129251700680273,0.21428571428571427,0.20408163265306123,0.19047619047619047,0.17687074829931973,0.16666666666666666,0.16666666666666666,0.16666666666666666,0.16326530612244897,0.15306122448979592,0.14285714285714285,0.1326530612244898,0.11904761904761904,0.10884353741496598,0.10204081632653061,0.09523809523809523,0.08843537414965986,0.0782312925170068,0.06462585034013606,0.05442176870748299,0.047619047619047616,0.047619047619047616,0.047619047619047616,0.047619047619047616,0.047619047619047616,0.047619047619047616,0.047619047619047616,0.047619047619047616,0.04421768707482993,0.04081632653061224,0.04081632653061224,0.04081632653061224,0.04081632653061224,0.04081632653061224,0.04081632653061224,0.03741496598639456,0.034013605442176874,0.027210884353741496,0.027210884353741496,0.02040816326530612,0.013605442176870748,0.006802721088435374,0.003401360544217687,0,0,0,0,0,0,0,0,0,0,0,0,0,0.003401360544217687,0.04081632653061224,0.07142857142857142,0.08503401360544217,0.08503401360544217,0.07142857142857142,0.04081632653061224,0.027210884353741496,0.017006802721088437,0.017006802721088437,0.017006802721088437,0.017006802721088437,0.017006802721088437,0.017006802721088437,0.017006802721088437,0.017006802721088437,0.017006802721088437,0.017006802721088437,0.017006802721088437,0.017006802721088437,0.017006802721088437,0.017006802721088437,0.017006802721088437,0.017006802721088437,0.017006802721088437,0.017006802721088437,0.017006802721088437,0.017006802721088437,0.017006802721088437,0.017006802721088437,0.013605442176870748,0.013605442176870748,0.013605442176870748,0.01020408163265306,0.006802721088435374,0.003401360544217687,0.003401360544217687,0,0,-0.003401360544217687,-0.006802721088435374,-0.006802721088435374,-0.006802721088435374,-0.01020408163265306,-0.01020408163265306,-0.013605442176870748,-0.013605442176870748,-0.017006802721088437,-0.027210884353741496,-0.030612244897959183,-0.04081632653061224,-0.047619047619047616,-0.05442176870748299,-0.05782312925170068,-0.06462585034013606,-0.06802721088435375,-0.07142857142857142,-0.07482993197278912,-0.0782312925170068,-0.0782312925170068,-0.08163265306122448,-0.08163265306122448,-0.08163265306122448,-0.08163265306122448,-0.08163265306122448,-0.08163265306122448,-0.08163265306122448,-0.08163265306122448,-0.08163265306122448,-0.08163265306122448,-0.08163265306122448,-0.08163265306122448,-0.08163265306122448,-0.08163265306122448,-0.08163265306122448,-0.08163265306122448,-0.08163265306122448,-0.08163265306122448,-0.08163265306122448,-0.08163265306122448,-0.08163265306122448,-0.08163265306122448,-0.08163265306122448,-0.08163265306122448,-0.08163265306122448,-0.08163265306122448,-0.08163265306122448,-0.08163265306122448,-0.08163265306122448,-0.08163265306122448,-0.08163265306122448,-0.08163265306122448,-0.08163265306122448,-0.08163265306122448,-0.08163265306122448,-0.08163265306122448,-0.08163265306122448,-0.08163265306122448,-0.08163265306122448,-0.08163265306122448,-0.08163265306122448,-0.08163265306122448,-0.08163265306122448,-0.08163265306122448,-0.08163265306122448,-0.08163265306122448,-0.08163265306122448,-0.08163265306122448,-0.08163265306122448,-0.08163265306122448,-0.08163265306122448,-0.08163265306122448,-0.08163265306122448,-0.08163265306122448,-0.08163265306122448,-0.08163265306122448,-0.08163265306122448,-0.08163265306122448,-0.027210884353741496,0.05442176870748299,0.17687074829931973,0.29591836734693877,0.3741496598639456,0.41836734693877553,0.4421768707482993,0.45918367346938777,0.46938775510204084,0.47619047619047616,0.48299319727891155,0.48299319727891155,0.4897959183673469,0.4897959183673469,0.4931972789115646,0.5,0.5034013605442177,0.5034013605442177,0.5068027210884354,0.5136054421768708,0.5170068027210885,0.5238095238095238,0.5306122448979592,0.5374149659863946,0.54421768707483,0.5510204081632653,0.5680272108843537,0.5850340136054422,0.6122448979591837,0.6360544217687075,0.6530612244897959,0.6632653061224489,0.6666666666666666,0.6666666666666666,0.6666666666666666,0.6666666666666666,0.6666666666666666,0.6666666666666666,0.6666666666666666,0.6666666666666666,0.6666666666666666,0.6666666666666666,0.6666666666666666,0.6666666666666666,0.6666666666666666,0.6666666666666666,0.6666666666666666,0.6666666666666666,0.6666666666666666,0.6666666666666666,0.6666666666666666,0.6666666666666666,0.6666666666666666,0.6666666666666666,0.6666666666666666,0.6666666666666666,0.6666666666666666,0.6666666666666666,0.6666666666666666,0.6666666666666666,0.6666666666666666,0.6666666666666666,0.6666666666666666,0.6666666666666666,0.6666666666666666,0.6666666666666666,0.6666666666666666,0.6666666666666666,0.6666666666666666,0.6666666666666666,0.6666666666666666,0.6666666666666666,0.6666666666666666,0.673469387755102,0.6904761904761905,0.7074829931972789,0.7312925170068028,0.7448979591836735,0.7517006802721088,0.7585034013605442,0.7687074829931972,0.7891156462585034,0.8027210884353742,0.8095238095238095,0.8163265306122449,0.8163265306122449,0.8163265306122449,0.8163265306122449,0.8163265306122449,0.8163265306122449,0.8163265306122449,0.8163265306122449,0.8163265306122449,0.8163265306122449,0.8299319727891157,0.8435374149659864,0.8571428571428571,0.8741496598639455,0.8843537414965986,0.8945578231292517,0.8979591836734694,0.9047619047619048,0.9115646258503401,0.9115646258503401,0.9183673469387755,0.9251700680272109,0.9285714285714286,0.935374149659864,0.9387755102040817,0.9387755102040817,0.9455782312925171,0.9523809523809523,0.95578231292517,0.9659863945578231,0.9693877551020408,0.9727891156462585,0.9795918367346939,0.9795918367346939,0.9795918367346939,0.9795918367346939,0.9795918367346939,0.9795918367346939,0.9795918367346939,0.9795918367346939,0.9795918367346939,0.9795918367346939,0.9795918367346939,0.9795918367346939,0.9795918367346939,0.9795918367346939,0.9795918367346939,0.9795918367346939,0.9795918367346939,0.9795918367346939,0.9795918367346939,0.9795918367346939,0.9795918367346939,0.9795918367346939,0.9795918367346939,0.9795918367346939,0.9795918367346939,0.9795918367346939,0.9795918367346939,0.9795918367346939,0.9795918367346939,0.9795918367346939,0.9795918367346939,0.9795918367346939,0.9795918367346939,0.9795918367346939,0.9795918367346939,0.9795918367346939,0.9795918367346939,0.9795918367346939,0.9727891156462585,0.9659863945578231,0.9591836734693877,0.9523809523809523,0.9387755102040817,0.9251700680272109,0.9047619047619048,0.8707482993197279,0.8367346938775511,0.8027210884353742,0.7551020408163265,0.7040816326530612,0.6632653061224489,0.6122448979591837,0.5714285714285714,0.5238095238095238,0.4965986394557823,0.46258503401360546,0.4421768707482993,0.42857142857142855,0.41496598639455784,0.4013605442176871,0.3945578231292517,0.391156462585034,0.391156462585034,0.391156462585034,0.391156462585034,0.391156462585034,0.391156462585034,0.391156462585034,0.391156462585034,0.391156462585034,0.391156462585034,0.391156462585034,0.391156462585034,0.391156462585034,0.391156462585034,0.391156462585034,0.391156462585034,0.391156462585034,0.391156462585034,0.391156462585034,0.391156462585034,0.391156462585034,0.391156462585034,0.391156462585034,0.391156462585034,0.391156462585034,0.391156462585034,0.391156462585034,0.391156462585034,0.391156462585034,0.391156462585034,0.391156462585034,0.391156462585034,0.391156462585034,0.391156462585034,0.391156462585034,0.391156462585034,0.391156462585034,0.391156462585034,0.391156462585034,0.391156462585034,0.391156462585034,0.391156462585034,0.391156462585034,0.391156462585034,0.391156462585034,0.391156462585034,0.391156462585034,0.391156462585034,0.391156462585034,0.391156462585034,0.391156462585034,0.391156462585034,0.391156462585034,0.391156462585034,0.391156462585034,0.391156462585034,0.391156462585034,0.391156462585034,0.391156462585034,0.391156462585034,0.391156462585034,0.391156462585034,0.391156462585034,0.391156462585034,0.391156462585034,0.391156462585034,0.391156462585034,0.391156462585034,0.391156462585034,0.391156462585034,0.391156462585034,0.391156462585034,0.391156462585034,0.391156462585034,0.391156462585034,0.391156462585034,0.391156462585034,0.391156462585034,0.391156462585034,0.391156462585034,0.391156462585034,0.391156462585034,0.391156462585034,0.391156462585034,0.391156462585034,0.3877551020408163,0.37755102040816324,0.3673469387755102,0.35374149659863946,0.3401360544217687,0.32653061224489793,0.3129251700680272,0.30272108843537415,0.2891156462585034,0.2789115646258503,0.272108843537415,0.2619047619047619,0.2585034013605442,0.2585034013605442,0.2585034013605442,0.25510204081632654,0.25510204081632654,0.25510204081632654,0.25170068027210885,0.24489795918367346,0.24489795918367346,0.24489795918367346,0.24149659863945577,0.24149659863945577,0.24149659863945577,0.24149659863945577,0.24149659863945577,0.24149659863945577,0.24149659863945577,0.24149659863945577,0.24149659863945577,0.24149659863945577,0.24149659863945577,0.24149659863945577,0.24149659863945577,0.24149659863945577,0.24149659863945577,0.24149659863945577,0.24149659863945577,0.24149659863945577,0.24149659863945577,0.24149659863945577,0.24149659863945577,0.24149659863945577,0.24149659863945577,0.24149659863945577,0.24149659863945577,0.24149659863945577,0.24149659863945577,0.24149659863945577,0.24149659863945577,0.24149659863945577,0.24149659863945577,0.24149659863945577,0.24149659863945577,0.24149659863945577,0.24149659863945577,0.24149659863945577,0.24149659863945577,0.24149659863945577,0.24149659863945577,0.24149659863945577,0.24149659863945577,0.24149659863945577,0.24149659863945577,0.24149659863945577,0.24149659863945577,0.24149659863945577,0.24149659863945577,0.24149659863945577,0.24149659863945577,0.24149659863945577,0.24149659863945577,0.24149659863945577,0.24149659863945577,0.24149659863945577,0.24149659863945577,0.24149659863945577,0.24149659863945577,0.24149659863945577,0.24149659863945577,0.24149659863945577,0.24149659863945577,0.24149659863945577,0.24149659863945577,0.24149659863945577,0.24149659863945577,0.24149659863945577,0.24149659863945577,0.24149659863945577,0.24149659863945577,0.24149659863945577,0.24149659863945577,0.24149659863945577,0.24149659863945577,0.24149659863945577,0.24149659863945577,0.24149659863945577,0.24149659863945577,0.24149659863945577,0.24149659863945577,0.24149659863945577,0.24149659863945577,0.24149659863945577,0.24149659863945577,0.24149659863945577,0.24149659863945577,0.24149659863945577,0.24149659863945577,0.24149659863945577,0.24149659863945577,0.24149659863945577,0.24149659863945577,0.23809523809523808,0.22108843537414966,0.20068027210884354,0.1836734693877551,0.16666666666666666,0.14965986394557823,0.1326530612244898,0.12244897959183673,0.12244897959183673,0.11564625850340136,0.11564625850340136,0.11564625850340136,0.11564625850340136,0.11564625850340136,0.11564625850340136,0.11564625850340136,0.11564625850340136,0.11564625850340136,0.11564625850340136,0.11564625850340136,0.11564625850340136,0.11564625850340136,0.11564625850340136,0.11564625850340136,0.11564625850340136,0.11564625850340136,0.11564625850340136,0.11564625850340136,0.11564625850340136,0.11564625850340136,0.11564625850340136,0.11564625850340136,0.11564625850340136,0.11564625850340136,0.11564625850340136,0.11564625850340136,0.11564625850340136,0.11564625850340136,0.11564625850340136,0.11564625850340136,0.11564625850340136,0.11564625850340136,0.11564625850340136,0.11564625850340136,0.11564625850340136,0.11564625850340136,0.11564625850340136,0.11564625850340136,0.11564625850340136,0.11564625850340136,0.11564625850340136,0.11564625850340136,0.11564625850340136,0.11564625850340136,0.11564625850340136,0.11564625850340136,0.11564625850340136,0.11564625850340136,0.11564625850340136,0.11564625850340136,0.11564625850340136,0.11564625850340136,0.11564625850340136,0.11564625850340136,0.11564625850340136,0.11564625850340136,0.11564625850340136,0.11564625850340136,0.11564625850340136,0.11564625850340136,0.11564625850340136,0.11564625850340136,0.11564625850340136,0.11564625850340136,0.11564625850340136,0.11564625850340136,0.11564625850340136,0.11904761904761904,0.11904761904761904,0.12585034013605442,0.14625850340136054,0.17687074829931973,0.21768707482993196,0.2585034013605442,0.29931972789115646,0.336734693877551,0.3707482993197279,0.40816326530612246,0.43537414965986393,0.445578231292517,0.4489795918367347,0.4523809523809524,0.46258503401360546,0.46258503401360546,0.46258503401360546,0.46258503401360546,0.46258503401360546,0.46258503401360546,0.46258503401360546,0.46258503401360546,0.46258503401360546,0.46258503401360546,0.46258503401360546,0.46258503401360546,0.46258503401360546,0.46258503401360546,0.46258503401360546,0.46258503401360546,0.46258503401360546,0.46258503401360546,0.46258503401360546,0.46258503401360546,0.46258503401360546,0.46258503401360546,0.46258503401360546,0.46258503401360546,0.46258503401360546,0.4523809523809524,0.445578231292517,0.43537414965986393,0.42517006802721086,0.41836734693877553,0.41496598639455784,0.41496598639455784,0.41496598639455784,0.41496598639455784,0.41496598639455784,0.41496598639455784,0.41496598639455784,0.41496598639455784,0.41496598639455784,0.41496598639455784,0.41496598639455784,0.41496598639455784,0.41496598639455784,0.41496598639455784,0.41496598639455784,0.41496598639455784,0.41496598639455784,0.41496598639455784,0.41496598639455784,0.41496598639455784,0.41496598639455784,0.41496598639455784,0.41496598639455784,0.41496598639455784,0.41496598639455784,0.41496598639455784,0.41496598639455784,0.41496598639455784,0.41496598639455784,0.41496598639455784,0.41496598639455784,0.41496598639455784,0.41496598639455784,0.41496598639455784,0.41496598639455784,0.41496598639455784,0.41496598639455784,0.41496598639455784,0.41496598639455784,0.41496598639455784,0.41496598639455784,0.41496598639455784,0.41496598639455784,0.41496598639455784,0.41496598639455784,0.41496598639455784,0.41496598639455784,0.41496598639455784,0.41496598639455784,0.41496598639455784,0.41496598639455784,0.41496598639455784,0.41496598639455784,0.41496598639455784,0.41496598639455784,0.41496598639455784,0.41496598639455784,0.41496598639455784,0.41496598639455784,0.41496598639455784,0.41496598639455784,0.41496598639455784,0.41496598639455784,0.41496598639455784,0.41496598639455784,0.41496598639455784,0.41496598639455784,0.41496598639455784,0.41496598639455784,0.41496598639455784,0.41496598639455784,0.41496598639455784,0.41496598639455784,0.41496598639455784,0.41496598639455784,0.41496598639455784,0.41496598639455784,0.41496598639455784,0.41496598639455784,0.41496598639455784,0.41496598639455784,0.41496598639455784,0.41496598639455784,0.41496598639455784,0.41496598639455784,0.41496598639455784,0.41496598639455784,0.41496598639455784,0.41496598639455784,0.41496598639455784,0.41496598639455784,0.41496598639455784,0.41496598639455784,0.41496598639455784,0.41496598639455784,0.41496598639455784,0.41496598639455784,0.41496598639455784,0.42517006802721086,0.5170068027210885,0.6292517006802721,0.717687074829932,0.7482993197278912,0.7448979591836735,0.7244897959183674,0.7142857142857143,0.7074829931972789,0.7074829931972789,0.7074829931972789,0.7074829931972789,0.7074829931972789,0.7074829931972789,0.7074829931972789,0.7074829931972789,0.7040816326530612,0.6938775510204082,0.6938775510204082,0.673469387755102,0.6122448979591837,0.5340136054421769,0.46258503401360546,0.41836734693877553,0.3877551020408163,0.3707482993197279,0.35374149659863946,0.3401360544217687,0.3333333333333333,0.32653061224489793,0.32653061224489793,0.3231292517006803,0.3231292517006803,0.3231292517006803,0.3231292517006803,0.3197278911564626,0.3129251700680272,0.30952380952380953,0.30612244897959184,0.29931972789115646,0.29931972789115646,0.2925170068027211,0.2925170068027211,0.2857142857142857,0.282312925170068,0.2789115646258503,0.272108843537415,0.272108843537415,0.272108843537415,0.272108843537415,0.272108843537415,0.272108843537415,0.272108843537415,0.272108843537415,0.272108843537415,0.272108843537415,0.2687074829931973,0.2687074829931973,0.2687074829931973,0.2687074829931973,0.2687074829931973,0.2687074829931973,0.2687074829931973,0.2687074829931973,0.2687074829931973,0.2687074829931973,0.2687074829931973,0.2687074829931973,0.2687074829931973,0.2653061224489796,0.2653061224489796,0.2653061224489796,0.2653061224489796,0.2653061224489796,0.2585034013605442,0.25510204081632654,0.24489795918367346,0.24149659863945577,0.23469387755102042,0.23129251700680273,0.23129251700680273,0.22789115646258504,0.22789115646258504,0.21768707482993196,0.21428571428571427,0.20408163265306123,0.19047619047619047,0.18027210884353742,0.17346938775510204,0.16326530612244897,0.16326530612244897,0.16326530612244897,0.16326530612244897,0.1598639455782313,0.1598639455782313,0.1598639455782313,0.1598639455782313,0.1598639455782313,0.1598639455782313,0.1598639455782313,0.1598639455782313,0.1598639455782313,0.1598639455782313,0.1598639455782313,0.1836734693877551,0.2619047619047619,0.35034013605442177,0.43197278911564624,0.4965986394557823,0.5170068027210885,0.5238095238095238,0.5238095238095238,0.5238095238095238,0.5238095238095238,0.5238095238095238,0.5238095238095238,0.5238095238095238,0.5238095238095238,0.5238095238095238,0.5238095238095238,0.5272108843537415,0.5306122448979592,0.5306122448979592,0.5306122448979592,0.5272108843537415,0.5136054421768708,0.4965986394557823,0.48299319727891155,0.46258503401360546,0.4489795918367347,0.42857142857142855,0.40816326530612246,0.38095238095238093,0.36394557823129253,0.35034013605442177,0.336734693877551,0.3299319727891156,0.3231292517006803,0.3197278911564626,0.3129251700680272,0.30952380952380953,0.30612244897959184,0.30272108843537415,0.29931972789115646,0.29931972789115646,0.29931972789115646,0.29931972789115646,0.29931972789115646,0.29931972789115646,0.29931972789115646,0.29931972789115646,0.29931972789115646,0.29931972789115646,0.29931972789115646,0.29931972789115646,0.29931972789115646,0.29931972789115646,0.29931972789115646,0.29931972789115646,0.29931972789115646,0.29931972789115646,0.29931972789115646,0.29931972789115646,0.29931972789115646,0.29931972789115646,0.29931972789115646,0.29931972789115646,0.29931972789115646,0.29931972789115646,0.29931972789115646,0.29591836734693877,0.29931972789115646,0.30612244897959184,0.3129251700680272,0.3231292517006803,0.32653061224489793,0.3299319727891156,0.3333333333333333,0.336734693877551,0.3401360544217687,0.3401360544217687,0.3401360544217687,0.3401360544217687,0.3401360544217687,0.3401360544217687,0.3401360544217687,0.3401360544217687,0.3401360544217687,0.3401360544217687,0.336734693877551,0.336734693877551,0.3333333333333333,0.32653061224489793,0.32653061224489793,0.32653061224489793,0.32653061224489793,0.3231292517006803,0.3231292517006803,0.3231292517006803,0.3333333333333333,0.35374149659863946,0.40476190476190477,0.46598639455782315,0.5340136054421769,0.6156462585034014,0.6802721088435374,0.7210884353741497,0.7448979591836735,0.7619047619047619,0.7687074829931972,0.7721088435374149,0.7721088435374149,0.7721088435374149,0.7721088435374149,0.7721088435374149,0.7721088435374149,0.7721088435374149,0.7721088435374149,0.7721088435374149,0.7721088435374149,0.7721088435374149,0.7721088435374149,0.7755102040816326,0.7755102040816326,0.7755102040816326,0.7755102040816326,0.7755102040816326,0.7755102040816326,0.7789115646258503,0.7789115646258503,0.7789115646258503,0.7789115646258503,0.7789115646258503,0.7789115646258503,0.7789115646258503,0.7789115646258503,0.7789115646258503,0.7789115646258503,0.7789115646258503,0.7789115646258503,0.7789115646258503,0.7789115646258503,0.7789115646258503,0.7755102040816326,0.7755102040816326,0.7755102040816326,0.7755102040816326,0.7755102040816326,0.7755102040816326,0.7755102040816326,0.7755102040816326,0.7755102040816326,0.7755102040816326,0.7755102040816326,0.7755102040816326,0.7755102040816326,0.7755102040816326,0.7755102040816326,0.7755102040816326,0.7755102040816326,0.7755102040816326,0.7755102040816326,0.7755102040816326,0.7755102040816326,0.7755102040816326,0.7755102040816326,0.7755102040816326,0.7755102040816326,0.7755102040816326,0.7755102040816326,0.7755102040816326,0.7755102040816326,0.7755102040816326,0.7755102040816326,0.7755102040816326,0.7755102040816326,0.7755102040816326,0.7755102040816326,0.7755102040816326,0.7755102040816326,0.7755102040816326,0.7755102040816326,0.7755102040816326,0.7755102040816326,0.7755102040816326,0.7755102040816326,0.7755102040816326,0.7755102040816326,0.7755102040816326,0.7755102040816326,0.7755102040816326,0.7755102040816326,0.7755102040816326,0.7755102040816326,0.7755102040816326,0.7755102040816326,0.7755102040816326,0.7755102040816326,0.7755102040816326,0.7755102040816326,0.7755102040816326,0.7755102040816326,0.7755102040816326,0.7755102040816326,0.7755102040816326,0.7755102040816326,0.7755102040816326,0.7755102040816326,0.7755102040816326,0.7755102040816326,0.7755102040816326,0.7755102040816326,0.7755102040816326,0.7755102040816326,0.7755102040816326,0.7755102040816326,0.7755102040816326,0.7755102040816326,0.7755102040816326,0.7755102040816326,0.7755102040816326,0.7755102040816326,0.7755102040816326,0.7755102040816326,0.7755102040816326,0.7755102040816326,0.7755102040816326,0.7755102040816326,0.7755102040816326,0.7755102040816326,0.7721088435374149,0.7721088435374149,0.7687074829931972,0.7653061224489796,0.7653061224489796,0.7653061224489796,0.7619047619047619,0.7619047619047619,0.7619047619047619,0.7619047619047619,0.7619047619047619,0.7619047619047619,0.7619047619047619,0.7619047619047619,0.7619047619047619,0.7619047619047619,0.7619047619047619,0.7619047619047619,0.7619047619047619,0.7619047619047619,0.7619047619047619,0.7619047619047619,0.7619047619047619,0.7619047619047619,0.7619047619047619,0.7619047619047619,0.7619047619047619,0.7619047619047619,0.7619047619047619,0.7619047619047619,0.7619047619047619,0.7619047619047619,0.7619047619047619,0.7619047619047619,0.7619047619047619,0.7619047619047619,0.7619047619047619,0.7619047619047619,0.7551020408163265,0.7414965986394558,0.7312925170068028,0.7210884353741497,0.7074829931972789,0.6972789115646258,0.6904761904761905,0.6836734693877551,0.6802721088435374,0.673469387755102,0.673469387755102,0.673469387755102,0.673469387755102,0.673469387755102,0.673469387755102,0.673469387755102,0.673469387755102,0.673469387755102,0.673469387755102,0.673469387755102,0.673469387755102,0.673469387755102,0.673469387755102,0.673469387755102,0.673469387755102,0.673469387755102,0.673469387755102,0.673469387755102,0.673469387755102,0.673469387755102,0.673469387755102,0.673469387755102,0.673469387755102,0.673469387755102,0.673469387755102,0.673469387755102,0.673469387755102,0.673469387755102,0.673469387755102,0.673469387755102,0.673469387755102,0.673469387755102,0.673469387755102,0.673469387755102,0.673469387755102,0.673469387755102,0.673469387755102,0.6802721088435374,0.7517006802721088,0.8163265306122449,0.8163265306122449,0.8163265306122449,0.8163265306122449,0.8163265306122449,0.8163265306122449,0.8163265306122449,0.8163265306122449,0.8163265306122449,0.8163265306122449,0.8163265306122449,0.8163265306122449,0.7653061224489796,0.7346938775510204,0.7346938775510204,0.7346938775510204,0.7346938775510204,0.7210884353741497,0.6938775510204082,0.6598639455782312,0.6394557823129252,0.6258503401360545,0.6054421768707483,0.5850340136054422,0.5748299319727891,0.564625850340136,0.5612244897959183,0.5544217687074829,0.5510204081632653,0.5476190476190477,0.54421768707483,0.5408163265306123,0.5374149659863946,0.5306122448979592,0.5272108843537415,0.5272108843537415,0.5238095238095238,0.5238095238095238,0.5238095238095238,0.5238095238095238,0.5238095238095238,0.5238095238095238,0.5238095238095238,0.5238095238095238,0.5238095238095238,0.5238095238095238,0.5238095238095238,0.5238095238095238,0.5238095238095238,0.5238095238095238,0.5238095238095238,0.5238095238095238,0.5238095238095238,0.5238095238095238,0.5238095238095238,0.5238095238095238,0.5238095238095238,0.5238095238095238,0.5238095238095238,0.5238095238095238,0.5238095238095238,0.5238095238095238,0.5238095238095238,0.5238095238095238,0.5238095238095238,0.5238095238095238,0.5238095238095238,0.5238095238095238,0.5238095238095238,0.5238095238095238,0.5238095238095238,0.5238095238095238,0.5238095238095238,0.5238095238095238,0.5238095238095238,0.5238095238095238,0.5238095238095238,0.5238095238095238,0.5238095238095238,0.5238095238095238,0.5238095238095238,0.5238095238095238,0.5238095238095238,0.5238095238095238,0.5238095238095238,0.5238095238095238,0.5238095238095238,0.5238095238095238,0.5238095238095238,0.5238095238095238,0.5238095238095238,0.5238095238095238,0.5238095238095238,0.5238095238095238,0.5238095238095238,0.5238095238095238,0.5238095238095238,0.5238095238095238,0.5238095238095238,0.5238095238095238,0.5238095238095238,0.5238095238095238,0.5238095238095238,0.5238095238095238,0.5238095238095238,0.5238095238095238,0.5238095238095238,0.5238095238095238,0.5238095238095238,0.5238095238095238,0.5238095238095238,0.5238095238095238,0.5238095238095238,0.5238095238095238,0.5238095238095238,0.5238095238095238,0.5238095238095238,0.5238095238095238,0.5238095238095238,0.5238095238095238,0.5238095238095238,0.5238095238095238,0.5238095238095238,0.5238095238095238,0.5238095238095238,0.5238095238095238,0.5238095238095238,0.5238095238095238,0.5238095238095238,0.5238095238095238,0.5238095238095238,0.5238095238095238,0.5238095238095238,0.5238095238095238,0.5238095238095238,0.5238095238095238,0.5238095238095238,0.5238095238095238,0.5238095238095238,0.5238095238095238,0.5238095238095238,0.5238095238095238,0.5238095238095238,0.5238095238095238,0.5238095238095238,0.5238095238095238,0.5238095238095238,0.5238095238095238,0.5238095238095238,0.5238095238095238,0.5170068027210885,0.5170068027210885,0.5170068027210885,0.5170068027210885,0.5170068027210885,0.5170068027210885,0.5170068027210885,0.5238095238095238,0.5238095238095238,0.5306122448979592,0.5306122448979592,0.5306122448979592,0.5306122448979592,0.5306122448979592,0.5306122448979592,0.5306122448979592,0.5306122448979592,0.5306122448979592,0.5306122448979592,0.5306122448979592,0.5306122448979592,0.5306122448979592,0.5306122448979592,0.5306122448979592,0.5306122448979592,0.5306122448979592,0.5306122448979592,0.5306122448979592,0.5306122448979592,0.5306122448979592,0.5306122448979592,0.5136054421768708,0.48639455782312924,0.4557823129251701,0.42517006802721086,0.3979591836734694,0.37755102040816324,0.35374149659863946,0.3401360544217687,0.32653061224489793,0.3197278911564626,0.3129251700680272,0.30612244897959184,0.30612244897959184,0.30612244897959184,0.30612244897959184,0.30612244897959184,0.30612244897959184,0.30612244897959184,0.29931972789115646,0.2925170068027211,0.2925170068027211,0.2857142857142857,0.2857142857142857,0.282312925170068,0.2755102040816326,0.2755102040816326,0.272108843537415,0.2687074829931973,0.2687074829931973,0.2687074829931973,0.2585034013605442,0.2585034013605442,0.25510204081632654,0.25510204081632654,0.25510204081632654,0.25510204081632654,0.25170068027210885,0.25170068027210885,0.25170068027210885,0.25170068027210885,0.25170068027210885,0.25170068027210885,0.25170068027210885,0.25170068027210885,0.25170068027210885,0.25170068027210885,0.25170068027210885,0.25170068027210885,0.25170068027210885,0.25170068027210885,0.25170068027210885,0.25170068027210885,0.25170068027210885,0.25170068027210885,0.25170068027210885,0.25170068027210885,0.25170068027210885,0.25170068027210885,0.25170068027210885,0.25170068027210885,0.25170068027210885,0.25170068027210885,0.25170068027210885,0.25170068027210885,0.25170068027210885,0.25170068027210885,0.25170068027210885,0.25170068027210885,0.25170068027210885,0.25170068027210885,0.25170068027210885,0.25170068027210885,0.25170068027210885,0.25170068027210885,0.25170068027210885,0.25170068027210885,0.25170068027210885,0.25170068027210885,0.25170068027210885,0.25170068027210885,0.25170068027210885,0.25170068027210885,0.25510204081632654,0.272108843537415,0.30952380952380953,0.3435374149659864,0.38095238095238093,0.41496598639455784,0.4421768707482993,0.445578231292517,0.445578231292517,0.445578231292517,0.445578231292517,0.445578231292517,0.445578231292517,0.445578231292517,0.445578231292517,0.445578231292517,0.445578231292517,0.445578231292517,0.445578231292517,0.4489795918367347,0.4557823129251701,0.45918367346938777,0.46258503401360546,0.4489795918367347,0.4387755102040816,0.4217687074829932,0.40816326530612246,0.3945578231292517,0.38095238095238093,0.38095238095238093,0.37755102040816324,0.3741496598639456,0.3673469387755102,0.3673469387755102,0.3673469387755102,0.36394557823129253,0.36394557823129253,0.36054421768707484,0.36054421768707484,0.36054421768707484,0.36054421768707484,0.36054421768707484,0.36054421768707484,0.36054421768707484,0.36054421768707484,0.36054421768707484,0.36054421768707484,0.36054421768707484,0.36394557823129253,0.3673469387755102,0.3707482993197279,0.37755102040816324,0.37755102040816324,0.38095238095238093,0.3843537414965986,0.3945578231292517,0.40476190476190477,0.41496598639455784,0.42517006802721086,0.43537414965986393,0.4489795918367347,0.46938775510204084,0.47959183673469385,0.4897959183673469,0.4931972789115646,0.5034013605442177,0.5136054421768708,0.5272108843537415,0.5408163265306123,0.5476190476190477,0.5578231292517006,0.5578231292517006,0.564625850340136,0.5714285714285714,0.5748299319727891,0.5782312925170068,0.5782312925170068,0.5782312925170068,0.5782312925170068,0.5782312925170068,0.5782312925170068,0.5782312925170068,0.5782312925170068,0.5782312925170068,0.5782312925170068,0.5782312925170068,0.5782312925170068,0.5782312925170068,0.5782312925170068,0.5782312925170068,0.5782312925170068,0.5782312925170068,0.5782312925170068,0.5782312925170068,0.5748299319727891,0.5816326530612245,0.5952380952380952,0.6224489795918368,0.6394557823129252,0.6530612244897959,0.6666666666666666,0.673469387755102,0.673469387755102,0.673469387755102,0.673469387755102,0.673469387755102,0.673469387755102,0.673469387755102,0.673469387755102,0.673469387755102,0.673469387755102,0.673469387755102,0.6700680272108843,0.6666666666666666,0.6564625850340136,0.6394557823129252,0.6224489795918368,0.6020408163265306,0.5714285714285714,0.5374149659863946,0.5,0.46258503401360546,0.42517006802721086,0.3945578231292517,0.3673469387755102,0.35034013605442177,0.336734693877551,0.3163265306122449,0.29591836734693877,0.272108843537415,0.24489795918367346,0.22448979591836735,0.20068027210884354,0.17687074829931973,0.15306122448979592,0.1360544217687075,0.12585034013605442,0.12244897959183673,0.11224489795918367,0.10884353741496598,0.09863945578231292,0.09523809523809523,0.09523809523809523,0.09523809523809523,0.09183673469387756,0.09183673469387756,0.08843537414965986,0.08503401360544217,0.08163265306122448,0.08163265306122448,0.0782312925170068,0.0782312925170068,0.0782312925170068,0.0782312925170068,0.0782312925170068,0.0782312925170068,0.08163265306122448,0.08503401360544217,0.08503401360544217,0.08503401360544217,0.08503401360544217,0.08503401360544217,0.08503401360544217,0.08503401360544217,0.08503401360544217,0.08503401360544217,0.08843537414965986,0.09523809523809523,0.1054421768707483,0.11224489795918367,0.12585034013605442,0.14625850340136054,0.17006802721088435,0.20408163265306123,0.2653061224489796,0.3435374149659864,0.4217687074829932,0.5068027210884354,0.5714285714285714,0.6394557823129252,0.6836734693877551,0.7210884353741497,0.7482993197278912,0.7619047619047619,0.7789115646258503,0.7925170068027211,0.8163265306122449,0.8367346938775511,0.8571428571428571,0.8707482993197279,0.8809523809523809,0.8877551020408163,0.8979591836734694,0.9115646258503401,0.9251700680272109,0.9387755102040817,0.9523809523809523,0.95578231292517,0.9625850340136054,0.9659863945578231,0.9693877551020408,0.9727891156462585,0.9761904761904762,0.9761904761904762,0.9795918367346939,0.9795918367346939,0.9795918367346939,0.9795918367346939,0.9795918367346939,0.9795918367346939,0.9761904761904762,0.9727891156462585,0.9727891156462585,0.9727891156462585,0.9727891156462585,0.9727891156462585,0.9727891156462585,0.9727891156462585,0.9727891156462585,0.9727891156462585,0.9761904761904762,0.9761904761904762,0.9761904761904762,0.9795918367346939,0.9795918367346939,0.9795918367346939,0.9795918367346939,0.9795918367346939,0.9795918367346939,0.9795918367346939,0.9795918367346939,0.9795918367346939,0.9795918367346939,0.9795918367346939,0.9795918367346939,0.9795918367346939,0.9795918367346939,0.9795918367346939,0.9897959183673469,0.9965986394557823,1.0034013605442176,1.0034013605442176,1.0034013605442176,1.0034013605442176,1.0034013605442176,1.0034013605442176,1.0034013605442176,1.0034013605442176,1.0034013605442176,1.0034013605442176,1.0034013605442176,1.0034013605442176,1.0034013605442176,1.0034013605442176,1.0034013605442176,1.0034013605442176,1.0034013605442176,1.0034013605442176,1.0034013605442176,1.0034013605442176,1.0034013605442176,1.0034013605442176,1.0034013605442176,1.0034013605442176,1.0034013605442176,1.0034013605442176,1.0034013605442176,1.0034013605442176,1.0034013605442176,1.0034013605442176,1.0034013605442176,1.0034013605442176,1.0034013605442176,1.0034013605442176,1.0034013605442176,1.0034013605442176,1.0034013605442176,1.0034013605442176,1.0034013605442176,1.0034013605442176,1.0034013605442176,1.0034013605442176,1.0034013605442176,1.0034013605442176,1.0034013605442176,1,0.9897959183673469,0.9795918367346939,0.9659863945578231,0.9489795918367347,0.9319727891156463,0.9149659863945578,0.8945578231292517,0.8639455782312925,0.8299319727891157,0.8027210884353742,0.782312925170068,0.7687074829931972,0.7551020408163265,0.7482993197278912,0.7448979591836735,0.7346938775510204,0.7312925170068028,0.7278911564625851,0.7210884353741497,0.7142857142857143,0.7040816326530612,0.6904761904761905,0.6802721088435374,0.6802721088435374,0.673469387755102,0.673469387755102,0.673469387755102,0.673469387755102,0.673469387755102,0.673469387755102,0.673469387755102,0.6802721088435374,0.6870748299319728,0.6938775510204082,0.6972789115646258,0.7074829931972789,0.7108843537414966,0.7210884353741497,0.7244897959183674,0.7278911564625851,0.7346938775510204,0.7448979591836735,0.7551020408163265,0.7653061224489796,0.7789115646258503,0.7993197278911565,0.8197278911564626,0.8435374149659864,0.8707482993197279,0.9013605442176871,0.9387755102040817,0.9659863945578231,0.9829931972789115,1.0034013605442176,1.0204081632653061,1.0374149659863945,1.0612244897959184,1.0748299319727892,1.0850340136054422,1.08843537414966,1.098639455782313,1.1020408163265305,1.1054421768707483,1.1156462585034013,1.1156462585034013,1.1224489795918366,1.1224489795918366,1.1224489795918366,1.1224489795918366,1.1224489795918366,1.1224489795918366,1.1224489795918366,1.1224489795918366,1.1224489795918366,1.129251700680272,1.129251700680272,1.129251700680272,1.129251700680272,1.129251700680272,1.129251700680272,1.129251700680272,1.129251700680272,1.129251700680272,1.129251700680272,1.129251700680272,1.129251700680272,1.129251700680272,1.1360544217687074,1.1904761904761905,1.3333333333333333,1.4319727891156462,1.489795918367347,1.5238095238095237,1.5374149659863945,1.5476190476190477,1.5510204081632653,1.5510204081632653,1.5510204081632653,1.5578231292517006,1.5612244897959184,1.564625850340136,1.564625850340136,1.564625850340136,1.564625850340136,1.564625850340136,1.564625850340136,1.564625850340136,1.564625850340136,1.554421768707483,1.5238095238095237,1.4625850340136055,1.346938775510204,1.153061224489796,0.9455782312925171,0.7074829931972789,0.4897959183673469,0.3163265306122449,0.20748299319727892,0.14965986394557823,0.10884353741496598,0.08163265306122448,0.047619047619047616,0.02040816326530612,-0.017006802721088437,-0.08163265306122448,-0.14965986394557823,-0.23129251700680273,-0.3129251700680272,-0.40476190476190477,-0.47619047619047616,-0.5680272108843537,-0.6394557823129252,-0.6972789115646258,-0.7551020408163265,-0.8061224489795918,-0.8435374149659864,-0.8673469387755102,-0.8843537414965986,-0.8945578231292517,-0.8979591836734694,-0.9081632653061225,-0.9217687074829932,-0.9251700680272109,-0.935374149659864,-0.9387755102040817,-0.9455782312925171,-0.9489795918367347,-0.9523809523809523,-0.9523809523809523,-0.95578231292517,-0.95578231292517,-0.9455782312925171,-0.9387755102040817,-0.9285714285714286,-0.9217687074829932,-0.9081632653061225,-0.8843537414965986,-0.8435374149659864,-0.7346938775510204,-0.46598639455782315,-0.41836734693877553,-0.41836734693877553,-0.41836734693877553,-0.41836734693877553,-0.41836734693877553,-0.41836734693877553,-0.41836734693877553,-0.41836734693877553,-0.41836734693877553,-0.46258503401360546,-0.48639455782312924,-0.48299319727891155,-0.47959183673469385,-0.47959183673469385,-0.47959183673469385,-0.47959183673469385,-0.47959183673469385,-0.47959183673469385,-0.47959183673469385,-0.47959183673469385,-0.47959183673469385,-0.47959183673469385,-0.47959183673469385,-0.47959183673469385,-0.47959183673469385,-0.47959183673469385,-0.47959183673469385,-0.47959183673469385,-0.47959183673469385,-0.47959183673469385,-0.47959183673469385,-0.47959183673469385,-0.47959183673469385,-0.47959183673469385,-0.47959183673469385,-0.47959183673469385,-0.47959183673469385,-0.47959183673469385,-0.47959183673469385,-0.47959183673469385,-0.48299319727891155,-0.48299319727891155,-0.48299319727891155,-0.48299319727891155,-0.48299319727891155,-0.48299319727891155,-0.48299319727891155,-0.48299319727891155,-0.48299319727891155,-0.48299319727891155,-0.48299319727891155,-0.48299319727891155,-0.48299319727891155,-0.48299319727891155,-0.48299319727891155,-0.48299319727891155,-0.48299319727891155,-0.48299319727891155,-0.48299319727891155,-0.48299319727891155,-0.48299319727891155,-0.48299319727891155,-0.48299319727891155,-0.48299319727891155,-0.48299319727891155,-0.48299319727891155,-0.48299319727891155,-0.48299319727891155,-0.48299319727891155],"y":[-3.4285714285714284,-3.4285714285714284,-3.4285714285714284,-3.4285714285714284,0.3952380952380952,0.2904761904761905,0.1380952380952381,-0.1190476190476190