[{"success":true,"trial_type":"fullscreen","trial_index":0,"time_elapsed":5366,"internal_node_id":"0.0-0.0","protocol_sum":"","subject_identifier":318,"subject_sum":[255,44,203,107,164,35,211,86,189,84,158,212,191,183,110,150,151,106,13,205,224,90,9,153,106,28,219,159,131,66,46,196],"subject_pair":159,"STUDY_ID":"66a0b3911f23dfc7665bb169","PROLIFIC_PID":"65df67249b9a26deefa58d75","SESSION_ID":"66a140430cb41d5d62d142ae","practice_instructions":1,"leaderboard_instructions":0,"bonus":0,"reveal_word":false,"self_rating":"3","confidence":"54"},{"view_history":"[{\"page_index\":0,\"viewing_time\":1473}]","rt":1473,"trial_type":"instructions","trial_index":1,"time_elapsed":6841,"internal_node_id":"0.0-1.0","protocol_sum":"","subject_identifier":318,"subject_sum":[255,44,203,107,164,35,211,86,189,84,158,212,191,183,110,150,151,106,13,205,224,90,9,153,106,28,219,159,131,66,46,196],"subject_pair":159,"STUDY_ID":"66a0b3911f23dfc7665bb169","PROLIFIC_PID":"65df67249b9a26deefa58d75","SESSION_ID":"66a140430cb41d5d62d142ae","practice_instructions":1,"leaderboard_instructions":0,"bonus":0,"reveal_word":false,"self_rating":"3","confidence":"54"},{"view_history":"[{\"page_index\":0,\"viewing_time\":5270}]","rt":5270,"trial_type":"instructions","trial_index":2,"time_elapsed":12113,"internal_node_id":"0.0-2.0-0.0","protocol_sum":"","subject_identifier":318,"subject_sum":[255,44,203,107,164,35,211,86,189,84,158,212,191,183,110,150,151,106,13,205,224,90,9,153,106,28,219,159,131,66,46,196],"subject_pair":159,"STUDY_ID":"66a0b3911f23dfc7665bb169","PROLIFIC_PID":"65df67249b9a26deefa58d75","SESSION_ID":"66a140430cb41d5d62d142ae","practice_instructions":1,"leaderboard_instructions":0,"bonus":0,"reveal_word":false,"self_rating":"3","confidence":"54"},{"rt":14016,"responses":"{\"Q0\":\"... reveal the word with as <b>few letter guesses</b> as possible\"}","question_order":"[0]","trial_type":"survey-multi-choice","trial_index":3,"time_elapsed":26131,"internal_node_id":"0.0-2.0-1.0","protocol_sum":"","subject_identifier":318,"subject_sum":[255,44,203,107,164,35,211,86,189,84,158,212,191,183,110,150,151,106,13,205,224,90,9,153,106,28,219,159,131,66,46,196],"subject_pair":159,"correct":true,"test_part":"multichoice_nonpretend","STUDY_ID":"66a0b3911f23dfc7665bb169","PROLIFIC_PID":"65df67249b9a26deefa58d75","SESSION_ID":"66a140430cb41d5d62d142ae","practice_instructions":1,"leaderboard_instructions":0,"bonus":0,"reveal_word":false,"self_rating":"3","confidence":"54"},{"view_history":"[{\"page_index\":0,\"viewing_time\":1645}]","rt":1645,"trial_type":"instructions","trial_index":4,"time_elapsed":27777,"internal_node_id":"0.0-3.0","protocol_sum":"","subject_identifier":318,"subject_sum":[255,44,203,107,164,35,211,86,189,84,158,212,191,183,110,150,151,106,13,205,224,90,9,153,106,28,219,159,131,66,46,196],"subject_pair":159,"STUDY_ID":"66a0b3911f23dfc7665bb169","PROLIFIC_PID":"65df67249b9a26deefa58d75","SESSION_ID":"66a140430cb41d5d62d142ae","practice_instructions":1,"leaderboard_instructions":0,"bonus":0,"reveal_word":false,"self_rating":"3","confidence":"54"},{"word":"ZEBRA","click_log":{"letter":["","H","M","A","S","T","O","E","C","D","F","R","L","U","V","W","B","Z"],"t":[0,5510,7573,13830,16414,17110,19142,21310,23401,24449,25822,27447,31911,32646,33462,33966,36071,37726],"hit":[null,0,0,1,0,0,0,1,0,0,0,1,0,0,0,0,1,1],"asked":["","H","HM","HMA","HMAS","HMAST","HMASTO","HMASTOE","HMASTOEC","HMASTOECD","HMASTOECDF","HMASTOECDFR","HMASTOECDFRL","HMASTOECDFRLU","HMASTOECDFRLUV","HMASTOECDFRLUVW","HMASTOECDFRLUVWB","HMASTOECDFRLUVWBZ"],"word_state":["_____","_____","_____","____A","____A","____A","____A","_E__A","_E__A","_E__A","_E__A","_E_RA","_E_RA","_E_RA","_E_RA","_E_RA","_EBRA","ZEBRA"]},"hover_log":{"letter":["?","J","J","J","J","J","J","J","?","?","?","?","?","?","?","?","?","?","?","?","?","?","?","?","?","?","?","?","?","?","?","?","?","?","?","?","?","?","?","?","?","?","?","?","?","?","?","?","?","?","?","?","?","?","?","?","?","?","?","?","?","?","?","?","?","?","?","?","?","?","?","?","?","J","?","A","A","A","?","?","?","?","?","?","?","?","?","?","?","?","?","?","?","?","?","?","?","?","?","?","?","?","?","?","?","?","?","?","?","?","?","?","?","B","B","B","B","?","?","?","?","?","?","?","?","?","?","?","?","?","?","B","B","B","B","B","B","B","B","B","B","B","B","B","B","B","B","B","B","B","B","B","B","B","B","B","B","B","B","B","B","B","B","B","B","B","B","B","B","B","B","B","B","B","B","B","B","B","B","B","B","B","B","B","B","B","B","B","B","B","B","B","B","B","B","B","B","B","B","B","B","B","B","B","B","B","B","B","B","B","B","B","B","B","B","B","B","B","B","B","B","B","B","B","B","B","B","B","B","B","B","B","B","B","B","B","B","B","B","B","B","B","B","B","B","B","B","B","B","?","?","?","?","L","L","L","L","?","?","?","?","?","?","?","?","?","M","M","M","?","?","?","N","N","N","N","N","N","N","N","?","?","?","?","?","?","?","?","?","G","G","G","G","G","G","G","G","G","G","G","G","G","G","?","?","H","H","H","H","H","H","H","H","H","H","H","H","H","H","H","H","H","H","H","H","H","H","H","H","H","H","H","H","H","H","H","H","H","?","?","?","?","?","?","?","?","?","?","?","?","?","?","?","?","?","?","?","?","?","?","?","?","?","?","?","?","?","?","?","?","?","?","?","?","?","?","?","?","?","?","?","?","?","?","?","?","?","?","?","?","?","?","?","?","?","?","?","?","?","?","?","?","?","?","?","?","?","?","?","?","?","?","?","?","?","?","?","?","?","?","?","?","?","O","O","O","O","O","O","O","O","?","N","N","N","N","N","?","?","M","M","M","M","M","M","M","M","M","M","M","M","M","M","M","M","M","M","M","M","M","M","M","M","M","M","M","M","M","M","M","M","M","M","M","M","M","M","M","M","M","M","M","M","M","M","M","M","M","M","M","M","M","M","M","M","M","M","M","M","M","M","M","M","M","M","M","M","M","M","M","M","M","M","M","M","M","M","M","M","M","M","M","M","M","M","M","M","M","M","M","M","M","M","M","M","M","M","M","M","M","M","M","M","M","?","?","?","N","N","N","N","?","?","?","?","O","O","O","O","O","O","O","O","O","O","O","O","O","O","O","O","O","O","O","O","O","O","O","O","O","O","O","O","O","O","O","O","O","O","O","O","O","O","O","O","O","O","O","O","O","O","O","O","O","O","O","O","O","O","O","O","O","O","O","O","O","O","O","O","O","O","?","?","?","?","?","?","?","?","?","?","?","?","?","?","?","?","D","D","D","D","D","?","?","?","?","?","?","?","?","?","?","?","?","?","?","?","?","?","?","?","?","?","?","?","?","?","?","?","?","?","?","?","?","?","?","?","?","?","?","?","?","?","?","?","?","?","?","?","?","?","?","?","?","?","?","?","?","?","?","?","?","?","?","?","?","?","?","?","?","?","?","?","?","?","?","?","?","?","?","?","?","?","?","?","?","?","?","C","C","C","C","C","C","C","C","C","C","C","C","C","C","C","C","C","C","B","B","B","B","B","B","B","B","B","B","B","B","B","B","B","B","B","B","B","B","B","B","B","B","B","B","B","B","B","B","B","B","B","B","B","B","B","B","B","B","B","B","B","B","B","B","B","B","B","B","B","B","B","B","B","B","B","B","B","B","B","B","?","?","A","A","A","A","A","A","A","A","A","A","A","A","A","A","A","A","A","A","A","A","A","A","A","A","A","A","A","A","A","A","A","A","A","?","?","?","K","K","K","K","?","?","?","?","U","U","?","V","V","?","W","W","?","?","X","X","X","X","X","X","X","X","X","X","X","X","X","X","X","X","X","X","X","?","?","?","?","Y","Y","Y","Y","Y","Y","Y","Y","Y","Y","Y","Y","Y","Y","Y","Y","Y","Y","Y","Y","Y","Y","Y","Y","Y","Y","?","X","X","X","X","X","X","X","X","X","X","X","?","?","?","W","W","W","V","V","V","U","U","U","U","U","U","U","U","?","T","T","T","T","T","T","T","T","T","T","T","T","T","T","T","T","T","T","T","T","T","T","T","T","T","T","T","T","?","?","S","S","S","S","S","S","S","S","S","S","S","S","S","S","S","S","S","S","S","S","S","S","?","?","T","T","T","T","T","T","T","T","T","T","T","T","T","T","T","T","T","T","T","T","T","T","T","T","T","T","T","T","T","T","T","T","T","T","T","T","T","T","T","T","T","T","T","T","T","T","T","T","T","T","T","T","T","T","T","T","T","T","T","T","T","T","T","?","U","U","U","U","U","U","U","U","U","U","U","U","U","U","U","U","U","U","U","U","U","U","U","U","U","U","U","U","U","U","U","U","?","V","V","V","V","V","V","V","V","?","?","?","?","?","?","?","?","?","?","V","V","W","?","?","?","?","?","P","P","P","P","P","P","P","P","P","P","P","P","P","P","P","?","O","O","O","O","O","O","O","O","O","O","O","O","O","O","O","O","O","O","O","O","O","O","O","O","O","O","O","O","O","O","O","O","O","O","O","O","O","O","O","O","O","O","O","O","O","O","O","O","O","O","O","O","O","O","O","O","O","O","O","O","O","O","?","P","P","P","P","P","P","P","P","P","?","?","?","Q","Q","Q","Q","Q","Q","Q","Q","Q","Q","Q","Q","Q","Q","Q","Q","Q","Q","Q","Q","Q","Q","Q","Q","Q","Q","Q","Q","Q","Q","Q","Q","Q","Q","?","?","?","?","?","?","?","?","F","?","?","?","?","?","?","?","?","?","?","?","?","E","E","E","E","E","E","E","E","E","E","E","E","E","E","E","E","E","E","E","E","E","E","E","E","E","E","E","E","E","E","E","?","?","?","?","?","?","?","?","?","?","?","?","?","?","?","?","?","?","?","?","?","?","?","?","?","?","?","?","?","?","?","?","?","?","?","?","?","?","D","D","D","D","D","D","D","D","D","D","D","D","D","D","D","D","D","D","D","D","D","D","D","D","D","D","D","D","D","D","D","D","D","D","D","D","D","D","D","D","D","D","D","D","D","D","D","D","D","D","D","D","?","?","?","C","C","C","C","C","C","C","C","C","C","C","C","C","C","C","C","C","C","C","C","C","C","C","C","C","C","C","C","?","?","?","?","D","D","D","D","D","D","D","D","D","D","D","D","D","D","D","D","D","D","D","D","D","D","D","D","D","D","D","D","D","D","D","D","D","D","D","D","D","D","D","D","D","D","D","D","D","D","D","D","D","D","D","D","D","D","D","D","D","D","D","D","D","D","D","D","D","D","D","D","D","D","D","D","D","D","D","?","?","?","?","?","?","?","?","?","?","?","?","?","?","?","?","?","?","?","?","?","?","F","F","F","F","?","?","?","?","?","?","?","?","?","?","?","?","?","?","F","F","F","F","F","F","F","F","F","F","F","F","F","F","F","F","F","F","F","F","F","F","?","?","?","?","?","?","?","?","?","?","?","F","F","F","F","F","F","F","F","F","F","F","F","F","F","F","F","?","?","?","?","?","?","?","?","?","O","O","O","O","O","O","O","O","O","O","?","?","?","?","?","?","P","P","P","P","P","P","P","P","P","?","Q","Q","Q","Q","Q","Q","Q","Q","Q","Q","Q","Q","?","R","R","R","R","R","R","R","R","R","R","R","R","R","R","R","R","R","R","?","?","?","?","Q","Q","Q","Q","Q","Q","?","?","?","?","?","?","?","?","?","?","?","?","?","?","?","?","?","Y","Y","Y","Y","Y","Y","Y","Y","Y","Y","Y","Y","Y","Y","Y","?","?","?","?","?","?","?","?","?","?","?","?","?","?","?","?","?","?","?","?","?","?","?","?","?","?","?","?","?","?","?","?","?","?","?","?","?","?","?","?","?","?","Y","Y","Y","Y","Y","Y","Y","Y","Y","Y","Y","Y","Y","Y","Y","Y","Y","Y","Y","Y","Y","Y","Y","Y","Y","Y","Y","Y","Y","Y","Y","Y","Y","Y","Y","Y","Y","Y","Y","Y","Y","Y","Y","Y","Y","Y","?","?","X","X","W","W","?","?","?","?","?","?","?","?","W","W","W","W","W","W","W","W","W","W","W","W","W","W","W","W","W","W","W","W","W","W","W","W","W","W","W","W","W","W","?","?","?","?","V","V","V","V","V","V","V","V","V","?","U","U","U","U","U","U","U","U","U","U","U","U","U","U","U","U","U","U","?","?","K","K","K","K","K","K","K","K","K","K","K","K","K","K","K","K","K","K","K","K","K","K","K","K","K","K","K","K","K","?","?","?","L","L","L","L","L","L","L","L","L","L","L","L","L","L","L","L","L","L","L","L","L","L","L","L","L","L","L","L","L","L","L","L","L","L","L","?","?","U","U","U","U","U","U","U","U","U","U","U","U","U","U","U","U","U","U","U","U","U","U","U","U","U","U","U","U","U","U","U","U","U","U","U","U","U","U","U","U","U","U","U","U","U","U","U","U","U","U","U","U","U","U","U","U","U","U","U","U","U","U","U","?","V","V","V","V","V","V","V","V","V","V","V","V","V","V","V","V","V","V","V","V","V","V","V","V","V","V","?","?","W","W","W","W","W","W","W","W","W","W","W","W","W","W","W","W","W","W","W","W","W","W","W","W","W","W","W","W","W","?","?","X","X","X","X","X","X","X","X","X","X","X","X","X","X","X","X","X","X","X","X","X","X","X","X","X","X","X","X","X","X","X","X","X","X","X","?","?","?","?","?","?","?","?","?","M","M","M","M","M","M","?","?","?","?","?","?","?","?","?","?","?","?","?","?","?","F","F","F","F","F","F","?","?","?","E","E","E","E","?","?","D","D","?","?","?","C","C","C","C","C","?","?","B","B","B","B","B","B","B","B","B","B","B","B","B","B","B","B","B","B","B","B","B","B","B","B","B","B","B","B","B","B","B","B","B","B","B","B","B","B","B","?","?","?","?","?","?","?","?","?","?","?","?","?","?","?","?","?","?","?","?","?","?","?","?","?","?","?","?","?","?","?","?","?","?","?","?","?","M","M","?","?","?","X","?","Y","?","Z","Z","Z","Z","Z","Z","Z","Z","Z","Z","?","?","?","?","?","?","?","?","?","?","?","?","Z","Z","Z","Z","Z","Z","Z","Z","Z","Z","Z","Z","Z","Z","Z","Z","Z","Z","Z","Z","Z","Z","Z","Z","?","Y","Y","Y","Y","Y","Y","Y","Y","?","X","X","X","X","X","X","X","X","?","?","?","?","?","L","L","L","?","K","K","K","K","K","K","K","K","K","K","K","K","K","K","K","K","K","K","K","K","K","K","K","K","K","K","K","K","K","K","K","K","K","K","K","K","K","K","K","K","K","K","K","K","K","K","K","K","K","K","K","K","K","?","?","?","?","?","?","?","?","?","?","?","?","?","?","?","?","?","?","?","?","?","?","?","?","?","?","S","S","S","S","S"],"t":[29,46,61,74,92,108,124,140,158,175,191,207,225,241,257,274,291,308,323,339,358,373,390,404,424,440,457,474,490,506,521,538,557,572,589,603,624,640,657,673,691,706,721,737,754,771,790,805,824,841,855,873,888,906,922,937,954,971,987,1004,1021,1036,1052,1070,1087,1105,1120,1137,1153,1170,1187,1203,1220,1238,1255,1272,1288,1305,1320,1337,1353,1372,1386,1403,1420,1436,1452,1469,1487,1503,1523,1540,1553,1569,1586,1604,1624,1637,1654,1672,1690,1706,1722,1736,1753,1769,1786,1803,1820,1836,1853,1871,1887,1904,1920,1937,1954,1969,1985,2002,2019,2035,2052,2069,2086,2102,2119,2134,2151,2170,2186,2202,2218,2235,2252,2269,2285,2302,2318,2335,2351,2368,2385,2403,2419,2435,2453,2469,2487,2501,2519,2535,2551,2568,2585,2601,2618,2635,2651,2668,2685,2701,2719,2735,2751,2767,2784,2801,2818,2835,2852,2868,2885,2901,2918,2935,2951,2967,2985,3002,3017,3034,3051,3068,3085,3101,3118,3135,3150,3167,3185,3200,3217,3234,3251,3267,3283,3300,3317,3334,3351,3368,3385,3401,3418,3434,3450,3467,3484,3500,3517,3535,3551,3567,3585,3600,3617,3634,3651,3667,3683,3700,3718,3734,3751,3766,3783,3801,3816,3833,3850,3867,3883,3900,3916,3934,3951,3966,3982,4001,4017,4033,4049,4067,4083,4100,4118,4136,4152,4169,4184,4200,4216,4233,4251,4267,4283,4300,4317,4336,4350,4369,4385,4401,4417,4433,4450,4467,4487,4501,4516,4535,4551,4569,4585,4600,4615,4632,4648,4665,4682,4700,4715,4733,4752,4767,4784,4800,4816,4832,4850,4867,4882,4898,4916,4932,4949,4966,4984,5000,5016,5033,5049,5066,5082,5099,5115,5132,5149,5165,5182,5198,5215,5232,5249,5265,5282,5298,5317,5332,5349,5366,5382,5399,5415,5435,5449,5466,5484,5500,5517,5536,5552,5569,5585,5602,5619,5634,5649,5667,5683,5701,5718,5735,5752,5768,5785,5801,5817,5833,5849,5865,5882,5899,5916,5932,5951,5966,5982,5998,6015,6035,6050,6065,6082,6098,6115,6132,6150,6166,6182,6198,6217,6232,6249,6265,6281,6299,6313,6331,6349,6364,6381,6398,6417,6432,6447,6464,6481,6498,6514,6531,6547,6563,6581,6598,6614,6630,6648,6664,6680,6696,6714,6730,6747,6763,6780,6797,6814,6830,6847,6863,6880,6897,6913,6930,6948,6965,6980,6997,7016,7030,7048,7064,7080,7097,7114,7131,7147,7165,7180,7198,7215,7232,7248,7265,7280,7296,7314,7330,7347,7363,7379,7398,7414,7429,7447,7463,7479,7496,7513,7530,7546,7563,7580,7596,7612,7631,7646,7664,7680,7696,7712,7730,7747,7763,7780,7797,7813,7829,7846,7862,7880,7896,7913,7929,7946,7963,7980,7996,8012,8030,8047,8064,8081,8097,8113,8129,8146,8163,8180,8196,8213,8230,8246,8262,8279,8296,8312,8328,8347,8362,8379,8396,8413,8429,8446,8462,8479,8496,8512,8528,8545,8562,8581,8596,8612,8631,8647,8662,8679,8695,8712,8729,8745,8762,8779,8795,8815,8831,8846,8862,8878,8894,8912,8929,8945,8962,8979,8994,9012,9030,9047,9064,9080,9098,9112,9129,9144,9161,9180,9195,9211,9228,9246,9262,9280,9297,9313,9329,9345,9361,9378,9395,9412,9428,9445,9462,9478,9495,9511,9529,9544,9561,9579,9594,9612,9627,9645,9661,9681,9699,9711,9728,9745,9762,9782,9794,9811,9828,9844,9861,9877,9893,9912,9928,9943,9960,9977,9994,10010,10030,10044,10060,10077,10094,10111,10128,10145,10161,10176,10194,10211,10227,10244,10261,10278,10296,10312,10328,10344,10361,10377,10393,10411,10427,10444,10459,10478,10496,10512,10529,10546,10561,10576,10593,10610,10627,10643,10661,10679,10695,10711,10728,10744,10760,10777,10793,10810,10826,10843,10859,10877,10893,10909,10926,10943,10960,10976,10993,11010,11027,11043,11060,11076,11092,11110,11126,11142,11160,11176,11193,11210,11226,11242,11258,11276,11292,11309,11326,11343,11359,11375,11392,11409,11426,11442,11459,11476,11493,11508,11526,11544,11558,11575,11593,11609,11625,11642,11659,11676,11691,11708,11726,11743,11758,11775,11793,11809,11825,11842,11858,11875,11892,11909,11925,11941,11959,11975,11991,12008,12025,12042,12059,12075,12092,12109,12126,12144,12161,12176,12192,12208,12225,12242,12259,12275,12292,12308,12325,12341,12360,12376,12391,12408,12425,12442,12458,12475,12493,12508,12524,12540,12558,12575,12591,12607,12624,12641,12658,12674,12691,12707,12724,12741,12758,12773,12791,12808,12824,12841,12857,12874,12891,12907,12924,12941,12957,12974,12991,13008,13024,13041,13057,13075,13091,13107,13123,13141,13157,13174,13190,13207,13223,13239,13256,13273,13290,13307,13323,13342,13359,13375,13392,13409,13424,13440,13457,13474,13491,13507,13524,13541,13557,13573,13590,13606,13624,13641,13658,13674,13690,13707,13724,13739,13756,13774,13792,13808,13824,13842,13859,13876,13893,13910,13926,13940,13959,13976,13994,14010,14026,14042,14060,14075,14092,14109,14126,14143,14159,14177,14193,14210,14225,14242,14258,14274,14292,14308,14326,14343,14359,14375,14393,14409,14425,14443,14458,14475,14492,14508,14525,14543,14558,14575,14590,14607,14625,14641,14657,14674,14692,14708,14726,14742,14759,14776,14793,14809,14826,14842,14858,14873,14891,14906,14924,14940,14956,14974,14991,15007,15023,15041,15058,15076,15090,15107,15125,15141,15159,15173,15191,15208,15225,15242,15258,15273,15289,15307,15324,15340,15358,15375,15392,15408,15424,15441,15458,15474,15490,15507,15523,15541,15557,15574,15591,15608,15624,15641,15658,15674,15689,15706,15723,15740,15758,15772,15788,15805,15822,15839,15856,15874,15890,15907,15923,15939,15955,15973,15988,16007,16021,16038,16057,16072,16088,16105,16122,16138,16158,16172,16190,16207,16224,16239,16256,16270,16288,16305,16321,16338,16354,16370,16388,16406,16421,16438,16457,16473,16489,16505,16522,16538,16555,16571,16588,16607,16624,16640,16657,16671,16688,16705,16722,16739,16756,16771,16788,16805,16820,16837,16854,16871,16887,16906,16921,16937,16955,16973,16988,17004,17021,17040,17054,17070,17087,17104,17122,17137,17154,17170,17188,17204,17220,17236,17254,17271,17287,17303,17320,17337,17354,17371,17387,17403,17423,17437,17453,17469,17487,17505,17520,17536,17553,17570,17587,17604,17620,17639,17656,17673,17689,17705,17721,17739,17753,17769,17787,17804,17820,17836,17853,17869,17887,17904,17919,17939,17952,17969,17986,18002,18019,18035,18055,18070,18085,18103,18119,18135,18154,18170,18186,18202,18219,18237,18252,18269,18286,18303,18319,18336,18352,18368,18385,18402,18419,18435,18452,18469,18485,18502,18521,18537,18553,18569,18586,18606,18623,18636,18655,18671,18688,18703,18718,18735,18752,18769,18785,18802,18817,18836,18852,18867,18888,18904,18921,18938,18955,18970,18987,19003,19019,19036,19054,19070,19086,19103,19118,19135,19153,19168,19186,19202,19219,19237,19254,19271,19286,19303,19321,19337,19353,19370,19388,19403,19419,19437,19451,19468,19488,19503,19518,19536,19554,19570,19586,19603,19620,19636,19652,19669,19687,19703,19717,19736,19754,19769,19787,19803,19818,19836,19852,19870,19886,19903,19920,19937,19953,19970,19986,20002,20019,20036,20052,20069,20087,20104,20120,20136,20153,20170,20186,20202,20219,20235,20252,20269,20284,20300,20320,20335,20352,20367,20385,20402,20416,20434,20452,20469,20484,20501,20517,20535,20551,20569,20585,20600,20618,20635,20652,20668,20684,20703,20720,20736,20752,20770,20786,20802,20818,20835,20851,20868,20885,20902,20919,20936,20951,20967,20984,21001,21018,21034,21050,21067,21083,21102,21118,21135,21152,21169,21185,21200,21218,21234,21250,21266,21282,21300,21316,21333,21349,21367,21383,21400,21416,21435,21451,21467,21483,21502,21517,21536,21552,21567,21585,21601,21618,21635,21649,21666,21683,21700,21716,21732,21752,21768,21785,21800,21818,21833,21849,21867,21883,21900,21915,21933,21951,21967,21983,22000,22017,22032,22048,22065,22083,22100,22115,22132,22149,22168,22184,22200,22216,22234,22249,22266,22284,22300,22316,22332,22351,22367,22382,22399,22416,22431,22449,22465,22482,22498,22515,22531,22548,22565,22581,22600,22614,22631,22649,22665,22682,22699,22716,22732,22748,22765,22781,22798,22818,22833,22850,22865,22882,22898,22914,22932,22948,22964,22981,22999,23015,23031,23048,23065,23081,23098,23115,23131,23148,23164,23183,23200,23217,23231,23247,23264,23281,23297,23314,23331,23348,23363,23381,23400,23415,23431,23447,23464,23481,23497,23513,23532,23549,23564,23583,23600,23617,23632,23647,23666,23681,23698,23713,23730,23747,23763,23779,23797,23814,23833,23848,23863,23880,23897,23915,23932,23948,23965,23981,23997,24015,24033,24049,24064,24082,24099,24114,24131,24146,24163,24181,24197,24214,24231,24247,24264,24279,24298,24315,24330,24348,24365,24381,24397,24414,24431,24449,24465,24480,24498,24514,24532,24549,24563,24579,24598,24616,24631,24648,24662,24682,24698,24715,24732,24748,24764,24781,24799,24816,24832,24849,24866,24882,24898,24915,24931,24948,24966,24982,24998,25015,25032,25048,25064,25081,25098,25114,25130,25146,25164,25181,25198,25215,25231,25248,25265,25282,25298,25314,25331,25346,25364,25380,25397,25415,25431,25445,25463,25479,25495,25514,25530,25548,25564,25580,25598,25614,25631,25648,25664,25680,25696,25713,25730,25746,25764,25780,25795,25812,25829,25848,25864,25881,25897,25914,25930,25947,25964,25979,25995,26011,26030,26047,26064,26078,26095,26113,26130,26146,26163,26179,26194,26212,26228,26246,26262,26280,26297,26311,26330,26346,26361,26379,26397,26413,26429,26446,26463,26480,26496,26514,26530,26546,26563,26578,26595,26611,26628,26645,26664,26680,26696,26712,26729,26746,26760,26779,26794,26811,26829,26844,26863,26880,26897,26913,26929,26946,26962,26977,26994,27011,27027,27044,27060,27078,27096,27112,27126,27144,27160,27179,27195,27210,27227,27243,27263,27279,27296,27312,27327,27343,27363,27377,27394,27410,27428,27443,27462,27479,27496,27513,27529,27544,27562,27578,27594,27610,27627,27644,27659,27679,27696,27712,27729,27745,27761,27776,27793,27811,27826,27843,27862,27878,27895,27912,27929,27945,27961,27978,27994,28009,28027,28043,28060,28077,28095,28112,28129,28145,28161,28177,28193,28210,28225,28243,28259,28276,28293,28309,28327,28343,28359,28378,28393,28410,28426,28442,28460,28476,28493,28508,28525,28542,28558,28575,28593,28609,28625,28642,28659,28675,28691,28709,28726,28742,28759,28775,28792,28809,28825,28841,28858,28875,28892,28909,28927,28944,28960,28976,28994,29009,29026,29042,29059,29076,29091,29111,29127,29142,29160,29177,29192,29208,29225,29240,29258,29275,29290,29308,29324,29341,29357,29374,29391,29408,29425,29441,29457,29474,29491,29508,29525,29543,29560,29576,29593,29610,29625,29641,29658,29674,29691,29707,29726,29743,29760,29776,29791,29807,29824,29840,29857,29874,29890,29907,29923,29943,29960,29976,29991,30007,30023,30041,30056,30073,30090,30108,30124,30140,30157,30174,30190,30207,30225,30241,30257,30274,30289,30307,30323,30340,30359,30376,30392,30409,30425,30440,30456,30473,30491,30507,30524,30539,30556,30576,30592,30608,30625,30642,30657,30673,30690,30706,30722,30740,30756,30773,30788,30806,30824,30839,30855,30873,30889,30907,30924,30939,30956,30976,30992,31008,31025,31041,31056,31072,31090,31107,31123,31141,31156,31172,31188,31205,31223,31239,31256,31272,31289,31306,31322,31339,31355,31373,31389,31407,31425,31442,31455,31472,31489,31506,31522,31539,31557,31574,31592,31607,31625,31641,31656,31673,31688,31705,31721,31738,31755,31772,31789,31805,31822,31839,31855,31871,31888,31905,31922,31938,31955,31972,31988,32004,32022,32040,32057,32074,32089,32105,32121,32138,32155,32171,32191,32207,32224,32238,32255,32273,32289,32304,32321,32338,32355,32371,32388,32404,32421,32438,32454,32472,32488,32504,32521,32537,32554,32571,32588,32604,32621,32637,32654,32671,32688,32704,32721,32738,32755,32770,32787,32805,32822,32838,32856,32871,32887,32904,32921,32937,32953,32970,32987,33004,33020,33037,33055,33071,33087,33104,33120,33137,33154,33171,33187,33204,33223,33239,33253,33270,33287,33304,33320,33336,33354,33372,33387,33402,33421,33437,33452,33472,33489,33506,33520,33536,33554,33570,33587,33604,33620,33637,33655,33672,33689,33707,33723,33738,33754,33769,33787,33802,33820,33836,33853,33869,33887,33903,33919,33935,33953,33970,33986,34002,34020,34037,34054,34071,34088,34104,34121,34137,34153,34169,34186,34205,34223,34238,34252,34273,34288,34304,34321,34338,34355,34369,34387,34405,34421,34436,34454,34470,34486,34504,34520,34537,34552,34570,34587,34602,34619,34636,34652,34669,34686,34702,34720,34738,34754,34770,34787,34804,34822,34837,34853,34869,34887,34904,34921,34938,34954,34970,34987,35004,35022,35038,35055,35071,35088,35105,35121,35137,35154,35168,35186,35205,35220,35237,35254,35270,35285,35301,35318,35336,35354,35370,35387,35404,35419,35437,35452,35471,35487,35504,35521,35537,35554,35570,35587,35604,35620,35635,35652,35669,35687,35704,35720,35737,35753,35770,35786,35804,35819,35836,35853,35871,35887,35904,35920,35935,35952,35969,35987,36001,36018,36036,36052,36068,36086,36101,36118,36135,36151,36167,36185,36200,36218,36234,36252,36270,36288,36304,36320,36337,36353,36370,36387,36403,36419,36435,36451,36467,36484,36502,36518,36535,36551,36568,36584,36601,36618,36636,36652,36668,36685,36700,36718,36733,36750,36768,36784,36800,36819,36835,36851,36869,36884,36903,36920,36936,36953,36969,36987,37002,37019,37035,37051,37069,37087,37100,37119,37136,37153,37169,37185,37201,37219,37233,37252,37268,37283,37302,37318,37333,37349,37366,37383,37401,37418,37431,37450,37467,37485,37502,37519,37536,37552,37569,37584,37600,37616,37632,37650,37667,37684,37699,37716,37734,37752,37769,37785,37802,37818,37833,37851,37868,37885,37900,37919,37935,37952,37967,37985,38002,38018,38034,38049,38067,38083,38099,38118,38133,38152,38169,38184,38202,38218,38233,38250,38267,38283,38300,38316,38333,38351,38374,38386,38402,38419,38435,38451,38468,38484,38500,38518,38535,38551,38567,38584,38601,38619,38634,38651,38667,38684,38701,38718,38734,38751,38767,38784,38801,38818,38834,38850,38867,38882,38900,38916,38932,38948,38965,38984,38999,39016,39032,39048,39067,39082,39098,39115,39133,39148,39166,39183,39198,39214,39232,39250,39266,39283,39298,39315,39331,39348,39367,39383,39400,39417,39434,39450,39467,39483,39500,39515,39532,39549,39566,39583,39601,39617,39633,39651,39666,39682,39699,39716,39733],"hit":[null],"x":[-1.695578231292517,-0.032879835894318664,-0.036281196438536355,-0.036281196438536355,-0.036281196438536355,-0.036281196438536355,-0.036281196438536355,-0.036281196438536355,-0.03968255698275404,-0.03968255698275404,-0.03968255698275404,-0.03968255698275404,-0.03968255698275404,-0.03968255698275404,-0.03968255698275404,-0.03968255698275404,-0.03968255698275404,-0.03968255698275404,-0.03968255698275404,-0.03968255698275404,-0.03968255698275404,-0.03968255698275404,-0.03968255698275404,-0.03968255698275404,-0.03968255698275404,-0.03968255698275404,-0.04308391752697173,-0.04648527807118941,-0.05328799915962479,-0.05328799915962479,-0.06009072024806016,-0.06349208079227785,-0.07029480188071323,-0.0736961624249309,-0.08390024405758396,-0.08730160460180166,-0.09070296514601935,-0.09750568623445471,-0.1009070467786724,-0.1043084073228901,-0.11111112841132546,-0.11791384949976084,-0.12131521004397854,-0.1281179311324139,-0.13492065222084929,-0.13832201276506698,-0.14172337330928464,-0.14172337330928464,-0.14172337330928464,-0.13832201276506698,-0.13832201276506698,-0.13832201276506698,-0.13492065222084929,-0.13492065222084929,-0.1315192916766316,-0.1281179311324139,-0.1281179311324139,-0.1281179311324139,-0.1281179311324139,-0.1315192916766316,-0.13492065222084929,-0.13492065222084929,-0.13492065222084929,-0.13492065222084929,-0.13492065222084929,-0.13492065222084929,-0.13492065222084929,-0.13492065222084929,-0.1315192916766316,-0.12471657058819621,-0.11451248895554315,-0.08730160460180166,-0.0498866386154071,-0.012471672629012543,0.00793649063629358,0.021541932813164327,0.03174601444581739,0.03514737499003508,0.03514737499003508,0.03854873553425276,0.04195009607847045,0.04195009607847045,0.04195009607847045,0.04195009607847045,0.04195009607847045,0.04195009607847045,0.04195009607847045,0.04195009607847045,0.04195009607847045,0.04195009607847045,0.04195009607847045,0.048752817166905826,0.062358259343776576,0.06575961988799427,0.07596370152064733,0.0827664226090827,0.09297050424173575,0.09977322533017113,0.09977322533017113,0.10317458587438882,0.10997730696282419,0.11337866750704188,0.11678002805125956,0.11678002805125956,0.11678002805125956,0.11678002805125956,0.11678002805125956,0.11678002805125956,0.11337866750704188,0.10997730696282419,0.10997730696282419,0.10317458587438882,0.09977322533017113,0.09297050424173575,0.09297050424173575,0.08616778315330038,0.08616778315330038,0.0827664226090827,0.0827664226090827,0.0827664226090827,0.0827664226090827,0.0827664226090827,0.0827664226090827,0.0827664226090827,0.0827664226090827,0.0827664226090827,0.0827664226090827,0.0827664226090827,0.0827664226090827,0.0827664226090827,0.0827664226090827,0.08616778315330038,0.08956914369751807,0.08956914369751807,0.08956914369751807,0.08956914369751807,0.08956914369751807,0.08956914369751807,0.08956914369751807,0.08956914369751807,0.08956914369751807,0.09637186478595344,0.09977322533017113,0.09977322533017113,0.1065759464186065,0.11678002805125956,0.12358274913969494,0.13378683077234801,0.13378683077234801,0.13378683077234801,0.13378683077234801,0.13378683077234801,0.13378683077234801,0.13378683077234801,0.13378683077234801,0.13378683077234801,0.13378683077234801,0.13378683077234801,0.13378683077234801,0.13378683077234801,0.13378683077234801,0.13378683077234801,0.13378683077234801,0.13378683077234801,0.13378683077234801,0.13378683077234801,0.13378683077234801,0.13378683077234801,0.13378683077234801,0.13378683077234801,0.13378683077234801,0.13378683077234801,0.13378683077234801,0.13378683077234801,0.13378683077234801,0.13378683077234801,0.13378683077234801,0.13378683077234801,0.13378683077234801,0.13378683077234801,0.13378683077234801,0.13378683077234801,0.13378683077234801,0.13378683077234801,0.13378683077234801,0.13378683077234801,0.13378683077234801,0.13378683077234801,0.13378683077234801,0.13378683077234801,0.13378683077234801,0.13378683077234801,0.13378683077234801,0.13378683077234801,0.13378683077234801,0.13378683077234801,0.13378683077234801,0.13378683077234801,0.13378683077234801,0.13378683077234801,0.13378683077234801,0.13378683077234801,0.13378683077234801,0.13378683077234801,0.13378683077234801,0.13378683077234801,0.13378683077234801,0.13378683077234801,0.13378683077234801,0.13378683077234801,0.13378683077234801,0.13378683077234801,0.13378683077234801,0.13378683077234801,0.13378683077234801,0.13378683077234801,0.13378683077234801,0.13378683077234801,0.13378683077234801,0.13378683077234801,0.13378683077234801,0.13378683077234801,0.13378683077234801,0.13378683077234801,0.13378683077234801,0.13378683077234801,0.13378683077234801,0.13378683077234801,0.13378683077234801,0.13378683077234801,0.13378683077234801,0.13378683077234801,0.13378683077234801,0.13378683077234801,0.13378683077234801,0.13378683077234801,0.13378683077234801,0.13378683077234801,0.13378683077234801,0.13378683077234801,0.13378683077234801,0.13378683077234801,0.13378683077234801,0.13378683077234801,0.13378683077234801,0.13378683077234801,0.13378683077234801,0.14058955186078337,0.15419499403765413,0.17460315730296025,0.20181404165670175,0.21882084437779017,0.25283444981996706,0.2698412525410555,0.2902494158063616,0.31405893961588544,0.3378684634254092,0.35147390560228,0.35827662669071536,0.36167798723493305,0.36507934777915074,0.36848070832336843,0.3718820688675861,0.3718820688675861,0.38208615050023914,0.3888888715886745,0.40929703485398067,0.43310655866350445,0.4569160824730283,0.48412696682676976,0.5011337695478582,0.5113378511805112,0.524943293357382,0.5317460144458174,0.5419500960784704,0.5521541777111235,0.5657596198879943,0.579365062064865,0.5997732253301711,0.6099773069628242,0.6269841096839126,0.6303854702281303,0.6371881913165657,0.6439909124050011,0.6609977151260895,0.6848072389356133,0.7120181232893548,0.7358276470988786,0.7630385314526201,0.8276643817927561,0.8650793477791507,0.8888888715886746,0.8990929532213275,0.8990929532213275,0.8990929532213275,0.8990929532213275,0.8990929532213275,0.8990929532213275,0.8990929532213275,0.8990929532213275,0.8990929532213275,0.8990929532213275,0.9024943137655452,0.916099755942416,0.9331065586635044,0.9535147219288106,0.9671201641056814,0.9671201641056814,0.9671201641056814,0.9671201641056814,0.9671201641056814,0.9671201641056814,0.9671201641056814,0.9671201641056814,0.9671201641056814,0.9671201641056814,0.9671201641056814,0.9671201641056814,0.970521524649899,0.9807256062825521,0.9841269668267698,0.9909296879152052,0.9909296879152052,0.9909296879152052,0.9909296879152052,0.9909296879152052,0.9909296879152052,0.9909296879152052,0.9909296879152052,0.9909296879152052,0.9909296879152052,0.9909296879152052,0.9875283273709875,0.9841269668267698,0.9773242457383344,0.970521524649899,0.960317443017246,0.9501133613845929,0.9331065586635044,0.916099755942416,0.9092970348539806,0.8990929532213275,0.8854875110444569,0.8820861505002392,0.8650793477791507,0.8548752661464977,0.8344671028811915,0.8174603001601031,0.8106575790716677,0.8038548579832323,0.8038548579832323,0.8038548579832323,0.8038548579832323,0.8004534974390146,0.8004534974390146,0.797052136894797,0.797052136894797,0.797052136894797,0.797052136894797,0.797052136894797,0.797052136894797,0.797052136894797,0.797052136894797,0.797052136894797,0.7936507763505793,0.7936507763505793,0.7936507763505793,0.7936507763505793,0.7936507763505793,0.7902494158063617,0.7902494158063617,0.7902494158063617,0.7902494158063617,0.786848055262144,0.786848055262144,0.786848055262144,0.786848055262144,0.7834466947179263,0.7834466947179263,0.7800453341737086,0.7800453341737086,0.7800453341737086,0.7800453341737086,0.7800453341737086,0.7800453341737086,0.7800453341737086,0.7800453341737086,0.7800453341737086,0.7800453341737086,0.7800453341737086,0.7800453341737086,0.7800453341737086,0.7800453341737086,0.7800453341737086,0.7800453341737086,0.7800453341737086,0.7800453341737086,0.7800453341737086,0.7800453341737086,0.7800453341737086,0.7800453341737086,0.7800453341737086,0.7800453341737086,0.7800453341737086,0.7800453341737086,0.7800453341737086,0.7800453341737086,0.7800453341737086,0.7800453341737086,0.7800453341737086,0.7800453341737086,0.7800453341737086,0.7800453341737086,0.7800453341737086,0.7800453341737086,0.7800453341737086,0.7800453341737086,0.7800453341737086,0.7800453341737086,0.7800453341737086,0.7800453341737086,0.7732426130852732,0.7698412525410555,0.7630385314526201,0.7392290076430963,0.7222222049220078,0.7052154022009194,0.6950113205682664,0.6814058783913957,0.6712017967587426,0.6609977151260895,0.6507936334934364,0.6303854702281303,0.6031745858743888,0.5657596198879943,0.5419500960784704,0.524943293357382,0.5079364906362935,0.49433104845942283,0.4773242457383344,0.46712016410568136,0.460317443017246,0.4569160824730283,0.4535147219288106,0.4535147219288106,0.4535147219288106,0.4535147219288106,0.4535147219288106,0.4535147219288106,0.4535147219288106,0.4535147219288106,0.4535147219288106,0.4535147219288106,0.4535147219288106,0.4535147219288106,0.4535147219288106,0.4535147219288106,0.4535147219288106,0.4535147219288106,0.4535147219288106,0.4501133613845929,0.4501133613845929,0.4501133613845929,0.4467120008403752,0.4467120008403752,0.4433106402961575,0.4433106402961575,0.4433106402961575,0.4433106402961575,0.4433106402961575,0.4433106402961575,0.4433106402961575,0.4433106402961575,0.4433106402961575,0.4433106402961575,0.4433106402961575,0.4433106402961575,0.4433106402961575,0.4433106402961575,0.4433106402961575,0.4433106402961575,0.4433106402961575,0.4433106402961575,0.4433106402961575,0.4433106402961575,0.4433106402961575,0.4433106402961575,0.4433106402961575,0.4433106402961575,0.4433106402961575,0.4433106402961575,0.4433106402961575,0.4433106402961575,0.4433106402961575,0.4433106402961575,0.4433106402961575,0.4433106402961575,0.4433106402961575,0.4433106402961575,0.4433106402961575,0.4433106402961575,0.4433106402961575,0.4433106402961575,0.4433106402961575,0.4433106402961575,0.4433106402961575,0.4433106402961575,0.4433106402961575,0.4433106402961575,0.4433106402961575,0.4433106402961575,0.4433106402961575,0.4433106402961575,0.4433106402961575,0.4433106402961575,0.4467120008403752,0.4501133613845929,0.4535147219288106,0.4535147219288106,0.4535147219288106,0.4535147219288106,0.4569160824730283,0.4569160824730283,0.4569160824730283,0.4569160824730283,0.4569160824730283,0.4569160824730283,0.4569160824730283,0.4569160824730283,0.4569160824730283,0.4569160824730283,0.4569160824730283,0.4569160824730283,0.4569160824730283,0.4569160824730283,0.4569160824730283,0.4569160824730283,0.4569160824730283,0.4569160824730283,0.4569160824730283,0.4569160824730283,0.460317443017246,0.47052152464989905,0.4773242457383344,0.48752832737098745,0.5011337695478582,0.5147392117247289,0.5385487355342528,0.5555555382553412,0.5759637015206474,0.5997732253301711,0.6235827491396949,0.6439909124050011,0.6541949940376541,0.6609977151260895,0.6678004362145249,0.678004517847178,0.688208599479831,0.7052154022009194,0.7290249260104432,0.7392290076430963,0.7460317287315317,0.7460317287315317,0.7460317287315317,0.7460317287315317,0.7494330892757494,0.7494330892757494,0.752834449819967,0.752834449819967,0.752834449819967,0.752834449819967,0.752834449819967,0.752834449819967,0.752834449819967,0.752834449819967,0.752834449819967,0.752834449819967,0.752834449819967,0.7494330892757494,0.7494330892757494,0.7494330892757494,0.7494330892757494,0.7494330892757494,0.7494330892757494,0.7460317287315317,0.7460317287315317,0.7460317287315317,0.742630368187314,0.742630368187314,0.742630368187314,0.742630368187314,0.742630368187314,0.742630368187314,0.742630368187314,0.742630368187314,0.742630368187314,0.742630368187314,0.742630368187314,0.742630368187314,0.742630368187314,0.742630368187314,0.742630368187314,0.742630368187314,0.742630368187314,0.742630368187314,0.742630368187314,0.742630368187314,0.742630368187314,0.742630368187314,0.742630368187314,0.742630368187314,0.7392290076430963,0.7392290076430963,0.7324262865546609,0.7290249260104432,0.7154194838335725,0.7120181232893548,0.7052154022009194,0.7018140416567017,0.6950113205682664,0.688208599479831,0.6746031573029603,0.6609977151260895,0.6405895518607834,0.6167800280512595,0.5929705042417358,0.5725623409764297,0.5555555382553412,0.5419500960784704,0.5283446539015997,0.5181405722689466,0.5113378511805112,0.5079364906362935,0.5045351300920758,0.49433104845942283,0.49092968791520514,0.48072560628255206,0.4739228851941167,0.460317443017246,0.4433106402961575,0.4229024770308514,0.3922902321328922,0.3718820688675861,0.35487526614649767,0.35147390560228,0.35147390560228,0.35147390560228,0.35147390560228,0.35147390560228,0.35147390560228,0.35147390560228,0.35147390560228,0.35147390560228,0.35147390560228,0.35147390560228,0.35147390560228,0.35147390560228,0.35147390560228,0.35147390560228,0.35147390560228,0.35147390560228,0.35147390560228,0.35147390560228,0.35147390560228,0.35147390560228,0.35147390560228,0.35147390560228,0.35147390560228,0.35147390560228,0.35147390560228,0.35147390560228,0.35147390560228,0.35147390560228,0.35147390560228,0.35147390560228,0.35147390560228,0.35147390560228,0.35147390560228,0.35147390560228,0.35147390560228,0.35147390560228,0.35147390560228,0.35147390560228,0.35147390560228,0.35147390560228,0.35147390560228,0.35147390560228,0.35147390560228,0.35147390560228,0.35147390560228,0.35147390560228,0.35147390560228,0.35147390560228,0.35147390560228,0.35147390560228,0.35147390560228,0.35147390560228,0.35147390560228,0.35147390560228,0.35147390560228,0.35147390560228,0.35147390560228,0.35147390560228,0.35147390560228,0.35147390560228,0.35147390560228,0.35147390560228,0.35147390560228,0.35147390560228,0.35147390560228,0.35147390560228,0.35147390560228,0.35147390560228,0.35147390560228,0.35147390560228,0.35147390560228,0.35147390560228,0.35147390560228,0.35147390560228,0.35147390560228,0.35147390560228,0.35147390560228,0.35147390560228,0.35147390560228,0.35147390560228,0.35147390560228,0.35147390560228,0.3446711845138446,0.3378684634254092,0.32766438179275614,0.3208616607043208,0.31405893961588544,0.30385485798323236,0.30385485798323236,0.297052136894797,0.2936507763505793,0.2936507763505793,0.2936507763505793,0.2936507763505793,0.2936507763505793,0.2936507763505793,0.2902494158063616,0.2868480552621439,0.2800453341737085,0.2664398919968378,0.23242628655466094,0.19841268111248406,0.15759635458187182,0.13718819131656568,0.13378683077234801,0.13378683077234801,0.13378683077234801,0.13378683077234801,0.13378683077234801,0.13378683077234801,0.13378683077234801,0.13378683077234801,0.13378683077234801,0.13378683077234801,0.13378683077234801,0.13378683077234801,0.13378683077234801,0.13378683077234801,0.13378683077234801,0.13378683077234801,0.13378683077234801,0.13378683077234801,0.13378683077234801,0.13378683077234801,0.13378683077234801,0.13378683077234801,0.13378683077234801,0.13378683077234801,0.13378683077234801,0.13378683077234801,0.13378683077234801,0.13378683077234801,0.13378683077234801,0.13378683077234801,0.13378683077234801,0.13378683077234801,0.13378683077234801,0.13378683077234801,0.13378683077234801,0.13378683077234801,0.13378683077234801,0.13378683077234801,0.13378683077234801,0.13378683077234801,0.13378683077234801,0.13378683077234801,0.13378683077234801,0.13378683077234801,0.13378683077234801,0.13378683077234801,0.13378683077234801,0.13378683077234801,0.13378683077234801,0.13378683077234801,0.13378683077234801,0.13378683077234801,0.13038547022813032,0.13038547022813032,0.12698410968391263,0.12358274913969494,0.11678002805125956,0.10317458587438882,0.09977322533017113,0.0827664226090827,0.062358259343776576,0.04195009607847045,0.03174601444581739,0.024943293357382015,0.024943293357382015,0.024943293357382015,0.024943293357382015,0.024943293357382015,0.024943293357382015,0.024943293357382015,0.024943293357382015,0.024943293357382015,0.021541932813164327,0.021541932813164327,0.021541932813164327,0.021541932813164327,0.021541932813164327,0.021541932813164327,0.021541932813164327,0.021541932813164327,0.021541932813164327,0.021541932813164327,0.021541932813164327,0.021541932813164327,0.021541932813164327,0.021541932813164327,0.021541932813164327,0.021541932813164327,0.021541932813164327,0.021541932813164327,0.021541932813164327,0.021541932813164327,0.021541932813164327,0.024943293357382015,0.04195009607847045,0.0555555382553412,0.07256234097642963,0.09297050424173575,0.10997730696282419,0.13038547022813032,0.14739227294921875,0.16780043621452487,0.18820859947983098,0.21882084437779017,0.24263036818731398,0.27324261308527314,0.3174603001601031,0.35487526614649767,0.405895674309763,0.4569160824730283,0.5011337695478582,0.5419500960784704,0.5861677831533004,0.6269841096839126,0.6609977151260895,0.688208599479831,0.7086167627451371,0.7222222049220078,0.7324262865546609,0.7358276470988786,0.742630368187314,0.742630368187314,0.742630368187314,0.742630368187314,0.742630368187314,0.742630368187314,0.742630368187314,0.742630368187314,0.742630368187314,0.742630368187314,0.742630368187314,0.742630368187314,0.742630368187314,0.7460317287315317,0.7562358103641847,0.7698412525410555,0.7902494158063617,0.8174603001601031,0.8446711845138446,0.8650793477791507,0.8820861505002392,0.8990929532213275,0.9024943137655452,0.9058956743097629,0.9058956743097629,0.9058956743097629,0.9058956743097629,0.9058956743097629,0.9058956743097629,0.9058956743097629,0.9058956743097629,0.9058956743097629,0.9058956743097629,0.9058956743097629,0.9058956743097629,0.9024943137655452,0.8990929532213275,0.8888888715886746,0.8786847899560215,0.8650793477791507,0.8480725450580623,0.8344671028811915,0.8208616607043208,0.80725621852745,0.7902494158063617,0.7732426130852732,0.7596371709084024,0.7460317287315317,0.7290249260104432,0.7154194838335725,0.7052154022009194,0.6916099600240487,0.6814058783913957,0.6712017967587426,0.6643990756703072,0.6609977151260895,0.6507936334934364,0.6439909124050011,0.633786830772348,0.6167800280512595,0.5759637015206474,0.5385487355342528,0.48072560628255206,0.4229024770308514,0.37528342941180376,0.3446711845138446,0.3208616607043208,0.31065757907166774,0.30045349743901467,0.2868480552621439,0.27664397362949084,0.26303853145262013,0.24943308927574936,0.21882084437779017,0.19501132056826637,0.18480723893561332,0.17800451784717794,0.17800451784717794,0.17800451784717794,0.17800451784717794,0.17800451784717794,0.17800451784717794,0.17800451784717794,0.17800451784717794,0.17460315730296025,0.16780043621452487,0.16780043621452487,0.16780043621452487,0.16780043621452487,0.16780043621452487,0.16099771512608949,0.15759635458187182,0.15419499403765413,0.15419499403765413,0.15419499403765413,0.15419499403765413,0.15419499403765413,0.15079363349343644,0.14399091240500106,0.13038547022813032,0.11678002805125956,0.09977322533017113,0.079365062064865,0.06575961988799427,0.048752817166905826,0.03854873553425276,0.03514737499003508,0.03514737499003508,0.03514737499003508,0.03514737499003508,0.03514737499003508,0.03514737499003508,0.03514737499003508,0.03514737499003508,0.03514737499003508,0.03514737499003508,0.03514737499003508,0.03514737499003508,0.03514737499003508,0.03854873553425276,0.03854873553425276,0.03854873553425276,0.045351456622688135,0.048752817166905826,0.05215417771112351,0.0555555382553412,0.062358259343776576,0.07596370152064733,0.10317458587438882,0.13038547022813032,0.15079363349343644,0.15419499403765413,0.15419499403765413,0.15419499403765413,0.15419499403765413,0.15419499403765413,0.15419499403765413,0.15419499403765413,0.15419499403765413,0.15419499403765413,0.15419499403765413,0.15419499403765413,0.15419499403765413,0.15419499403765413,0.15419499403765413,0.15419499403765413,0.15419499403765413,0.15419499403765413,0.15419499403765413,0.15079363349343644,0.15079363349343644,0.15079363349343644,0.15079363349343644,0.15079363349343644,0.15079363349343644,0.15079363349343644,0.15079363349343644,0.15079363349343644,0.15079363349343644,0.15079363349343644,0.15079363349343644,0.15079363349343644,0.15079363349343644,0.15079363349343644,0.15079363349343644,0.15079363349343644,0.15079363349343644,0.15079363349343644,0.15079363349343644,0.15079363349343644,0.15079363349343644,0.15079363349343644,0.15079363349343644,0.15079363349343644,0.15079363349343644,0.15079363349343644,0.15079363349343644,0.15079363349343644,0.15079363349343644,0.15079363349343644,0.15079363349343644,0.15079363349343644,0.15079363349343644,0.15079363349343644,0.15079363349343644,0.15079363349343644,0.15079363349343644,0.15419499403765413,0.16780043621452487,0.18480723893561332,0.20181404165670175,0.21541948383357248,0.23242628655466094,0.24603172873153167,0.25623581036418475,0.26303853145262013,0.2698412525410555,0.27324261308527314,0.27664397362949084,0.2800453341737085,0.2800453341737085,0.2800453341737085,0.2800453341737085,0.2800453341737085,0.2800453341737085,0.2800453341737085,0.2800453341737085,0.2800453341737085,0.2800453341737085,0.2800453341737085,0.2800453341737085,0.2800453341737085,0.2800453341737085,0.2800453341737085,0.27664397362949084,0.27664397362949084,0.27664397362949084,0.27664397362949084,0.27664397362949084,0.27664397362949084,0.27664397362949084,0.2800453341737085,0.30385485798323236,0.33106574233697383,0.35827662669071536,0.3718820688675861,0.37528342941180376,0.37528342941180376,0.37528342941180376,0.37528342941180376,0.37528342941180376,0.37528342941180376,0.3718820688675861,0.36507934777915074,0.36167798723493305,0.35827662669071536,0.35487526614649767,0.35487526614649767,0.35487526614649767,0.35487526614649767,0.35487526614649767,0.35487526614649767,0.36167798723493305,0.3888888715886745,0.43650791920772214,0.5351473749900351,0.6065759464186065,0.678004517847178,0.7256235654662255,0.7630385314526201,0.7936507763505793,0.8140589396158854,0.8276643817927561,0.8310657423369738,0.8310657423369738,0.8310657423369738,0.8310657423369738,0.8310657423369738,0.8310657423369738,0.8310657423369738,0.8310657423369738,0.8310657423369738,0.8310657423369738,0.8310657423369738,0.8242630212485385,0.8004534974390146,0.7834466947179263,0.7698412525410555,0.7630385314526201,0.7494330892757494,0.7460317287315317,0.7392290076430963,0.7392290076430963,0.7392290076430963,0.7392290076430963,0.7392290076430963,0.7392290076430963,0.7392290076430963,0.7392290076430963,0.7392290076430963,0.7392290076430963,0.7392290076430963,0.7358276470988786,0.7358276470988786,0.7324262865546609,0.7290249260104432,0.7290249260104432,0.7256235654662255,0.7188208443777901,0.7154194838335725,0.7154194838335725,0.7120181232893548,0.7120181232893548,0.7120181232893548,0.7120181232893548,0.7120181232893548,0.7086167627451371,0.7052154022009194,0.7052154022009194,0.7052154022009194,0.7052154022009194,0.7018140416567017,0.7018140416567017,0.7018140416567017,0.7018140416567017,0.7018140416567017,0.698412681112484,0.698412681112484,0.6950113205682664,0.6950113205682664,0.6950113205682664,0.6950113205682664,0.6950113205682664,0.6916099600240487,0.6916099600240487,0.6916099600240487,0.6916099600240487,0.688208599479831,0.688208599479831,0.688208599479831,0.688208599479831,0.688208599479831,0.688208599479831,0.688208599479831,0.688208599479831,0.688208599479831,0.6916099600240487,0.7120181232893548,0.7392290076430963,0.7766439736294909,0.8106575790716677,0.8480725450580623,0.861677987234933,0.8684807083233684,0.8820861505002392,0.8854875110444569,0.8990929532213275,0.9126983953981983,0.916099755942416,0.9263038375750691,0.9331065586635044,0.9365079192077221,0.9501133613845929,0.9569160824730283,0.9773242457383344,0.9909296879152052,0.9977324090036405,1.0011337695478582,1.0011337695478582,1.0011337695478582,1.0011337695478582,1.004535130092076,1.004535130092076,1.004535130092076,1.004535130092076,1.004535130092076,1.004535130092076,1.004535130092076,1.004535130092076,1.004535130092076,1.004535130092076,1.004535130092076,1.004535130092076,1.004535130092076,1.004535130092076,1.004535130092076,1.004535130092076,1.004535130092076,1.0181405722689467,1.0283446539015997,1.035147374990035,1.035147374990035,1.0385487355342529,1.0385487355342529,1.035147374990035,1.0181405722689467,0.9875283273709875,0.9467120008403752,0.9092970348539806,0.8684807083233684,0.8208616607043208,0.797052136894797,0.7698412525410555,0.7460317287315317,0.7120181232893548,0.678004517847178,0.6439909124050011,0.6269841096839126,0.6235827491396949,0.6235827491396949,0.6235827491396949,0.6235827491396949,0.6235827491396949,0.6235827491396949,0.6235827491396949,0.6235827491396949,0.6201813885954772,0.6099773069628242,0.5929705042417358,0.5827664226090827,0.5657596198879943,0.5589568987995589,0.5555555382553412,0.5521541777111235,0.5521541777111235,0.5521541777111235,0.5521541777111235,0.5521541777111235,0.5521541777111235,0.5521541777111235,0.5521541777111235,0.5521541777111235,0.5521541777111235,0.5521541777111235,0.5521541777111235,0.5521541777111235,0.5521541777111235,0.5521541777111235,0.5419500960784704,0.5419500960784704,0.5385487355342528,0.5385487355342528,0.5385487355342528,0.5351473749900351,0.5351473749900351,0.5317460144458174,0.5317460144458174,0.524943293357382,0.5113378511805112,0.4977324090036405,0.48072560628255206,0.47052152464989905,0.46371880356146367,0.46371880356146367,0.46371880356146367,0.46371880356146367,0.46371880356146367,0.460317443017246,0.4569160824730283,0.4569160824730283,0.4535147219288106,0.4535147219288106,0.4501133613845929,0.4433106402961575,0.4433106402961575,0.43990927975193983,0.43990927975193983,0.43990927975193983,0.43990927975193983,0.43650791920772214,0.43310655866350445,0.42970519811928676,0.42970519811928676,0.42630383757506907,0.42630383757506907,0.42630383757506907,0.42630383757506907,0.42630383757506907,0.42630383757506907,0.42630383757506907,0.42630383757506907,0.42630383757506907,0.4229024770308514,0.4229024770308514,0.41950111648663374,0.41950111648663374,0.41950111648663374,0.41609975594241605,0.41609975594241605,0.41609975594241605,0.41269839539819836,0.41269839539819836,0.40929703485398067,0.40929703485398067,0.40929703485398067,0.40929703485398067,0.405895674309763,0.405895674309763,0.405895674309763,0.405895674309763,0.405895674309763,0.405895674309763,0.405895674309763,0.405895674309763,0.405895674309763,0.405895674309763,0.405895674309763,0.405895674309763,0.405895674309763,0.405895674309763,0.405895674309763,0.405895674309763,0.405895674309763,0.405895674309763,0.405895674309763,0.405895674309763,0.405895674309763,0.405895674309763,0.405895674309763,0.405895674309763,0.405895674309763,0.405895674309763,0.405895674309763,0.405895674309763,0.405895674309763,0.405895674309763,0.405895674309763,0.405895674309763,0.405895674309763,0.405895674309763,0.405895674309763,0.405895674309763,0.405895674309763,0.405895674309763,0.405895674309763,0.405895674309763,0.3922902321328922,0.37868478995602145,0.36848070832336843,0.35827662669071536,0.35147390560228,0.3446711845138446,0.3344671028811915,0.32426302124853845,0.3208616607043208,0.31405893961588544,0.31405893961588544,0.31405893961588544,0.31405893961588544,0.31405893961588544,0.31405893961588544,0.31405893961588544,0.31405893961588544,0.31405893961588544,0.31405893961588544,0.31405893961588544,0.31405893961588544,0.31405893961588544,0.31405893961588544,0.31405893961588544,0.31405893961588544,0.31065757907166774,0.31065757907166774,0.31065757907166774,0.31065757907166774,0.31065757907166774,0.3174603001601031,0.32426302124853845,0.3378684634254092,0.3480725450580623,0.35487526614649767,0.35827662669071536,0.36507934777915074,0.3718820688675861,0.37868478995602145,0.37868478995602145,0.37868478995602145,0.38208615050023914,0.38208615050023914,0.38208615050023914,0.38208615050023914,0.38208615050023914,0.38548751104445683,0.38548751104445683,0.38548751104445683,0.38548751104445683,0.38548751104445683,0.3888888715886745,0.3888888715886745,0.3888888715886745,0.3922902321328922,0.3922902321328922,0.3956915926771099,0.3990929532213276,0.3990929532213276,0.3990929532213276,0.3990929532213276,0.4024943137655453,0.4024943137655453,0.4024943137655453,0.4024943137655453,0.4024943137655453,0.4024943137655453,0.4024943137655453,0.4024943137655453,0.4024943137655453,0.4024943137655453,0.4024943137655453,0.4024943137655453,0.4024943137655453,0.4024943137655453,0.4024943137655453,0.4024943137655453,0.405895674309763,0.405895674309763,0.405895674309763,0.405895674309763,0.405895674309763,0.405895674309763,0.405895674309763,0.405895674309763,0.405895674309763,0.405895674309763,0.405895674309763,0.405895674309763,0.405895674309763,0.405895674309763,0.405895674309763,0.405895674309763,0.405895674309763,0.405895674309763,0.405895674309763,0.405895674309763,0.405895674309763,0.405895674309763,0.405895674309763,0.405895674309763,0.405895674309763,0.405895674309763,0.405895674309763,0.405895674309763,0.405895674309763,0.405895674309763,0.405895674309763,0.405895674309763,0.40929703485398067,0.40929703485398067,0.41269839539819836,0.41269839539819836,0.41269839539819836,0.41609975594241605,0.42630383757506907,0.43990927975193983,0.4569160824730283,0.46371880356146367,0.4773242457383344,0.5011337695478582,0.524943293357382,0.5555555382553412,0.5929705042417358,0.6099773069628242,0.6167800280512595,0.6235827491396949,0.6269841096839126,0.6303854702281303,0.6439909124050011,0.6541949940376541,0.6643990756703072,0.678004517847178,0.6814058783913957,0.6916099600240487,0.6950113205682664,0.7154194838335725,0.7358276470988786,0.7630385314526201,0.7800453341737086,0.797052136894797,0.8038548579832323,0.8038548579832323,0.8038548579832323,0.8038548579832323,0.8038548579832323,0.8038548579832323,0.8038548579832323,0.8004534974390146,0.797052136894797,0.786848055262144,0.7732426130852732,0.7562358103641847,0.7290249260104432,0.7052154022009194,0.6950113205682664,0.6848072389356133,0.6848072389356133,0.6848072389356133,0.6848072389356133,0.6848072389356133,0.688208599479831,0.6916099600240487,0.6916099600240487,0.6916099600240487,0.6916099600240487,0.6916099600240487,0.6916099600240487,0.688208599479831,0.6814058783913957,0.678004517847178,0.6712017967587426,0.6609977151260895,0.6609977151260895,0.6541949940376541,0.6507936334934364,0.6507936334934364,0.6507936334934364,0.6507936334934364,0.6541949940376541,0.6541949940376541,0.6541949940376541,0.6541949940376541,0.6575963545818718,0.6609977151260895,0.6678004362145249,0.6712017967587426,0.6746031573029603,0.6746031573029603,0.6746031573029603,0.6746031573029603,0.6746031573029603,0.6746031573029603,0.6746031573029603,0.678004517847178,0.678004517847178,0.6814058783913957,0.6814058783913957,0.6848072389356133,0.6916099600240487,0.6950113205682664,0.698412681112484,0.7018140416567017,0.7018140416567017,0.7052154022009194,0.7120181232893548,0.7120181232893548,0.7188208443777901,0.7222222049220078,0.7290249260104432,0.7290249260104432,0.7324262865546609,0.7324262865546609,0.7324262865546609,0.7324262865546609,0.7324262865546609,0.7290249260104432,0.7290249260104432,0.7290249260104432,0.7290249260104432,0.7358276470988786,0.7460317287315317,0.7630385314526201,0.7800453341737086,0.786848055262144,0.8004534974390146,0.8140589396158854,0.8242630212485385,0.8344671028811915,0.8480725450580623,0.8548752661464977,0.8582766266907154,0.8582766266907154,0.8650793477791507,0.8990929532213275,0.9399092797519398,0.9909296879152052,1.0317460144458175,1.0487528171669058,1.0521541777111234,1.0521541777111234,1.0521541777111234,1.0521541777111234,1.0521541777111234,1.0521541777111234,1.0521541777111234,1.0521541777111234,1.0555555382553412,1.0657596198879942,1.0861677831533003,1.099773225330171,1.1099773069628243,1.1133786675070418,1.1201813885954772,1.123582749139695,1.123582749139695,1.123582749139695,1.123582749139695,1.123582749139695,1.1269841096839126,1.1269841096839126,1.1269841096839126,1.1269841096839126,1.1269841096839126,1.1099773069628243,1.0929705042417357,1.0861677831533003,1.069160980432212,1.069160980432212,1.069160980432212,1.0623582593437766,1.0453514566226882,1.0317460144458175,1.0113378511805113,0.9977324090036405,0.9807256062825521,0.960317443017246,0.9331065586635044,0.9024943137655452,0.8752834294118038,0.8582766266907154,0.8480725450580623,0.8446711845138446,0.8412698239696269,0.8412698239696269,0.8412698239696269,0.8412698239696269,0.8378684634254092,0.8378684634254092,0.8344671028811915,0.8344671028811915,0.8344671028811915,0.8310657423369738,0.8310657423369738,0.8310657423369738,0.8276643817927561,0.8208616607043208,0.8140589396158854,0.8140589396158854,0.8106575790716677,0.8106575790716677,0.80725621852745,0.80725621852745,0.80725621852745,0.8038548579832323,0.8004534974390146,0.8004534974390146,0.8004534974390146,0.8004534974390146,0.797052136894797,0.797052136894797,0.797052136894797,0.797052136894797,0.797052136894797,0.797052136894797,0.797052136894797,0.797052136894797,0.797052136894797,0.797052136894797,0.797052136894797,0.797052136894797,0.797052136894797,0.797052136894797,0.797052136894797,0.797052136894797,0.797052136894797,0.797052136894797,0.797052136894797,0.797052136894797,0.797052136894797,0.797052136894797,0.797052136894797,0.797052136894797,0.797052136894797,0.797052136894797,0.797052136894797,0.797052136894797,0.797052136894797,0.797052136894797,0.797052136894797,0.797052136894797,0.797052136894797,0.797052136894797,0.797052136894797,0.797052136894797,0.797052136894797,0.797052136894797,0.797052136894797,0.797052136894797,0.797052136894797,0.8004534974390146,0.8038548579832323,0.80725621852745,0.8106575790716677,0.8140589396158854,0.8174603001601031,0.8310657423369738,0.8378684634254092,0.8480725450580623,0.85147390560228,0.861677987234933,0.8684807083233684,0.8718820688675861,0.8752834294118038,0.8786847899560215,0.8820861505002392,0.8854875110444569,0.8922902321328923,0.89569159267711,0.8990929532213275,0.8990929532213275,0.8990929532213275,0.8990929532213275,0.8990929532213275,0.8990929532213275,0.8990929532213275,0.8990929532213275,0.8990929532213275,0.8990929532213275,0.8990929532213275,0.8990929532213275,0.8990929532213275,0.8990929532213275,0.8990929532213275,0.8990929532213275,0.8990929532213275,0.8990929532213275,0.8990929532213275,0.89569159267711,0.8888888715886746,0.8786847899560215,0.8650793477791507,0.8480725450580623,0.8344671028811915,0.8276643817927561,0.8208616607043208,0.8140589396158854,0.8004534974390146,0.7800453341737086,0.7324262865546609,0.6609977151260895,0.5827664226090827,0.5283446539015997,0.5113378511805112,0.5113378511805112,0.5113378511805112,0.5113378511805112,0.5113378511805112,0.5113378511805112,0.5113378511805112,0.5113378511805112,0.524943293357382,0.5385487355342528,0.5521541777111235,0.5623582593437766,0.5725623409764297,0.5759637015206474,0.5759637015206474,0.5759637015206474,0.5759637015206474,0.5759637015206474,0.5759637015206474,0.5759637015206474,0.5759637015206474,0.5759637015206474,0.5759637015206474,0.5759637015206474,0.5759637015206474,0.5759637015206474,0.5725623409764297,0.569160980432212,0.5623582593437766,0.5589568987995589,0.5555555382553412,0.5521541777111235,0.5487528171669058,0.5419500960784704,0.5385487355342528,0.5317460144458174,0.524943293357382,0.5147392117247289,0.5079364906362935,0.5011337695478582,0.49433104845942283,0.49092968791520514,0.48752832737098745,0.48412696682676976,0.48072560628255206,0.4773242457383344,0.47052152464989905,0.4569160824730283,0.43650791920772214,0.41269839539819836,0.38208615050023914,0.35487526614649767,0.32426302124853845,0.2868480552621439,0.27664397362949084,0.27324261308527314,0.27324261308527314,0.27324261308527314,0.27324261308527314,0.27324261308527314,0.27324261308527314,0.27324261308527314,0.27324261308527314,0.27324261308527314,0.27324261308527314,0.27324261308527314,0.2698412525410555,0.2664398919968378,0.25623581036418475,0.24263036818731398,0.21882084437779017,0.18480723893561332,0.14739227294921875,0.11337866750704188,0.08956914369751807,0.08956914369751807,0.08616778315330038,0.08616778315330038,0.08616778315330038,0.08616778315330038,0.08616778315330038,0.08616778315330038,0.08616778315330038,0.08616778315330038,0.08616778315330038,0.08616778315330038,0.08616778315330038,0.08616778315330038,0.08616778315330038,0.08616778315330038,0.08616778315330038,0.08616778315330038,0.09297050424173575,0.10317458587438882,0.11678002805125956,0.13038547022813032,0.15079363349343644,0.16780043621452487,0.18140587839139563,0.19160996002404868,0.19841268111248406,0.20181404165670175,0.2120181232893548,0.21882084437779017,0.23242628655466094,0.2392290076430963,0.24263036818731398,0.24263036818731398,0.24263036818731398,0.24603172873153167,0.25623581036418475,0.26303853145262013,0.2698412525410555,0.27324261308527314,0.27324261308527314,0.27324261308527314,0.27324261308527314,0.27324261308527314,0.27324261308527314,0.27324261308527314,0.27324261308527314,0.27324261308527314,0.27324261308527314,0.27324261308527314,0.27324261308527314,0.27324261308527314,0.27324261308527314,0.27324261308527314,0.27324261308527314,0.27324261308527314,0.27324261308527314,0.27664397362949084,0.27664397362949084,0.27664397362949084,0.27664397362949084,0.27664397362949084,0.2800453341737085,0.2868480552621439,0.2902494158063616,0.30385485798323236,0.3174603001601031,0.3208616607043208,0.33106574233697383,0.3344671028811915,0.3378684634254092,0.3378684634254092,0.3378684634254092,0.3378684634254092,0.3378684634254092,0.3378684634254092,0.3412698239696269,0.3412698239696269,0.3412698239696269,0.3412698239696269,0.3412698239696269,0.3412698239696269,0.3412698239696269,0.3412698239696269,0.3412698239696269,0.3412698239696269,0.3412698239696269,0.3412698239696269,0.3412698239696269,0.3412698239696269,0.3412698239696269,0.3412698239696269,0.3412698239696269,0.3412698239696269,0.3412698239696269,0.3412698239696269,0.3412698239696269,0.3412698239696269,0.3412698239696269,0.3412698239696269,0.3412698239696269,0.3412698239696269,0.3378684634254092,0.32766438179275614,0.32426302124853845,0.3208616607043208,0.3208616607043208,0.3208616607043208,0.3208616607043208,0.3208616607043208,0.3208616607043208,0.3174603001601031,0.3174603001601031,0.3174603001601031,0.3174603001601031,0.3174603001601031,0.3174603001601031,0.3174603001601031,0.3174603001601031,0.3174603001601031,0.3174603001601031,0.3174603001601031,0.3174603001601031,0.3174603001601031,0.3174603001601031,0.3174603001601031,0.3174603001601031,0.3174603001601031,0.3174603001601031,0.32766438179275614,0.3480725450580623,0.37528342941180376,0.405895674309763,0.41950111648663374,0.4229024770308514,0.4229024770308514,0.4229024770308514,0.4229024770308514,0.4229024770308514,0.4229024770308514,0.4229024770308514,0.4229024770308514,0.4229024770308514,0.4229024770308514,0.4229024770308514,0.4229024770308514,0.4229024770308514,0.4229024770308514,0.42630383757506907,0.42970519811928676,0.43990927975193983,0.4501133613845929,0.46371880356146367,0.4739228851941167,0.48072560628255206,0.48412696682676976,0.48752832737098745,0.49092968791520514,0.5011337695478582,0.5147392117247289,0.5351473749900351,0.5521541777111235,0.569160980432212,0.5759637015206474,0.5759637015206474,0.5759637015206474,0.5759637015206474,0.5759637015206474,0.5759637015206474,0.5759637015206474,0.579365062064865,0.579365062064865,0.579365062064865,0.579365062064865,0.579365062064865,0.579365062064865,0.579365062064865,0.579365062064865,0.579365062064865,0.579365062064865,0.579365062064865,0.5827664226090827,0.5861677831533004,0.5929705042417358,0.5997732253301711,0.6065759464186065,0.6133786675070418,0.6235827491396949,0.6439909124050011,0.6507936334934364,0.6609977151260895,0.6712017967587426,0.6746031573029603,0.678004517847178,0.678004517847178,0.678004517847178,0.678004517847178,0.678004517847178,0.678004517847178,0.678004517847178,0.6814058783913957,0.6814058783913957,0.6814058783913957,0.6814058783913957,0.6814058783913957,0.6814058783913957,0.6814058783913957,0.6814058783913957,0.6814058783913957,0.6814058783913957,0.6814058783913957,0.6814058783913957,0.6814058783913957,0.6814058783913957,0.6814058783913957,0.6814058783913957,0.6814058783913957,0.6814058783913957,0.6814058783913957,0.6814058783913957,0.6814058783913957,0.6814058783913957,0.6814058783913957,0.678004517847178,0.6678004362145249,0.6405895518607834,0.5929705042417358,0.5283446539015997,0.48072560628255206,0.4569160824730283,0.4501133613845929,0.4501133613845929,0.4501133613845929,0.4501133613845929,0.4467120008403752,0.43990927975193983,0.4229024770308514,0.405895674309763,0.3956915926771099,0.3888888715886745,0.38208615050023914,0.37868478995602145,0.37868478995602145,0.37868478995602145,0.38548751104445683,0.40929703485398067,0.4433106402961575,0.49092968791520514,0.5419500960784704,0.5929705042417358,0.6439909124050011,0.6746031573029603,0.6848072389356133,0.6916099600240487,0.6950113205682664,0.6950113205682664,0.6950113205682664,0.6950113205682664,0.6950113205682664,0.6950113205682664,0.6950113205682664,0.6848072389356133,0.6439909124050011,0.6099773069628242,0.5827664226090827,0.569160980432212,0.5589568987995589,0.5453514566226881,0.5283446539015997,0.49092968791520514,0.4433106402961575,0.4024943137655453,0.37528342941180376,0.36167798723493305,0.3480725450580623,0.3344671028811915,0.3174603001601031,0.2868480552621439,0.25623581036418475,0.23242628655466094,0.21541948383357248,0.20181404165670175,0.19501132056826637,0.19501132056826637,0.19160996002404868,0.18820859947983098,0.18820859947983098,0.18480723893561332,0.18140587839139563,0.17460315730296025,0.16780043621452487,0.16780043621452487,0.16099771512608949,0.15079363349343644,0.14739227294921875,0.14739227294921875,0.14739227294921875,0.14739227294921875,0.14739227294921875,0.14739227294921875,0.14739227294921875,0.14739227294921875,0.14739227294921875,0.14739227294921875,0.14739227294921875,0.14739227294921875,0.14739227294921875,0.14739227294921875,0.14739227294921875,0.14739227294921875,0.14739227294921875,0.14739227294921875,0.14399091240500106,0.14399091240500106,0.14399091240500106,0.14058955186078337,0.14058955186078337,0.13378683077234801,0.13038547022813032,0.12018138859547725,0.10997730696282419,0.09637186478595344,0.0827664226090827,0.0827664226090827,0.079365062064865,0.079365062064865,0.079365062064865,0.079365062064865,0.079365062064865,0.079365062064865,0.079365062064865,0.079365062064865,0.079365062064865,0.079365062064865,0.079365062064865,0.079365062064865,0.0827664226090827,0.0827664226090827,0.0827664226090827,0.0827664226090827,0.0827664226090827,0.0827664226090827,0.0827664226090827,0.0827664226090827,0.0827664226090827,0.0827664226090827,0.0827664226090827,0.0827664226090827,0.08616778315330038,0.09637186478595344,0.10317458587438882,0.12358274913969494,0.15079363349343644,0.19160996002404868,0.24263036818731398,0.2868480552621439,0.3208616607043208,0.3480725450580623,0.37868478995602145,0.4229024770308514,0.5079364906362935,0.5725623409764297,0.633786830772348,0.7018140416567017,0.7834466947179263,0.861677987234933,0.916099755942416,0.9535147219288106,0.9739228851941167,0.9841269668267698,1.0011337695478582,1.0215419328131643,1.035147374990035,1.035147374990035,1.0385487355342529,1.0419500960784704,1.0521541777111234,1.0657596198879942,1.0657596198879942,1.0657596198879942,1.0657596198879942,1.0657596198879942,1.0657596198879942,1.0657596198879942,1.0657596198879942,1.0657596198879942,1.0657596198879942,1.0657596198879942,1.0623582593437766,1.0521541777111234,1.0385487355342529,1.0181405722689467,1.0079364906362935,1.0011337695478582,0.9943310484594229,0.9943310484594229,0.9943310484594229,0.9943310484594229,0.9943310484594229,0.9943310484594229,0.9943310484594229,0.9943310484594229,0.9943310484594229,0.9943310484594229,0.9943310484594229,0.9909296879152052,0.9875283273709875,0.9875283273709875,0.9841269668267698,0.9807256062825521,0.9739228851941167,0.9671201641056814,0.9501133613845929,0.9331065586635044,0.8990929532213275,0.8718820688675861,0.8548752661464977,0.8446711845138446,0.8412698239696269,0.8412698239696269,0.8344671028811915,0.8276643817927561,0.797052136894797,0.7596371709084024,0.7290249260104432,0.7086167627451371,0.6950113205682664,0.6950113205682664,0.6916099600240487,0.6848072389356133,0.678004517847178,0.6507936334934364,0.6031745858743888,0.5351473749900351,0.42630383757506907,0.35827662669071536,0.30385485798323236,0.26303853145262013,0.22902492601044325,0.20181404165670175,0.18480723893561332,0.16780043621452487,0.15079363349343644,0.13378683077234801,0.12358274913969494,0.11678002805125956,0.11678002805125956,0.11678002805125956,0.11678002805125956,0.11678002805125956,0.11678002805125956,0.11678002805125956,0.11678002805125956,0.11678002805125956,0.11678002805125956,0.11678002805125956,0.11678002805125956,0.11337866750704188,0.11337866750704188,0.11337866750704188,0.11337866750704188,0.11337866750704188,0.11337866750704188,0.11337866750704188,0.11337866750704188,0.11337866750704188,0.11678002805125956,0.12358274913969494,0.13038547022813032,0.13378683077234801,0.13718819131656568,0.13718819131656568,0.14058955186078337,0.14399091240500106,0.14739227294921875,0.14739227294921875,0.15079363349343644,0.15079363349343644,0.15079363349343644,0.15079363349343644,0.15079363349343644,0.15079363349343644,0.15079363349343644,0.15079363349343644,0.15079363349343644,0.15079363349343644,0.15079363349343644,0.15079363349343644,0.14739227294921875,0.14399091240500106,0.14399091240500106,0.14058955186078337,0.14058955186078337,0.14058955186078337,0.14058955186078337,0.14058955186078337,0.14058955186078337,0.14058955186078337,0.14058955186078337,0.14058955186078337,0.14058955186078337,0.14058955186078337,0.13378683077234801,0.12698410968391263,0.1065759464186065,0.06575961988799427,0.011337851180511267,-0.036281196438536355,-0.06009072024806016,-0.06009072024806016,-0.06009072024806016,-0.06009072024806016,-0.06009072024806016,-0.06349208079227785,-0.06349208079227785,-0.06349208079227785,-0.06349208079227785,-0.06009072024806016,-0.05668935970384247,-0.05328799915962479,-0.04648527807118941,-0.032879835894318664,-0.022675754261665605,-0.019274393717447918],"y":[-2.9761904761904763,0.6095238095238096,0.6095238095238096,0.6095238095238096,0.6095238095238096,0.6190476190476191,0.6190476190476191,0.6285714285714286,0.6285714285714286,0.6285714285714286,0.638095238095238,0.6571428571428571,0.6761904761904762,0.6857142857142857,0.7142857142857143,0.7333333333333333,0.7428571428571429,0.7523809523809524,0.7714285714285715,0.7714285714285715,0.780952380952381,0.780952380952381,0.8,0.8,0.819047619047619,0.8285714285714286,0.8476190476190476,0.8761904761904762,0.8952380952380953,0.9142857142857143,0.9523809523809523,0.9714285714285714,1.0095238095238095,1.0285714285714285,1.0761904761904761,1.0952380952380953,1.1142857142857143,1.1333333333333333,1.1523809523809523,1.161904761904762,1.1904761904761905,1.2,1.2095238095238094,1.2380952380952381,1.2476190476190476,1.2666666666666666,1.276190476190476,1.2857142857142858,1.2857142857142858,1.2857142857142858,1.2857142857142858,1.2857142857142858,1.2857142857142858,1.2857142857142858,1.2857142857142858,1.2476190476190476,1.2285714285714286,1.2095238095238094,1.2,1.1904761904761905,1.1904761904761905,1.1904761904761905,1.1904761904761905,1.1904761904761905,1.180952380952381,1.1714285714285715,1.161904761904762,1.1523809523809523,1.1428571428571428,1.1142857142857143,1.0857142857142856,0.9714285714285714,0.8,0.5428571428571428,0.3047619047619048,0.10476190476190476,-0.02857142857142857,-0.13333333333333333,-0.19047619047619047,-0.22857142857142856,-0.2761904761904762,-0.2761904761904762,-0.2761904761904762,-0.2761904761904762,-0.2761904761904762,-0.2761904761904762,-0.2761904761904762,-0.2761904761904762,-0.2761904761904762,-0.2761904761904762,-0.2761904761904762,-0.29523809523809524,-0.3238095238095238,-0.3333333333333333,-0.3523809523809524,-0.37142857142857144,-0.3904761904761905,-0.4095238095238095,-0.41904761904761906,-0.42857142857142855,-0.44761904761904764,-0.4666666666666667,-0.4666666666666667,-0.4666666666666667,-0.4666666666666667,-0.4666666666666667,-0.44761904761904764,-0.41904761904761906,-0.4,-0.3619047619047619,-0.3047619047619048,-0.23809523809523808,-0.1523809523809524,-0.08571428571428572,-0.05714285714285714,-0.02857142857142857,-0.009523809523809525,0,0,0,0,0,0,0,0,0,0,0,0,0,0,-0.009523809523809525,-0.009523809523809525,-0.009523809523809525,-0.009523809523809525,-0.009523809523809525,-0.009523809523809525,-0.009523809523809525,-0.009523809523809525,-0.009523809523809525,-0.009523809523809525,-0.009523809523809525,-0.009523809523809525,-0.009523809523809525,-0.009523809523809525,-0.009523809523809525,-0.009523809523809525,-0.009523809523809525,-0.009523809523809525,-0.009523809523809525,-0.009523809523809525,-0.009523809523809525,-0.009523809523809525,-0.01904761904761905,-0.01904761904761905,-0.01904761904761905,-0.01904761904761905,-0.01904761904761905,-0.01904761904761905,-0.01904761904761905,-0.01904761904761905,-0.01904761904761905,-0.01904761904761905,-0.01904761904761905,-0.01904761904761905,-0.01904761904761905,-0.01904761904761905,-0.01904761904761905,-0.01904761904761905,-0.01904761904761905,-0.01904761904761905,-0.01904761904761905,-0.01904761904761905,-0.01904761904761905,-0.01904761904761905,-0.01904761904761905,-0.01904761904761905,-0.01904761904761905,-0.01904761904761905,-0.01904761904761905,-0.01904761904761905,-0.01904761904761905,-0.01904761904761905,-0.01904761904761905,-0.01904761904761905,-0.01904761904761905,-0.01904761904761905,-0.01904761904761905,-0.01904761904761905,-0.01904761904761905,-0.01904761904761905,-0.01904761904761905,-0.01904761904761905,-0.01904761904761905,-0.01904761904761905,-0.01904761904761905,-0.01904761904761905,-0.01904761904761905,-0.01904761904761905,-0.01904761904761905,-0.01904761904761905,-0.01904761904761905,-0.01904761904761905,-0.01904761904761905,-0.01904761904761905,-0.01904761904761905,-0.01904761904761905,-0.01904761904761905,-0.01904761904761905,-0.01904761904761905,-0.01904761904761905,-0.01904761904761905,-0.01904761904761905,-0.01904761904761905,-0.01904761904761905,-0.01904761904761905,-0.01904761904761905,-0.01904761904761905,-0.01904761904761905,-0.01904761904761905,-0.01904761904761905,-0.01904761904761905,-0.01904761904761905,-0.01904761904761905,-0.01904761904761905,-0.01904761904761905,-0.01904761904761905,-0.01904761904761905,-0.01904761904761905,-0.01904761904761905,-0.01904761904761905,-0.01904761904761905,-0.01904761904761905,-0.01904761904761905,-0.01904761904761905,-0.01904761904761905,-0.01904761904761905,-0.01904761904761905,-0.01904761904761905,-0.01904761904761905,-0.01904761904761905,-0.01904761904761905,-0.01904761904761905,-0.01904761904761905,-0.01904761904761905,-0.01904761904761905,-0.009523809523809525,0.01904761904761905,0.06666666666666667,0.14285714285714285,0.2,0.24761904761904763,0.34285714285714286,0.3904761904761905,0.45714285714285713,0.5142857142857142,0.5523809523809524,0.580952380952381,0.5904761904761905,0.6,0.6095238095238096,0.6095238095238096,0.6190476190476191,0.6190476190476191,0.6285714285714286,0.6285714285714286,0.6285714285714286,0.6285714285714286,0.6285714285714286,0.6285714285714286,0.6285714285714286,0.6190476190476191,0.6,0.580952380952381,0.5523809523809524,0.5238095238095238,0.4666666666666667,0.4380952380952381,0.4,0.38095238095238093,0.3619047619047619,0.34285714285714286,0.3142857142857143,0.29523809523809524,0.2761904761904762,0.24761904761904763,0.23809523809523808,0.20952380952380953,0.19047619047619047,0.14285714285714285,0.11428571428571428,0.08571428571428572,0.06666666666666667,0.06666666666666667,0.06666666666666667,0.06666666666666667,0.06666666666666667,0.06666666666666667,0.06666666666666667,0.05714285714285714,0.05714285714285714,0.05714285714285714,0.05714285714285714,0.05714285714285714,0.05714285714285714,0.05714285714285714,0.05714285714285714,0.05714285714285714,0.05714285714285714,0.05714285714285714,0.05714285714285714,0.05714285714285714,0.05714285714285714,0.05714285714285714,0.05714285714285714,0.05714285714285714,0.05714285714285714,0.05714285714285714,0.047619047619047616,0.02857142857142857,0.01904761904761905,0.01904761904761905,0.01904761904761905,0.01904761904761905,0.01904761904761905,0.01904761904761905,0.01904761904761905,0.01904761904761905,0.01904761904761905,0.01904761904761905,0.01904761904761905,0.01904761904761905,0.01904761904761905,0.01904761904761905,0.01904761904761905,0.02857142857142857,0.0380952380952381,0.05714285714285714,0.08571428571428572,0.11428571428571428,0.13333333333333333,0.1523809523809524,0.17142857142857143,0.2,0.21904761904761905,0.24761904761904763,0.2857142857142857,0.3238095238095238,0.34285714285714286,0.3523809523809524,0.3619047619047619,0.3619047619047619,0.3619047619047619,0.3619047619047619,0.37142857142857144,0.37142857142857144,0.37142857142857144,0.38095238095238093,0.38095238095238093,0.38095238095238093,0.3904761904761905,0.3904761904761905,0.3904761904761905,0.3904761904761905,0.3904761904761905,0.3904761904761905,0.3904761904761905,0.3904761904761905,0.3904761904761905,0.4,0.4,0.4,0.4095238095238095,0.4095238095238095,0.4095238095238095,0.4095238095238095,0.41904761904761906,0.41904761904761906,0.41904761904761906,0.41904761904761906,0.42857142857142855,0.42857142857142855,0.42857142857142855,0.42857142857142855,0.42857142857142855,0.42857142857142855,0.42857142857142855,0.42857142857142855,0.42857142857142855,0.42857142857142855,0.42857142857142855,0.42857142857142855,0.42857142857142855,0.42857142857142855,0.42857142857142855,0.42857142857142855,0.42857142857142855,0.42857142857142855,0.42857142857142855,0.42857142857142855,0.42857142857142855,0.42857142857142855,0.42857142857142855,0.42857142857142855,0.42857142857142855,0.42857142857142855,0.42857142857142855,0.42857142857142855,0.42857142857142855,0.42857142857142855,0.42857142857142855,0.42857142857142855,0.42857142857142855,0.42857142857142855,0.42857142857142855,0.42857142857142855,0.42857142857142855,0.42857142857142855,0.42857142857142855,0.42857142857142855,0.4380952380952381,0.4380952380952381,0.4380952380952381,0.44761904761904764,0.47619047619047616,0.4857142857142857,0.4857142857142857,0.4857142857142857,0.4857142857142857,0.4857142857142857,0.4857142857142857,0.4857142857142857,0.4857142857142857,0.4857142857142857,0.4857142857142857,0.4857142857142857,0.4857142857142857,0.4857142857142857,0.47619047619047616,0.47619047619047616,0.47619047619047616,0.47619047619047616,0.4666666666666667,0.4666666666666667,0.4666666666666667,0.4666666666666667,0.4666666666666667,0.4666666666666667,0.4666666666666667,0.4666666666666667,0.4666666666666667,0.4666666666666667,0.4666666666666667,0.4666666666666667,0.4666666666666667,0.4666666666666667,0.4666666666666667,0.4666666666666667,0.4666666666666667,0.4666666666666667,0.4666666666666667,0.4666666666666667,0.4666666666666667,0.4666666666666667,0.4666666666666667,0.47619047619047616,0.4857142857142857,0.4857142857142857,0.4857142857142857,0.4857142857142857,0.4857142857142857,0.4857142857142857,0.4857142857142857,0.4857142857142857,0.49523809523809526,0.49523809523809526,0.5047619047619047,0.5142857142857142,0.5142857142857142,0.5142857142857142,0.5238095238095238,0.5238095238095238,0.5333333333333333,0.5333333333333333,0.5333333333333333,0.5428571428571428,0.5428571428571428,0.5428571428571428,0.5428571428571428,0.5428571428571428,0.5428571428571428,0.5428571428571428,0.5428571428571428,0.5428571428571428,0.5428571428571428,0.5428571428571428,0.5428571428571428,0.5428571428571428,0.5428571428571428,0.5428571428571428,0.5428571428571428,0.5428571428571428,0.5428571428571428,0.5428571428571428,0.5428571428571428,0.5428571428571428,0.5428571428571428,0.5428571428571428,0.5428571428571428,0.5428571428571428,0.5428571428571428,0.5428571428571428,0.5428571428571428,0.5428571428571428,0.5428571428571428,0.5523809523809524,0.5523809523809524,0.5619047619047619,0.5714285714285714,0.580952380952381,0.580952380952381,0.580952380952381,0.580952380952381,0.580952380952381,0.580952380952381,0.580952380952381,0.580952380952381,0.580952380952381,0.580952380952381,0.580952380952381,0.580952380952381,0.580952380952381,0.580952380952381,0.580952380952381,0.580952380952381,0.580952380952381,0.580952380952381,0.580952380952381,0.580952380952381,0.580952380952381,0.580952380952381,0.580952380952381,0.580952380952381,0.580952380952381,0.580952380952381,0.5714285714285714,0.5714285714285714,0.5714285714285714,0.5714285714285714,0.5714285714285714,0.5714285714285714,0.580952380952381,0.580952380952381,0.580952380952381,0.580952380952381,0.580952380952381,0.580952380952381,0.580952380952381,0.580952380952381,0.580952380952381,0.580952380952381,0.580952380952381,0.580952380952381,0.580952380952381,0.580952380952381,0.580952380952381,0.580952380952381,0.580952380952381,0.580952380952381,0.580952380952381,0.580952380952381,0.580952380952381,0.580952380952381,0.580952380952381,0.580952380952381,0.580952380952381,0.580952380952381,0.580952380952381,0.5714285714285714,0.5714285714285714,0.5714285714285714,0.5714285714285714,0.5714285714285714,0.5714285714285714,0.5714285714285714,0.5714285714285714,0.5619047619047619,0.5619047619047619,0.5619047619047619,0.5619047619047619,0.5619047619047619,0.5619047619047619,0.5619047619047619,0.5619047619047619,0.5619047619047619,0.5619047619047619,0.5619047619047619,0.5619047619047619,0.5619047619047619,0.5619047619047619,0.5619047619047619,0.5619047619047619,0.5619047619047619,0.5619047619047619,0.5619047619047619,0.5619047619047619,0.5619047619047619,0.5619047619047619,0.5619047619047619,0.5619047619047619,0.5619047619047619,0.5619047619047619,0.5523809523809524,0.5523809523809524,0.5428571428571428,0.5333333333333333,0.5238095238095238,0.5238095238095238,0.5047619047619047,0.47619047619047616,0.4380952380952381,0.37142857142857144,0.3333333333333333,0.2857142857142857,0.2571428571428571,0.22857142857142856,0.20952380952380953,0.2,0.17142857142857143,0.1619047619047619,0.1523809523809524,0.1523809523809524,0.1523809523809524,0.14285714285714285,0.14285714285714285,0.12380952380952381,0.12380952380952381,0.10476190476190476,0.10476190476190476,0.10476190476190476,0.09523809523809523,0.0761904761904762,0.0761904761904762,0.06666666666666667,0.06666666666666667,0.06666666666666667,0.06666666666666667,0.06666666666666667,0.06666666666666667,0.06666666666666667,0.06666666666666667,0.06666666666666667,0.06666666666666667,0.06666666666666667,0.06666666666666667,0.06666666666666667,0.06666666666666667,0.06666666666666667,0.06666666666666667,0.06666666666666667,0.06666666666666667,0.06666666666666667,0.06666666666666667,0.06666666666666667,0.06666666666666667,0.06666666666666667,0.06666666666666667,0.06666666666666667,0.06666666666666667,0.06666666666666667,0.06666666666666667,0.06666666666666667,0.06666666666666667,0.06666666666666667,0.06666666666666667,0.06666666666666667,0.06666666666666667,0.06666666666666667,0.06666666666666667,0.06666666666666667,0.06666666666666667,0.06666666666666667,0.06666666666666667,0.06666666666666667,0.06666666666666667,0.06666666666666667,0.06666666666666667,0.06666666666666667,0.06666666666666667,0.06666666666666667,0.06666666666666667,0.06666666666666667,0.06666666666666667,0.05714285714285714,0.05714285714285714,0.05714285714285714,0.05714285714285714,0.05714285714285714,0.05714285714285714,0.05714285714285714,0.05714285714285714,0.05714285714285714,0.05714285714285714,0.05714285714285714,0.05714285714285714,0.05714285714285714,0.05714285714285714,0.05714285714285714,0.05714285714285714,0.05714285714285714,0.05714285714285714,0.05714285714285714,0.05714285714285714,0.05714285714285714,0.05714285714285714,0.05714285714285714,0.05714285714285714,0.05714285714285714,0.05714285714285714,0.05714285714285714,0.05714285714285714,0.05714285714285714,0.05714285714285714,0.05714285714285714,0.05714285714285714,0.05714285714285714,0.05714285714285714,0.05714285714285714,0.05714285714285714,0.05714285714285714,0.05714285714285714,0.05714285714285714,0.047619047619047616,0.047619047619047616,0.047619047619047616,0.0380952380952381,0.0380952380952381,0.0380952380952381,0.0380952380952381,0.0380952380952381,0.0380952380952381,0.0380952380952381,0.0380952380952381,0.0380952380952381,0.0380952380952381,0.02857142857142857,0.01904761904761905,0.009523809523809525,0.009523809523809525,0.009523809523809525,0.009523809523809525,0.009523809523809525,0.009523809523809525,0.009523809523809525,0.009523809523809525,0.009523809523809525,0.009523809523809525,0.009523809523809525,0.009523809523809525,0.009523809523809525,0.009523809523809525,0.009523809523809525,0.009523809523809525,0.009523809523809525,0.009523809523809525,0.009523809523809525,0.009523809523809525,0.009523809523809525,0.009523809523809525,0.009523809523809525,0.009523809523809525,0.009523809523809525,0.009523809523809525,0.009523809523809525,0.009523809523809525,0.009523809523809525,0.009523809523809525,0.009523809523809525,0.009523809523809525,0.009523809523809525,0.009523809523809525,0.009523809523809525,0.009523809523809525,0.009523809523809525,0.009523809523809525,0.009523809523809525,0.009523809523809525,0.009523809523809525,0.009523809523809525,0.009523809523809525,0.009523809523809525,0.009523809523809525,0.009523809523809525,0.009523809523809525,0.009523809523809525,0.009523809523809525,0.009523809523809525,0.009523809523809525,0.009523809523809525,0.009523809523809525,0.009523809523809525,0.01904761904761905,0.02857142857142857,0.0380952380952381,0.0380952380952381,0.047619047619047616,0.05714285714285714,0.05714285714285714,0.05714285714285714,0.05714285714285714,0.05714285714285714,0.05714285714285714,0.05714285714285714,0.05714285714285714,0.05714285714285714,0.05714285714285714,0.05714285714285714,0.05714285714285714,0.05714285714285714,0.05714285714285714,0.05714285714285714,0.05714285714285714,0.05714285714285714,0.05714285714285714,0.05714285714285714,0.05714285714285714,0.05714285714285714,0.05714285714285714,0.05714285714285714,0.05714285714285714,0.05714285714285714,0.05714285714285714,0.05714285714285714,0.05714285714285714,0.05714285714285714,0.05714285714285714,0.05714285714285714,0.05714285714285714,0.05714285714285714,0.06666666666666667,0.0761904761904762,0.10476190476190476,0.12380952380952381,0.18095238095238095,0.24761904761904763,0.3333333333333333,0.41904761904761906,0.4857142857142857,0.5428571428571428,0.6,0.6666666666666666,0.7142857142857143,0.7714285714285715,0.8095238095238095,0.8571428571428571,0.9142857142857143,0.9619047619047619,1.0095238095238095,1.0285714285714285,1.0476190476190477,1.0571428571428572,1.0857142857142856,1.1047619047619048,1.1142857142857143,1.1238095238095238,1.1333333333333333,1.1333333333333333,1.1333333333333333,1.1333333333333333,1.1333333333333333,1.1333333333333333,1.1333333333333333,1.1333333333333333,1.1333333333333333,1.1333333333333333,1.1333333333333333,1.1333333333333333,1.1333333333333333,1.1333333333333333,1.1333333333333333,1.1333333333333333,1.1333333333333333,1.1333333333333333,1.1428571428571428,1.1428571428571428,1.1428571428571428,1.1428571428571428,1.1142857142857143,1.0952380952380953,1.0666666666666667,1.0476190476190477,1.0285714285714285,1.019047619047619,1.0095238095238095,1.0095238095238095,1.0095238095238095,1.0095238095238095,1.0095238095238095,1.0095238095238095,1.0095238095238095,1.0095238095238095,1.0095238095238095,1.0095238095238095,1.0095238095238095,1.0095238095238095,1.0095238095238095,1.0095238095238095,1.0095238095238095,1.0095238095238095,1.0095238095238095,1.019047619047619,1.019047619047619,1.019047619047619,1.019047619047619,1.019047619047619,1.0285714285714285,1.0285714285714285,1.0285714285714285,1.0285714285714285,1.0285714285714285,1.0285714285714285,1.0285714285714285,1.0285714285714285,1.0285714285714285,1.019047619047619,1.019047619047619,1.019047619047619,1.019047619047619,1.019047619047619,1.019047619047619,1.0095238095238095,1.0095238095238095,1.0095238095238095,1.0095238095238095,1.0095238095238095,1.0095238095238095,1.0095238095238095,1.0095238095238095,1.0095238095238095,1,1,0.9904761904761905,0.9809523809523809,0.9619047619047619,0.9619047619047619,0.9619047619047619,0.9619047619047619,0.9619047619047619,0.9619047619047619,0.9619047619047619,0.9619047619047619,0.9619047619047619,0.9619047619047619,0.9619047619047619,0.9619047619047619,0.9619047619047619,0.9619047619047619,0.9619047619047619,0.9619047619047619,0.9619047619047619,0.9619047619047619,0.9619047619047619,0.9619047619047619,0.9619047619047619,0.9619047619047619,0.9619047619047619,0.9619047619047619,0.9619047619047619,0.9619047619047619,0.9619047619047619,0.9619047619047619,0.9619047619047619,0.9714285714285714,0.9714285714285714,0.9714285714285714,0.9714285714285714,0.9714285714285714,0.9714285714285714,0.9714285714285714,0.9714285714285714,0.9714285714285714,0.9714285714285714,0.9714285714285714,0.9714285714285714,0.9714285714285714,0.9714285714285714,0.9714285714285714,0.9714285714285714,0.9714285714285714,0.9714285714285714,0.9809523809523809,1,1,1.0095238095238095,1.0095238095238095,1.0095238095238095,1.019047619047619,1.0285714285714285,1.0380952380952382,1.0380952380952382,1.0380952380952382,1.0380952380952382,1.0380952380952382,1.0380952380952382,1.0380952380952382,1.0380952380952382,1.0380952380952382,1.0380952380952382,1.0380952380952382,1.0380952380952382,1.0380952380952382,1.0380952380952382,1.0380952380952382,1.0380952380952382,1.0380952380952382,1.0380952380952382,1.0380952380952382,1.0380952380952382,1.0285714285714285,1.019047619047619,1.019047619047619,1.019047619047619,1.019047619047619,1.019047619047619,1.019047619047619,1.019047619047619,1.019047619047619,1.019047619047619,1.0095238095238095,1.0095238095238095,1.0095238095238095,1.0095238095238095,1.0095238095238095,1.0095238095238095,1.0095238095238095,1.0095238095238095,1.0095238095238095,1.0095238095238095,1.0095238095238095,1.0095238095238095,1.0095238095238095,1.0095238095238095,1.0095238095238095,1.0095238095238095,1.0095238095238095,1.0095238095238095,1.0095238095238095,1.0095238095238095,1.0095238095238095,1.0095238095238095,1.0095238095238095,1.0095238095238095,1.0095238095238095,1.0095238095238095,1.0095238095238095,1.0095238095238095,1.0095238095238095,1.0095238095238095,1.0095238095238095,0.9904761904761905,0.9904761904761905,0.9619047619047619,0.9523809523809523,0.9428571428571428,0.9238095238095239,0.9142857142857143,0.9142857142857143,0.9047619047619048,0.9047619047619048,0.9047619047619048,0.9047619047619048,0.9047619047619048,0.9047619047619048,0.9047619047619048,0.9047619047619048,0.9047619047619048,0.9047619047619048,0.9047619047619048,0.9047619047619048,0.9047619047619048,0.9047619047619048,0.9047619047619048,0.9047619047619048,0.9142857142857143,0.9142857142857143,0.9142857142857143,0.9238095238095239,0.9238095238095239,0.9238095238095239,0.9333333333333333,0.9428571428571428,0.9428571428571428,0.9523809523809523,0.9523809523809523,0.9523809523809523,0.9523809523809523,0.9523809523809523,0.9523809523809523,0.9523809523809523,0.9523809523809523,0.9523809523809523,0.9619047619047619,0.9619047619047619,0.9619047619047619,0.9714285714285714,0.9714285714285714,0.9714285714285714,0.9714285714285714,0.9714285714285714,0.9714285714285714,0.9714285714285714,0.9714285714285714,0.9714285714285714,0.9523809523809523,0.8857142857142857,0.819047619047619,0.7428571428571429,0.6761904761904762,0.6,0.5428571428571428,0.49523809523809526,0.47619047619047616,0.4666666666666667,0.4666666666666667,0.4666666666666667,0.4666666666666667,0.4666666666666667,0.4666666666666667,0.4666666666666667,0.4666666666666667,0.4666666666666667,0.4666666666666667,0.4666666666666667,0.4666666666666667,0.47619047619047616,0.4857142857142857,0.4857142857142857,0.4857142857142857,0.4857142857142857,0.4857142857142857,0.4857142857142857,0.4857142857142857,0.4857142857142857,0.4857142857142857,0.4857142857142857,0.4857142857142857,0.4857142857142857,0.4857142857142857,0.4857142857142857,0.4857142857142857,0.4857142857142857,0.4857142857142857,0.4857142857142857,0.49523809523809526,0.49523809523809526,0.5047619047619047,0.5047619047619047,0.5047619047619047,0.5047619047619047,0.5047619047619047,0.5047619047619047,0.5142857142857142,0.5142857142857142,0.5142857142857142,0.5142857142857142,0.5238095238095238,0.5333333333333333,0.5333333333333333,0.5333333333333333,0.5428571428571428,0.5428571428571428,0.5428571428571428,0.5428571428571428,0.5523809523809524,0.5523809523809524,0.5714285714285714,0.580952380952381,0.580952380952381,0.580952380952381,0.580952380952381,0.5904761904761905,0.6,0.6,0.6,0.6095238095238096,0.6095238095238096,0.6190476190476191,0.6190476190476191,0.6190476190476191,0.6190476190476191,0.6190476190476191,0.6190476190476191,0.6190476190476191,0.6190476190476191,0.6285714285714286,0.6285714285714286,0.6285714285714286,0.6190476190476191,0.5904761904761905,0.5714285714285714,0.5523809523809524,0.5333333333333333,0.5333333333333333,0.5238095238095238,0.5238095238095238,0.5142857142857142,0.5142857142857142,0.5142857142857142,0.5142857142857142,0.5142857142857142,0.5142857142857142,0.5142857142857142,0.5142857142857142,0.5142857142857142,0.5142857142857142,0.5142857142857142,0.5142857142857142,0.5142857142857142,0.5142857142857142,0.5142857142857142,0.5142857142857142,0.5142857142857142,0.5142857142857142,0.5142857142857142,0.5142857142857142,0.5142857142857142,0.5142857142857142,0.5142857142857142,0.5142857142857142,0.5142857142857142,0.5142857142857142,0.5142857142857142,0.5142857142857142,0.5142857142857142,0.5142857142857142,0.5142857142857142,0.5142857142857142,0.49523809523809526,0.47619047619047616,0.4666666666666667,0.44761904761904764,0.4380952380952381,0.4095238095238095,0.3904761904761905,0.34285714285714286,0.29523809523809524,0.26666666666666666,0.24761904761904763,0.21904761904761905,0.19047619047619047,0.17142857142857143,0.1619047619047619,0.1523809523809524,0.1523809523809524,0.1523809523809524,0.14285714285714285,0.14285714285714285,0.14285714285714285,0.14285714285714285,0.14285714285714285,0.14285714285714285,0.14285714285714285,0.14285714285714285,0.14285714285714285,0.14285714285714285,0.13333333333333333,0.11428571428571428,0.09523809523809523,0.06666666666666667,0.0380952380952381,0.009523809523809525,0.009523809523809525,0,0,0,0,0,0,0,0,0,0,0,0,0,0,0.009523809523809525,0.01904761904761905,0.02857142857142857,0.0380952380952381,0.05714285714285714,0.05714285714285714,0.05714285714285714,0.06666666666666667,0.0761904761904762,0.08571428571428572,0.09523809523809523,0.10476190476190476,0.10476190476190476,0.12380952380952381,0.14285714285714285,0.14285714285714285,0.1523809523809524,0.1523809523809524,0.1523809523809524,0.1523809523809524,0.1523809523809524,0.1523809523809524,0.1523809523809524,0.1619047619047619,0.1619047619047619,0.1619047619047619,0.1619047619047619,0.17142857142857143,0.17142857142857143,0.17142857142857143,0.17142857142857143,0.17142857142857143,0.17142857142857143,0.17142857142857143,0.17142857142857143,0.17142857142857143,0.17142857142857143,0.17142857142857143,0.17142857142857143,0.17142857142857143,0.17142857142857143,0.17142857142857143,0.17142857142857143,0.17142857142857143,0.17142857142857143,0.17142857142857143,0.17142857142857143,0.17142857142857143,0.17142857142857143,0.1619047619047619,0.1523809523809524,0.14285714285714285,0.14285714285714285,0.14285714285714285,0.13333333333333333,0.13333333333333333,0.11428571428571428,0.10476190476190476,0.10476190476190476,0.10476190476190476,0.10476190476190476,0.10476190476190476,0.10476190476190476,0.10476190476190476,0.10476190476190476,0.10476190476190476,0.10476190476190476,0.10476190476190476,0.10476190476190476,0.10476190476190476,0.10476190476190476,0.10476190476190476,0.10476190476190476,0.10476190476190476,0.10476190476190476,0.10476190476190476,0.10476190476190476,0.10476190476190476,0.10476190476190476,0.10476190476190476,0.10476190476190476,0.10476190476190476,0.10476190476190476,0.09523809523809523,0.08571428571428572,0.05714285714285714,0.047619047619047616,0.009523809523809525,0.009523809523809525,0.009523809523809525,0,0,0,0,0,0,0,0,0,0,0,0,0,0,0,0,0,0,0,0,0,0,0,0,0,0,0,0,0,0,0,0,0,0,0.009523809523809525,0.009523809523809525,0.009523809523809525,0.01904761904761905,0.01904761904761905,0.01904761904761905,0.02857142857142857,0.0380952380952381,0.0380952380952381,0.0380952380952381,0.0380952380952381,0.0380952380952381,0.0380952380952381,0.0380952380952381,0.0380952380952381,0.0380952380952381,0.0380952380952381,0.0380952380952381,0.0380952380952381,0.0380952380952381,0.0380952380952381,0.0380952380952381,0.0380952380952381,0.0380952380952381,0.0380952380952381,0.0380952380952381,0.02857142857142857,0.02857142857142857,0.02857142857142857,0.01904761904761905,0.01904761904761905,0.01904761904761905,0.01904761904761905,0.009523809523809525,0.009523809523809525,0.009523809523809525,0.009523809523809525,0.009523809523809525,0.009523809523809525,0.009523809523809525,0.009523809523809525,0.009523809523809525,0.009523809523809525,0.009523809523809525,0.009523809523809525,0.009523809523809525,0.009523809523809525,0.009523809523809525,0.009523809523809525,0.009523809523809525,0.009523809523809525,0.009523809523809525,0.009523809523809525,0.009523809523809525,0.0095