success,trial_type,trial_index,time_elapsed,internal_node_id,protocol_sum,subject_identifier,subject_sum,subject_pair,STUDY_ID,PROLIFIC_PID,SESSION_ID,practice_instructions,leaderboard_instructions,bonus,reveal_word,self_rating,confidence,view_history,rt,responses,question_order,correct,test_part,word,click_log,final_keyboard_state,num_clicks,points,cheat,response,position_RT,position,player,i_game,true_position,distance,last_word,stimulus,confidence_slider_self_response
1.0,fullscreen,0,3647,0.0-0.0,,511,"[149, 86, 184, 36, 153, 204, 10, 175, 134, 174, 231, 240, 210, 83, 225, 124, 97, 183, 239, 115, 212, 138, 41, 95, 55, 217, 143, 8, 176, 79, 250, 127]",255,66a3ed3c5d10d0e7d8a6b9da,666a13a91d6ab318e467374c,66a424828a958761be7461bb,1,0,0,True,1,96,,,,,,,,,,,,,,,,,,,,,,
,instructions,1,5481,0.0-1.0,,511,"[149, 86, 184, 36, 153, 204, 10, 175, 134, 174, 231, 240, 210, 83, 225, 124, 97, 183, 239, 115, 212, 138, 41, 95, 55, 217, 143, 8, 176, 79, 250, 127]",255,66a3ed3c5d10d0e7d8a6b9da,666a13a91d6ab318e467374c,66a424828a958761be7461bb,1,0,0,True,1,96,"[{""page_index"":0,""viewing_time"":1829.7999999970198}]",1830.2000000029802,,,,,,,,,,,,,,,,,,,,
,instructions,2,12168,0.0-2.0-0.0,,511,"[149, 86, 184, 36, 153, 204, 10, 175, 134, 174, 231, 240, 210, 83, 225, 124, 97, 183, 239, 115, 212, 138, 41, 95, 55, 217, 143, 8, 176, 79, 250, 127]",255,66a3ed3c5d10d0e7d8a6b9da,666a13a91d6ab318e467374c,66a424828a958761be7461bb,1,0,0,True,1,96,"[{""page_index"":0,""viewing_time"":6685.5}]",6685.79999999702,,,,,,,,,,,,,,,,,,,,
,survey-multi-choice,3,17466,0.0-2.0-1.0,,511,"[149, 86, 184, 36, 153, 204, 10, 175, 134, 174, 231, 240, 210, 83, 225, 124, 97, 183, 239, 115, 212, 138, 41, 95, 55, 217, 143, 8, 176, 79, 250, 127]",255,66a3ed3c5d10d0e7d8a6b9da,666a13a91d6ab318e467374c,66a424828a958761be7461bb,1,0,0,True,1,96,,5294.4000000059605,"{""Q0"":""... reveal the word with as <b>few letter guesses</b> as possible""}",[0],1.0,multichoice_nonpretend,,,,,,,,,,,,,,,,
,instructions,4,18878,0.0-3.0,,511,"[149, 86, 184, 36, 153, 204, 10, 175, 134, 174, 231, 240, 210, 83, 225, 124, 97, 183, 239, 115, 212, 138, 41, 95, 55, 217, 143, 8, 176, 79, 250, 127]",255,66a3ed3c5d10d0e7d8a6b9da,666a13a91d6ab318e467374c,66a424828a958761be7461bb,1,0,0,True,1,96,"[{""page_index"":0,""viewing_time"":1410.2999999970198}]",1410.7000000029802,,,,,,,,,,,,,,,,,,,,
,Hangman,5,51729,0.0-4.0,,511,"[149, 86, 184, 36, 153, 204, 10, 175, 134, 174, 231, 240, 210, 83, 225, 124, 97, 183, 239, 115, 212, 138, 41, 95, 55, 217, 143, 8, 176, 79, 250, 127]",255,66a3ed3c5d10d0e7d8a6b9da,666a13a91d6ab318e467374c,66a424828a958761be7461bb,1,0,0,True,1,96,,,,,,,ZEBRA,"{'letter': ['', 'S', 'Z', 'E', 'B', 'R', 'A'], 't': [0, 9386.90000000596, 24985.10000000894, 27014.80000001192, 28150, 29703.30000001192, 30835.90000000596], 'hit': [None, 0, 1, 1, 1, 1, 1], 'asked': ['', 'S', 'SZ', 'SZE', 'SZEB', 'SZEBR', 'SZEBRA'], 'word_state': ['_____', '_____', 'Z____', 'ZE___', 'ZEB__', 'ZEBR_', 'ZEBRA']}","['S', 'Z', 'E', 'B', 'R', 'A']",6.0,14.0,0.0,,,,,,,,,,
,instructions,6,64822,0.0-5.0,,511,"[149, 86, 184, 36, 153, 204, 10, 175, 134, 174, 231, 240, 210, 83, 225, 124, 97, 183, 239, 115, 212, 138, 41, 95, 55, 217, 143, 8, 176, 79, 250, 127]",255,66a3ed3c5d10d0e7d8a6b9da,666a13a91d6ab318e467374c,66a424828a958761be7461bb,1,0,0,True,1,96,"[{""page_index"":0,""viewing_time"":2669},{""page_index"":1,""viewing_time"":10421}]",13091.29999999702,,,,,,,,,,,,,,,,,,,,
,survey-multi-choice,7,70417,0.0-6.0,,511,"[149, 86, 184, 36, 153, 204, 10, 175, 134, 174, 231, 240, 210, 83, 225, 124, 97, 183, 239, 115, 212, 138, 41, 95, 55, 217, 143, 8, 176, 79, 250, 127]",255,66a3ed3c5d10d0e7d8a6b9da,666a13a91d6ab318e467374c,66a424828a958761be7461bb,1,0,0,True,1,96,,5592.0,"{""Q0"":""...from <b>a previous session</b> that is part of the upcoming tournament.""}",[0],0.0,multichoice_leaderboard,,,,,,,,,,,,,,,,
,instructions,8,72194,0.0-7.0-0.0,,511,"[149, 86, 184, 36, 153, 204, 10, 175, 134, 174, 231, 240, 210, 83, 225, 124, 97, 183, 239, 115, 212, 138, 41, 95, 55, 217, 143, 8, 176, 79, 250, 127]",255,66a3ed3c5d10d0e7d8a6b9da,666a13a91d6ab318e467374c,66a424828a958761be7461bb,1,0,0,True,1,96,"[{""page_index"":0,""viewing_time"":1775.9000000059605}]",1776.2000000029802,,,,,,,,,,,,,,,,,,,,
,survey-multi-choice,9,80215,0.0-7.0-1.0,,511,"[149, 86, 184, 36, 153, 204, 10, 175, 134, 174, 231, 240, 210, 83, 225, 124, 97, 183, 239, 115, 212, 138, 41, 95, 55, 217, 143, 8, 176, 79, 250, 127]",255,66a3ed3c5d10d0e7d8a6b9da,666a13a91d6ab318e467374c,66a424828a958761be7461bb,1,0,0,True,1,96,,8019.0,"{""Q0"":""...from <b>a previous session</b> that is not part of the upcoming tournament.""}",[0],1.0,multichoice_leaderboard,,,,,,,,,,,,,,,,
,instructions,10,86632,0.0-8.0,,511,"[149, 86, 184, 36, 153, 204, 10, 175, 134, 174, 231, 240, 210, 83, 225, 124, 97, 183, 239, 115, 212, 138, 41, 95, 55, 217, 143, 8, 176, 79, 250, 127]",255,66a3ed3c5d10d0e7d8a6b9da,666a13a91d6ab318e467374c,66a424828a958761be7461bb,1,0,0,True,1,96,"[{""page_index"":0,""viewing_time"":6415.20000000298}]",6415.600000008941,,,,,,,,,,,,,,,,,,,,
,survey-multi-choice,11,92440,0.0-9.0,,511,"[149, 86, 184, 36, 153, 204, 10, 175, 134, 174, 231, 240, 210, 83, 225, 124, 97, 183, 239, 115, 212, 138, 41, 95, 55, 217, 143, 8, 176, 79, 250, 127]",255,66a3ed3c5d10d0e7d8a6b9da,666a13a91d6ab318e467374c,66a424828a958761be7461bb,1,0,0,True,1,96,,5806.5,"{""Q0"":""...players' leaderboard position (in terms of <b>points</b>) in an <b>upcoming tournament.</b>""}",[0],1.0,multichoice_tournament,,,,,,,,,,,,,,,,
,instructions,12,100413,0.0-11.0,,511,"[149, 86, 184, 36, 153, 204, 10, 175, 134, 174, 231, 240, 210, 83, 225, 124, 97, 183, 239, 115, 212, 138, 41, 95, 55, 217, 143, 8, 176, 79, 250, 127]",255,66a3ed3c5d10d0e7d8a6b9da,666a13a91d6ab318e467374c,66a424828a958761be7461bb,1,0,0,True,1,96,"[{""page_index"":0,""viewing_time"":7970.5}]",7970.899999991059,,,,,,,,,,,,,,,,,,,,
,instructions,13,114041,0.0-12.0-0.0,,511,"[149, 86, 184, 36, 153, 204, 10, 175, 134, 174, 231, 240, 210, 83, 225, 124, 97, 183, 239, 115, 212, 138, 41, 95, 55, 217, 143, 8, 176, 79, 250, 127]",255,66a3ed3c5d10d0e7d8a6b9da,666a13a91d6ab318e467374c,66a424828a958761be7461bb,1,0,0,True,1,96,"[{""page_index"":0,""viewing_time"":13627}]",13627.40000000596,,,,,,,,,,,,,,,,,,,,
,type-this,14,122524,0.0-12.0-1.0,,511,"[149, 86, 184, 36, 153, 204, 10, 175, 134, 174, 231, 240, 210, 83, 225, 124, 97, 183, 239, 115, 212, 138, 41, 95, 55, 217, 143, 8, 176, 79, 250, 127]",255,66a3ed3c5d10d0e7d8a6b9da,666a13a91d6ab318e467374c,66a424828a958761be7461bb,1,0,0,True,1,96,,7970.4000000059605,['THIRTY FOUR'],,,,,,,,,,THIRTY FOUR,,,,,,,,,
,Hangman_replay,15,158777,0.0-12.0-2.0,,511,"[149, 86, 184, 36, 153, 204, 10, 175, 134, 174, 231, 240, 210, 83, 225, 124, 97, 183, 239, 115, 212, 138, 41, 95, 55, 217, 143, 8, 176, 79, 250, 127]",255,66a3ed3c5d10d0e7d8a6b9da,666a13a91d6ab318e467374c,66a424828a958761be7461bb,1,0,0,True,1,96,,,,,,,THIRTY FOUR,"{'letter': ['', 'S', 'F', 'I', 'V', 'O', 'U', 'R', 'T', 'H', 'Y'], 't': [0, 7221.5, 9123.20000000298, 11213.09999999404, 15019.29999999702, 19033.5, 21059.39999999106, 22818, 29658.29999999702, 32352, 34211.39999999106], 'hit': [None, 0, 1, 1, 0, 1, 1, 2, 2, 1, 1], 'asked': ['', 'S', 'SF', 'SFI', 'SFIV', 'SFIVO', 'SFIVOU', 'SFIVOUR', 'SFIVOURT', 'SFIVOURTH', 'SFIVOURTHY'], 'word_state': ['______ ____', '______ ____', '______ F___', '__I___ F___', '__I___ F___', '__I___ FO__', '__I___ FOU_', '__IR__ FOUR', 'T_IRT_ FOUR', 'THIRT_ FOUR', 'THIRTY FOUR']}","['S', 'F', 'I', 'V', 'O', 'U', 'R', 'T', 'H', 'Y']",10.0,13.0,0.0,,,,,,,,,,
,instructions,16,161482,0.0-12.0-3.0,,511,"[149, 86, 184, 36, 153, 204, 10, 175, 134, 174, 231, 240, 210, 83, 225, 124, 97, 183, 239, 115, 212, 138, 41, 95, 55, 217, 143, 8, 176, 79, 250, 127]",255,66a3ed3c5d10d0e7d8a6b9da,666a13a91d6ab318e467374c,66a424828a958761be7461bb,1,0,0,True,1,96,"[{""page_index"":0,""viewing_time"":2702.8999999910593}]",2703.2999999970198,,,,,,,,,,,,,,,,,,,,
,Guess_leaderboard,17,164161,0.0-12.0-4.0,,511,"[149, 86, 184, 36, 153, 204, 10, 175, 134, 174, 231, 240, 210, 83, 225, 124, 97, 183, 239, 115, 212, 138, 41, 95, 55, 217, 143, 8, 176, 79, 250, 127]",255,66a3ed3c5d10d0e7d8a6b9da,666a13a91d6ab318e467374c,66a424828a958761be7461bb,1,0,0,True,1,96,,,,,,,THIRTY FOUR,,,,,,,1899.3999999910593,1.0,71.0,0.0,49.0,48.0,,,
,instructions,18,172629,0.0-12.0-0.1,,511,"[149, 86, 184, 36, 153, 204, 10, 175, 134, 174, 231, 240, 210, 83, 225, 124, 97, 183, 239, 115, 212, 138, 41, 95, 55, 217, 143, 8, 176, 79, 250, 127]",255,66a3ed3c5d10d0e7d8a6b9da,666a13a91d6ab318e467374c,66a424828a958761be7461bb,1,0,0,True,1,96,"[{""page_index"":0,""viewing_time"":8466.59999999404}]",8466.90000000596,,,,,,,,,,,,,,,,,,,,
,type-this,19,177559,0.0-12.0-1.1,,511,"[149, 86, 184, 36, 153, 204, 10, 175, 134, 174, 231, 240, 210, 83, 225, 124, 97, 183, 239, 115, 212, 138, 41, 95, 55, 217, 143, 8, 176, 79, 250, 127]",255,66a3ed3c5d10d0e7d8a6b9da,666a13a91d6ab318e467374c,66a424828a958761be7461bb,1,0,0,True,1,96,,4406.9000000059605,['USAIN BOLT'],,,,,,,,,,USAIN BOLT,,,,,,,,,
,Hangman_replay,20,213237,0.0-12.0-2.1,,511,"[149, 86, 184, 36, 153, 204, 10, 175, 134, 174, 231, 240, 210, 83, 225, 124, 97, 183, 239, 115, 212, 138, 41, 95, 55, 217, 143, 8, 176, 79, 250, 127]",255,66a3ed3c5d10d0e7d8a6b9da,666a13a91d6ab318e467374c,66a424828a958761be7461bb,1,0,0,True,1,96,,,,,,,USAIN BOLT,"{'letter': ['', 'N', 'B', 'E', 'O', 'A', 'K', 'S', 'I', 'U', 'L', 'T'], 't': [0, 3864.5, 6764.79999999702, 9710, 11281.5, 12740.79999999702, 20396.79999999702, 22038.19999998808, 27668.39999999106, 30887.29999999702, 32432.89999999106, 33649.89999999106], 'hit': [None, 1, 1, 0, 1, 1, 0, 1, 1, 1, 1, 1], 'asked': ['', 'N', 'NB', 'NBE', 'NBEO', 'NBEOA', 'NBEOAK', 'NBEOAKS', 'NBEOAKSI', 'NBEOAKSIU', 'NBEOAKSIUL', 'NBEOAKSIULT'], 'word_state': ['_____ ____', '____N ____', '____N B___', '____N B___', '____N BO__', '__A_N BO__', '__A_N BO__', '_SA_N BO__', '_SAIN BO__', 'USAIN BO__', 'USAIN BOL_', 'USAIN BOLT']}","['N', 'B', 'E', 'O', 'A', 'K', 'S', 'I', 'U', 'L', 'T']",11.0,13.0,0.0,,,,,,,,,,
,instructions,21,214575,0.0-12.0-3.1,,511,"[149, 86, 184, 36, 153, 204, 10, 175, 134, 174, 231, 240, 210, 83, 225, 124, 97, 183, 239, 115, 212, 138, 41, 95, 55, 217, 143, 8, 176, 79, 250, 127]",255,66a3ed3c5d10d0e7d8a6b9da,666a13a91d6ab318e467374c,66a424828a958761be7461bb,1,0,0,True,1,96,"[{""page_index"":0,""viewing_time"":1336.0999999940395}]",1336.4000000059605,,,,,,,,,,,,,,,,,,,,
,Guess_leaderboard,22,221883,0.0-12.0-4.1,,511,"[149, 86, 184, 36, 153, 204, 10, 175, 134, 174, 231, 240, 210, 83, 225, 124, 97, 183, 239, 115, 212, 138, 41, 95, 55, 217, 143, 8, 176, 79, 250, 127]",255,66a3ed3c5d10d0e7d8a6b9da,666a13a91d6ab318e467374c,66a424828a958761be7461bb,1,0,0,True,1,96,,,,,,,USAIN BOLT,,,,,,,6540.79999999702,43.0,60.0,1.0,76.0,33.0,,,
,instructions,23,224786,0.0-12.0-0.2,,511,"[149, 86, 184, 36, 153, 204, 10, 175, 134, 174, 231, 240, 210, 83, 225, 124, 97, 183, 239, 115, 212, 138, 41, 95, 55, 217, 143, 8, 176, 79, 250, 127]",255,66a3ed3c5d10d0e7d8a6b9da,666a13a91d6ab318e467374c,66a424828a958761be7461bb,1,0,0,True,1,96,"[{""page_index"":0,""viewing_time"":2899.7999999970198}]",2900.199999988079,,,,,,,,,,,,,,,,,,,,
,type-this,24,228934,0.0-12.0-1.2,,511,"[149, 86, 184, 36, 153, 204, 10, 175, 134, 174, 231, 240, 210, 83, 225, 124, 97, 183, 239, 115, 212, 138, 41, 95, 55, 217, 143, 8, 176, 79, 250, 127]",255,66a3ed3c5d10d0e7d8a6b9da,666a13a91d6ab318e467374c,66a424828a958761be7461bb,1,0,0,True,1,96,,3629.0,['WRIST'],,,,,,,,,,WRIST,,,,,,,,,
,Hangman_replay,25,269022,0.0-12.0-2.2,,511,"[149, 86, 184, 36, 153, 204, 10, 175, 134, 174, 231, 240, 210, 83, 225, 124, 97, 183, 239, 115, 212, 138, 41, 95, 55, 217, 143, 8, 176, 79, 250, 127]",255,66a3ed3c5d10d0e7d8a6b9da,666a13a91d6ab318e467374c,66a424828a958761be7461bb,1,0,0,True,1,96,,,,,,,WRIST,"{'letter': ['', 'N', 'T', 'A', 'E', 'I', 'S', 'W', 'R'], 't': [0, 10383.29999999702, 13138.29999999702, 18831.40000000596, 21555.79999999702, 25520.79999999702, 30947, 37347.09999999404, 38067.20000000298], 'hit': [None, 0, 1, 0, 0, 1, 1, 1, 1], 'asked': ['', 'N', 'NT', 'NTA', 'NTAE', 'NTAEI', 'NTAEIS', 'NTAEISW', 'NTAEISWR'], 'word_state': ['_____', '_____', '____T', '____T', '____T', '__I_T', '__IST', 'W_IST', 'WRIST']}","['N', 'T', 'A', 'E', 'I', 'S', 'W', 'R']",8.0,12.0,0.0,,,,,,,,,,
,instructions,26,271149,0.0-12.0-3.2,,511,"[149, 86, 184, 36, 153, 204, 10, 175, 134, 174, 231, 240, 210, 83, 225, 124, 97, 183, 239, 115, 212, 138, 41, 95, 55, 217, 143, 8, 176, 79, 250, 127]",255,66a3ed3c5d10d0e7d8a6b9da,666a13a91d6ab318e467374c,66a424828a958761be7461bb,1,0,0,True,1,96,"[{""page_index"":0,""viewing_time"":2125.2000000029802}]",2126.0,,,,,,,,,,,,,,,,,,,,
,Guess_leaderboard,27,275344,0.0-12.0-4.2,,511,"[149, 86, 184, 36, 153, 204, 10, 175, 134, 174, 231, 240, 210, 83, 225, 124, 97, 183, 239, 115, 212, 138, 41, 95, 55, 217, 143, 8, 176, 79, 250, 127]",255,66a3ed3c5d10d0e7d8a6b9da,666a13a91d6ab318e467374c,66a424828a958761be7461bb,1,0,0,True,1,96,,,,,,,WRIST,,,,,,,3421.8999999910593,54.0,35.0,2.0,44.0,10.0,,,
,instructions,28,277643,0.0-12.0-0.3,,511,"[149, 86, 184, 36, 153, 204, 10, 175, 134, 174, 231, 240, 210, 83, 225, 124, 97, 183, 239, 115, 212, 138, 41, 95, 55, 217, 143, 8, 176, 79, 250, 127]",255,66a3ed3c5d10d0e7d8a6b9da,666a13a91d6ab318e467374c,66a424828a958761be7461bb,1,0,0,True,1,96,"[{""page_index"":0,""viewing_time"":2295.9000000059605}]",2296.2000000029802,,,,,,,,,,,,,,,,,,,,
,type-this,29,282113,0.0-12.0-1.3,,511,"[149, 86, 184, 36, 153, 204, 10, 175, 134, 174, 231, 240, 210, 83, 225, 124, 97, 183, 239, 115, 212, 138, 41, 95, 55, 217, 143, 8, 176, 79, 250, 127]",255,66a3ed3c5d10d0e7d8a6b9da,666a13a91d6ab318e467374c,66a424828a958761be7461bb,1,0,0,True,1,96,,3965.8999999910593,['HAWAII'],,,,,,,,,,HAWAII,,,,,,,,,
,Hangman_replay,30,294458,0.0-12.0-2.3,,511,"[149, 86, 184, 36, 153, 204, 10, 175, 134, 174, 231, 240, 210, 83, 225, 124, 97, 183, 239, 115, 212, 138, 41, 95, 55, 217, 143, 8, 176, 79, 250, 127]",255,66a3ed3c5d10d0e7d8a6b9da,666a13a91d6ab318e467374c,66a424828a958761be7461bb,1,0,0,True,1,96,,,,,,,HAWAII,"{'letter': ['', 'O', 'R', 'I', 'H', 'A', 'W'], 't': [0, 2047, 4011.2000000029802, 4770.29999999702, 7887.5999999940395, 8893.20000000298, 10317.79999999702], 'hit': [None, 0, 0, 2, 1, 2, 1], 'asked': ['', 'O', 'OR', 'ORI', 'ORIH', 'ORIHA', 'ORIHAW'], 'word_state': ['______', '______', '______', '____II', 'H___II', 'HA_AII', 'HAWAII']}","['O', 'R', 'I', 'H', 'A', 'W']",6.0,13.0,0.0,,,,,,,,,,
,instructions,31,296169,0.0-12.0-3.3,,511,"[149, 86, 184, 36, 153, 204, 10, 175, 134, 174, 231, 240, 210, 83, 225, 124, 97, 183, 239, 115, 212, 138, 41, 95, 55, 217, 143, 8, 176, 79, 250, 127]",255,66a3ed3c5d10d0e7d8a6b9da,666a13a91d6ab318e467374c,66a424828a958761be7461bb,1,0,0,True,1,96,"[{""page_index"":0,""viewing_time"":1709.800000011921}]",1710.300000011921,,,,,,,,,,,,,,,,,,,,
,Guess_leaderboard,32,300471,0.0-12.0-4.3,,511,"[149, 86, 184, 36, 153, 204, 10, 175, 134, 174, 231, 240, 210, 83, 225, 124, 97, 183, 239, 115, 212, 138, 41, 95, 55, 217, 143, 8, 176, 79, 250, 127]",255,66a3ed3c5d10d0e7d8a6b9da,666a13a91d6ab318e467374c,66a424828a958761be7461bb,1,0,0,True,1,96,,,,,,,HAWAII,,,,,,,3534.0,1.0,46.0,3.0,58.0,57.0,,,
,instructions,33,304003,0.0-12.0-0.4,,511,"[149, 86, 184, 36, 153, 204, 10, 175, 134, 174, 231, 240, 210, 83, 225, 124, 97, 183, 239, 115, 212, 138, 41, 95, 55, 217, 143, 8, 176, 79, 250, 127]",255,66a3ed3c5d10d0e7d8a6b9da,666a13a91d6ab318e467374c,66a424828a958761be7461bb,1,0,0,True,1,96,"[{""page_index"":0,""viewing_time"":3529.1000000089407}]",3529.5,,,,,,,,,,,,,,,,,,,,
,type-this,34,307334,0.0-12.0-1.4,,511,"[149, 86, 184, 36, 153, 204, 10, 175, 134, 174, 231, 240, 210, 83, 225, 124, 97, 183, 239, 115, 212, 138, 41, 95, 55, 217, 143, 8, 176, 79, 250, 127]",255,66a3ed3c5d10d0e7d8a6b9da,666a13a91d6ab318e467374c,66a424828a958761be7461bb,1,0,0,True,1,96,,2824.7999999970198,['NECTARINE'],,,,,,,,,,NECTARINE,,,,,,,,,
,Hangman_replay,35,364656,0.0-12.0-2.4,,511,"[149, 86, 184, 36, 153, 204, 10, 175, 134, 174, 231, 240, 210, 83, 225, 124, 97, 183, 239, 115, 212, 138, 41, 95, 55, 217, 143, 8, 176, 79, 250, 127]",255,66a3ed3c5d10d0e7d8a6b9da,666a13a91d6ab318e467374c,66a424828a958761be7461bb,1,0,0,True,1,96,,,,,,,NECTARINE,"{'letter': ['', 'P', 'A', 'E', 'M', 'N', 'C', 'T', 'R', 'I'], 't': [0, 10349.70000000298, 13621.90000000596, 17400.20000000298, 38053.10000000894, 40071.20000000298, 48544.60000000894, 50353.10000000894, 53957.30000001192, 55293.20000000298], 'hit': [None, 0, 1, 2, 0, 2, 1, 1, 1, 1], 'asked': ['', 'P', 'PA', 'PAE', 'PAEM', 'PAEMN', 'PAEMNC', 'PAEMNCT', 'PAEMNCTR', 'PAEMNCTRI'], 'word_state': ['_________', '_________', '____A____', '_E__A___E', '_E__A___E', 'NE__A__NE', 'NEC_A__NE', 'NECTA__NE', 'NECTAR_NE', 'NECTARINE']}","['P', 'A', 'E', 'M', 'N', 'C', 'T', 'R', 'I']",9.0,13.0,0.0,,,,,,,,,,
,instructions,36,368453,0.0-12.0-3.4,,511,"[149, 86, 184, 36, 153, 204, 10, 175, 134, 174, 231, 240, 210, 83, 225, 124, 97, 183, 239, 115, 212, 138, 41, 95, 55, 217, 143, 8, 176, 79, 250, 127]",255,66a3ed3c5d10d0e7d8a6b9da,666a13a91d6ab318e467374c,66a424828a958761be7461bb,1,0,0,True,1,96,"[{""page_index"":0,""viewing_time"":3794.5999999940395}]",3796.0,,,,,,,,,,,,,,,,,,,,
,Guess_leaderboard,37,372135,0.0-12.0-4.4,,511,"[149, 86, 184, 36, 153, 204, 10, 175, 134, 174, 231, 240, 210, 83, 225, 124, 97, 183, 239, 115, 212, 138, 41, 95, 55, 217, 143, 8, 176, 79, 250, 127]",255,66a3ed3c5d10d0e7d8a6b9da,666a13a91d6ab318e467374c,66a424828a958761be7461bb,1,0,0,True,1,96,,,,,,,NECTARINE,,,,,,,2905.9000000059605,59.0,84.0,4.0,32.0,27.0,,,
,survey-text,38,378088,0.0-13.0,,511,"[149, 86, 184, 36, 153, 204, 10, 175, 134, 174, 231, 240, 210, 83, 225, 124, 97, 183, 239, 115, 212, 138, 41, 95, 55, 217, 143, 8, 176, 79, 250, 127]",255,66a3ed3c5d10d0e7d8a6b9da,666a13a91d6ab318e467374c,66a424828a958761be7461bb,1,0,0,True,1,96,,5948.29999999702,"{""Q0"":""NECTARINE""}",,,,,,,,,,,,,,,,,nectarine,,
,survey-multi-choice,39,386274,0.0-14.0,,511,"[149, 86, 184, 36, 153, 204, 10, 175, 134, 174, 231, 240, 210, 83, 225, 124, 97, 183, 239, 115, 212, 138, 41, 95, 55, 217, 143, 8, 176, 79, 250, 127]",255,66a3ed3c5d10d0e7d8a6b9da,666a13a91d6ab318e467374c,66a424828a958761be7461bb,1,0,0,True,1,96,,8180.0999999940395,"{""Q0"":""1. I would be <b>first</b> out of the six of us.""}",[0],,self-rating,,,,,,,,,1.0,,,,,,,
,html-slider-response,40,389949,0.0-15.0,,511,"[149, 86, 184, 36, 153, 204, 10, 175, 134, 174, 231, 240, 210, 83, 225, 124, 97, 183, 239, 115, 212, 138, 41, 95, 55, 217, 143, 8, 176, 79, 250, 127]",255,66a3ed3c5d10d0e7d8a6b9da,666a13a91d6ab318e467374c,66a424828a958761be7461bb,1,0,0,True,1,96,,3671.2999999970198,,,,,,,,,,,96,,,,,,,,"<p>Overall, how confident were you in your answer to this last question?</p>",96.0
,survey-text,41,450431,0.0-16.0,,511,"[149, 86, 184, 36, 153, 204, 10, 175, 134, 174, 231, 240, 210, 83, 225, 124, 97, 183, 239, 115, 212, 138, 41, 95, 55, 217, 143, 8, 176, 79, 250, 127]",255,66a3ed3c5d10d0e7d8a6b9da,666a13a91d6ab318e467374c,66a424828a958761be7461bb,1,0,0,True,1,96,,60478.79999999702,"{""Q0"":""I am not entirely sure. Maybe how we would rank ourselves amongst others. Once I saw how the others fared I had more confidence in my performance.""}",,,,,,,,,,,,,,,,,,,
,survey-text,42,464093,0.0-17.0,,511,"[149, 86, 184, 36, 153, 204, 10, 175, 134, 174, 231, 240, 210, 83, 225, 124, 97, 183, 239, 115, 212, 138, 41, 95, 55, 217, 143, 8, 176, 79, 250, 127]",255,66a3ed3c5d10d0e7d8a6b9da,666a13a91d6ab318e467374c,66a424828a958761be7461bb,1,0,0,True,1,96,,13644.39999999106,"{""Q0"":""No""}",,,,,,,,,,,,,,,,,,,
,instructions,43,469794,0.0-18.0,,511,"[149, 86, 184, 36, 153, 204, 10, 175, 134, 174, 231, 240, 210, 83, 225, 124, 97, 183, 239, 115, 212, 138, 41, 95, 55, 217, 143, 8, 176, 79, 250, 127]",255,66a3ed3c5d10d0e7d8a6b9da,666a13a91d6ab318e467374c,66a424828a958761be7461bb,1,0,0,True,1,96,"[{""page_index"":0,""viewing_time"":5697.70000000298}]",5698.0999999940395,,,,,,,,,,,,,,,,,,,,
