[{"success":true,"trial_type":"fullscreen","trial_index":0,"time_elapsed":17907,"internal_node_id":"0.0-0.0","protocol_sum":"","subject_identifier":324,"subject_sum":[121,214,234,162,103,97,137,235,146,127,46,22,167,0,145,71,64,120,226,17,124,63,198,7,211,92,220,107,89,30,243,85],"subject_pair":162,"STUDY_ID":"66a0b3911f23dfc7665bb169","PROLIFIC_PID":"6692463a3773ef328cdde1f0","SESSION_ID":"66a14f2a0c94c17d1cdcc8a6","practice_instructions":1,"leaderboard_instructions":1,"bonus":1,"reveal_word":false,"self_rating":"4","confidence":"82"},{"view_history":"[{\"page_index\":0,\"viewing_time\":19389}]","rt":19389,"trial_type":"instructions","trial_index":1,"time_elapsed":37299,"internal_node_id":"0.0-1.0","protocol_sum":"","subject_identifier":324,"subject_sum":[121,214,234,162,103,97,137,235,146,127,46,22,167,0,145,71,64,120,226,17,124,63,198,7,211,92,220,107,89,30,243,85],"subject_pair":162,"STUDY_ID":"66a0b3911f23dfc7665bb169","PROLIFIC_PID":"6692463a3773ef328cdde1f0","SESSION_ID":"66a14f2a0c94c17d1cdcc8a6","practice_instructions":1,"leaderboard_instructions":1,"bonus":1,"reveal_word":false,"self_rating":"4","confidence":"82"},{"view_history":"[{\"page_index\":0,\"viewing_time\":72393}]","rt":72394,"trial_type":"instructions","trial_index":2,"time_elapsed":109694,"internal_node_id":"0.0-2.0-0.0","protocol_sum":"","subject_identifier":324,"subject_sum":[121,214,234,162,103,97,137,235,146,127,46,22,167,0,145,71,64,120,226,17,124,63,198,7,211,92,220,107,89,30,243,85],"subject_pair":162,"STUDY_ID":"66a0b3911f23dfc7665bb169","PROLIFIC_PID":"6692463a3773ef328cdde1f0","SESSION_ID":"66a14f2a0c94c17d1cdcc8a6","practice_instructions":1,"leaderboard_instructions":1,"bonus":1,"reveal_word":false,"self_rating":"4","confidence":"82"},{"rt":14690,"responses":"{\"Q0\":\"... reveal the word with as <b>few letter guesses</b> as possible\"}","question_order":"[0]","trial_type":"survey-multi-choice","trial_index":3,"time_elapsed":124386,"internal_node_id":"0.0-2.0-1.0","protocol_sum":"","subject_identifier":324,"subject_sum":[121,214,234,162,103,97,137,235,146,127,46,22,167,0,145,71,64,120,226,17,124,63,198,7,211,92,220,107,89,30,243,85],"subject_pair":162,"correct":true,"test_part":"multichoice_nonpretend","STUDY_ID":"66a0b3911f23dfc7665bb169","PROLIFIC_PID":"6692463a3773ef328cdde1f0","SESSION_ID":"66a14f2a0c94c17d1cdcc8a6","practice_instructions":1,"leaderboard_instructions":1,"bonus":1,"reveal_word":false,"self_rating":"4","confidence":"82"},{"view_history":"[{\"page_index\":0,\"viewing_time\":1792}]","rt":1792,"trial_type":"instructions","trial_index":4,"time_elapsed":126179,"internal_node_id":"0.0-3.0","protocol_sum":"","subject_identifier":324,"subject_sum":[121,214,234,162,103,97,137,235,146,127,46,22,167,0,145,71,64,120,226,17,124,63,198,7,211,92,220,107,89,30,243,85],"subject_pair":162,"STUDY_ID":"66a0b3911f23dfc7665bb169","PROLIFIC_PID":"6692463a3773ef328cdde1f0","SESSION_ID":"66a14f2a0c94c17d1cdcc8a6","practice_instructions":1,"leaderboard_instructions":1,"bonus":1,"reveal_word":false,"self_rating":"4","confidence":"82"},{"word":"ZEBRA","click_log":{"letter":["","P","A","C","O","D","E","G","M","Q","R","U","K","T","W","X","Y","Z","B"],"t":[0,66112,69000,91126,96927,100062,108000,118674,120492,124486,125679,128881,131041,133112,134487,135522,136509,137402,143902],"hit":[null,0,1,0,0,0,1,0,0,0,1,0,0,0,0,0,0,1,1],"asked":["","P","PA","PAC","PACO","PACOD","PACODE","PACODEG","PACODEGM","PACODEGMQ","PACODEGMQR","PACODEGMQRU","PACODEGMQRUK","PACODEGMQRUKT","PACODEGMQRUKTW","PACODEGMQRUKTWX","PACODEGMQRUKTWXY","PACODEGMQRUKTWXYZ","PACODEGMQRUKTWXYZB"],"word_state":["_____","_____","____A","____A","____A","____A","_E__A","_E__A","_E__A","_E__A","_E_RA","_E_RA","_E_RA","_E_RA","_E_RA","_E_RA","_E_RA","ZE_RA","ZEBRA"]},"hover_log":{"letter":["?","?","?","?","?","?","?","?","?","?","?","?","?","?","?","?","?","?","?","?","?","?","?","?","?","?","?","?","?","?","?","?","?","?","?","?","?","?","J","?","?","?","?","?","?","?","?","?","?","?","?","?","?","?","?","?","?","?","?","?","?","?","?","?","?","?","?","?","?","?","?","?","?","?","?","?","?","?","?","?","?","?","?","?","?","?","?","?","?","?","?","?","?","?","?","?","?","?","?","?","?","?","?","?","?","?","?","?","?","?","?","?","?","?","?","?","?","?","?","?","?","?","?","?","?","?","?","?","?","?","?","?","?","?","?","?","?","?","?","?","?","?","?","?","?","?","?","?","?","?","?","?","?","?","?","?","?","?","?","?","?","?","?","?","?","?","?","?","?","?","?","?","?","?","?","?","?","?","?","?","?","?","?","?","?","?","?","?","?","?","?","?","?","?","?","?","?","?","?","?","?","?","?","?","?","?","?","?","?","?","?","?","?","?","?","?","?","?","?","?","?","?","?","?","?","?","?","?","?","?","?","?","?","?","?","?","?","?","?","?","?","?","?","?","?","?","?","?","?","?","?","?","?","?","?","?","?","?","?","?","?","?","?","?","?","?","?","?","?","?","?","?","?","?","?","?","?","?","?","?","?","?","?","?","?","?","?","?","?","?","?","?","?","?","?","?","?","?","?","?","?","?","?","?","?","?","?","?","?","?","?","?","?","?","?","?","?","?","?","?","?","?","?","?","?","?","?","?","?","?","?","?","?","?","?","?","?","?","?","?","?","?","?","?","?","?","?","?","?","?","?","?","?","?","?","?","?","?","?","?","?","?","?","?","?","?","?","?","?","?","?","?","S","J","?","B","?","?","?","?","?","?","?","?","?","?","?","?","?","?","?","?","?","?","?","?","?","?","?","?","?","?","?","?","?","?","?","?","?","?","?","?","?","?","?","?","?","?","?","?","?","?","?","?","?","?","?","?","?","?","?","?","?","?","?","?","?","?","?","?","?","?","?","?","?","?","?","?","?","?","?","?","?","?","?","?","?","?","?","?","?","?","?","?","?","?","?","?","?","?","?","?","?","?","?","?","?","?","?","?","?","?","?","?","?","?","?","?","?","?","?","?","?","?","?","?","?","?","?","?","?","?","?","?","?","?","?","?","?","?","?","?","?","?","?","?","?","?","?","?","?","?","?","?","?","?","?","?","?","?","?","?","?","?","?","?","?","?","?","?","?","?","?","?","?","?","?","?","?","?","?","?","?","?","?","?","?","?","?","?","?","?","?","?","?","?","?","?","?","?","?","?","?","?","?","?","?","?","?","?","?","?","?","?","?","?","?","?","?","?","?","?","?","?","?","?","?","?","?","?","?","?","?","?","?","?","?","?","?","?","?","?","?","?","?","?","?","?","?","?","?","?","?","?","?","?","?","?","?","?","?","?","?","?","?","?","?","?","?","?","?","?","?","?","?","?","?","?","?","?","?","?","?","?","?","?","?","?","?","?","?","?","?","?","?","?","?","?","?","?","?","?","?","?","?","?","?","?","?","?","?","?","?","?","?","?","?","?","?","?","?","?","?","?","?","?","?","?","?","?","?","?","?","?","?","?","?","?","?","?","?","?","?","?","?","?","?","?","?","?","?","?","?","?","?","?","?","?","?","?","?","?","?","?","?","?","?","?","?","?","?","?","?","?","?","?","?","?","?","?","?","?","?","?","?","?","?","?","?","?","?","?","?","?","?","?","?","?","?","?","?","?","?","?","?","?","?","?","?","?","?","?","?","?","?","?","?","?","?","?","?","?","?","?","?","?","?","?","?","?","?","?","?","?","?","?","?","?","?","?","?","?","?","?","?","?","?","?","?","?","?","?","?","?","?","?","?","?","?","?","?","?","?","?","?","?","?","?","?","?","?","?","?","?","?","?","?","?","?","?","?","?","?","?","?","?","?","?","?","?","?","?","?","?","?","?","?","?","?","?","?","?","?","?","?","?","?","?","?","?","?","?","?","?","?","?","?","?","?","?","?","?","?","?","?","?","?","?","?","?","?","?","?","?","?","?","?","?","?","?","?","?","?","?","?","?","?","?","?","?","?","?","?","?","?","?","?","?","?","?","?","?","?","?","?","?","?","?","?","?","?","?","?","?","?","?","?","?","?","?","?","?","?","?","?","?","?","?","?","?","?","?","?","?","?","?","?","?","?","?","?","?","?","?","?","?","?","?","?","?","?","?","?","?","?","?","?","?","?","?","?","?","?","?","?","?","?","?","?","?","?","?","?","?","?","?","?","?","?","?","?","?","?","?","?","?","?","?","?","?","?","?","?","?","?","?","?","?","?","?","?","?","?","?","?","?","?","?","?","?","?","?","?","?","?","?","?","?","?","?","?","?","?","?","?","?","?","?","?","?","?","?","?","?","?","?","?","?","?","?","?","?","?","?","?","?","?","?","?","?","?","?","?","?","?","?","?","?","?","?","?","?","?","?","?","?","?","?","?","?","?","?","?","?","?","?","?","?","?","?","?","?","?","?","?","?","?","?","?","?","?","?","?","?","?","?","?","?","?","?","?","?","?","?","?","?","?","?","?","?","?","?","?","?","?","?","?","?","?","?","?","?","?","?","?","?","?","?","?","?","?","?","?","?","?","?","?","?","?","?","?","?","?","?","?","?","?","?","?","?","?","?","?","?","?","?","?","?","?","?","?","?","?","?","?","?","?","?","?","?","?","?","?","?","?","?","?","?","?","?","?","?","?","?","?","?","?","?","?","?","?","?","?","?","?","?","?","?","?","?","?","?","?","?","?","?","?","?","?","?","?","?","?","?","?","?","?","?","?","?","?","?","?","?","?","?","?","?","?","?","?","?","?","?","?","?","?","?","?","?","?","?","?","?","?","?","?","?","?","?","?","?","?","?","?","?","?","?","?","?","?","?","?","?","?","?","?","?","?","?","?","?","?","?","?","?","?","?","?","?","?","?","?","?","?","?","?","?","?","?","?","?","?","?","?","?","?","?","?","?","?","?","?","?","?","?","?","?","?","?","?","?","?","?","?","?","?","?","?","?","?","?","?","?","?","?","?","?","?","?","?","?","?","?","?","?","?","?","?","?","?","?","?","?","?","?","?","?","?","?","?","?","?","?","?","?","?","?","?","?","?","?","?","?","?","?","?","?","?","?","?","?","?","?","?","?","?","?","?","?","?","?","?","?","?","?","?","?","?","?","?","?","?","?","?","?","?","?","?","?","?","?","?","?","?","?","?","?","?","?","?","?","?","?","?","?","?","?","?","?","?","?","?","?","?","?","?","?","?","?","?","?","?","?","?","?","?","?","?","?","?","?","?","?","?","?","?","?","?","?","?","?","?","?","?","?","?","?","?","?","?","?","?","?","?","?","?","?","?","?","?","?","?","?","?","?","?","?","?","?","?","?","?","?","?","?","?","?","?","?","?","?","?","?","?","?","?","?","?","?","?","?","?","?","?","?","?","?","?","?","?","?","?","?","?","?","?","?","?","?","?","?","?","?","?","?","?","?","?","?","?","?","?","?","?","?","?","?","?","?","?","?","?","?","?","?","?","?","?","?","?","?","?","?","?","?","?","?","?","?","?","?","?","?","?","?","?","?","?","?","?","?","?","?","?","?","?","?","?","?","?","?","?","?","?","?","?","?","?","?","?","?","?","?","?","?","?","?","?","?","?","?","?","?","?","?","?","?","?","?","?","?","?","?","?","?","?","?","?","?","?","?","?","?","?","?","?","?","?","?","?","?","?","?","?","?","?","?","?","?","?","?","?","?","?","?","?","?","?","?","?","?","?","?","?","?","?","?","?","?","?","?","?","?","?","?","?","?","?","?","?","?","?","?","?","?","?","?","?","?","?","?","?","?","?","?","?","?","?","?","?","?","?","?","?","?","?","?","?","?","?","?","?","?","?","?","?","?","?","?","?","?","?","?","?","?","?","?","?","?","?","?","?","?","?","?","?","?","?","?","?","?","?","?","?","?","?","?","?","?","?","?","?","?","?","?","?","?","?","?","?","?","?","?","?","?","?","?","?","?","?","?","?","?","?","?","?","?","?","?","?","?","?","?","?","?","?","?","?","?","?","?","?","?","?","?","?","?","?","?","?","?","?","?","?","?","?","?","?","?","?","?","?","?","?","?","?","?","?","?","?","?","?","?","?","?","?","?","?","?","?","?","?","?","?","?","?","?","?","?","?","?","?","?","?","?","?","?","?","?","?","?","?","?","?","?","?","?","?","?","?","?","?","?","?","?","?","?","?","?","?","?","?","?","?","?","?","?","?","?","?","?","?","?","?","?","?","?","?","?","?","?","?","?","?","?","?","?","?","?","?","?","?","?","?","?","?","?","?","?","?","?","?","?","?","?","?","?","?","?","?","?","?","?","?","?","?","?","?","?","?","?","?","?","?","?","?","?","?","?","?","?","?","?","?","?","?","?","?","?","?","?","?","?","?","?","?","?","?","?","?","?","?","?","?","?","?","?","?","?","?","?","?","?","?","?","?","?","?","?","?","?","?","?","?","?","?","?","?","?","?","?","?","?","?","?","?","?","?","?","?","?","?","?","?","?","?","?","?","?","?","?","?","?","?","?","?","?","?","?","?","?","?","?","?","?","?","?","?","?","?","?","?","?","?","?","?","?","?","?","?","?","?","?","?","?","?","?","?","?","?","?","?","?","?","?","?","?","?","?","?","?","?","?","?","?","?","?","?","?","?","?","?","?","?","?","?","?","?","?","?","?","?","?","?","?","?","?","?","?","?","?","?","?","?","?","?","?","?","?","?","?","?","?","?","?","?","?","?","?","?","?","?","?","?","?","?","?","?","?","?","?","?","?","?","?","?","?","?","?","?","?","?","?","?","?","?","?","?","?","?","?","?","?","?","?","?","?","?","?","?","?","?","?","?","?","?","?","?","?","?","?","?","?","?","?","?","?","?","?","?","?","?","?","?","?","?","?","?","?","?","?","?","?","?","?","?","?","?","?","?","?","?","?","?","?","?","?","?","?","?","?","?","?","?","?","?","?","?","?","?","?","?","?","?","?","?","?","?","?","?","?","?","?","?","?","?","?","?","?","?","?","?","?","?","?","?","?","?","?","?","?","?","?","?","?","?","?","?","?","?","?","?","?","?","?","?","?","?","?","?","?","?","?","?","?","?","?","?","?","?","?","?","?","?","?","?","?","?","?","?","?","?","?","?","?","?","?","?","?","?","?","?","?","?","?","?","?","?","?","?","?","?","?","?","?","?","?","?","?","?","?","?","?","?","?","?","?","?","?","?","?","?","?","?","?","?","?","?","?","?","?","?","?","?","?","?","?","?","?","?","?","?","?","?","?","?","?","?","?","?","?","?","?","?","?","?","?","?","?","?","?","?","?","?","?","?","?","?","?","?","?","?","?","?","?","?","?","?","?","?","?","?","?","?","?","?","?","?","?","?","?","?","?","?","?","?","?","?","?","?","?","?","?","?","?","?","?","?","?","?","?","?","?","?","?","?","?","?","?","?","?","?","?","?","?","?","?","?","?","?","?","?","?","?","?","?","?","?","?","?","?","?","?","?","?","?","?","?","?","?","?","?","?","?","?","?","?","?","?","?","?","?","?","?","?","?","?","?","?","?","?","?","?","?","?","?","?","?","?","?","?","?","?","?","?","?","?","?","?","?","?","?","?","?","?","?","?","?","?","?","?","?","?","?","?","?","?","?","?","?","?","?","?","?","?","?","?","?","?","?","?","?","?","?","?","?","?","?","?","?","?","?","?","?","?","?","?","?","?","?","?","?","?","?","?","?","?","?","?","?","?","?","?","?","?","?","?","?","?","?","?","?","?","?","?","?","?","?","?","?","?","?","?","?","?","?","?","?","?","?","?","?","?","?","?","?","?","?","?","?","?","?","?","?","?","?","?","?","?","?","?","?","?","?","?","?","?","?","?","?","?","?","?","?","?","?","?","?","?","?","?","?","?","?","?","?","?","?","?","?","?","?","?","?","?","?","?","?","?","?","?","?","?","?","?","?","?","?","?","?","?","?","?","?","?","?","?","?","?","?","?","?","?","?","?","?","?","?","?","?","?","?","?","?","?","?","?","?","?","?","?","?","?","?","?","?","?","?","?","?","?","?","?","?","?","?","?","?","?","?","?","?","?","?","?","?","?","?","?","?","?","?","?","?","?","?","?","?","?","?","?","?","?","?","?","?","?","?","?","?","?","?","?","?","?","?","?","?","?","?","?","?","?","?","?","?","?","?","?","?","?","?","?","?","?","?","?","?","?","?","?","?","?","?","?","?","?","?","?","?","?","?","?","?","?","?","?","?","?","?","?","?","?","?","?","?","?","?","?","?","?","?","?","?","?","?","?","?","?","?","?","?","?","?","?","?","?","?","?","?","?","?","?","?","?","?","?","?","?","?","?","?","?","?","?","?","?","?","?","?","?","?","?","?","?","?","?","?","?","?","?","?","?","?","?","?","?","?","?","?","?","?","?","?","?","?","?","?","?","?","?","?","?","?","?","?","?","?","?","?","?","?","?","?","?","?","?","?","?","?","?","?","?","?","?","?","?","?","?","?","?","?","?","?","?","?","?","?","?","?","?","?","?","?","?","?","?","?","?","?","?","?","?","?","?","?","?","?","?","?","?","?","?","?","?","?","?","?","?","?","?","?","?","?","?","?","?","?","?","?","?","?","?","?","?","?","?","?","?","?","?","?","?","?","?","?","?","?","?","?","?","?","?","?","?","?","?","?","?","?","?","?","?","?","?","?","?","?","?","?","?","?","?","?","?","?","?","?","?","?","?","?","?","?","?","?","?","?","?","?","?","?","?","?","?","?","?","?","?","?","?","?","?","?","?","?","?","?","?","?","?","?","?","?","?","?","?","?","?","?","?","?","?","?","?","?","?","?","?","?","?","?","?","?","?","?","?","?","?","?","?","?","?","?","?","?","?","?","?","?","?","?","?","?","?","?","?","?","?","?","?","?","?","?","?","?","?","?","?","?","?","?","?","?","?","?","?","?","?","?","?","?","?","?","?","?","?","?","?","?","?","?","?","?","?","?","?","?","?","?","?","?","?","?","?","?","?","?","?","?","?","?","?","?","?","?","?","?","?","?","?","?","?","?","?","?","?","?","?","?","?","?","?","?","?","?","?","?","?","?","?","?","?","?","?","?","?","?","?","?","?","?","?","?","?","?","?","?","?","?","?","?","?","?","?","?","?","?","?","?","?","?","?","?","?","?","?","?","?","?","?","?","?","?","?","?","?","?","?","?","?","?","?","?","?","?","?","?","?","?","?","?","?","?","?","?","?","?","?","?","?","?","?","?","?","?","?","?","?","?","?","?","?","?","?","?","?","?","?","?","?","?","?","?","?","?","?","?","?","?","?","?","?","?","?","?","?","?","?","?","?","?","?","?","?","?","?","?","?","?","?","?","?","?","?","?","?","?","?","?","?","?","?","?","?","?","?","?","?","?","?","?","?","?","?","?","?","?","?","?","?","?","?","?","?","?","?","?","?","?","?","?","?","?","?","?","?","?","?","?","?","?","?","?","?","?","?","?","?","?","?","?","?","?","?","?","?","?","?","?","?","?","?","?","?","?","?","?","?","?","?","?","?","?","?","?","?","?","?","?","?","?","?","?","?","?","?","?","?","?","?","?","?","?","?","?","?","?","?","?","?","?","?","?","?","?","?","?","?","?","?","?","?","?","?","?","?","?","?","?","?","?","?","?","?","?","?","?","?","?","?","?","?","?","?","?","?","?","?","?","?","?","?","?","?","?","?","?","?","?","?","?","?","?","?","?","?","?","?","?","?","?","?","?","?","?","?","?","?","?","?","?","?","?","?","?","?","?","?","?","?","?","?","?","?","?","?","?","?","?","?","?","?","?","?","?","?","?","?","?","?","?","?","?","?","?","?","?","?","?","?","?","?","?","?","?","?","?","?","?","?","?","?","?","?","?","?","?","?","?","?","?","?","?","?","?","?","?","?","?","?","?","?","?","?","?","?","?","?","?","?","?","?","?","?","?","?","?","?","?","?","?","?","?","?","?","?","?","?","?","?","?","?","?","?","?","?","?","?","?","?","?","?","?","?","?","?","?","?","?","?","?","?","?","?","?","?","?","?","?","?","?","?","?","?","?","?","?","?","?","?","?","?","?","?","?","?","?","?","?","?","?","?","?","?","?","?","?","?","?","?","?","?","?","?","?","?","?","?","?","?","?","?","?","?","?","?","?","?","?","?","?","?","?","?","?","?","?","?","?","?","?","?","?","?","?","?","?","?","?","?","?","?","?","?","?","?","?","?","?","?","?","?","?","?","?","?","?","?","?","?","?","?","?","?","?","?","?","?","?","?","?","?","?","?","?","?","?","?","?","?","?","?","?","?","?","?","?","?","?","?","?","?","?","?","?","?","?","?","?","?","?","?","?","?","?","?","?","?","?","?","?","?","?","?","?","?","?","?","?","?","?","?","?","?","?","?","?","?","?","?","?","?","?","?","?","?","?","?","?","?","?","?","?","?","?","?","?","?","?","?","?","?","?","?","?","?","?","?","?","?","?","?","?","?","?","?","?","?","?","?","?","?","?","?","?","?","?","?","?","?","?","?","?","?","?","?","?","?","?","?","?","?","?","?","?","?","?","?","?","?","?","?","?","?","?","?","?","?","?","?","?","?","?","?","?","?","?","?","?","?","?","?","?","?","?","?","?","?","?","?","?","?","?","?","?","?","?","?","?","?","?","?","?","?","?","?","?","?","?","?","?","?","?","?","?","?","?","?","?","?","?","?","?","?","?","?","?","?","?","?","?","G","G","G","G","G","G","G","?","?","?","?","?","?","?","P","P","P","P","P","P","P","P","P","P","P","P","P","P","P","P","P","P","P","P","P","P","P","P","P","P","P","P","P","P","P","P","P","P","P","P","P","P","P","P","P","P","P","P","P","P","P","P","P","P","P","P","P","P","P","P","P","P","P","P","P","P","P","P","P","P","P","P","P","P","P","P","P","P","P","P","?","?","E","?","?","?","?","?","?","?","?","?","?","?","?","?","?","?","?","?","?","?","?","?","?","?","?","?","?","?","?","?","?","?","?","?","?","?","?","?","?","?","?","?","?","?","?","?","K","K","K","K","K","K","K","K","K","K","K","K","K","?","J","J","J","J","J","J","J","?","?","?","?","?","?","?","?","?","?","?","?","?","?","?","?","?","?","?","?","?","?","?","?","?","?","?","?","?","A","A","A","A","A","A","A","A","A","A","A","A","A","A","A","A","A","A","A","A","A","A","A","A","A","A","A","A","A","A","A","A","A","A","A","A","A","A","A","A","A","A","A","A","A","A","A","A","A","A","A","A","A","A","A","A","A","A","A","A","A","A","A","A","A","A","A","A","A","A","A","A","A","A","A","A","A","A","A","A","A","A","A","A","A","A","A","A","A","A","A","A","A","A","A","A","A","A","A","A","A","A","A","A","A","A","A","A","A","A","A","A","A","A","A","A","A","A","A","A","A","A","A","A","A","A","A","A","A","A","A","A","A","A","A","A","A","A","A","A","A","A","A","A","A","A","A","A","A","A","A","A","A","A","A","A","A","A","A","A","A","A","A","A","A","A","A","A","A","A","A","A","A","A","A","A","A","A","A","A","A","A","A","A","A","A","A","A","A","A","A","A","A","A","A","A","A","A","A","A","A","A","A","A","A","A","A","A","A","A","A","A","A","A","A","A","A","A","A","A","A","A","A","A","A","A","A","A","A","A","A","A","A","A","A","A","A","A","A","A","A","A","A","A","A","A","A","A","A","A","A","A","A","A","A","A","A","A","A","A","A","A","A","A","A","A","A","A","A","A","A","A","A","A","A","A","A","A","A","A","A","A","A","A","A","?","?","B","B","B","?","M","M","N","?","?","Y","Y","Y","?","?","?","?","?","?","?","?","?","?","?","?","?","?","?","?","?","?","?","?","?","?","?","?","?","?","?","?","?","?","?","?","?","?","?","?","?","?","?","?","?","?","?","?","?","?","?","?","?","?","?","?","?","?","?","?","?","?","?","?","?","?","?","?","?","?","?","?","?","?","?","?","?","?","?","?","?","?","?","?","Y","Y","Y","Y","Y","Y","Y","Y","?","?","?","?","?","?","?","?","?","P","P","P","P","P","P","P","P","P","P","P","P","P","P","P","P","P","P","P","P","P","P","P","P","P","P","P","P","P","P","P","P","P","P","P","P","P","P","P","P","P","P","P","P","P","P","P","P","P","P","P","P","P","P","P","P","P","P","P","P","P","P","P","P","P","?","O","O","O","O","O","O","O","O","O","O","O","O","O","O","O","O","O","O","O","O","O","O","O","O","O","O","O","O","O","O","O","O","O","O","O","O","O","O","O","O","O","O","O","O","O","O","O","O","O","O","O","O","O","O","O","O","O","O","O","O","O","O","O","O","O","O","O","O","O","O","O","O","O","O","O","O","O","O","O","O","O","O","O","O","O","O","O","O","O","O","O","O","O","O","O","O","O","O","O","O","O","O","O","O","O","O","O","O","O","O","O","O","O","O","O","O","O","O","O","O","O","O","O","O","O","O","O","O","O","O","O","O","O","O","O","O","O","O","O","O","O","O","O","O","O","O","O","O","O","O","O","O","O","O","O","O","O","O","O","O","O","O","O","O","O","O","O","O","O","O","O","O","O","O","O","O","O","O","O","O","O","O","O","O","O","O","O","O","O","O","O","O","O","O","O","O","O","O","O","O","O","O","O","O","O","O","O","O","O","O","O","O","O","O","O","O","O","O","O","O","O","O","O","O","O","O","O","O","O","O","O","O","O","O","O","O","O","O","O","O","O","O","O","O","O","O","O","O","O","O","O","O","O","O","O","O","O","O","O","O","O","O","O","O","O","O","O","O","O","O","O","O","O","O","O","O","O","O","O","O","O","O","O","O","O","O","O","O","O","O","O","O","O","O","O","O","O","O","O","O","O","O","O","O","O","O","O","O","O","O","O","O","O","O","O","O","O","O","O","O","O","O","O","O","O","O","O","O","O","O","O","O","O","O","O","O","O","O","O","O","O","O","O","O","O","O","O","O","O","O","O","O","O","O","O","O","O","O","O","O","O","O","O","O","O","O","O","O","O","O","O","O","O","O","O","O","O","O","O","O","O","O","O","O","O","O","O","O","O","O","O","O","O","O","O","O","O","O","O","O","O","O","O","O","O","P","?","?","?","?","?","?","?","?","?","?","?","?","?","?","?","?","?","?","?","?","?","?","?","?","?","?","?","?","?","Q","Q","Q","Q","Q","Q","Q","Q","?","P","?","O","O","O","?","?","M","M","M","M","M","M","?","?","?","?","?","?","L","L","L","L","L","L","L","?","?","?","?","?","?","?","?","?","?","?","L","?","?","F","F","G","G","G","G","G","G","?","?","?","H","H","H","?","?","I","I","I","I","I","I","I","I","I","I","I","?","?","?","?","?","?","?","?","?","?","?","?","?","?","?","?","?","?","?","?","?","?","?","?","?","?","?","?","?","?","?","?","?","?","?","?","?","?","?","?","?","?","?","?","?","?","?","?","?","?","?","?","?","?","?","?","?","M","M","M","M","M","?","?","?","?","?","?","?","?","P","P","P","?","?","?","?","?","?","?","?","?","?","?","Q","Q","Q","Q","Q","Q","Q","Q","Q","Q","Q","Q","Q","Q","Q","?","?","?","?","?","?","?","?","?","?","?","?","?","P","P","P","P","P","P","P","P","P","P","P","P","P","P","P","P","P","P","P","P","P","P","P","P","P","P","P","P","P","P","P","P","P","P","P","P","P","P","P","P","P","P","P","P","P","P","P","P","P","P","P","P","P","P","P","P","P","P","P","P","P","P","P","P","P","P","P","P","P","P","P","P","P","P","P","P","P","P","P","P","P","P","P","P","P","P","P","P","P","P","P","P","P","P","P","P","P","P","P","P","P","P","P","P","P","P","P","P","P","P","P","P","P","P","P","P","P","P","P","P","P","P","P","P","P","P","P","P","P","P","P","P","P","P","P","P","P","P","P","P","P","P","P","P","P","P","P","P","P","P","P","P","P","P","P","P","P","P","P","P","P","P","P","P","P","P","P","P","P","P","P","P","P","P","P","P","P","P","P","P","P","P","P","P","P","?","P","?","?","?","?","?","?","?","?","?","?","?","?","?","?","?","?","?","?","?","?","?","?","?","?","?","?","?","?","?","?","?","?","?","?","?","?","?","?","?","?","D","D","D","D","D","D","D","D","D","D","D","D","D","D","D","D","D","D","?","C","C","C","C","C","C","C","C","C","C","C","C","C","C","C","C","C","C","C","C","C","C","C","C","C","C","C","C","C","C","C","C","C","C","C","C","C","C","C","C","C","C","C","C","C","C","C","C","C","C","C","C","C","C","C","C","C","C","C","C","C","C","C","C","C","C","C","C","C","C","C","C","C","C","C","C","C","C","C","C","C","C","C","C","C","C","C","C","C","C","C","C","C","C","C","C","C","C","C","C","C","C","C","C","C","C","C","C","C","C","C","C","C","C","C","C","C","C","C","C","C","C","C","C","C","C","C","C","C","C","C","C","C","C","C","C","C","C","C","C","C","C","C","C","C","C","C","C","C","C","C","C","C","C","C","C","C","C","C","C","C","C","C","C","C","C","C","C","C","C","C","C","C","C","C","C","C","C","C","C","C","C","C","C","C","C","C","C","C","C","C","C","C","C","C","C","C","C","C","C","C","C","C","C","C","C","C","C","C","C","C","C","C","C","C","C","C","C","C","C","C","C","C","C","C","C","C","C","C","C","C","C","C","C","C","C","C","C","C","C","C","C","C","C","C","C","D","E","?","F","F","G","G","?","?","?","H","H","H","H","H","H","H","H","H","H","H","H","H","H","H","H","?","?","?","?","?","?","?","?","?","?","?","?","?","?","?","?","?","?","?","?","?","?","?","?","?","?","?","?","?","?","?","?","?","?","?","?","?","?","?","?","?","?","?","?","?","?","O","O","O","O","O","O","O","O","O","O","O","O","O","O","O","O","O","O","O","O","O","O","O","O","O","O","O","O","O","O","O","O","O","O","O","O","O","O","O","O","O","O","O","O","O","O","O","O","O","O","O","O","O","O","O","O","O","O","O","O","O","O","O","O","O","O","O","O","O","O","O","O","O","O","O","O","O","O","O","O","O","O","O","O","O","O","O","O","O","O","O","O","O","O","O","O","O","O","O","O","O","O","O","O","O","O","O","O","O","O","O","O","O","O","O","O","O","O","O","O","O","O","O","O","O","O","O","O","O","O","O","O","O","O","O","O","O","O","O","O","O","O","O","O","O","O","O","O","O","O","O","O","O","O","O","O","O","O","O","O","O","O","O","O","O","O","O","O","O","O","O","O","O","O","O","O","O","O","O","O","?","?","?","?","?","?","?","?","?","?","?","?","?","?","?","?","?","?","N","N","N","N","N","N","N","N","N","N","N","?","?","?","?","?","?","?","D","D","D","D","D","D","D","D","D","D","D","D","D","D","D","D","D","D","D","D","D","D","D","D","D","D","D","D","D","D","D","D","D","D","D","D","D","D","D","D","D","D","D","D","D","D","D","D","D","D","D","D","D","D","D","D","D","D","D","D","D","D","D","D","D","D","D","?","?","L","?","K","K","K","K","K","K","K","K","K","K","K","K","K","K","K","K","K","K","?","?","?","?","J","J","J","J","J","J","J","J","J","J","J","J","J","J","J","J","J","J","J","J","J","J","J","J","J","J","J","J","J","J","J","J","J","J","J","J","?","?","?","?","?","?","?","?","?","?","?","?","?","U","U","W","?","X","X","X","Y","Y","Y","Y","Y","Y","Y","Y","Y","Y","Y","Y","Y","Y","Y","Y","Y","Y","Y","Y","Y","Y","Y","Y","Y","Y","Y","Y","Y","Y","Y","?","?","?","?","?","?","?","?","?","?","?","?","?","?","?","?","?","?","?","?","?","?","?","?","?","?","?","?","?","?","?","?","?","?","?","?","?","?","?","?","?","?","?","?","?","?","?","?","?","?","?","?","?","?","?","?","?","?","?","?","?","?","?","?","?","?","?","?","?","?","?","?","?","P","P","P","?","?","?","O","O","O","O","O","O","O","O","O","O","O","O","O","O","O","O","O","O","O","O","O","O","O","O","O","O","O","O","O","O","O","O","O","O","O","O","O","O","O","O","O","O","O","O","O","O","O","O","O","O","O","O","O","O","O","O","O","O","O","O","O","O","O","O","O","O","O","O","O","O","O","O","O","O","O","O","O","O","O","O","O","O","O","O","O","O","O","O","O","O","O","O","O","O","O","O","O","O","O","O","O","O","O","O","O","O","O","O","O","O","O","O","O","O","O","O","O","O","O","O","O","O","O","O","O","O","O","O","O","O","O","O","O","O","O","O","O","O","O","O","O","O","O","O","O","O","O","O","O","O","O","O","O","O","O","O","O","O","O","O","O","O","O","O","O","O","O","O","O","O","O","O","O","O","O","O","O","O","O","O","O","O","O","O","O","O","O","?","?","?","?","?","?","?","?","?","?","?","?","?","?","?","?","?","?","?","?","?","?","?","?","?","?","?","?","?","?","?","?","E","E","E","E","E","E","E","E","E","E","E","E","E","E","E","E","E","E","E","E","E","E","E","E","E","E","E","E","E","E","E","E","E","E","E","E","E","E","E","E","E","E","E","E","E","E","E","E","E","E","E","E","E","E","E","E","E","E","E","E","E","E","E","E","E","E","E","E","E","E","E","E","E","E","E","E","E","E","E","E","E","E","E","E","E","E","E","E","E","E","E","E","E","E","E","E","E","E","E","E","E","E","E","E","E","E","E","E","E","E","E","E","E","E","E","E","E","E","E","E","E","E","E","E","E","E","E","E","E","E","E","E","E","E","E","E","E","E","E","E","E","E","E","E","E","E","E","E","E","E","E","E","E","E","E","E","E","E","E","E","E","E","E","E","E","E","E","E","E","E","E","E","E","E","E","E","E","E","E","E","E","E","E","E","E","E","E","E","E","E","E","E","E","E","E","E","E","E","E","E","E","E","E","E","E","E","E","E","E","E","E","E","E","E","E","E","E","E","E","E","E","E","E","E","E","E","E","E","E","E","E","E","E","E","E","E","E","E","E","E","E","E","E","E","E","E","E","E","E","E","E","E","E","E","E","E","E","E","E","E","E","E","E","E","E","E","E","E","E","E","E","E","E","E","E","E","E","?","?","?","?","?","?","?","?","?","?","?","?","?","?","?","?","?","?","?","?","?","?","?","?","?","F","F","F","F","F","F","F","F","F","?","?","?","?","?","?","?","?","?","?","?","?","?","?","?","?","?","?","?","?","?","?","?","?","?","?","?","?","?","?","?","?","?","?","?","?","?","?","?","?","?","?","?","?","?","?","?","?","?","?","?","?","?","?","?","?","?","?","?","?","?","?","?","?","?","?","?","?","?","?","?","?","?","?","?","?","?","?","?","?","?","?","?","?","?","?","?","?","?","?","?","?","?","?","?","?","?","?","?","?","?","?","?","?","?","?","?","?","?","?","?","?","?","?","?","?","?","?","?","?","?","?","?","?","?","?","?","?","?","?","?","?","?","?","?","?","?","?","?","?","?","?","?","?","?","?","?","?","?","?","?","?","?","?","?","?","?","?","?","?","?","?","?","?","?","?","?","?","?","?","?","?","?","?","?","?","?","?","?","?","?","?","?","?","?","?","?","?","?","?","?","?","?","?","?","?","?","?","?","?","?","?","?","?","?","?","?","?","?","?","?","?","?","?","?","?","?","?","?","?","?","?","?","?","?","?","?","?","?","?","?","?","?","?","?","?","?","?","?","?","?","?","?","?","?","?","?","?","?","?","?","?","?","?","?","?","?","?","?","?","?","?","?","P","P","?","?","?","?","?","?","?","?","?","?","?","?","?","?","O","?","?","?","?","?","?","?","?","?","?","?","?","?","?","?","?","?","?","?","?","?","?","?","?","?","?","?","?","?","?","?","?","?","?","?","?","?","?","?","?","?","?","?","?","?","?","?","?","?","G","G","G","G","G","G","G","G","G","G","G","G","G","G","G","G","G","G","G","G","G","G","G","G","G","G","G","G","G","G","G","G","G","G","G","G","G","G","G","G","G","G","G","G","G","G","G","G","G","G","G","G","G","G","G","G","G","G","G","G","G","G","G","G","G","G","G","G","G","G","G","G","G","G","G","G","G","G","G","G","G","G","G","G","G","G","G","G","G","G","?","F","?","?","N","N","N","N","N","N","?","?","?","?","?","?","?","M","M","M","M","M","M","M","M","M","M","M","M","M","M","M","M","M","M","M","M","M","M","M","M","M","M","M","M","M","M","M","M","M","M","M","M","M","M","M","M","M","M","M","M","M","M","M","M","M","M","M","M","M","M","M","M","M","M","M","M","M","M","M","M","M","M","M","M","M","M","M","M","M","M","M","M","M","M","M","M","M","M","M","M","M","M","M","M","M","M","M","M","M","M","M","M","?","?","?","?","?","?","?","?","L","L","L","L","L","L","L","L","L","L","L","L","L","L","L","L","L","L","L","L","L","L","L","L","L","L","L","?","M","M","?","?","?","?","?","?","X","X","X","X","X","X","X","X","X","X","X","X","X","X","X","X","X","X","X","X","X","X","X","X","X","X","X","X","X","X","X","X","X","X","X","X","X","X","X","X","X","X","X","X","X","X","X","X","X","X","X","X","X","X","X","X","X","X","X","X","X","X","X","X","?","?","?","?","?","?","?","?","?","?","?","?","?","?","?","?","?","?","?","?","?","?","?","?","?","?","?","?","?","Q","Q","Q","Q","Q","Q","Q","Q","Q","Q","Q","Q","Q","Q","Q","Q","Q","Q","Q","Q","Q","Q","Q","Q","Q","Q","Q","Q","Q","Q","Q","Q","Q","Q","Q","Q","Q","Q","Q","Q","Q","Q","Q","Q","Q","Q","Q","Q","Q","Q","Q","Q","Q","Q","Q","Q","Q","Q","Q","Q","Q","Q","Q","Q","Q","Q","Q","Q","Q","Q","Q","?","R","R","R","R","R","R","R","R","R","R","R","R","R","R","R","R","R","R","R","R","R","R","R","R","R","R","R","R","R","R","R","R","R","R","R","R","R","R","R","R","R","R","R","R","R","R","R","R","R","R","R","R","R","R","R","R","R","R","R","R","R","R","R","R","R","R","R","R","R","R","R","R","R","R","R","R","R","R","R","R","R","R","R","R","R","R","R","R","R","R","R","R","R","R","R","R","R","R","R","R","R","R","R","R","R","R","R","R","R","R","R","R","R","R","R","R","R","R","R","R","R","R","R","R","R","R","R","R","R","R","R","R","R","R","R","R","R","R","R","R","R","R","R","P","O","?","?","?","?","?","?","?","?","?","?","?","?","?","?","?","?","?","?","?","?","U","U","U","U","U","U","U","U","U","U","U","U","U","U","U","U","U","U","U","U","U","U","U","U","U","U","U","U","U","U","U","U","U","U","U","U","U","U","U","U","U","U","U","U","U","U","U","U","U","U","U","U","U","U","U","U","U","U","U","U","U","U","U","U","U","U","U","U","U","U","U","U","U","U","U","U","U","U","U","U","U","U","U","U","U","U","U","U","U","U","U","U","U","U","U","U","U","U","U","U","U","U","U","U","U","U","U","U","U","U","U","U","U","U","U","U","U","U","U","U","U","U","U","U","U","U","U","?","?","?","?","?","?","?","?","?","?","?","?","?","?","?","?","?","?","?","?","?","?","?","?","K","K","K","K","K","K","K","K","K","K","K","K","K","K","K","K","K","K","K","K","K","K","K","K","K","K","K","K","K","K","K","K","K","K","K","K","K","K","K","K","K","K","K","K","K","K","K","K","K","K","K","K","K","K","K","K","K","K","K","K","K","K","K","K","K","K","K","K","K","K","K","K","K","K","K","K","K","K","K","K","K","K","K","K","K","K","K","K","K","K","K","K","K","?","?","?","?","?","?","?","?","T","T","T","T","T","T","T","T","T","T","T","T","T","T","T","T","T","T","T","T","T","T","T","T","T","T","T","T","T","T","T","T","T","T","T","T","T","T","T","T","T","T","T","T","T","T","T","T","T","T","T","T","T","T","T","T","T","T","T","T","T","T","T","T","T","T","T","T","T","T","T","T","T","T","T","T","T","T","T","T","T","T","T","T","T","T","?","?","U","U","U","?","?","V","V","V","V","V","V","V","?","W","W","W","W","W","W","W","W","W","W","W","W","W","W","W","W","W","W","W","W","W","W","W","W","W","W","W","W","W","W","W","W","W","W","W","W","W","W","W","W","W","W","W","W","W","W","W","W","W","W","W","W","W","W","W","W","W","W","W","W","W","W","W","W","W","W","W","W","W","W","?","?","?","X","X","X","X","X","X","X","X","X","X","X","X","X","X","X","X","X","X","X","X","X","X","X","X","X","X","X","X","X","X","X","X","X","X","X","X","X","X","X","X","X","X","X","X","X","X","X","X","X","X","X","X","X","X","X","?","Y","Y","Y","Y","Y","Y","Y","Y","Y","Y","Y","Y","Y","Y","Y","Y","Y","Y","Y","Y","Y","Y","Y","Y","Y","Y","Y","Y","Y","Y","Y","Y","Y","Y","Y","Y","Y","Y","Y","Y","Y","Y","Y","Y","Y","Y","Y","Y","Y","Y","Y","Y","?","Z","Z","Z","Z","Z","Z","Z","Z","Z","Z","Z","Z","Z","Z","Z","Z","Z","Z","Z","Z","Z","Z","Z","Z","Z","Z","Z","Z","Z","Z","Z","Z","Z","Z","Z","Z","Z","Z","Z","Z","Z","Z","Z","Z","Z","Z","Z","Z","Z","Z","Z","Z","Z","Z","Z","Z","Z","Z","Z","Z","Z","Z","Z","Z","Z","Z","Z","Z","Z","Z","Z","Z","Z","Z","Z","Z","Z","Z","Z","Z","Z","Z","Z","Z","Z","Z","Z","Z","Z","Z","Z","Z","Z","Z","Z","Z","Z","Z","Z","Z","Z","Z","Z","Z","Z","Z","Z","Z","Z","Z","Z","Z","Z","Z","Z","Z","Z","Z","Z","Z","Z","Z","Z","Z","Z","Z","Z","Z","Z","Y","Y","X","W","U","U","?","?","?","?","?","?","?","?","?","?","?","?","?","?","?","?","?","?","?","?","?","?","?","?","?","?","?","?","?","?","?","?","?","?","?","?","?","?","?","?","J","J","J","J","J","J","J","J","J","J","J","J","J","J","J","J","J","J","J","J","J","J","J","J","J","J","J","J","J","J","J","J","J","J","J","J","J","J","J","J","J","J","J","J","J","J","J","J","J","J","J","J","J","J","J","J","J","J","J","J","J","J","J","J","J","J","J","J","J","J","J","J","J","J","J","J","J","J","J","J","J","J","J","J","J","J","J","J","J","J","J","J","J","J","J","J","J","J","J","J","J","J","J","J","J","J","J","J","J","J","J","J","J","J","J","J","J","J","J","J","J","J","J","J","J","J","J","J","J","?","?","?","?","K","?","?","?","?","?","?","?","?","?","?","?","?","?","?","?","?","?","?","?","?","?","?","?","?","?","?","?","?","?","?","?","?","?","?","?","L","L","L","L","L","L","?","?","?","?","?","?","B","B","B","B","B","B","B","B","B","B","B","B","B","B","B","B","B","B","B","B","B","B","B","B","B","B","B","B","B","B","B","B","B","B","B","B","B","B","B","B","B","B","B","B","B","B","B","B","B","B","B","B","B","B","B","B","B","B","B","B","B","B","B","B","B","B","B","B","B","B","B","B","B","B","B","B","B","B","B","B","B","B","B","B","B","B","B","B","B","B","B","B","B","B","B","B","B","B","B","B","B","B","B","B","B","B","B","B","B","B","B","B","B","B","B","B","B","B","B","B","B","B","B","B","B","B","B","B","B","B","B","B","B","B","B","B","B","B","B","B","B","B","B","B","B","B","B","B","B","B","B","B","B","B","B","B","B","B","B","B","B","B","B","B","B","B","B","B","B","B","B","B","B","B","B","B","B","B","B","B","B","B"],"t":[21,35,154,169,186,201,218,234,251,268,285,302,319,336,351,368,385,403,419,435,451,469,485,501,519,536,552,569,585,601,619,635,651,668,685,702,719,736,754,769,785,803,820,836,854,869,886,904,919,938,953,969,986,1003,1020,1037,1052,1069,1086,1103,1119,1136,1153,1170,1186,1202,1219,1236,1253,1269,1286,1303,1320,1337,1354,1369,1387,1403,1420,1436,1453,1470,1487,1503,1520,1537,1555,1570,1587,1603,1620,1637,1654,1671,1688,1704,1721,1737,1754,1773,1787,1804,1821,1837,1855,1871,1887,1904,1921,1938,1955,1971,1988,2004,2021,2037,2054,2071,2088,2104,2120,2139,2155,2171,2188,2205,2222,2238,2254,2272,2288,2305,2321,2339,2355,2371,2388,2405,2422,2439,2455,2471,2488,2505,2522,2538,2555,2572,2589,2605,2622,2639,2655,2672,2689,2706,2722,2739,2756,2773,2789,2806,2822,2839,2856,2872,2890,2906,2922,2939,2956,2973,2989,3006,3022,3040,3056,3073,3089,3106,3123,3140,3156,3173,3190,3207,3223,3239,3256,3273,3290,3307,3324,3340,3357,3374,3390,3406,3424,3441,3457,3473,3491,3508,3524,3541,3558,3574,3592,3608,3623,3640,3658,3675,3691,3708,3724,3741,3757,3774,3791,3807,3824,3841,3858,3874,3891,3908,3925,3941,3958,3975,3991,4008,4025,4041,4058,4074,4091,4108,4125,4142,4159,4175,4192,4208,4225,4243,4259,4275,4291,4308,4326,4342,4358,4375,4392,4409,4425,4442,4459,4475,4492,4509,4526,4543,4559,4576,4592,4609,4625,4642,4659,4676,4693,4710,4726,4742,4759,4776,4793,4810,4827,4843,4860,4876,4893,4910,4926,4943,4960,4977,4994,5010,5026,5043,5060,5077,5095,5111,5127,5143,5161,5177,5194,5210,5227,5244,5261,5277,5293,5311,5327,5343,5360,5377,5394,5412,5427,5444,5461,5478,5494,5511,5527,5544,5561,5577,5594,5611,5628,5645,5661,5677,5694,5711,5728,5745,5761,5778,5795,5811,5828,5845,5862,5878,5894,5911,5928,5945,5961,5978,5996,6012,6029,6045,6062,6079,6095,6112,6128,6145,6166,6181,6195,6212,6229,6246,6262,6279,6296,6313,6329,6346,6362,6379,6396,6413,6430,6446,6463,6480,6496,6513,6530,6547,6563,6579,6598,6613,6630,6647,6664,6680,6697,6713,6730,6746,6763,6780,6797,6813,6831,6847,6863,6881,6898,6914,6930,6947,6964,6981,6997,7014,7031,7047,7064,7082,7098,7114,7131,7148,7165,7181,7197,7214,7231,7248,7264,7281,7297,7314,7331,7347,7365,7381,7398,7414,7432,7448,7464,7482,7498,7514,7531,7548,7565,7581,7598,7616,7632,7650,7666,7682,7699,7715,7731,7749,7765,7782,7799,7816,7832,7849,7865,7882,7900,7917,7932,7949,7965,7983,7999,8016,8033,8049,8068,8086,8100,8116,8132,8149,8167,8183,8199,8215,8233,8249,8267,8283,8300,8317,8333,8350,8367,8383,8400,8417,8433,8449,8467,8483,8500,8517,8533,8550,8567,8584,8600,8617,8634,8651,8667,8683,8701,8718,8734,8751,8767,8783,8801,8817,8833,8851,8867,8884,8901,8919,8934,8951,8968,8985,9001,9017,9034,9051,9067,9085,9102,9117,9135,9151,9168,9185,9201,9217,9235,9252,9269,9285,9301,9318,9335,9351,9368,9385,9401,9419,9436,9452,9468,9485,9503,9519,9535,9552,9569,9585,9602,9618,9635,9652,9669,9685,9702,9719,9735,9752,9770,9785,9803,9819,9835,9852,9869,9885,9903,9920,9936,9953,9970,9986,10002,10019,10036,10053,10070,10087,10103,10120,10136,10153,10170,10186,10203,10220,10236,10254,10270,10287,10303,10320,10337,10354,10370,10386,10403,10420,10437,10453,10470,10486,10504,10520,10537,10553,10570,10587,10605,10620,10637,10654,10671,10687,10704,10720,10737,10754,10770,10788,10804,10822,10838,10854,10871,10887,10904,10921,10938,10955,10971,10988,11005,11022,11038,11054,11072,11088,11105,11121,11138,11155,11173,11188,11206,11222,11239,11255,11272,11288,11305,11322,11338,11355,11372,11389,11406,11422,11438,11456,11472,11488,11505,11522,11539,11556,11572,11589,11607,11623,11639,11656,11673,11689,11706,11723,11739,11756,11773,11790,11806,11822,11839,11856,11872,11889,11906,11923,11940,11956,11973,11990,12007,12023,12039,12056,12073,12090,12107,12124,12140,12156,12175,12190,12208,12223,12240,12257,12273,12290,12308,12324,12340,12357,12374,12391,12407,12424,12440,12457,12474,12490,12508,12525,12541,12558,12575,12591,12607,12624,12642,12658,12675,12691,12707,12725,12741,12758,12775,12791,12808,12824,12841,12858,12874,12891,12908,12925,12942,12959,12975,12991,13008,13025,13042,13059,13075,13092,13109,13125,13142,13159,13177,13192,13209,13225,13242,13259,13276,13292,13309,13326,13342,13359,13376,13392,13409,13425,13443,13459,13476,13493,13510,13526,13543,13559,13576,13593,13609,13626,13643,13661,13677,13693,13710,13727,13743,13760,13776,13793,13810,13826,13843,13860,13877,13894,13911,13927,13943,13960,13977,13993,14010,14027,14044,14061,14077,14094,14111,14127,14144,14160,14178,14195,14211,14227,14244,14261,14277,14294,14313,14329,14344,14361,14377,14394,14411,14428,14445,14461,14478,14495,14512,14528,14544,14561,14577,14595,14611,14628,14645,14661,14678,14695,14712,14730,14745,14762,14779,14795,14812,14829,14846,14861,14878,14895,14913,14929,14945,14964,14979,14995,15013,15029,15045,15062,15079,15096,15113,15129,15146,15162,15180,15196,15212,15229,15246,15263,15280,15296,15312,15329,15346,15362,15380,15396,15413,15429,15446,15463,15479,15496,15513,15530,15547,15563,15582,15596,15614,15630,15646,15663,15680,15697,15714,15730,15746,15764,15780,15796,15813,15830,15847,15864,15880,15897,15914,15930,15947,15964,15980,15998,16014,16030,16047,16064,16081,16098,16114,16130,16148,16164,16182,16198,16214,16231,16248,16264,16281,16298,16315,16332,16348,16365,16381,16398,16416,16432,16448,16465,16482,16498,16515,16532,16548,16565,16581,16598,16615,16632,16648,16665,16682,16699,16715,16732,16748,16766,16782,16798,16816,16832,16849,16866,16883,16899,16916,16932,16949,16966,16982,16999,17016,17032,17050,17066,17083,17099,17116,17132,17150,17166,17184,17200,17216,17233,17250,17267,17283,17300,17317,17333,17350,17367,17383,17399,17417,17433,17450,17466,17484,17500,17517,17534,17550,17567,17583,17600,17618,17634,17650,17667,17684,17700,17718,17733,17752,17767,17785,17802,17818,17835,17851,17868,17884,17901,17919,17934,17954,17970,17984,18001,18018,18034,18051,18068,18084,18102,18117,18134,18151,18168,18186,18202,18218,18234,18252,18269,18285,18301,18318,18335,18352,18369,18385,18401,18419,18435,18452,18468,18485,18502,18519,18535,18552,18568,18585,18602,18619,18636,18653,18670,18686,18702,18719,18736,18752,18770,18786,18803,18820,18836,18852,18869,18887,18903,18920,18936,18953,18970,18986,19003,19021,19036,19053,19070,19087,19103,19120,19137,19154,19170,19187,19203,19220,19237,19253,19271,19287,19304,19321,19337,19353,19371,19387,19403,19421,19437,19454,19471,19488,19504,19521,19537,19554,19571,19588,19604,19621,19637,19654,19671,19688,19704,19721,19737,19755,19771,19789,19804,19821,19838,19855,19871,19889,19905,19922,19938,19954,19971,19988,20005,20022,20039,20055,20072,20088,20105,20122,20139,20155,20172,20190,20205,20222,20239,20255,20272,20289,20306,20322,20339,20355,20372,20389,20406,20425,20440,20456,20472,20489,20506,20522,20539,20556,20573,20589,20606,20623,20640,20656,20673,20690,20707,20723,20739,20757,20773,20791,20806,20823,20840,20856,20874,20890,20907,20923,20940,20957,20974,20990,21006,21025,21041,21057,21073,21090,21107,21124,21140,21157,21174,21191,21207,21224,21241,21258,21274,21291,21307,21324,21341,21358,21374,21391,21408,21426,21443,21458,21474,21492,21508,21524,21541,21558,21575,21592,21608,21624,21641,21658,21675,21691,21708,21725,21741,21758,21775,21792,21809,21825,21842,21858,21875,21891,21908,21926,21941,21958,21976,21993,22010,22027,22043,22059,22075,22093,22110,22127,22143,22158,22176,22193,22209,22226,22243,22260,22276,22292,22309,22326,22342,22360,22376,22393,22410,22426,22443,22460,22476,22493,22510,22527,22543,22561,22577,22593,22609,22627,22643,22660,22677,22694,22711,22727,22743,22760,22777,22794,22810,22828,22844,22860,22879,22895,22912,22928,22944,22961,22978,22994,23010,23028,23045,23061,23077,23094,23111,23127,23145,23161,23178,23195,23211,23227,23244,23262,23277,23294,23311,23327,23346,23361,23378,23395,23412,23430,23444,23461,23480,23495,23512,23528,23544,23562,23578,23595,23611,23629,23646,23662,23678,23695,23712,23729,23745,23762,23778,23796,23812,23829,23845,23862,23879,23896,23912,23930,23947,23963,23979,23996,24012,24029,24046,24066,24079,24096,24113,24130,24146,24163,24180,24197,24212,24229,24246,24263,24280,24297,24313,24330,24347,24363,24379,24397,24413,24431,24446,24464,24481,24498,24515,24533,24548,24564,24582,24597,24613,24631,24647,24664,24680,24697,24713,24731,24747,24764,24781,24797,24814,24832,24848,24866,24881,24898,24914,24931,24948,24965,24981,24997,25014,25031,25048,25064,25081,25098,25115,25132,25148,25165,25181,25199,25215,25232,25248,25264,25281,25299,25315,25332,25348,25366,25381,25398,25415,25432,25448,25465,25483,25500,25515,25532,25548,25565,25582,25599,25616,25632,25649,25666,25685,25701,25716,25733,25749,25766,25783,25799,25816,25833,25850,25866,25883,25899,25916,25933,25950,25968,25983,25999,26016,26034,26050,26067,26084,26100,26116,26134,26150,26167,26184,26201,26219,26234,26250,26267,26284,26301,26317,26333,26350,26367,26384,26400,26417,26434,26451,26468,26484,26501,26518,26535,26551,26567,26584,26601,26618,26634,26651,26668,26684,26702,26717,26734,26752,26768,26784,26801,26818,26835,26851,26869,26885,26901,26918,26935,26951,26968,26985,27002,27018,27035,27052,27069,27085,27102,27118,27135,27152,27168,27185,27203,27219,27236,27252,27268,27286,27302,27319,27336,27352,27369,27386,27403,27419,27436,27452,27470,27488,27503,27519,27537,27553,27569,27586,27603,27619,27637,27654,27669,27686,27703,27720,27736,27753,27769,27786,27804,27820,27836,27853,27870,27886,27903,27920,27936,27954,27970,27986,28004,28021,28037,28053,28070,28087,28103,28120,28137,28153,28171,28187,28205,28220,28237,28254,28271,28288,28303,28321,28337,28354,28370,28387,28404,28421,28437,28454,28471,28488,28505,28521,28538,28555,28571,28589,28606,28621,28638,28655,28672,28689,28705,28721,28739,28754,28771,28789,28805,28822,28838,28855,28872,28890,28905,28922,28939,28956,28972,28989,29005,29022,29039,29055,29072,29089,29106,29123,29139,29155,29172,29190,29207,29223,29241,29259,29273,29289,29305,29323,29339,29355,29372,29389,29406,29423,29440,29457,29474,29490,29506,29524,29540,29556,29575,29591,29606,29623,29640,29657,29673,29689,29707,29723,29740,29756,29773,29790,29807,29823,29841,29857,29874,29891,29907,29925,29940,29957,29974,29991,30007,30024,30040,30057,30074,30091,30108,30125,30142,30157,30175,30192,30207,30225,30241,30258,30275,30291,30307,30324,30341,30358,30375,30392,30408,30424,30442,30458,30474,30492,30508,30525,30542,30558,30574,30592,30609,30625,30642,30659,30675,30692,30708,30725,30741,30758,30775,30792,30809,30826,30842,30859,30875,30892,30909,30926,30942,30959,30976,30992,31009,31025,31042,31059,31076,31092,31109,31126,31142,31159,31176,31193,31209,31227,31243,31259,31276,31293,31310,31326,31343,31360,31377,31393,31410,31426,31444,31461,31477,31494,31510,31527,31544,31560,31576,31595,31610,31626,31643,31661,31677,31694,31711,31727,31744,31760,31778,31795,31811,31827,31844,31861,31880,31896,31911,31927,31944,31961,31977,31994,32011,32028,32045,32061,32079,32095,32111,32128,32145,32161,32178,32195,32212,32230,32246,32262,32278,32296,32312,32329,32345,32362,32378,32396,32413,32429,32445,32462,32479,32496,32512,32528,32545,32562,32579,32596,32613,32629,32645,32662,32680,32695,32713,32729,32745,32762,32779,32796,32813,32829,32846,32863,32879,32897,32912,32929,32946,32963,32980,32997,33013,33030,33046,33064,33080,33097,33113,33130,33147,33163,33180,33198,33213,33231,33247,33264,33280,33297,33313,33331,33346,33364,33380,33397,33414,33431,33447,33464,33481,33497,33514,33531,33547,33564,33581,33597,33614,33631,33647,33665,33681,33697,33714,33731,33747,33765,33782,33798,33815,33831,33848,33865,33881,33898,33915,33931,33948,33965,33983,33999,34015,34031,34049,34065,34081,34098,34115,34131,34149,34165,34182,34198,34217,34234,34248,34265,34282,34299,34315,34332,34349,34365,34383,34399,34416,34433,34449,34466,34483,34499,34516,34532,34549,34566,34583,34599,34616,34633,34649,34667,34683,34699,34716,34732,34750,34766,34783,34799,34817,34833,34850,34867,34883,34900,34917,34934,34950,34967,34983,34999,35017,35033,35050,35067,35083,35101,35117,35134,35150,35167,35183,35200,35217,35236,35250,35267,35284,35300,35318,35334,35351,35367,35384,35401,35418,35434,35450,35467,35484,35501,35517,35535,35551,35569,35585,35602,35618,35634,35651,35668,35685,35702,35718,35734,35751,35768,35784,35802,35818,35835,35851,35868,35885,35902,35919,35936,35951,35969,35985,36002,36020,36036,36052,36068,36086,36102,36119,36135,36152,36169,36186,36202,36219,36236,36253,36269,36286,36302,36319,36336,36352,36369,36386,36402,36419,36436,36453,36470,36487,36505,36519,36536,36553,36570,36586,36603,36620,36637,36653,36670,36686,36704,36720,36736,36753,36770,36787,36804,36820,36836,36854,36870,36887,36903,36920,36937,36955,36970,36987,37004,37022,37038,37054,37070,37088,37104,37122,37137,37154,37171,37188,37204,37220,37238,37255,37271,37287,37304,37321,37338,37355,37371,37388,37405,37422,37438,37454,37472,37488,37505,37521,37539,37555,37572,37588,37605,37622,37639,37655,37671,37688,37705,37722,37740,37756,37773,37789,37805,37822,37839,37855,37872,37889,37906,37923,37939,37956,37972,37989,38006,38023,38041,38056,38072,38089,38106,38122,38139,38156,38173,38189,38206,38223,38240,38262,38288,38306,38324,38341,38356,38375,38391,38407,38424,38441,38458,38474,38491,38512,38523,38540,38558,38574,38590,38607,38624,38640,38658,38673,38691,38707,38724,38741,38757,38774,38790,38807,38824,38842,38857,38874,38891,38908,38925,38941,38957,38974,38991,39008,39025,39042,39059,39075,39091,39108,39125,39141,39158,39174,39191,39208,39225,39242,39259,39275,39292,39309,39326,39342,39359,39375,39391,39408,39425,39442,39459,39475,39492,39509,39526,39544,39559,39575,39592,39609,39626,39643,39660,39676,39693,39709,39726,39743,39759,39776,39792,39809,39826,39844,39859,39876,39893,39910,39926,39943,39960,39976,39993,40010,40027,40044,40060,40077,40093,40110,40127,40143,40160,40177,40193,40210,40226,40245,40261,40277,40294,40310,40327,40343,40360,40377,40393,40410,40427,40444,40461,40477,40493,40511,40527,40544,40561,40578,40593,40611,40628,40644,40663,40677,40694,40711,40728,40744,40762,40778,40794,40811,40828,40845,40861,40878,40895,40911,40928,40944,40961,40978,40995,41011,41028,41046,41063,41078,41095,41112,41128,41146,41162,41178,41195,41212,41228,41246,41262,41279,41295,41312,41328,41345,41362,41380,41395,41413,41429,41446,41463,41479,41495,41513,41529,41545,41563,41579,41596,41613,41629,41646,41663,41680,41696,41713,41729,41747,41763,41779,41796,41813,41830,41847,41863,41879,41897,41913,41929,41946,41964,41980,41997,42013,42031,42047,42064,42081,42097,42114,42130,42147,42164,42180,42197,42214,42231,42247,42264,42281,42297,42314,42330,42347,42364,42381,42397,42415,42431,42447,42465,42481,42497,42514,42531,42548,42565,42583,42598,42614,42631,42648,42665,42682,42698,42714,42731,42748,42765,42781,42798,42815,42832,42848,42865,42881,42899,42915,42932,42949,42965,42982,42998,43016,43032,43049,43065,43083,43099,43115,43132,43149,43166,43183,43199,43216,43232,43249,43266,43283,43299,43316,43333,43349,43366,43383,43400,43417,43433,43449,43467,43483,43499,43516,43533,43550,43566,43583,43600,43617,43633,43650,43666,43684,43700,43717,43734,43750,43767,43783,43800,43817,43834,43850,43867,43883,43900,43917,43934,43951,43967,43984,44001,44017,44034,44050,44067,44086,44102,44117,44134,44151,44168,44185,44201,44217,44234,44251,44268,44285,44301,44318,44334,44351,44368,44384,44401,44418,44435,44452,44468,44484,44502,44518,44535,44551,44568,44585,44602,44618,44635,44652,44669,44686,44701,44719,44735,44752,44768,44785,44802,44818,44836,44852,44869,44886,44902,44919,44936,44952,44969,44986,45002,45019,45036,45053,45070,45086,45103,45119,45136,45152,45169,45186,45203,45219,45237,45253,45270,45286,45303,45320,45336,45353,45370,45386,45403,45420,45437,45454,45470,45486,45503,45520,45536,45553,45570,45587,45604,45621,45637,45653,45670,45687,45704,45721,45737,45753,45771,45788,45804,45820,45837,45854,45870,45888,45904,45921,45938,45954,45971,45988,46004,46021,46038,46055,46071,46087,46104,46121,46138,46155,46172,46188,46205,46221,46238,46255,46271,46288,46305,46321,46338,46355,46372,46388,46405,46422,46439,46455,46471,46488,46505,46522,46539,46556,46572,46589,46605,46622,46639,46655,46672,46689,46705,46722,46739,46756,46773,46789,46806,46823,46839,46856,46873,46889,46906,46922,46939,46956,46973,46990,47007,47023,47039,47056,47073,47089,47106,47123,47140,47157,47173,47190,47207,47223,47239,47256,47273,47290,47307,47323,47340,47356,47373,47391,47407,47424,47440,47457,47474,47490,47507,47524,47541,47557,47574,47591,47607,47624,47640,47657,47674,47691,47708,47725,47741,47758,47774,47791,47808,47825,47841,47858,47875,47891,47907,47925,47942,47958,47975,47992,48008,48024,48042,48058,48075,48092,48108,48125,48142,48159,48175,48192,48209,48225,48242,48259,48276,48292,48309,48325,48342,48358,48375,48392,48409,48425,48442,48459,48476,48492,48509,48526,48542,48559,48576,48593,48609,48626,48643,48660,48676,48692,48709,48726,48743,48760,48776,48793,48810,48826,48843,48859,48876,48893,48910,48926,48943,48961,48976,48993,49010,49027,49043,49060,49077,49093,49110,49127,49144,49160,49177,49194,49211,49227,49243,49260,49278,49294,49310,49327,49344,49361,49378,49394,49410,49428,49444,49460,49477,49494,49510,49528,49544,49561,49578,49595,49611,49628,49644,49661,49678,49694,49711,49729,49745,49762,49778,49795,49813,49829,49845,49862,49878,49895,49912,49929,49946,49962,49979,49996,50012,50028,50046,50063,50079,50096,50113,50128,50146,50163,50179,50196,50213,50229,50246,50263,50281,50297,50314,50329,50347,50363,50380,50396,50413,50429,50446,50464,50481,50496,50513,50530,50547,50563,50580,50597,50613,50629,50647,50664,50681,50697,50714,50730,50747,50763,50780,50797,50814,50830,50848,50864,50880,50897,50914,50931,50948,50964,50980,50998,51015,51031,51047,51065,51081,51097,51115,51131,51148,51165,51181,51198,51214,51232,51248,51264,51282,51298,51314,51331,51348,51364,51382,51398,51415,51431,51448,51465,51482,51498,51515,51532,51549,51565,51582,51598,51614,51633,51649,51665,51682,51698,51715,51732,51748,51765,51782,51799,51815,51832,51849,51866,51882,51898,51916,51933,51949,51966,51982,51999,52016,52032,52049,52066,52083,52099,52116,52132,52150,52166,52182,52199,52216,52234,52250,52266,52283,52300,52317,52333,52350,52366,52383,52400,52416,52433,52450,52467,52484,52500,52516,52533,52550,52567,52583,52600,52617,52633,52651,52667,52685,52702,52718,52733,52751,52767,52784,52801,52817,52834,52851,52867,52884,52901,52917,52934,52951,52968,52984,53001,53017,53034,53051,53068,53084,53101,53118,53135,53152,53168,53185,53201,53218,53235,53252,53268,53285,53302,53318,53335,53351,53368,53385,53402,53418,53435,53451,53468,53485,53502,53519,53537,53553,53569,53586,53605,53618,53635,53653,53669,53685,53702,53719,53735,53752,53769,53786,53803,53819,53837,53852,53869,53886,53903,53919,53936,53953,53969,53987,54003,54019,54037,54053,54069,54086,54103,54120,54136,54153,54169,54186,54203,54220,54237,54254,54270,54288,54303,54320,54337,54354,54370,54387,54403,54420,54437,54453,54470,54487,54504,54521,54537,54554,54571,54587,54604,54620,54637,54654,54671,54688,54704,54721,54738,54754,54771,54787,54804,54821,54837,54854,54871,54888,54905,54921,54938,54955,54971,54988,55004,55021,55039,55055,55072,55089,55105,55122,55139,55155,55172,55188,55205,55222,55239,55255,55272,55289,55305,55322,55340,55355,55372,55388,55405,55422,55440,55455,55472,55489,55506,55522,55539,55555,55572,55589,55606,55623,55640,55656,55672,55689,55706,55722,55739,55756,55773,55789,55806,55823,55839,55856,55873,55890,55907,55923,55941,55957,55973,55990,56006,56024,56040,56056,56073,56090,56106,56123,56140,56157,56174,56191,56208,56224,56240,56258,56274,56291,56307,56324,56341,56357,56374,56390,56407,56424,56441,56458,56474,56491,56507,56524,56542,56558,56574,56591,56608,56624,56642,56659,56675,56692,56708,56724,56741,56758,56775,56792,56808,56824,56842,56858,56874,56891,56909,56925,56942,56959,56975,56992,57008,57025,57042,57059,57075,57092,57109,57126,57143,57159,57175,57193,57209,57225,57242,57259,57276,57294,57309,57326,57343,57360,57376,57392,57409,57426,57442,57460,57476,57493,57510,57527,57543,57560,57576,57592,57610,57626,57643,57660,57677,57693,57710,57727,57743,57760,57777,57793,57810,57827,57845,57861,57877,57894,57911,57927,57944,57961,57977,57995,58010,58028,58046,58061,58077,58094,58111,58128,58144,58161,58177,58195,58211,58227,58245,58261,58277,58295,58312,58328,58344,58361,58378,58395,58412,58428,58444,58462,58479,58495,58512,58528,58545,58561,58579,58595,58611,58628,58645,58661,58678,58695,58714,58728,58746,58762,58779,58795,58812,58828,58845,58862,58879,58895,58914,58930,58946,58963,58980,58996,59012,59029,59046,59063,59079,59096,59113,59129,59146,59163,59179,59196,59212,59230,59247,59263,59279,59299,59313,59329,59346,59363,59380,59397,59413,59430,59446,59463,59480,59497,59513,59529,59546,59564,59580,59597,59613,59631,59647,59664,59681,59697,59715,59730,59747,59763,59781,59797,59814,59831,59848,59864,59881,59897,59914,59931,59947,59964,59981,59997,60015,60032,60048,60065,60081,60097,60114,60131,60148,60165,60181,60198,60215,60231,60248,60265,60281,60299,60315,60331,60348,60365,60382,60398,60414,60431,60448,60465,60482,60499,60515,60531,60549,60565,60582,60599,60616,60632,60649,60666,60683,60699,60716,60732,60749,60766,60783,60799,60816,60832,60849,60866,60882,60899,60916,60933,60949,60966,60983,61000,61016,61032,61049,61066,61083,61099,61116,61133,61150,61166,61184,61201,61216,61233,61250,61267,61284,61300,61316,61333,61350,61367,61383,61400,61417,61434,61450,61467,61484,61501,61518,61534,61550,61567,61584,61601,61618,61634,61650,61667,61684,61701,61718,61734,61751,61767,61784,61801,61818,61834,61851,61868,61885,61902,61918,61934,61951,61968,61984,62001,62019,62035,62052,62068,62085,62102,62119,62134,62151,62169,62185,62202,62218,62235,62252,62269,62285,62303,62319,62336,62352,62368,62385,62402,62419,62436,62452,62469,62486,62503,62521,62537,62553,62569,62586,62602,62619,62636,62653,62670,62686,62703,62719,62737,62752,62769,62786,62803,62820,62837,62853,62870,62887,62903,62919,62936,62953,62970,62987,63004,63020,63037,63053,63070,63087,63103,63120,63136,63153,63170,63187,63204,63220,63237,63254,63271,63287,63304,63321,63338,63354,63370,63387,63405,63421,63437,63454,63471,63487,63505,63521,63538,63555,63571,63587,63605,63621,63637,63655,63672,63688,63705,63722,63738,63754,63771,63788,63805,63822,63838,63854,63871,63888,63905,63922,63939,63955,63972,63989,64005,64022,64038,64055,64072,64089,64105,64122,64139,64156,64172,64189,64206,64222,64238,64256,64272,64289,64306,64323,64339,64356,64373,64389,64407,64423,64439,64456,64473,64489,64506,64523,64540,64557,64573,64590,64607,64623,64639,64657,64673,64690,64706,64724,64741,64757,64774,64790,64808,64824,64840,64857,64873,64890,64907,64924,64940,64957,64974,64991,65007,65024,65041,65057,65074,65091,65107,65124,65142,65157,65174,65190,65207,65225,65241,65258,65275,65291,65308,65325,65340,65358,65375,65391,65408,65425,65441,65458,65475,65492,65508,65525,65541,65558,65576,65592,65608,65625,65642,65658,65675,65692,65708,65725,65741,65759,65775,65792,65809,65825,65842,65859,65875,65893,65909,65925,65942,65958,65975,65993,66009,66027,66043,66059,66076,66092,66111,66127,66144,66160,66176,66193,66210,66226,66243,66260,66277,66293,66310,66327,66343,66359,66377,66393,66410,66427,66443,66460,66476,66494,66510,66527,66544,66560,66577,66594,66610,66627,66644,66660,66677,66693,66710,66727,66744,66760,66777,66794,66811,66827,66844,66861,66877,66894,66910,66928,66944,66961,66978,66994,67011,67028,67044,67061,67078,67094,67111,67128,67144,67161,67178,67194,67212,67227,67245,67261,67278,67294,67311,67330,67345,67362,67379,67395,67412,67428,67446,67462,67478,67495,67513,67528,67545,67562,67579,67596,67612,67628,67646,67662,67678,67695,67712,67729,67746,67763,67781,67797,67813,67829,67845,67862,67880,67897,67912,67929,67946,67963,67981,67996,68012,68030,68046,68062,68080,68096,68113,68130,68146,68163,68180,68197,68214,68230,68247,68263,68280,68297,68313,68330,68346,68364,68380,68398,68414,68430,68447,68463,68481,68497,68514,68531,68547,68564,68580,68597,68615,68630,68647,68664,68681,68698,68714,68730,68748,68764,68781,68797,68814,68831,68848,68864,68881,68898,68914,68931,68948,68965,68981,68998,69015,69032,69048,69064,69082,69098,69115,69132,69149,69166,69182,69198,69215,69232,69248,69265,69282,69299,69316,69333,69349,69366,69382,69399,69415,69432,69449,69466,69482,69499,69516,69533,69549,69566,69583,69599,69616,69633,69650,69666,69683,69700,69716,69734,69750,69766,69783,69800,69817,69833,69849,69866,69883,69899,69916,69933,69950,69967,69983,70000,70017,70033,70050,70067,70083,70100,70117,70133,70150,70167,70183,70201,70217,70233,70251,70267,70284,70300,70317,70334,70351,70368,70384,70400,70417,70434,70451,70467,70484,70501,70517,70534,70551,70568,70585,70601,70617,70635,70651,70668,70684,70701,70718,70735,70751,70768,70785,70802,70818,70834,70852,70868,70885,70902,70919,70935,70952,70968,70985,71002,71019,71036,71052,71069,71085,71102,71119,71135,71152,71169,71187,71203,71219,71235,71253,71269,71285,71302,71319,71336,71353,71369,71386,71402,71419,71436,71453,71469,71486,71503,71519,71536,71553,71570,71587,71603,71620,71637,71653,71669,71686,71703,71720,71737,71754,71770,71786,71803,71820,71837,71854,71870,71887,71904,71920,71937,71954,71970,71987,72004,72020,72037,72054,72070,72087,72104,72121,72137,72154,72171,72187,72204,72220,72237,72254,72271,72288,72305,72321,72340,72354,72371,72387,72404,72421,72438,72455,72472,72488,72505,72522,72538,72555,72571,72588,72604,72621,72638,72655,72672,72689,72705,72722,72738,72755,72772,72788,72805,72822,72839,72856,72872,72889,72906,72923,72939,72955,72972,72989,73006,73022,73038,73056,73072,73089,73106,73123,73139,73156,73173,73191,73207,73222,73240,73256,73273,73289,73307,73323,73340,73357,73373,73390,73408,73424,73440,73457,73473,73490,73507,73523,73540,73557,73573,73590,73606,73623,73640,73657,73673,73690,73707,73724,73741,73757,73773,73790,73807,73823,73840,73858,73874,73890,73908,73924,73940,73957,73974,73991,74008,74024,74041,74058,74075,74091,74107,74125,74141,74158,74175,74191,74207,74224,74241,74258,74275,74292,74309,74325,74342,74358,74375,74392,74408,74425,74442,74459,74475,74492,74508,74526,74542,74558,74575,74592,74609,74626,74642,74659,74675,74692,74709,74726,74743,74760,74776,74792,74809,74826,74843,74859,74876,74894,74911,74926,74942,74959,74976,74993,75010,75027,75043,75060,75076,75093,75109,75126,75143,75160,75176,75193,75210,75228,75243,75260,75276,75294,75310,75326,75343,75360,75377,75393,75411,75427,75444,75460,75477,75493,75510,75528,75544,75560,75577,75594,75610,75628,75644,75661,75677,75694,75711,75727,75745,75761,75778,75794,75811,75828,75844,75861,75878,75895,75912,75929,75946,75961,75978,75995,76012,76029,76044,76062,76078,76095,76112,76128,76148,76162,76180,76196,76212,76229,76246,76262,76278,76296,76313,76329,76346,76362,76379,76395,76412,76429,76446,76462,76479,76496,76513,76529,76546,76562,76580,76596,76612,76629,76646,76663,76679,76696,76712,76730,76746,76763,76779,76796,76813,76830,76846,76862,76879,76896,76913,76930,76946,76964,76980,76996,77013,77030,77047,77063,77080,77097,77114,77130,77147,77164,77181,77197,77214,77230,77248,77264,77281,77298,77314,77330,77349,77364,77381,77397,77414,77431,77447,77464,77481,77498,77514,77531,77548,77564,77581,77598,77614,77631,77648,77664,77681,77698,77716,77732,77748,77765,77782,77798,77815,77831,77848,77865,77882,77899,77915,77932,77948,77965,77982,77998,78015,78032,78049,78065,78081,78099,78115,78132,78149,78165,78182,78199,78216,78233,78248,78265,78283,78299,78315,78332,78350,78365,78383,78399,78416,78432,78449,78466,78483,78500,78517,78532,78550,78567,78583,78600,78617,78633,78650,78667,78683,78700,78716,78733,78750,78767,78783,78801,78817,78834,78850,78867,78884,78901,78916,78934,78950,78967,78984,79001,79017,79034,79051,79067,79084,79101,79117,79134,79151,79167,79183,79201,79218,79234,79250,79268,79284,79301,79317,79335,79352,79368,79384,79401,79418,79434,79452,79468,79485,79502,79518,79535,79551,79569,79600,79626,79651,79669,79685,79701,79718,79736,79753,79769,79786,79802,79819,79837,79854,79884,79901,79919,79935,79952,79969,79986,80002,80019,80035,80052,80069,80085,80102,80119,80136,80153,80169,80186,80203,80219,80236,80252,80269,80286,80304,80321,80337,80353,80370,80386,80403,80419,80437,80453,80469,80486,80503,80520,80537,80553,80570,80587,80605,80621,80637,80653,80670,80687,80703,80720,80737,80754,80770,80787,80803,80820,80837,80854,80871,80888,80905,80920,80938,80954,80971,80987,81004,81021,81037,81055,81071,81087,81104,81121,81138,81155,81171,81188,81205,81221,81238,81254,81272,81288,81305,81322,81340,81358,81372,81388,81406,81422,81438,81454,81471,81488,81505,81522,81539,81555,81572,81589,81606,81622,81639,81655,81672,81689,81706,81722,81739,81755,81772,81789,81806,81822,81839,81856,81872,81889,81906,81922,81940,81956,81972,81989,82006,82023,82040,82056,82073,82090,82106,82123,82140,82157,82173,82190,82207,82223,82240,82256,82273,82290,82307,82323,82340,82358,82374,82390,82407,82423,82441,82457,82473,82490,82507,82523,82540,82557,82574,82591,82608,82624,82641,82657,82674,82691,82707,82724,82741,82758,82774,82791,82807,82824,82841,82859,82874,82892,82908,82925,82942,82958,82975,82991,83008,83025,83042,83058,83075,83091,83108,83125,83143,83159,83175,83191,83209,83225,83243,83258,83275,83292,83309,83325,83342,83360,83376,83392,83409,83425,83442,83459,83475,83493,83509,83526,83542,83559,83576,83593,83610,83626,83643,83659,83676,83692,83710,83726,83743,83760,83777,83793,83809,83826,83844,83859,83878,83893,83910,83927,83943,83960,83976,83993,84010,84027,84043,84060,84077,84093,84110,84127,84144,84160,84178,84195,84210,84227,84243,84260,84277,84294,84310,84327,84344,84361,84377,84394,84413,84427,84444,84461,84478,84494,84511,84527,84545,84561,84577,84594,84611,84628,84645,84662,84678,84695,84711,84728,84745,84762,84777,84795,84811,84828,84845,84862,84879,84895,84911,84929,84945,84962,84979,84996,85011,85029,85045,85062,85079,85095,85111,85129,85146,85162,85178,85196,85212,85229,85245,85262,85279,85296,85313,85329,85345,85364,85380,85396,85413,85430,85446,85463,85479,85495,85513,85529,85547,85563,85580,85596,85613,85631,85646,85664,85681,85697,85714,85729,85747,85764,85781,85797,85813,85830,85848,85864,85880,85897,85914,85931,85948,85964,85980,85997,86013,86031,86047,86064,86080,86098,86114,86130,86147,86164,86181,86198,86213,86230,86247,86264,86281,86297,86314,86331,86347,86368,86381,86398,86414,86431,86447,86464,86481,86498,86515,86532,86548,86565,86581,86598,86615,86631,86649,86665,86682,86698,86715,86732,86748,86765,86782,86799,86815,86831,86848,86865,86882,86898,86916,86932,86950,86967,86983,87000,87017,87033,87052,87066,87082,87098,87116,87133,87151,87166,87182,87200,87216,87232,87250,87266,87282,87299,87316,87333,87350,87367,87383,87399,87416,87433,87450,87467,87483,87500,87516,87533,87550,87566,87583,87600,87618,87633,87650,87667,87684,87700,87718,87734,87751,87766,87784,87800,87818,87834,87850,87868,87884,87901,87918,87935,87952,87967,87984,88000,88018,88034,88052,88068,88084,88101,88118,88135,88152,88167,88184,88201,88218,88235,88253,88269,88285,88302,88318,88334,88352,88369,88386,88401,88418,88436,88452,88468,88486,88502,88519,88535,88552,88569,88586,88602,88618,88635,88653,88670,88685,88702,88719,88735,88752,88769,88786,88803,88819,88836,88852,88870,88887,88902,88920,88936,88953,88970,88986,89002,89019,89036,89053,89070,89086,89102,89119,89136,89153,89169,89186,89203,89220,89236,89253,89271,89286,89303,89320,89336,89353,89371,89387,89403,89420,89437,89454,89470,89487,89504,89520,89537,89553,89570,89587,89604,89621,89637,89654,89671,89688,89704,89722,89737,89756,89771,89788,89806,89822,89837,89855,89871,89889,89905,89921,89938,89955,89973,89988,90006,90021,90038,90056,90071,90089,90105,90121,90138,90156,90172,90188,90205,90222,90239,90255,90271,90288,90305,90322,90340,90355,90372,90388,90405,90422,90439,90456,90473,90488,90506,90522,90539,90556,90573,90589,90606,90622,90639,90656,90673,90690,90705,90722,90739,90756,90774,90790,90807,90823,90839,90856,90874,90889,90906,90922,90939,90956,90973,90990,91006,91023,91040,91057,91073,91091,91108,91124,91140,91157,91174,91191,91208,91225,91242,91257,91274,91290,91308,91324,91341,91357,91374,91391,91407,91424,91440,91458,91474,91490,91508,91524,91540,91557,91574,91591,91608,91624,91640,91658,91675,91691,91708,91725,91741,91758,91775,91792,91808,91825,91841,91858,91875,91891,91908,91925,91942,91958,91975,91992,92008,92025,92042,92059,92075,92092,92108,92125,92142,92159,92175,92192,92208,92225,92242,92259,92275,92292,92309,92326,92342,92359,92376,92393,92410,92425,92442,92459,92476,92492,92510,92526,92543,92560,92576,92592,92610,92626,92643,92659,92676,92694,92711,92727,92743,92760,92777,92793,92813,92826,92843,92860,92877,92893,92911,92927,92943,92961,92977,92995,93011,93029,93043,93060,93077,93094,93111,93127,93144,93161,93177,93193,93210,93228,93244,93261,93277,93294,93312,93329,93344,93360,93378,93395,93411,93427,93445,93461,93477,93495,93512,93528,93545,93561,93578,93594,93612,93629,93645,93661,93679,93695,93712,93728,93744,93761,93779,93795,93811,93832,93845,93862,93879,93896,93914,93929,93945,93962,93979,93995,94013,94029,94047,94062,94080,94096,94113,94129,94146,94163,94179,94196,94213,94229,94246,94263,94279,94296,94313,94329,94346,94363,94379,94396,94413,94430,94446,94463,94479,94497,94513,94530,94546,94563,94580,94597,94613,94630,94647,94664,94680,94697,94713,94730,94747,94764,94780,94797,94814,94831,94848,94864,94882,94897,94914,94931,94948,94964,94980,94998,95015,95031,95048,95064,95082,95098,95114,95131,95147,95164,95181,95198,95215,95231,95249,95264,95281,95298,95316,95331,95348,95366,95382,95398,95415,95432,95448,95464,95482,95498,95516,95532,95549,95566,95582,95599,95616,95631,95649,95665,95683,95698,95715,95732,95748,95766,95782,95799,95816,95834,95850,95866,95882,95899,95916,95933,95950,95966,95982,96000,96016,96032,96049,96066,96083,96100,96117,96134,96150,96166,96182,96200,96216,96233,96250,96267,96283,96300,96316,96333,96350,96367,96384,96401,96416,96433,96450,96467,96484,96500,96517,96534,96551,96567,96583,96602,96619,96635,96651,96668,96684,96701,96717,96734,96751,96768,96785,96801,96817,96836,96851,96868,96884,96901,96918,96935,96953,96967,96984,97001,97018,97035,97052,97068,97085,97102,97118,97135,97152,97168,97185,97202,97218,97235,97251,97268,97285,97302,97318,97336,97352,97368,97385,97405,97418,97435,97452,97469,97485,97503,97519,97536,97552,97569,97585,97602,97619,97636,97653,97669,97686,97703,97719,97736,97752,97770,97786,97802,97819,97836,97853,97869,97887,97904,97919,97937,97953,97969,97987,98003,98020,98037,98053,98070,98087,98103,98120,98137,98153,98171,98188,98204,98220,98237,98254,98270,98287,98304,98320,98338,98354,98370,98387,98404,98421,98437,98454,98471,98488,98504,98520,98538,98554,98571,98588,98604,98621,98639,98656,98672,98687,98704,98721,98738,98755,98771,98788,98805,98821,98838,98855,98871,98888,98905,98922,98938,98956,98972,98989,99006,99022,99038,99055,99072,99089,99105,99122,99138,99156,99172,99188,99205,99222,99239,99256,99272,99289,99305,99322,99340,99356,99373,99389,99406,99423,99439,99455,99472,99489,99506,99523,99540,99556,99572,99589,99606,99623,99640,99656,99673,99690,99706,99723,99739,99756,99774,99790,99806,99823,99840,99856,99873,99890,99907,99923,99940,99957,99973,99990,100007,100024,100040,100057,100074,100091,100107,100123,100140,100158,100174,100190,100207,100224,100241,100258,100274,100291,100308,100324,100341,100358,100375,100392,100409,100424,100441,100458,100475,100491,100508,100524,100542,100559,100574,100591,100609,100625,100642,100658,100675,100692,100709,100725,100742,100758,100775,100792,100810,100826,100843,100859,100875,100892,100908,100926,100942,100959,100975,100992,101009,101026,101042,101060,101077,101093,101109,101125,101142,101160,101176,101192,101209,101226,101243,101260,101275,101293,101309,101326,101343,101360,101376,101393,101410,101426,101443,101461,101477,101493,101510,101526,101543,101560,101577,101593,101610,101627,101643,101660,101677,101694,101711,101727,101744,101760,101778,101794,101811,101827,101844,101860,101878,101894,101911,101927,101944,101961,101978,101994,102011,102027,102044,102060,102078,102094,102111,102129,102144,102161,102178,102195,102211,102228,102244,102262,102278,102295,102311,102328,102345,102362,102378,102395,102415,102429,102446,102462,102478,102495,102511,102529,102545,102562,102578,102595,102612,102629,102646,102662,102679,102695,102712,102729,102746,102762,102779,102796,102812,102828,102846,102862,102880,102897,102912,102929,102946,102963,102979,102996,103013,103029,103046,103063,103079,103095,103113,103129,103146,103163,103179,103196,103213,103230,103247,103263,103280,103297,103313,103329,103347,103363,103380,103397,103413,103430,103447,103464,103480,103497,103514,103530,103547,103564,103580,103597,103614,103631,103647,103664,103680,103697,103714,103732,103750,103763,103781,103797,103814,103831,103847,103864,103881,103897,103915,103932,103949,103964,103984,103998,104015,104031,104048,104066,104081,104097,104115,104132,104148,104165,104181,104198,104215,104231,104248,104265,104282,104299,104315,104331,104348,104365,104382,104399,104417,104432,104449,104465,104482,104498,104515,104532,104549,104566,104582,104599,104615,104632,104649,104666,104683,104700,104716,104733,104749,104766,104783,104799,104816,104833,104850,104866,104883,104899,104918,104933,104950,104966,104983,105000,105017,105033,105051,105067,105084,105100,105117,105133,105149,105167,105183,105200,105217,105234,105250,105267,105283,105300,105317,105334,105350,105367,105384,105400,105418,105433,105451,105467,105484,105500,105517,105534,105551,105568,105585,105601,105617,105635,105651,105669,105685,105701,105717,105734,105751,105768,105785,105801,105818,105835,105851,105868,105884,105901,105918,105935,105951,105968,105985,106002,106018,106034,106051,106068,106085,106102,106118,106135,106152,106169,106185,106202,106219,106235,106252,106268,106285,106302,106319,106335,106352,106369,106386,106402,106419,106435,106452,106469,106485,106503,106520,106536,106552,106570,106586,106602,106619,106636,106652,106669,106688,106704,106720,106736,106753,106770,106787,106803,106820,106837,106853,106870,106886,106903,106920,106937,106954,106970,106987,107003,107020,107038,107054,107070,107087,107104,107121,107138,107154,107171,107187,107204,107221,107238,107254,107271,107288,107304,107321,107337,107355,107371,107387,107405,107422,107438,107454,107471,107488,107506,107522,107538,107554,107572,107589,107604,107621,107638,107657,107671,107688,107705,107721,107738,107755,107772,107788,107805,107821,107838,107855,107872,107889,107906,107922,107939,107956,107972,107988,108007,108022,108039,108055,108072,108089,108106,108123,108139,108155,108172,108189,108206,108223,108239,108256,108273,108289,108306,108323,108340,108356,108374,108389,108406,108423,108440,108456,108473,108490,108507,108523,108540,108557,108573,108589,108607,108623,108640,108657,108674,108690,108707,108724,108741,108757,108774,108790,108807,108823,108841,108857,108874,108890,108907,108924,108941,108958,108974,108992,109009,109025,109041,109057,109074,109091,109108,109124,109141,109157,109174,109191,109208,109224,109241,109258,109275,109291,109308,109325,109341,109358,109375,109391,109408,109425,109442,109458,109475,109492,109509,109525,109541,109558,109575,109592,109608,109626,109642,109658,109676,109692,109709,109725,109742,109759,109775,109793,109809,109825,109843,109859,109875,109893,109909,109926,109942,109960,109977,109992,110009,110026,110042,110059,110076,110093,110110,110126,110142,110160,110176,110193,110210,110226,110243,110260,110276,110292,110310,110326,110344,110360,110376,110393,110410,110429,110444,110460,110476,110494,110510,110526,110544,110560,110577,110594,110610,110627,110644,110661,110677,110693,110710,110727,110744,110761,110778,110794,110811,110828,110844,110861,110878,110894,110911,110927,110944,110962,110978,110994,111011,111028,111045,111061,111077,111094,111111,111128,111144,111161,111178,111195,111211,111229,111244,111262,111278,111295,111312,111328,111345,111361,111379,111395,111412,111429,111445,111462,111479,111495,111512,111529,111546,111562,111579,111596,111613,111629,111645,111662,111679,111697,111713,111731,111746,111762,111779,111796,111813,111829,111846,111863,111879,111896,111913,111930,111946,111963,111980,111998,112014,112031,112046,112063,112080,112096,112113,112130,112148,112164,112180,112198,112215,112230,112248,112264,112281,112296,112313,112331,112347,112363,112381,112397,112414,112431,112447,112464,112481,112497,112514,112531,112548,112564,112581,112597,112614,112631,112648,112665,112681,112699,112715,112733,112748,112765,112782,112798,112815,112831,112849,112865,112882,112898,112916,112935,112949,112965,112983,113001,113016,113031,113048,113065,113082,113099,113116,113132,113149,113165,113182,113199,113215,113232,113249,113265,113283,113299,113316,113332,113349,113365,113382,113399,113418,113434,113450,113466,113483,113499,113517,113532,113549,113567,113583,113599,113616,113635,113650,113667,113683,113701,113717,113733,113749,113766,113783,113800,113817,113833,113849,113866,113883,113900,113917,113933,113950,113967,113983,114000,114017,114034,114051,114067,114083,114101,114117,114133,114150,114167,114184,114201,114217,114234,114251,114267,114284,114300,114317,114334,114351,114368,114384,114401,114418,114435,114450,114468,114484,114501,114519,114534,114551,114568,114585,114601,114618,114635,114652,114668,114684,114701,114719,114735,114751,114769,114785,114802,114819,114836,114852,114868,114885,114902,114920,114936,114952,114969,114986,115002,115021,115036,115053,115069,115085,115102,115120,115135,115152,115169,115186,115203,115219,115235,115252,115269,115286,115302,115320,115336,115353,115370,115386,115403,115419,115437,115453,115469,115486,115503,115520,115537,115553,115570,115586,115604,115620,115636,115653,115670,115687,115703,115720,115736,115753,115770,115787,115804,115821,115837,115854,115870,115886,115904,115921,115937,115953,115971,115987,116004,116021,116038,116054,116071,116088,116104,116120,116139,116154,116170,116187,116204,116222,116238,116255,116271,116288,116305,116322,116337,116354,116371,116388,116405,116422,116439,116455,116471,116488,116505,116522,116538,116555,116572,116588,116605,116622,116639,116656,116672,116688,116705,116721,116738,116755,116772,116789,116805,116822,116839,116856,116873,116889,116905,116923,116939,116956,116973,116989,117005,117023,117039,117056,117073,117089,117106,117123,117142,117156,117175,117190,117211,117225,117240,117256,117273,117290,117308,117323,117341,117358,117373,117390,117407,117423,117442,117458,117473,117490,117507,117525,117541,117557,117574,117591,117607,117625,117641,117656,117674,117690,117707,117726,117741,117758,117775,117791,117807,117824,117840,117857,117874,117891,117907,117925,117941,117958,117975,117991,118008,118025,118042,118057,118074,118092,118108,118126,118141,118158,118174,118192,118210,118225,118242,118259,118276,118292,118308,118325,118342,118358,118375,118392,118409,118426,118446,118459,118476,118493,118509,118525,118542,118559,118575,118594,118608,118627,118643,118659,118677,118692,118709,118726,118744,118760,118776,118793,118810,118827,118843,118860,118876,118893,118909,118926,118944,118959,118976,118993,119009,119027,119044,119062,119077,119093,119110,119127,119143,119161,119177,119193,119210,119227,119244,119261,119277,119294,119310,119327,119344,119362,119378,119394,119411,119427,119444,119460,119477,119494,119511,119527,119545,119561,119577,119595,119611,119628,119645,119662,119680,119694,119711,119727,119745,119761,119778,119796,119811,119829,119845,119861,119878,119894,119912,119928,119945,119963,119978,119995,120012,120031,120046,120062,120080,120096,120112,120128,120145,120163,120181,120196,120212,120229,120246,120262,120279,120296,120313,120329,120346,120363,120380,120395,120412,120429,120446,120496,120513,120537,120563,120580,120596,120614,120631,120649,120664,120681,120699,120722,120745,120762,120780,120796,120813,120830,120847,120864,120880,120897,120913,120931,120947,120964,120980,120997,121014,121031,121047,121063,121081,121097,121114,121130,121147,121164,121181,121198,121214,121230,121247,121264,121281,121297,121314,121330,121347,121364,121381,121398,121414,121430,121447,121465,121481,121498,121514,121531,121547,121564,121582,121598,121615,121632,121649,121665,121681,121699,121716,121732,121748,121765,121782,121798,121816,121831,121848,121865,121883,121898,121916,121932,121948,121965,121982,121999,122016,122033,122048,122065,122082,122100,122116,122132,122148,122166,122183,122199,122216,122233,122249,122266,122283,122300,122317,122334,122349,122366,122382,122399,122417,122433,122450,122467,122483,122501,122517,122533,122550,122566,122583,122600,122616,122633,122650,122666,122683,122700,122717,122733,122750,122767,122785,122800,122818,122834,122850,122867,122884,122900,122919,122934,122951,122968,122984,123001,123018,123034,123051,123067,123084,123101,123118,123135,123152,123168,123184,123201,123218,123234,123251,123268,123285,123301,123318,123335,123351,123367,123385,123401,123418,123435,123452,123469,123485,123502,123518,123535,123552,123569,123585,123601,123618,123636,123652,123669,123685,123702,123719,123735,123752,123769,123785,123802,123820,123836,123853,123869,123886,123903,123919,123935,123952,123969,123987,124003,124019,124036,124053,124070,124087,124104,124120,124136,124153,124169,124185,124203,124219,124237,124253,124269,124286,124303,124319,124337,124354,124370,124387,124404,124422,124437,124453,124472,124488,124503,124520,124537,124554,124570,124587,124604,124621,124637,124654,124671,124687,124704,124720,124737,124754,124771,124788,124804,124821,124837,124854,124871,124888,124904,124921,124939,124955,124971,124988,125005,125021,125038,125055,125072,125088,125104,125121,125138,125155,125171,125188,125205,125222,125238,125256,125272,125288,125305,125322,125339,125355,125372,125388,125405,125422,125439,125455,125473,125489,125506,125522,125539,125555,125572,125589,125606,125623,125640,125657,125672,125689,125707,125723,125739,125756,125772,125790,125806,125822,125839,125856,125873,125890,125906,125923,125940,125957,125974,125989,126006,126023,126039,126057,126074,126090,126107,126123,126140,126157,126173,126190,126206,126223,126241,126257,126274,126290,126307,126324,126340,126357,126374,126390,126407,126424,126440,126457,126475,126491,126508,126523,126541,126558,126575,126591,126607,126625,126641,126658,126674,126691,126708,126725,126741,126758,126774,126791,126808,126824,126841,126858,126875,126892,126908,126924,126942,126958,126975,126992,127008,127025,127042,127058,127075,127094,127109,127125,127142,127158,127175,127193,127210,127225,127242,127259,127277,127292,127308,127326,127342,127358,127377,127392,127409,127426,127442,127459,127476,127493,127510,127526,127543,127559,127576,127593,127609,127626,127643,127659,127676,127694,127709,127727,127743,127760,127776,127793,127810,127826,127843,127860,127876,127893,127910,127926,127943,127960,127977,127994,128010,128027,128044,128060,128076,128094,128111,128127,128144,128160,128177,128194,128211,128228,128244,128261,128278,128294,128311,128327,128344,128361,128377,128395,128411,128427,128444,128461,128478,128494,128511,128528,128545,128561,128578,128594,128611,128627,128645,128662,128678,128695,128711,128728,128745,128762,128778,128796,128812,128831,128845,128861,128878,128896,128914,128928,128945,128962,128979,128996,129012,129028,129045,129062,129079,129097,129113,129129,129146,129162,129180,129196,129212,129229,129246,129262,129279,129296,129313,129329,129346,129363,129380,129397,129415,129430,129446,129463,129480,129497,129513,129530,129547,129563,129579,129596,129613,129630,129647,129663,129680,129697,129714,129730,129747,129765,129780,129797,129814,129831,129847,129863,129880,129897,129915,129930,129949,129964,129981,129998,130015,130032,130047,130064,130081,130098,130115,130131,130147,130164,130181,130199,130216,130231,130247,130264,130281,130299,130314,130331,130348,130365,130382,130397,130415,130431,130449,130465,130482,130498,130515,130531,130548,130565,130582,130598,130615,130633,130649,130665,130682,130699,130715,130732,130748,130766,130782,130798,130816,130833,130848,130866,130882,130899,130916,130933,130949,130965,130982,130999,131016,131033,131049,131066,131083,131100,131116,131133,131149,131166,131183,131199,131216,131233,131250,131267,131283,131300,131317,131333,131349,131366,131383,131400,131417,131433,131449,131467,131483,131500,131516,131533,131550,131567,131583,131600,131617,131634,131651,131667,131683,131700,131717,131734,131751,131767,131784,131801,131817,131834,131851,131868,131884,131901,131918,131935,131951,131968,131984,132001,132018,132035,132052,132068,132085,132101,132117,132136,132152,132168,132185,132202,132219,132235,132251,132268,132286,132302,132318,132335,132352,132368,132385,132402,132419,132436,132452,132468,132485,132503,132519,132536,132552,132569,132586,132602,132620,132636,132653,132669,132686,132703,132719,132735,132752,132769,132786,132803,132819,132836,132853,132869,132886,132903,132920,132936,132953,132970,132987,133003,133020,133036,133053,133070,133087,133104,133120,133136,133154,133170,133187,133203,133220,133237,133254,133270,133287,133304,133320,133337,133354,133370,133387,133403,133420,133437,133454,133471,133488,133504,133520,133537,133555,133571,133587,133604,133621,133638,133654,133670,133687,133706,133721,133738,133754,133773,133788,133805,133821,133838,133855,133872,133888,133905,133921,133938,133955,133972,133988,134005,134022,134039,134055,134071,134089,134105,134122,134138,134155,134172,134189,134205,134222,134239,134256,134272,134288,134305,134322,134339,134355,134372,134389,134407,134423,134439,134456,134473,134490,134506,134522,134539,134556,134573,134589,134606,134623,134640,134656,134673,134689,134707,134723,134740,134756,134773,134790,134808,134825,134842,134857,134873,134890,134907,134923,134940,134957,134973,134990,135006,135023,135041,135057,135074,135090,135107,135124,135140,135158,135176,135192,135207,135224,135241,135257,135273,135290,135307,135324,135341,135357,135374,135391,135407,135424,135441,135457,135475,135490,135508,135525,135542,135558,135574,135591,135608,135625,135641,135658,135674,135691,135708,135725,135741,135759,135777,135791,135809,135825,135841,135859,135875,135891,135909,135925,135942,135959,135975,135992,136009,136026,136042,136059,136076,136092,136110,136126,136142,136159,136176,136193,136209,136225,136242,136259,136276,136293,136310,136326,136343,136359,136376,136393,136409,136427,136443,136460,136476,136493,136512,136527,136543,136561,136576,136593,136610,136626,136643,136660,136677,136693,136709,136726,136744,136761,136777,136793,136810,136827,136843,136860,136877,136894,136911,136928,136945,136961,136977,136994,137011,137028,137044,137061,137077,137094,137111,137128,137144,137161,137177,137195,137211,137227,137244,137261,137278,137294,137310,137327,137345,137361,137379,137395,137412,137428,137444,137462,137478,137495,137512,137528,137545,137562,137578,137595,137611,137628,137645,137662,137679,137695,137711,137728,137746,137762,137778,137795,137812,137829,137846,137863,137879,137896,137912,137929,137946,137962,137979,137996,138013,138030,138046,138062,138080,138096,138113,138130,138146,138163,138180,138197,138213,138229,138247,138263,138280,138297,138314,138330,138346,138363,138380,138397,138414,138430,138446,138464,138481,138496,138514,138530,138547,138564,138580,138597,138614,138630,138647,138664,138680,138697,138714,138730,138747,138764,138781,138798,138814,138830,138848,138864,138881,138897,138914,138931,138948,138964,138981,138998,139015,139031,139048,139064,139082,139098,139114,139133,139148,139165,139182,139198,139216,139232,139248,139265,139282,139299,139315,139332,139348,139366,139382,139398,139416,139432,139448,139465,139482,139498,139517,139532,139549,139565,139583,139599,139615,139632,139649,139665,139682,139699,139716,139732,139749,139767,139783,139800,139816,139832,139849,139866,139882,139899,139916,139933,139950,139966,139982,139999,140016,140033,140049,140067,140083,140100,140117,140133,140151,140166,140184,140200,140217,140234,140250,140266,140283,140300,140317,140334,140350,140367,140384,140401,140417,140434,140450,140467,140484,140501,140518,140534,140551,140567,140584,140601,140617,140634,140652,140668,140684,140701,140717,140734,140751,140768,140785,140801,140818,140835,140851,140868,140884,140901,140918,140935,140951,140968,140984,141002,141019,141036,141052,141068,141085,141102,141119,141135,141152,141168,141185,141202,141218,141235,141251,141269,141285,141302,141319,141336,141352,141368,141386,141402,141418,141435,141452,141469,141486,141503,141520,141536,141553,141570,141586,141602,141620,141636,141653,141670,141686,141703,141720,141736,141752,141770,141787,141803,141819,141836,141853,141870,141886,141904,141920,141937,141954,141970,141987,142004,142020,142037,142054,142071,142087,142104,142120,142137,142154,142170,142187,142204,142221,142237,142253,142271,142288,142305,142321,142338,142354,142371,142388,142404,142420,142437,142455,142471,142488,142504,142521,142538,142555,142571,142588,142604,142621,142638,142656,142672,142688,142704,142721,142738,142756,142771,142789,142805,142822,142838,142855,142873,142888,142905,142922,142939,142956,142972,142988,143006,143022,143039,143056,143072,143088,143105,143122,143139,143155,143172,143189,143206,143222,143239,143256,143273,143289,143306,143322,143339,143356,143372,143390,143406,143422,143440,143456,143473,143490,143507,143524,143539,143556,143573,143590,143607,143624,143639,143657,143673,143691,143707,143724,143740,143758,143773,143790,143807,143824,143842,143857,143874,143890,143908,143924,143940,143957,143975,143991,144007,144024,144041,144058,144075,144091,144108,144125,144142,144157,144175,144191,144208,144226,144241,144258,144275,144291,144308,144325,144342,144358,144375,144391,144408,144425,144442,144458,144476,144493,144509,144526,144542,144558,144575,144592,144608,144625,144642,144659,144676,144692,144708,144726,144742,144759,144776,144793,144809,144825,144843,144859,144875,144893,144909,144926,144943,144959,144976,144993,145009,145026,145043,145059,145077,145093,145109,145127,145142,145160,145177,145192,145210,145227,145243,145260,145277,145292,145310,145327,145343,145360,145378,145393,145410,145427,145443,145459,145478,145493,145510,145528,145543,145560,145577,145593,145610,145627,145644,145660,145677,145694,145710,145727,145744,145760,145777,145794,145810,145828,145844,145860,145878,145894,145910],"hit":[null],"x":[-2.1496598639455784,-2.1496598639455784,-2.1496598639455784,-2.1496598639455784,-2.1496598639455784,-2.1496598639455784,-2.1496598639455784,-2.1496598639455784,-2.1496598639455784,-2.1496598639455784,-2.1496598639455784,-2.1496598639455784,-2.1496598639455784,-2.1496598639455784,-2.1496598639455784,-2.1496598639455784,-2.1496598639455784,-2.1496598639455784,-2.1496598639455784,-2.1496598639455784,-2.1496598639455784,-2.1496598639455784,-2.1496598639455784,-2.1496598639455784,-2.1496598639455784,-2.1496598639455784,-2.1496598639455784,-2.1496598639455784,-2.1496598639455784,-2.1496598639455784,-2.1496598639455784,-2.1496598639455784,-2.1496598639455784,-2.1496598639455784,-2.1496598639455784,-2.1496598639455784,-2.1496598639455784,-2.1496598639455784,-0.034013605442176874,-0.08503401360544217,-0.11904761904761904,-0.1598639455782313,-0.19727891156462585,-0.22789115646258504,-0.2789115646258503,-0.30612244897959184,-0.32653061224489793,-0.3401360544217687,-0.35714285714285715,-0.36394557823129253,-0.36394557823129253,-0.36394557823129253,-0.36394557823129253,-0.36394557823129253,-0.36394557823129253,-0.36394557823129253,-0.36394557823129253,-0.36394557823129253,-0.36394557823129253,-0.36394557823129253,-0.36394557823129253,-0.36394557823129253,-0.36394557823129253,-0.36394557823129253,-0.36394557823129253,-0.36394557823129253,-0.36394557823129253,-0.36394557823129253,-0.36394557823129253,-0.36394557823129253,-0.36394557823129253,-0.36394557823129253,-0.36394557823129253,-0.36394557823129253,-0.36394557823129253,-0.36394557823129253,-0.36394557823129253,-0.36394557823129253,-0.36394557823129253,-0.36394557823129253,-0.36394557823129253,-0.36394557823129253,-0.36394557823129253,-0.36394557823129253,-0.36394557823129253,-0.36394557823129253,-0.36394557823129253,-0.36394557823129253,-0.36394557823129253,-0.36394557823129253,-0.36394557823129253,-0.36394557823129253,-0.36394557823129253,-0.36394557823129253,-0.36394557823129253,-0.36394557823129253,-0.36394557823129253,-0.36394557823129253,-0.36394557823129253,-0.36394557823129253,-0.36394557823129253,-0.36394557823129253,-0.36394557823129253,-0.36394557823129253,-0.36394557823129253,-0.36394557823129253,-0.36394557823129253,-0.36394557823129253,-0.36394557823129253,-0.36394557823129253,-0.36394557823129253,-0.36394557823129253,-0.36394557823129253,-0.36394557823129253,-0.36394557823129253,-0.36394557823129253,-0.36394557823129253,-0.36394557823129253,-0.36394557823129253,-0.36394557823129253,-0.36394557823129253,-0.36394557823129253,-0.36394557823129253,-0.36394557823129253,-0.36394557823129253,-0.36394557823129253,-0.36394557823129253,-0.36394557823129253,-0.36394557823129253,-0.36394557823129253,-0.36394557823129253,-0.36394557823129253,-0.36394557823129253,-0.36394557823129253,-0.36394557823129253,-0.36394557823129253,-0.36394557823129253,-0.36394557823129253,-0.36394557823129253,-0.36394557823129253,-0.36394557823129253,-0.36394557823129253,-0.36394557823129253,-0.36394557823129253,-0.36394557823129253,-0.36394557823129253,-0.36394557823129253,-0.36394557823129253,-0.36394557823129253,-0.36394557823129253,-0.36394557823129253,-0.36394557823129253,-0.36394557823129253,-0.36394557823129253,-0.36394557823129253,-0.36394557823129253,-0.36394557823129253,-0.36394557823129253,-0.36394557823129253,-0.36394557823129253,-0.36394557823129253,-0.36394557823129253,-0.36394557823129253,-0.36394557823129253,-0.36394557823129253,-0.36394557823129253,-0.36394557823129253,-0.36394557823129253,-0.36394557823129253,-0.36394557823129253,-0.36394557823129253,-0.36394557823129253,-0.36394557823129253,-0.36394557823129253,-0.36394557823129253,-0.36394557823129253,-0.36394557823129253,-0.36394557823129253,-0.36394557823129253,-0.36394557823129253,-0.36394557823129253,-0.36394557823129253,-0.36394557823129253,-0.36394557823129253,-0.36394557823129253,-0.36394557823129253,-0.36394557823129253,-0.36394557823129253,-0.36394557823129253,-0.36394557823129253,-0.36394557823129253,-0.36394557823129253,-0.36394557823129253,-0.36394557823129253,-0.36394557823129253,-0.36394557823129253,-0.36394557823129253,-0.36394557823129253,-0.36394557823129253,-0.36394557823129253,-0.35714285714285715,-0.35034013605442177,-0.3401360544217687,-0.32653061224489793,-0.29591836734693877,-0.2789115646258503,-0.2585034013605442,-0.22448979591836735,-0.20068027210884354,-0.16666666666666666,-0.1598639455782313,-0.14965986394557823,-0.14965986394557823,-0.14625850340136054,-0.14285714285714285,-0.14285714285714285,-0.14285714285714285,-0.14285714285714285,-0.14285714285714285,-0.14285714285714285,-0.14285714285714285,-0.14285714285714285,-0.14285714285714285,-0.14285714285714285,-0.14285714285714285,-0.14285714285714285,-0.14285714285714285,-0.14285714285714285,-0.14285714285714285,-0.14285714285714285,-0.14285714285714285,-0.14285714285714285,-0.14285714285714285,-0.14285714285714285,-0.14285714285714285,-0.14285714285714285,-0.14285714285714285,-0.14285714285714285,-0.14285714285714285,-0.14285714285714285,-0.14285714285714285,-0.14285714285714285,-0.14285714285714285,-0.14285714285714285,-0.14285714285714285,-0.14285714285714285,-0.14285714285714285,-0.14285714285714285,-0.14285714285714285,-0.14285714285714285,-0.14285714285714285,-0.14285714285714285,-0.14285714285714285,-0.14285714285714285,-0.14285714285714285,-0.14285714285714285,-0.14285714285714285,-0.14285714285714285,-0.14285714285714285,-0.14285714285714285,-0.14285714285714285,-0.14285714285714285,-0.14285714285714285,-0.14285714285714285,-0.14285714285714285,-0.14285714285714285,-0.14285714285714285,-0.14285714285714285,-0.14285714285714285,-0.14285714285714285,-0.13945578231292516,-0.13945578231292516,-0.13945578231292516,-0.13945578231292516,-0.13945578231292516,-0.13945578231292516,-0.13945578231292516,-0.13945578231292516,-0.13945578231292516,-0.13945578231292516,-0.13945578231292516,-0.13945578231292516,-0.13945578231292516,-0.13945578231292516,-0.13945578231292516,-0.13945578231292516,-0.13945578231292516,-0.13945578231292516,-0.13945578231292516,-0.13945578231292516,-0.13945578231292516,-0.13945578231292516,-0.13945578231292516,-0.13945578231292516,-0.13945578231292516,-0.13945578231292516,-0.13945578231292516,-0.13945578231292516,-0.13945578231292516,-0.13945578231292516,-0.13945578231292516,-0.13945578231292516,-0.13945578231292516,-0.13945578231292516,-0.13945578231292516,-0.13945578231292516,-0.13945578231292516,-0.13945578231292516,-0.13945578231292516,-0.13945578231292516,-0.13945578231292516,-0.13945578231292516,-0.13945578231292516,-0.13945578231292516,-0.13945578231292516,-0.13945578231292516,-0.13945578231292516,-0.13945578231292516,-0.13945578231292516,-0.13945578231292516,-0.13945578231292516,-0.13945578231292516,-0.13945578231292516,-0.13945578231292516,-0.13945578231292516,-0.13945578231292516,-0.13945578231292516,-0.13945578231292516,-0.1