[{"success":true,"trial_type":"fullscreen","trial_index":0,"time_elapsed":3553,"internal_node_id":"0.0-0.0","protocol_sum":"","subject_identifier":217,"subject_sum":[149,55,243,46,199,89,158,26,233,83,175,108,159,146,159,231,71,255,157,173,247,154,155,239,241,243,4,197,80,23,48,17],"subject_pair":108,"STUDY_ID":"669eec2e4270c76bc184a38e","PROLIFIC_PID":"669bbfcf3c058df5b00aee2b","SESSION_ID":"669fb550580aa4d9aad9f893","practice_instructions":1,"leaderboard_instructions":0,"bonus":0,"reveal_word":true,"self_rating":"5","confidence":"91"},{"view_history":"[{\"page_index\":0,\"viewing_time\":26473.799999952316}]","rt":26474.19999998808,"trial_type":"instructions","trial_index":1,"time_elapsed":30027,"internal_node_id":"0.0-1.0","protocol_sum":"","subject_identifier":217,"subject_sum":[149,55,243,46,199,89,158,26,233,83,175,108,159,146,159,231,71,255,157,173,247,154,155,239,241,243,4,197,80,23,48,17],"subject_pair":108,"STUDY_ID":"669eec2e4270c76bc184a38e","PROLIFIC_PID":"669bbfcf3c058df5b00aee2b","SESSION_ID":"669fb550580aa4d9aad9f893","practice_instructions":1,"leaderboard_instructions":0,"bonus":0,"reveal_word":true,"self_rating":"5","confidence":"91"},{"view_history":"[{\"page_index\":0,\"viewing_time\":27399.80000001192}]","rt":27399.80000001192,"trial_type":"instructions","trial_index":2,"time_elapsed":57427,"internal_node_id":"0.0-2.0-0.0","protocol_sum":"","subject_identifier":217,"subject_sum":[149,55,243,46,199,89,158,26,233,83,175,108,159,146,159,231,71,255,157,173,247,154,155,239,241,243,4,197,80,23,48,17],"subject_pair":108,"STUDY_ID":"669eec2e4270c76bc184a38e","PROLIFIC_PID":"669bbfcf3c058df5b00aee2b","SESSION_ID":"669fb550580aa4d9aad9f893","practice_instructions":1,"leaderboard_instructions":0,"bonus":0,"reveal_word":true,"self_rating":"5","confidence":"91"},{"rt":12775.300000011921,"responses":"{\"Q0\":\"... reveal the word with as <b>few letter guesses</b> as possible\"}","question_order":"[0]","trial_type":"survey-multi-choice","trial_index":3,"time_elapsed":70203,"internal_node_id":"0.0-2.0-1.0","protocol_sum":"","subject_identifier":217,"subject_sum":[149,55,243,46,199,89,158,26,233,83,175,108,159,146,159,231,71,255,157,173,247,154,155,239,241,243,4,197,80,23,48,17],"subject_pair":108,"correct":true,"test_part":"multichoice_nonpretend","STUDY_ID":"669eec2e4270c76bc184a38e","PROLIFIC_PID":"669bbfcf3c058df5b00aee2b","SESSION_ID":"669fb550580aa4d9aad9f893","practice_instructions":1,"leaderboard_instructions":0,"bonus":0,"reveal_word":true,"self_rating":"5","confidence":"91"},{"view_history":"[{\"page_index\":0,\"viewing_time\":1622.5}]","rt":1622.6000000238419,"trial_type":"instructions","trial_index":4,"time_elapsed":71827,"internal_node_id":"0.0-3.0","protocol_sum":"","subject_identifier":217,"subject_sum":[149,55,243,46,199,89,158,26,233,83,175,108,159,146,159,231,71,255,157,173,247,154,155,239,241,243,4,197,80,23,48,17],"subject_pair":108,"STUDY_ID":"669eec2e4270c76bc184a38e","PROLIFIC_PID":"669bbfcf3c058df5b00aee2b","SESSION_ID":"669fb550580aa4d9aad9f893","practice_instructions":1,"leaderboard_instructions":0,"bonus":0,"reveal_word":true,"self_rating":"5","confidence":"91"},{"word":"ZEBRA","click_log":{"letter":["","A","P","R","C","E","S","I","G","F","O","M","L","D","K","J","Z","B"],"t":[0,9788.100000023842,12219.900000035763,17811.400000035763,22795.69999998808,24757.900000035763,29227.80000001192,31075.80000001192,31907.30000001192,33379.80000001192,34028.30000001192,34883.80000001192,35635.30000001192,36363.69999998808,37467.80000001192,38115.69999998808,41539.69999998808,43187.5],"hit":[null,1,0,1,0,1,0,0,0,0,0,0,0,0,0,0,1,1],"asked":["","A","AP","APR","APRC","APRCE","APRCES","APRCESI","APRCESIG","APRCESIGF","APRCESIGFO","APRCESIGFOM","APRCESIGFOML","APRCESIGFOMLD","APRCESIGFOMLDK","APRCESIGFOMLDKJ","APRCESIGFOMLDKJZ","APRCESIGFOMLDKJZB"],"word_state":["_____","____A","____A","___RA","___RA","_E_RA","_E_RA","_E_RA","_E_RA","_E_RA","_E_RA","_E_RA","_E_RA","_E_RA","_E_RA","_E_RA","ZE_RA","ZEBRA"]},"hover_log":{"letter":["?","?","?","?","?","?","?","?","?","?","?","?","?","?","?","?","?","?","?","?","?","?","?","?","?","?","?","?","?","?","?","?","?","?","?","?","?","?","?","?","?","?","?","?","?","?","?","?","?","?","?","?","?","?","?","?","?","?","?","?","?","?","?","?","?","T","T","?","?","?","?","?","?","?","?","?","?","K","K","K","K","K","K","K","K","K","K","?","?","?","?","?","?","?","?","?","?","?","?","?","?","?","?","?","?","?","?","?","?","?","?","?","?","?","?","?","?","?","?","?","?","?","?","?","?","?","?","?","?","?","?","?","?","?","?","?","?","?","?","?","?","?","?","?","?","?","B","B","B","B","B","?","?","?","?","?","?","?","?","?","?","?","?","?","?","?","?","?","?","?","?","?","?","D","D","D","D","D","D","D","D","D","D","D","D","D","D","D","D","D","D","D","D","D","D","D","D","D","D","D","D","D","D","D","D","D","D","D","D","D","D","D","D","D","D","D","D","D","D","D","D","D","D","D","D","D","D","D","D","D","D","D","D","D","D","D","D","D","D","D","D","D","D","D","D","D","D","D","D","D","D","D","D","D","D","D","D","D","D","D","D","D","D","D","D","D","D","D","D","D","D","D","D","D","D","D","D","D","D","D","D","D","D","D","D","D","D","D","D","D","D","D","D","D","D","D","D","D","D","D","D","D","D","D","D","D","D","D","D","D","D","D","D","D","D","D","D","D","D","D","D","D","D","D","D","D","D","D","D","D","D","D","D","D","D","D","D","D","D","D","D","D","D","D","D","D","D","D","D","D","D","D","D","?","?","E","E","E","E","E","E","E","E","E","E","E","?","?","F","F","F","F","F","F","F","F","F","F","F","F","F","F","F","F","F","F","F","F","F","F","F","F","F","F","F","F","F","F","F","F","F","F","F","F","F","F","F","F","F","F","F","F","F","F","F","F","F","F","F","F","F","F","F","F","F","F","F","F","F","F","F","F","F","?","?","?","?","E","E","E","E","E","?","?","?","?","?","?","?","?","?","?","?","?","?","?","?","?","?","?","?","?","?","?","?","?","?","?","?","?","?","?","?","?","?","?","?","E","E","E","E","E","E","E","?","?","?","?","?","?","?","?","?","?","?","?","?","?","?","?","?","?","?","?","?","?","?","?","?","?","?","?","?","?","E","E","E","?","D","D","?","?","?","?","?","?","?","?","?","?","?","?","?","?","?","?","?","?","?","?","?","?","?","?","?","?","?","?","?","?","?","?","?","?","?","?","?","?","?","?","?","?","?","?","?","A","A","A","A","A","A","A","A","A","A","A","A","A","A","A","A","A","A","A","A","A","A","A","A","A","A","A","A","A","A","A","A","A","A","A","A","A","A","A","A","A","A","A","A","A","A","A","A","A","A","A","A","A","?","?","?","B","B","B","B","B","B","B","B","B","B","B","B","B","B","B","B","?","?","C","C","C","C","?","?","?","?","?","?","?","?","?","?","?","?","?","?","?","?","?","?","?","?","?","?","?","?","O","?","?","?","?","P","?","?","?","?","?","?","?","?","?","?","?","?","?","?","?","?","?","?","?","?","?","?","Q","Q","Q","Q","Q","Q","?","?","?","?","P","P","P","P","P","P","P","P","P","P","P","P","P","P","P","P","P","P","P","P","P","P","P","P","P","P","P","P","P","P","P","P","P","P","P","P","P","P","P","P","P","P","P","P","P","P","P","P","P","P","P","P","P","P","P","P","P","P","P","P","P","P","P","P","P","P","P","P","P","P","P","P","P","P","?","?","O","O","O","O","?","N","N","N","N","N","?","?","?","?","?","?","?","?","?","?","?","?","?","?","?","?","?","?","?","?","?","?","?","?","?","?","?","?","?","?","?","?","?","?","?","?","?","?","?","?","?","?","?","?","?","?","?","?","?","?","?","?","?","?","?","?","?","?","?","?","?","?","?","?","?","?","?","?","?","?","?","?","?","?","?","?","?","?","?","?","?","?","?","?","?","?","?","?","?","?","?","?","?","?","?","?","?","N","N","N","N","N","N","N","N","N","N","N","N","N","N","N","N","N","?","?","?","?","?","?","?","?","?","?","?","?","?","?","?","?","?","?","?","?","?","?","?","?","?","?","?","?","?","?","?","?","?","?","?","?","?","?","?","?","?","?","?","?","?","?","?","?","?","?","?","?","?","?","?","?","?","?","?","?","?","?","?","?","H","H","H","H","H","H","H","H","H","H","H","H","H","H","H","H","H","H","H","H","H","?","?","?","I","I","I","I","I","I","I","I","I","I","I","I","I","I","I","I","I","I","I","I","I","I","I","I","I","I","I","I","I","I","I","I","I","I","I","I","I","I","I","I","I","I","I","I","I","I","I","I","I","I","I","?","?","?","?","?","R","R","R","R","R","R","R","R","R","R","R","R","R","R","R","R","R","R","R","R","R","R","R","R","R","R","R","R","R","R","R","R","R","R","R","R","R","R","R","R","R","R","R","R","R","R","R","R","?","?","?","?","?","?","?","?","?","?","?","?","?","F","F","F","?","E","E","E","E","?","D","D","D","D","D","D","D","D","D","D","D","D","D","D","D","D","D","D","D","D","D","D","D","D","D","D","?","?","?","?","?","?","?","?","?","?","?","?","?","?","?","?","?","?","?","?","?","?","?","?","?","?","?","?","?","?","?","?","?","?","?","?","?","?","?","?","?","?","?","?","?","?","?","D","D","D","D","D","D","D","D","D","D","D","D","D","D","D","D","D","D","D","D","D","D","D","D","D","D","D","D","D","D","D","D","D","D","D","D","D","D","D","D","D","D","D","D","D","D","D","D","D","D","D","D","D","D","D","D","D","D","D","D","D","D","D","D","D","D","D","D","D","D","D","D","D","D","D","D","D","D","D","D","D","D","D","D","D","D","D","D","D","D","D","D","D","D","D","D","D","D","D","D","D","D","D","D","D","D","D","D","D","D","D","D","D","D","D","D","D","D","?","?","?","?","?","M","M","M","?","?","?","?","?","?","?","?","?","?","?","?","?","?","?","?","L","L","L","L","L","L","L","L","?","?","?","?","C","C","C","C","C","C","C","C","C","C","C","C","C","C","C","C","C","C","C","C","C","C","C","C","C","C","C","C","C","C","C","C","C","C","C","C","C","C","C","C","C","C","C","C","C","C","C","C","C","C","C","C","?","?","?","?","?","?","?","?","?","?","?","?","?","?","?","?","?","?","?","?","?","?","?","?","?","?","?","?","?","?","?","?","?","?","?","?","?","?","?","?","?","?","?","?","?","?","?","?","?","?","?","?","?","?","?","?","?","?","?","?","?","?","?","?","?","?","?","?","?","?","?","?","?","?","?","?","E","E","E","E","E","E","E","E","E","E","E","E","E","E","E","E","E","E","E","E","E","E","E","E","E","E","E","E","E","E","E","E","E","E","E","E","E","E","E","E","E","E","E","E","E","E","E","E","E","E","E","E","?","?","?","?","?","?","?","?","?","?","?","?","?","?","?","?","?","?","?","?","?","?","?","?","?","?","?","?","?","?","?","N","N","N","N","N","N","N","N","N","N","N","N","N","N","?","?","?","?","?","?","?","?","?","?","?","?","?","?","?","?","?","?","?","?","?","?","?","?","?","?","W","W","?","X","?","?","?","?","?","?","?","?","?","?","?","?","?","?","?","?","?","?","?","?","?","?","?","X","X","X","X","X","X","X","X","X","X","X","X","X","X","X","X","X","X","X","X","?","?","?","?","?","?","?","M","M","?","?","L","L","L","?","K","K","K","?","?","?","?","?","?","?","?","?","?","?","?","?","?","?","?","?","?","?","?","?","?","?","?","?","?","?","?","?","?","?","?","?","J","J","J","J","J","J","J","J","J","J","J","J","J","J","J","J","J","J","J","J","J","J","J","J","J","J","J","J","J","J","J","?","?","?","?","S","S","S","S","S","S","S","S","S","S","S","S","S","S","S","S","S","S","S","S","S","S","S","S","S","S","S","S","S","S","S","S","S","S","S","S","S","S","S","S","S","S","S","S","S","S","?","?","T","T","?","?","?","?","?","?","?","?","N","?","O","O","O","?","P","P","P","P","?","?","?","?","?","?","?","?","Q","Q","Q","?","?","?","?","?","?","?","?","?","?","?","?","H","H","H","H","H","H","H","H","H","H","H","H","H","H","H","H","H","?","?","?","I","I","I","I","I","I","I","I","I","I","I","I","I","I","I","I","I","I","I","I","I","I","I","I","I","I","I","I","I","I","I","?","?","H","H","H","H","H","H","H","?","G","G","G","G","G","G","G","G","G","G","G","G","G","G","G","G","G","G","G","G","G","G","G","G","G","G","G","G","G","G","G","G","G","G","G","G","G","G","G","G","G","G","G","G","G","G","G","G","G","G","G","G","G","G","G","G","G","G","G","G","G","?","?","F","F","F","F","F","F","F","F","?","?","?","?","?","?","?","?","?","?","?","?","?","?","?","?","?","?","?","?","?","?","?","?","?","?","?","?","?","?","?","?","F","F","F","F","F","F","F","F","F","F","F","F","F","F","F","F","F","F","F","F","F","F","F","F","F","F","F","F","F","F","F","F","?","?","?","?","?","?","?","?","?","?","?","?","?","O","O","O","O","O","O","O","O","O","O","O","O","O","O","O","O","O","O","O","O","O","O","O","O","O","O","O","O","?","N","N","N","N","N","N","?","?","M","M","M","M","M","M","M","M","M","M","M","M","M","M","M","M","M","M","M","M","M","M","M","M","M","M","M","M","M","M","M","M","M","M","M","M","M","M","M","M","M","M","M","M","M","M","M","?","?","?","?","L","L","L","L","L","L","L","L","L","L","L","L","L","L","L","L","L","L","L","L","L","L","L","L","L","L","L","L","L","L","L","?","?","?","?","?","?","?","?","?","D","D","D","D","D","D","D","D","D","D","D","D","D","D","D","D","D","D","D","D","D","D","D","D","D","D","D","D","D","D","D","D","D","D","D","D","D","D","D","D","?","?","?","?","?","?","?","?","?","?","?","?","?","?","?","?","?","?","?","?","?","?","?","?","?","?","?","?","K","K","K","K","K","K","K","K","K","K","K","K","K","K","K","K","K","K","K","K","K","K","K","K","K","K","K","K","K","K","?","?","?","J","J","J","J","J","J","J","J","J","J","J","J","J","J","J","J","J","J","J","J","J","J","J","J","J","J","J","J","J","J","J","J","J","J","J","J","J","J","J","J","J","J","J","J","J","J","J","J","J","J","J","J","J","J","J","J","J","J","J","J","J","J","J","J","J","J","J","K","K","?","?","?","?","?","V","V","?","?","?","W","W","W","W","W","W","?","?","?","X","X","X","X","X","X","X","?","?","Y","Y","Y","Y","Y","Y","Y","Y","Y","Y","Y","Y","Y","Y","Y","Y","Y","Y","Y","Y","Y","Y","Y","Y","Y","?","?","?","?","X","X","X","X","X","X","X","X","X","X","X","X","X","X","X","X","X","X","X","X","X","X","X","X","X","X","X","X","X","X","X","X","X","X","X","X","X","X","X","X","X","X","X","X","X","X","X","X","X","X","X","X","X","X","?","W","W","W","W","?","?","?","?","?","?","?","?","?","W","W","W","W","X","X","X","X","?","Y","Y","Y","Y","Y","Y","Y","?","?","?","Z","Z","Z","Z","Z","Z","Z","Z","Z","Z","Z","Z","Z","Z","Z","Z","Z","Z","Z","Z","Z","Z","Z","Z","Z","Z","Z","Z","Z","Z","Z","Z","Z","?","Y","Y","Y","Y","Y","?","?","X","X","?","?","?","?","?","?","?","?","M","M","M","M","M","M","M","M","M","M","M","M","M","M","M","M","M","M","M","M","M","M","M","M","M","M","M","M","M","M","M","M","M","?","?","?","?","?","?","?","?","?","?","?","?","B","B","B","B","B","B","B","B","B","B","B","B","B","B","B","B","B","B","B","B","B","B","B","B","B","B","B","B","B","B","B","B","B","B","B","B","B","B","B","B","B","B","B","B","?","C","?","?","?","?","?","?","?","?","?","?","?","?","?","?","?","?","?","?","?","?","?","?","?","?","?","?","?","?","?","?","?","?","?","?","?","?","?","?","?","?","?","?","?","?","?","?","?","?","?","?","?","?","?","?","?","?","?","?","?","?","?","?","?","?","?","?","?","?","?","?","?","?","?","?","?","?","?","?","?","?","?","?","?","?","?","?","?","?","?","?","?","?","?","?","?"],"t":[29,46,62,89,106,129,157,172,189,206,222,239,255,272,289,305,322,339,355,372,389,405,422,438,455,472,488,505,522,539,555,572,588,605,622,639,655,672,689,705,722,739,755,773,789,806,822,839,855,872,889,905,922,939,955,973,989,1005,1022,1038,1055,1072,1089,1105,1122,1139,1155,1173,1189,1205,1222,1238,1255,1272,1288,1305,1322,1339,1355,1372,1389,1406,1422,1438,1455,1472,1489,1505,1522,1538,1555,1572,1590,1605,1622,1638,1655,1672,1689,1705,1722,1738,1755,1772,1788,1805,1822,1838,1855,1872,1888,1905,1922,1938,1955,1972,1988,2005,2022,2038,2055,2072,2088,2105,2122,2138,2155,2172,2188,2205,2222,2238,2255,2272,2288,2305,2322,2339,2355,2373,2388,2405,2422,2438,2455,2472,2489,2505,2522,2539,2555,2572,2589,2605,2622,2638,2655,2672,2689,2705,2722,2738,2755,2773,2789,2805,2822,2838,2855,2872,2888,2905,2922,2939,2955,2972,2989,3006,3022,3039,3055,3072,3089,3105,3122,3138,3155,3172,3189,3205,3222,3238,3255,3272,3288,3305,3321,3338,3355,3372,3389,3405,3422,3438,3455,3472,3488,3505,3522,3538,3555,3572,3588,3605,3622,3639,3655,3672,3688,3705,3722,3738,3755,3772,3788,3805,3822,3838,3855,3872,3888,3905,3922,3938,3955,3973,3988,4005,4022,4038,4055,4072,4088,4105,4122,4138,4155,4172,4189,4205,4222,4239,4255,4272,4288,4305,4322,4338,4355,4372,4388,4405,4422,4438,4455,4472,4488,4505,4522,4538,4555,4572,4588,4605,4622,4638,4655,4672,4688,4705,4722,4739,4755,4772,4788,4805,4822,4838,4855,4872,4888,4905,4922,4938,4955,4972,4988,5005,5022,5039,5055,5072,5089,5105,5122,5138,5155,5172,5188,5205,5221,5238,5255,5272,5289,5305,5322,5339,5355,5372,5389,5405,5422,5438,5455,5472,5489,5505,5522,5538,5555,5572,5588,5605,5622,5639,5655,5672,5689,5705,5722,5739,5755,5772,5789,5805,5822,5838,5855,5872,5889,5905,5922,5938,5955,5973,5989,6005,6022,6038,6055,6072,6088,6105,6122,6138,6155,6172,6189,6205,6222,6238,6255,6272,6288,6305,6322,6338,6355,6372,6389,6405,6422,6438,6455,6472,6488,6505,6522,6538,6555,6572,6588,6605,6622,6638,6655,6672,6688,6705,6722,6738,6755,6771,6788,6805,6822,6838,6855,6872,6888,6905,6922,6938,6955,6972,6988,7005,7022,7038,7055,7072,7088,7105,7122,7139,7155,7172,7190,7205,7222,7238,7255,7272,7288,7305,7322,7338,7355,7372,7389,7405,7422,7438,7455,7472,7488,7505,7522,7538,7555,7572,7589,7605,7622,7638,7655,7671,7688,7705,7722,7738,7755,7772,7789,7806,7822,7838,7855,7872,7889,7905,7922,7938,7955,7972,7990,8005,8022,8038,8055,8072,8088,8105,8122,8138,8155,8172,8189,8205,8222,8238,8255,8272,8288,8305,8322,8338,8355,8372,8388,8405,8422,8438,8455,8472,8488,8505,8522,8539,8555,8572,8589,8606,8622,8638,8655,8672,8688,8705,8722,8738,8755,8772,8789,8806,8822,8838,8855,8872,8888,8905,8922,8938,8955,8972,8989,9005,9022,9038,9055,9072,9088,9105,9122,9139,9155,9172,9188,9205,9221,9238,9255,9272,9289,9305,9322,9338,9355,9372,9388,9406,9422,9438,9455,9472,9488,9505,9522,9538,9555,9572,9589,9605,9621,9638,9655,9672,9688,9705,9722,9739,9755,9772,9790,9805,9822,9839,9855,9872,9889,9905,9922,9939,9955,9972,9989,10005,10022,10039,10055,10072,10088,10105,10122,10138,10155,10172,10188,10205,10222,10238,10255,10272,10288,10305,10322,10338,10355,10372,10390,10406,10422,10439,10455,10472,10488,10505,10522,10538,10555,10573,10589,10606,10622,10638,10655,10672,10688,10705,10722,10738,10755,10772,10789,10805,10822,10838,10855,10872,10888,10905,10922,10938,10955,10973,10989,11006,11022,11038,11055,11072,11089,11105,11122,11139,11155,11172,11189,11205,11222,11238,11256,11272,11288,11305,11322,11339,11355,11372,11388,11405,11422,11438,11455,11472,11488,11505,11522,11538,11555,11572,11589,11605,11622,11639,11655,11672,11689,11705,11722,11739,11755,11772,11789,11805,11822,11838,11855,11872,11888,11905,11922,11938,11955,11972,11989,12005,12022,12038,12055,12072,12089,12105,12122,12140,12155,12172,12188,12205,12222,12239,12255,12272,12289,12305,12322,12338,12355,12372,12388,12405,12422,12439,12455,12472,12489,12505,12522,12538,12555,12572,12588,12605,12622,12639,12655,12672,12689,12705,12722,12738,12755,12772,12788,12805,12822,12839,12855,12872,12888,12905,12922,12939,12955,12972,12989,13005,13022,13038,13055,13072,13088,13105,13122,13138,13155,13173,13190,13205,13222,13238,13255,13272,13289,13305,13322,13338,13355,13372,13388,13405,13422,13439,13455,13472,13489,13506,13522,13539,13555,13572,13589,13605,13622,13639,13655,13672,13688,13705,13722,13739,13755,13772,13789,13805,13822,13838,13855,13872,13888,13905,13922,13939,13955,13972,13988,14005,14022,14039,14055,14072,14088,14105,14122,14138,14155,14172,14189,14205,14222,14239,14255,14272,14288,14305,14322,14338,14355,14372,14388,14405,14422,14438,14455,14472,14489,14505,14522,14538,14555,14572,14589,14605,14622,14639,14655,14672,14688,14705,14722,14738,14755,14773,14789,14806,14822,14839,14855,14872,14888,14905,14922,14938,14955,14972,14988,15005,15022,15038,15055,15072,15088,15105,15122,15139,15155,15172,15189,15205,15222,15238,15255,15272,15288,15305,15322,15339,15355,15372,15389,15405,15422,15438,15455,15472,15488,15505,15522,15538,15555,15572,15589,15606,15622,15638,15655,15672,15688,15705,15722,15738,15755,15772,15790,15806,15822,15838,15855,15872,15889,15905,15922,15938,15955,15972,15989,16007,16022,16039,16055,16072,16089,16105,16122,16139,16155,16173,16190,16205,16222,16238,16255,16272,16288,16305,16322,16338,16355,16373,16390,16405,16422,16438,16455,16472,16488,16505,16522,16538,16555,16572,16589,16605,16622,16638,16655,16672,16688,16705,16722,16739,16755,16772,16788,16806,16822,16838,16855,16872,16889,16905,16922,16939,16955,16972,16988,17005,17022,17039,17055,17072,17088,17105,17122,17139,17155,17172,17188,17205,17222,17238,17255,17272,17288,17305,17322,17338,17355,17373,17389,17405,17422,17438,17455,17472,17489,17505,17522,17539,17555,17573,17589,17605,17622,17638,17655,17672,17689,17705,17722,17738,17755,17772,17788,17805,17822,17838,17855,17872,17888,17905,17922,17939,17955,17972,17988,18005,18022,18038,18055,18072,18089,18105,18122,18138,18155,18172,18188,18205,18222,18238,18255,18272,18288,18305,18322,18338,18355,18373,18389,18405,18422,18438,18455,18472,18489,18505,18522,18538,18555,18572,18590,18605,18622,18639,18655,18672,18689,18705,18722,18738,18755,18772,18789,18805,18822,18838,18855,18872,18888,18905,18922,18939,18955,18972,18990,19005,19022,19039,19055,19072,19089,19105,19122,19139,19155,19172,19189,19205,19222,19238,19255,19272,19289,19305,19322,19339,19355,19372,19388,19405,19422,19438,19455,19472,19488,19505,19522,19539,19555,19572,19589,19605,19622,19639,19655,19672,19689,19705,19722,19739,19755,19772,19788,19805,19822,19839,19855,19872,19889,19905,19922,19939,19955,19972,19990,20005,20024,20039,20055,20072,20088,20105,20122,20138,20155,20172,20190,20205,20222,20238,20255,20272,20289,20305,20322,20339,20355,20372,20388,20405,20422,20438,20455,20472,20489,20505,20523,20539,20555,20572,20588,20605,20622,20639,20655,20672,20689,20705,20722,20739,20755,20772,20789,20805,20822,20839,20855,20872,20888,20905,20922,20939,20955,20972,20989,21005,21022,21039,21055,21072,21088,21105,21122,21138,21155,21172,21189,21205,21222,21238,21255,21272,21289,21305,21322,21339,21355,21372,21388,21405,21422,21438,21455,21472,21488,21505,21522,21538,21555,21572,21588,21605,21622,21639,21655,21672,21688,21705,21722,21738,21755,21773,21789,21806,21822,21838,21855,21872,21888,21905,21922,21939,21955,21972,21989,22005,22022,22038,22055,22072,22089,22105,22122,22139,22155,22172,22188,22205,22222,22239,22255,22272,22289,22305,22322,22338,22355,22372,22390,22405,22422,22438,22455,22472,22488,22505,22522,22538,22555,22572,22590,22605,22622,22638,22655,22672,22689,22705,22722,22738,22755,22772,22788,22805,22822,22839,22855,22872,22889,22905,22922,22938,22955,22972,22988,23005,23022,23038,23055,23072,23088,23105,23122,23139,23155,23172,23190,23205,23222,23238,23255,23272,23288,23305,23322,23338,23355,23373,23389,23405,23422,23439,23455,23472,23489,23505,23522,23538,23555,23572,23588,23605,23622,23638,23655,23672,23688,23705,23722,23738,23755,23773,23790,23805,23822,23838,23855,23872,23889,23905,23922,23938,23955,23972,23988,24005,24022,24039,24055,24072,24089,24105,24122,24139,24155,24173,24189,24205,24222,24238,24255,24272,24288,24305,24322,24338,24355,24372,24388,24405,24422,24438,24455,24472,24488,24505,24522,24538,24555,24572,24590,24605,24622,24639,24657,24671,24688,24705,24722,24739,24755,24773,24789,24805,24822,24839,24855,24872,24889,24905,24922,24939,24955,24972,24988,25005,25022,25039,25055,25072,25088,25105,25122,25139,25155,25172,25189,25205,25222,25239,25255,25272,25288,25305,25322,25339,25355,25373,25389,25405,25422,25438,25455,25472,25489,25505,25522,25539,25555,25572,25588,25606,25622,25639,25655,25672,25688,25705,25722,25739,25755,25772,25789,25805,25822,25839,25855,25872,25888,25905,25922,25939,25955,25972,25990,26006,26022,26038,26055,26072,26089,26105,26122,26138,26155,26172,26189,26206,26222,26238,26255,26272,26288,26305,26322,26338,26355,26373,26389,26406,26422,26438,26455,26472,26489,26505,26522,26539,26555,26572,26589,26605,26622,26639,26655,26672,26689,26705,26722,26738,26755,26772,26789,26805,26822,26838,26855,26872,26888,26905,26922,26939,26955,26972,26989,27005,27022,27039,27055,27072,27088,27105,27122,27139,27155,27172,27188,27205,27222,27238,27255,27272,27288,27305,27322,27339,27355,27372,27390,27405,27422,27438,27455,27472,27489,27505,27522,27538,27555,27573,27590,27605,27622,27638,27655,27672,27688,27705,27722,27739,27755,27773,27788,27805,27822,27838,27855,27872,27888,27905,27922,27939,27955,27972,27989,28005,28022,28038,28055,28072,28088,28105,28122,28139,28155,28172,28189,28205,28222,28239,28255,28272,28289,28305,28322,28338,28355,28372,28388,28405,28422,28439,28455,28472,28488,28505,28523,28538,28555,28572,28589,28605,28622,28638,28655,28672,28688,28705,28722,28738,28756,28772,28790,28805,28822,28838,28855,28872,28889,28905,28922,28939,28955,28972,28988,29006,29022,29038,29055,29072,29088,29105,29122,29138,29155,29172,29188,29205,29222,29239,29255,29272,29289,29305,29322,29338,29355,29372,29388,29405,29422,29438,29455,29472,29488,29505,29522,29539,29555,29572,29589,29605,29622,29638,29655,29672,29689,29705,29722,29738,29755,29773,29789,29805,29822,29838,29855,29872,29888,29905,29922,29938,29955,29972,29989,30005,30022,30038,30055,30072,30089,30105,30122,30138,30155,30172,30189,30205,30222,30238,30255,30272,30289,30305,30322,30338,30355,30372,30390,30405,30422,30439,30455,30472,30488,30505,30522,30539,30555,30572,30589,30606,30622,30638,30655,30672,30689,30705,30722,30739,30755,30772,30789,30805,30822,30838,30855,30872,30889,30905,30922,30939,30955,30972,30989,31005,31022,31038,31055,31072,31089,31105,31122,31139,31155,31172,31189,31205,31222,31238,31255,31272,31288,31305,31322,31338,31355,31372,31389,31406,31422,31438,31455,31472,31488,31505,31522,31538,31555,31572,31588,31605,31622,31638,31655,31672,31688,31705,31722,31738,31755,31772,31788,31806,31822,31838,31855,31872,31889,31905,31922,31938,31955,31972,31988,32005,32022,32039,32055,32072,32088,32105,32122,32139,32155,32172,32189,32205,32222,32238,32255,32272,32288,32305,32322,32338,32356,32372,32388,32405,32422,32438,32455,32472,32488,32505,32522,32538,32555,32572,32590,32606,32622,32638,32655,32672,32689,32705,32722,32738,32755,32772,32789,32805,32822,32839,32855,32872,32889,32905,32922,32939,32955,32972,32989,33005,33022,33038,33055,33072,33088,33105,33122,33139,33155,33172,33188,33206,33222,33239,33255,33272,33288,33305,33322,33338,33355,33372,33389,33405,33422,33439,33455,33472,33488,33505,33522,33538,33555,33573,33590,33605,33622,33638,33655,33672,33688,33705,33722,33738,33755,33772,33789,33806,33822,33838,33855,33872,33888,33905,33922,33938,33955,33974,33988,34005,34022,34039,34055,34072,34089,34105,34122,34139,34155,34172,34189,34205,34222,34238,34255,34272,34289,34305,34322,34339,34356,34372,34389,34406,34422,34438,34455,34472,34489,34505,34523,34538,34555,34572,34589,34605,34622,34639,34655,34672,34689,34705,34722,34739,34755,34772,34788,34805,34822,34839,34855,34872,34889,34905,34922,34939,34955,34972,34988,35005,35022,35038,35055,35072,35089,35105,35122,35139,35155,35172,35188,35205,35222,35239,35255,35272,35289,35305,35322,35338,35355,35372,35390,35406,35422,35439,35455,35472,35488,35505,35522,35538,35555,35572,35589,35605,35622,35639,35655,35672,35689,35705,35722,35739,35755,35772,35790,35805,35822,35838,35855,35872,35889,35905,35922,35938,35955,35973,35989,36005,36022,36039,36055,36072,36088,36105,36122,36139,36155,36173,36189,36206,36222,36238,36255,36273,36288,36305,36322,36339,36355,36372,36389,36405,36422,36439,36455,36472,36489,36505,36522,36539,36555,36572,36589,36605,36622,36638,36655,36672,36689,36705,36722,36739,36755,36772,36789,36805,36822,36839,36855,36872,36888,36905,36922,36939,36955,36974,36988,37006,37022,37039,37055,37072,37089,37105,37122,37138,37155,37172,37190,37205,37222,37238,37255,37273,37289,37305,37322,37339,37355,37372,37388,37405,37422,37438,37455,37472,37488,37505,37522,37538,37555,37572,37590,37605,37622,37638,37655,37672,37689,37705,37722,37739,37755,37772,37788,37805,37822,37838,37855,37872,37888,37905,37922,37938,37955,37972,37988,38005,38022,38038,38055,38072,38089,38105,38122,38138,38155,38172,38189,38205,38222,38238,38255,38272,38288,38305,38322,38338,38355,38372,38389,38405,38422,38438,38455,38472,38489,38505,38522,38539,38555,38572,38588,38605,38622,38638,38655,38672,38688,38705,38722,38739,38755,38773,38789,38805,38822,38838,38855,38872,38888,38905,38922,38938,38955,38972,38989,39005,39022,39038,39055,39072,39088,39105,39122,39138,39155,39173,39190,39205,39222,39238,39255,39272,39288,39305,39322,39338,39355,39372,39388,39405,39422,39439,39455,39472,39488,39505,39522,39538,39555,39572,39588,39605,39622,39638,39655,39672,39688,39705,39722,39738,39755,39772,39789,39806,39822,39838,39855,39872,39888,39905,39922,39938,39955,39972,39988,40006,40022,40038,40056,40072,40089,40105,40122,40139,40155,40172,40189,40205,40222,40238,40255,40272,40289,40305,40322,40338,40355,40372,40389,40405,40422,40439,40455,40472,40489,40505,40522,40538,40555,40572,40588,40605,40622,40638,40655,40672,40688,40705,40722,40738,40755,40773,40789,40806,40822,40839,40855,40872,40889,40905,40922,40939,40955,40972,40989,41005,41022,41038,41055,41072,41089,41105,41122,41138,41156,41172,41188,41205,41222,41238,41255,41272,41288,41305,41322,41339,41355,41372,41388,41405,41422,41441,41455,41472,41488,41505,41522,41538,41555,41572,41589,41605,41622,41638,41655,41672,41688,41705,41722,41739,41755,41773,41789,41806,41822,41839,41855,41872,41889,41905,41922,41939,41955,41972,41989,42005,42022,42039,42055,42072,42089,42105,42122,42138,42155,42172,42188,42205,42222,42239,42255,42272,42288,42305,42322,42338,42355,42372,42390,42405,42422,42438,42455,42472,42489,42505,42522,42539,42555,42572,42590,42605,42622,42639,42655,42672,42688,42705,42722,42739,42755,42773,42790,42805,42822,42838,42855,42872,42888,42905,42922,42938,42955,42972,42989,43005,43022,43039,43055,43072,43089,43105,43122,43138,43155,43172,43191,43205,43222,43239,43255,43272,43289,43305,43322,43338,43355,43372,43388,43405,43422,43438,43455,43472,43489,43505,43522,43538,43555,43573,43590,43605,43622,43639,43655,43672,43689,43705,43722,43739,43755,43772,43789,43805,43822,43839,43855,43872,43889,43905,43922,43938,43955,43972,43989,44006,44022,44039,44055,44072,44088,44105,44122,44139,44155,44172,44189,44205,44222,44239,44255,44272,44288,44305,44322,44339,44355,44372,44388,44405,44422,44439,44455,44472,44488,44505,44522,44539,44555,44572,44588,44605,44622,44638,44655,44672,44688,44705,44722,44738,44755,44772,44788,44805,44822,44839,44855,44872,44889,44905,44922,44938,44955,44972,44988,45005,45022,45038,45055,45072,45089,45105,45122,45139,45155,45172,45189],"hit":[null],"x":[-2.693877551020408,-0.07482993197278912,-0.07482993197278912,-0.07142857142857142,-0.07142857142857142,-0.07142857142857142,-0.07482993197278912,-0.07482993197278912,-0.07482993197278912,-0.07482993197278912,-0.07482993197278912,-0.07482993197278912,-0.07482993197278912,-0.07482993197278912,-0.07482993197278912,-0.07482993197278912,-0.07482993197278912,-0.07482993197278912,-0.07482993197278912,-0.07482993197278912,-0.07482993197278912,-0.07482993197278912,-0.07482993197278912,-0.07482993197278912,-0.07482993197278912,-0.07482993197278912,-0.06462585034013606,-0.02040816326530612,-0.013605442176870748,-0.05442176870748299,-0.06462585034013606,-0.06462585034013606,-0.06462585034013606,-0.06462585034013606,-0.06462585034013606,-0.06462585034013606,-0.06462585034013606,-0.06462585034013606,-0.06462585034013606,-0.06802721088435375,-0.06802721088435375,-0.07482993197278912,-0.07482993197278912,-0.07482993197278912,-0.07482993197278912,-0.07482993197278912,-0.07482993197278912,-0.07142857142857142,-0.06802721088435375,-0.061224489795918366,-0.05442176870748299,-0.04421768707482993,-0.027210884353741496,-0.01020408163265306,0.013605442176870748,0.04081632653061224,0.061224489795918366,0.08163265306122448,0.10204081632653061,0.11904761904761904,0.1292517006802721,0.13945578231292516,0.14965986394557823,0.1598639455782313,0.17006802721088435,0.17687074829931973,0.1836734693877551,0.1870748299319728,0.19387755102040816,0.19727891156462585,0.19727891156462585,0.19727891156462585,0.19727891156462585,0.19727891156462585,0.19727891156462585,0.19727891156462585,0.19727891156462585,0.19047619047619047,0.17687074829931973,0.17006802721088435,0.1564625850340136,0.14625850340136054,0.14285714285714285,0.1360544217687075,0.12244897959183673,0.11224489795918367,0.09183673469387756,0.08163265306122448,0.07482993197278912,0.07142857142857142,0.06802721088435375,0.06462585034013606,0.05782312925170068,0.05782312925170068,0.05442176870748299,0.05442176870748299,0.05442176870748299,0.05442176870748299,0.05442176870748299,0.05442176870748299,0.05442176870748299,0.05442176870748299,0.05442176870748299,0.05442176870748299,0.05442176870748299,0.05442176870748299,0.05442176870748299,0.05442176870748299,0.05442176870748299,0.05442176870748299,0.05442176870748299,0.05442176870748299,0.05442176870748299,0.05782312925170068,0.05782312925170068,0.061224489795918366,0.061224489795918366,0.061224489795918366,0.061224489795918366,0.061224489795918366,0.061224489795918366,0.061224489795918366,0.061224489795918366,0.061224489795918366,0.061224489795918366,0.061224489795918366,0.061224489795918366,0.061224489795918366,0.061224489795918366,0.061224489795918366,0.061224489795918366,0.061224489795918366,0.06802721088435375,0.06802721088435375,0.06802721088435375,0.06802721088435375,0.07482993197278912,0.0782312925170068,0.0782312925170068,0.08163265306122448,0.08503401360544217,0.08503401360544217,0.08843537414965986,0.09183673469387756,0.09523809523809523,0.10204081632653061,0.1054421768707483,0.11904761904761904,0.12585034013605442,0.13945578231292516,0.15306122448979592,0.17346938775510204,0.19047619047619047,0.22448979591836735,0.24829931972789115,0.272108843537415,0.2857142857142857,0.30272108843537415,0.30952380952380953,0.3197278911564626,0.3231292517006803,0.3299319727891156,0.336734693877551,0.3401360544217687,0.3469387755102041,0.35374149659863946,0.35714285714285715,0.3673469387755102,0.3707482993197279,0.37755102040816324,0.38095238095238093,0.38095238095238093,0.3877551020408163,0.391156462585034,0.391156462585034,0.3979591836734694,0.4013605442176871,0.40816326530612246,0.40816326530612246,0.40816326530612246,0.41156462585034015,0.41156462585034015,0.41156462585034015,0.41496598639455784,0.41496598639455784,0.41496598639455784,0.41496598639455784,0.41836734693877553,0.41836734693877553,0.41836734693877553,0.41836734693877553,0.41836734693877553,0.41836734693877553,0.41836734693877553,0.41836734693877553,0.41836734693877553,0.41836734693877553,0.41836734693877553,0.41836734693877553,0.41836734693877553,0.41836734693877553,0.41836734693877553,0.41836734693877553,0.41836734693877553,0.41836734693877553,0.41836734693877553,0.41836734693877553,0.41836734693877553,0.41836734693877553,0.41836734693877553,0.41836734693877553,0.41836734693877553,0.41836734693877553,0.41836734693877553,0.41836734693877553,0.41836734693877553,0.41836734693877553,0.41836734693877553,0.41836734693877553,0.41836734693877553,0.41836734693877553,0.41836734693877553,0.41836734693877553,0.41836734693877553,0.41836734693877553,0.41836734693877553,0.41836734693877553,0.41836734693877553,0.41836734693877553,0.41836734693877553,0.41836734693877553,0.41836734693877553,0.41836734693877553,0.41836734693877553,0.41836734693877553,0.41836734693877553,0.41836734693877553,0.41836734693877553,0.41836734693877553,0.41836734693877553,0.41836734693877553,0.41836734693877553,0.41836734693877553,0.41836734693877553,0.41836734693877553,0.41836734693877553,0.41836734693877553,0.41836734693877553,0.41836734693877553,0.41836734693877553,0.41836734693877553,0.41836734693877553,0.41836734693877553,0.41836734693877553,0.41836734693877553,0.41836734693877553,0.41836734693877553,0.41836734693877553,0.41836734693877553,0.41836734693877553,0.41836734693877553,0.41836734693877553,0.41836734693877553,0.41836734693877553,0.41836734693877553,0.41836734693877553,0.41836734693877553,0.41836734693877553,0.41836734693877553,0.41836734693877553,0.41836734693877553,0.41836734693877553,0.41836734693877553,0.41836734693877553,0.41836734693877553,0.41836734693877553,0.41836734693877553,0.41836734693877553,0.41836734693877553,0.41836734693877553,0.41836734693877553,0.41836734693877553,0.41836734693877553,0.41836734693877553,0.41836734693877553,0.41836734693877553,0.41836734693877553,0.41836734693877553,0.41836734693877553,0.41836734693877553,0.41836734693877553,0.41836734693877553,0.41836734693877553,0.41836734693877553,0.41836734693877553,0.41836734693877553,0.41836734693877553,0.41836734693877553,0.41836734693877553,0.41836734693877553,0.41836734693877553,0.41836734693877553,0.41836734693877553,0.41836734693877553,0.41836734693877553,0.41836734693877553,0.41836734693877553,0.41836734693877553,0.41836734693877553,0.41836734693877553,0.41836734693877553,0.41836734693877553,0.41836734693877553,0.41836734693877553,0.41836734693877553,0.41836734693877553,0.41836734693877553,0.41836734693877553,0.41836734693877553,0.41836734693877553,0.41836734693877553,0.41836734693877553,0.41836734693877553,0.41836734693877553,0.41836734693877553,0.41836734693877553,0.41836734693877553,0.41836734693877553,0.41836734693877553,0.41836734693877553,0.41836734693877553,0.41836734693877553,0.41836734693877553,0.41836734693877553,0.41836734693877553,0.41836734693877553,0.41836734693877553,0.41836734693877553,0.41836734693877553,0.41836734693877553,0.41836734693877553,0.41836734693877553,0.41836734693877553,0.41836734693877553,0.41836734693877553,0.41836734693877553,0.4217687074829932,0.42517006802721086,0.42857142857142855,0.4421768707482993,0.4489795918367347,0.46598639455782315,0.47959183673469385,0.4965986394557823,0.5136054421768708,0.5238095238095238,0.5374149659863946,0.5544217687074829,0.5714285714285714,0.5850340136054422,0.5952380952380952,0.6054421768707483,0.6156462585034014,0.6190476190476191,0.6224489795918368,0.6258503401360545,0.6360544217687075,0.6428571428571429,0.6564625850340136,0.6700680272108843,0.6870748299319728,0.6938775510204082,0.7040816326530612,0.7108843537414966,0.7142857142857143,0.717687074829932,0.7210884353741497,0.7278911564625851,0.7312925170068028,0.7312925170068028,0.7346938775510204,0.7346938775510204,0.7346938775510204,0.7380952380952381,0.7380952380952381,0.7380952380952381,0.7414965986394558,0.7414965986394558,0.7414965986394558,0.7414965986394558,0.7414965986394558,0.7414965986394558,0.7414965986394558,0.7414965986394558,0.7414965986394558,0.7414965986394558,0.7414965986394558,0.7414965986394558,0.7414965986394558,0.7414965986394558,0.7414965986394558,0.7414965986394558,0.7414965986394558,0.7414965986394558,0.7414965986394558,0.7414965986394558,0.7414965986394558,0.7414965986394558,0.7414965986394558,0.7414965986394558,0.7414965986394558,0.7414965986394558,0.7414965986394558,0.7414965986394558,0.7414965986394558,0.7414965986394558,0.7414965986394558,0.7414965986394558,0.7414965986394558,0.7414965986394558,0.7414965986394558,0.7380952380952381,0.7380952380952381,0.7346938775510204,0.7278911564625851,0.7210884353741497,0.7142857142857143,0.7108843537414966,0.7006802721088435,0.6972789115646258,0.6870748299319728,0.6802721088435374,0.6598639455782312,0.6564625850340136,0.6564625850340136,0.6564625850340136,0.6564625850340136,0.5952380952380952,0.5850340136054422,0.5680272108843537,0.5510204081632653,0.5306122448979592,0.5238095238095238,0.5136054421768708,0.5068027210884354,0.5,0.4965986394557823,0.4931972789115646,0.4897959183673469,0.4897959183673469,0.48639455782312924,0.48639455782312924,0.48639455782312924,0.48639455782312924,0.48639455782312924,0.48639455782312924,0.48639455782312924,0.48639455782312924,0.48639455782312924,0.48639455782312924,0.48639455782312924,0.48639455782312924,0.48639455782312924,0.48639455782312924,0.48639455782312924,0.48639455782312924,0.48299319727891155,0.48299319727891155,0.48299319727891155,0.48299319727891155,0.48299319727891155,0.48639455782312924,0.4897959183673469,0.4897959183673469,0.4931972789115646,0.4965986394557823,0.5,0.5136054421768708,0.5204081632653061,0.5340136054421769,0.54421768707483,0.5612244897959183,0.5782312925170068,0.5986394557823129,0.6054421768707483,0.6156462585034014,0.6224489795918368,0.6258503401360545,0.6360544217687075,0.6496598639455783,0.6598639455782312,0.6666666666666666,0.6700680272108843,0.673469387755102,0.673469387755102,0.6768707482993197,0.6836734693877551,0.6836734693877551,0.6836734693877551,0.6836734693877551,0.6836734693877551,0.6836734693877551,0.6836734693877551,0.6836734693877551,0.6836734693877551,0.6836734693877551,0.6836734693877551,0.6836734693877551,0.6836734693877551,0.6802721088435374,0.6632653061224489,0.6530612244897959,0.6428571428571429,0.6258503401360545,0.5884353741496599,0.564625850340136,0.5340136054421769,0.4965986394557823,0.4557823129251701,0.4217687074829932,0.37755102040816324,0.3401360544217687,0.30272108843537415,0.282312925170068,0.25510204081632654,0.23469387755102042,0.20748299319727892,0.19047619047619047,0.16666666666666666,0.14965986394557823,0.1360544217687075,0.11904761904761904,0.11224489795918367,0.10204081632653061,0.09183673469387756,0.08163265306122448,0.07482993197278912,0.061224489795918366,0.05442176870748299,0.047619047619047616,0.04081632653061224,0.04081632653061224,0.04081632653061224,0.04081632653061224,0.04081632653061224,0.03741496598639456,0.03741496598639456,0.03741496598639456,0.03741496598639456,0.03741496598639456,0.03741496598639456,0.03741496598639456,0.03741496598639456,0.03741496598639456,0.03741496598639456,0.03741496598639456,0.03741496598639456,0.03741496598639456,0.03741496598639456,0.03741496598639456,0.03741496598639456,0.03741496598639456,0.03741496598639456,0.034013605442176874,0.027210884353741496,0.02040816326530612,0.013605442176870748,0.01020408163265306,0.006802721088435374,0.006802721088435374,0.003401360544217687,0.003401360544217687,0.003401360544217687,0.003401360544217687,0.003401360544217687,0.003401360544217687,0.003401360544217687,0.003401360544217687,0.003401360544217687,0.003401360544217687,0.003401360544217687,0.003401360544217687,0.003401360544217687,0.003401360544217687,0.003401360544217687,0.003401360544217687,0.003401360544217687,0.003401360544217687,0.003401360544217687,0.003401360544217687,0.003401360544217687,0.003401360544217687,0.003401360544217687,0.003401360544217687,0.003401360544217687,0.003401360544217687,0.003401360544217687,0.003401360544217687,0.003401360544217687,0.003401360544217687,0.003401360544217687,0.003401360544217687,0.003401360544217687,0.003401360544217687,0.003401360544217687,0.003401360544217687,0.003401360544217687,0.003401360544217687,0.003401360544217687,0.003401360544217687,0.003401360544217687,0.003401360544217687,0.01020408163265306,0.017006802721088437,0.023809523809523808,0.034013605442176874,0.04081632653061224,0.05102040816326531,0.061224489795918366,0.06802721088435375,0.07482993197278912,0.09523809523809523,0.1054421768707483,0.11564625850340136,0.12585034013605442,0.1360544217687075,0.14285714285714285,0.15306122448979592,0.1564625850340136,0.16326530612244897,0.16326530612244897,0.17006802721088435,0.17687074829931973,0.17687074829931973,0.1836734693877551,0.19727891156462585,0.19727891156462585,0.21428571428571427,0.22108843537414966,0.24149659863945577,0.2619047619047619,0.2755102040816326,0.29931972789115646,0.3299319727891156,0.35034013605442177,0.3843537414965986,0.40476190476190477,0.42517006802721086,0.4421768707482993,0.4557823129251701,0.47278911564625853,0.4931972789115646,0.5136054421768708,0.5306122448979592,0.5510204081632653,0.5680272108843537,0.5782312925170068,0.5850340136054422,0.6020408163265306,0.608843537414966,0.6156462585034014,0.6360544217687075,0.6428571428571429,0.6564625850340136,0.6700680272108843,0.6836734693877551,0.6972789115646258,0.7108843537414966,0.7312925170068028,0.7551020408163265,0.8027210884353742,0.8299319727891157,0.8503401360544217,0.8775510204081632,0.9081632653061225,0.935374149659864,0.95578231292517,0.9727891156462585,0.9795918367346939,0.9829931972789115,0.9863945578231292,0.9863945578231292,0.9863945578231292,0.9863945578231292,0.9863945578231292,0.9863945578231292,0.9863945578231292,0.9863945578231292,0.9863945578231292,0.9863945578231292,0.9863945578231292,0.9863945578231292,0.9863945578231292,0.9863945578231292,0.9863945578231292,0.9897959183673469,0.9897959183673469,0.9897959183673469,0.9795918367346939,0.9693877551020408,0.9523809523809523,0.935374149659864,0.9183673469387755,0.9115646258503401,0.9047619047619048,0.8843537414965986,0.8707482993197279,0.8605442176870748,0.8571428571428571,0.8571428571428571,0.8571428571428571,0.8537414965986394,0.8537414965986394,0.8537414965986394,0.8537414965986394,0.8537414965986394,0.8537414965986394,0.8537414965986394,0.8537414965986394,0.8537414965986394,0.8537414965986394,0.8537414965986394,0.8503401360544217,0.8503401360544217,0.8503401360544217,0.8503401360544217,0.8503401360544217,0.8503401360544217,0.8503401360544217,0.8503401360544217,0.8503401360544217,0.8503401360544217,0.8503401360544217,0.8503401360544217,0.8503401360544217,0.8503401360544217,0.8503401360544217,0.8503401360544217,0.8503401360544217,0.8503401360544217,0.8503401360544217,0.8503401360544217,0.8503401360544217,0.8503401360544217,0.8503401360544217,0.8503401360544217,0.8503401360544217,0.8503401360544217,0.8503401360544217,0.8503401360544217,0.8503401360544217,0.8503401360544217,0.8503401360544217,0.8503401360544217,0.8503401360544217,0.8503401360544217,0.8503401360544217,0.8503401360544217,0.8503401360544217,0.8503401360544217,0.8503401360544217,0.8503401360544217,0.8503401360544217,0.8503401360544217,0.8503401360544217,0.8503401360544217,0.8503401360544217,0.8503401360544217,0.8503401360544217,0.8503401360544217,0.8503401360544217,0.8503401360544217,0.8503401360544217,0.8469387755102041,0.8469387755102041,0.8469387755102041,0.8401360544217688,0.826530612244898,0.8163265306122449,0.7993197278911565,0.7755102040816326,0.7551020408163265,0.7312925170068028,0.7040816326530612,0.6802721088435374,0.6530612244897959,0.6292517006802721,0.5986394557823129,0.5782312925170068,0.5510204081632653,0.5340136054421769,0.5238095238095238,0.5204081632653061,0.5136054421768708,0.5102040816326531,0.5102040816326531,0.5068027210884354,0.5068027210884354,0.5068027210884354,0.5,0.5,0.5,0.5,0.5,0.5,0.5,0.4965986394557823,0.4965986394557823,0.4965986394557823,0.4965986394557823,0.4965986394557823,0.4965986394557823,0.4965986394557823,0.4965986394557823,0.4965986394557823,0.4965986394557823,0.4965986394557823,0.4965986394557823,0.4965986394557823,0.4965986394557823,0.4965986394557823,0.4965986394557823,0.4965986394557823,0.4965986394557823,0.4965986394557823,0.4965986394557823,0.4965986394557823,0.4965986394557823,0.4965986394557823,0.4965986394557823,0.4965986394557823,0.4965986394557823,0.4965986394557823,0.4965986394557823,0.4965986394557823,0.4965986394557823,0.4965986394557823,0.4965986394557823,0.4965986394557823,0.4965986394557823,0.4965986394557823,0.4965986394557823,0.4965986394557823,0.4965986394557823,0.4965986394557823,0.4965986394557823,0.4965986394557823,0.4965986394557823,0.4965986394557823,0.4965986394557823,0.4965986394557823,0.4965986394557823,0.4965986394557823,0.4965986394557823,0.4965986394557823,0.4965986394557823,0.4965986394557823,0.4965986394557823,0.4965986394557823,0.4965986394557823,0.4965986394557823,0.4965986394557823,0.4965986394557823,0.4965986394557823,0.4965986394557823,0.4965986394557823,0.4965986394557823,0.4965986394557823,0.4965986394557823,0.4965986394557823,0.4965986394557823,0.4965986394557823,0.4965986394557823,0.4965986394557823,0.4965986394557823,0.4965986394557823,0.4965986394557823,0.5,0.5,0.5034013605442177,0.5068027210884354,0.5136054421768708,0.5136054421768708,0.5204081632653061,0.5204081632653061,0.5238095238095238,0.5306122448979592,0.5340136054421769,0.5374149659863946,0.5374149659863946,0.5408163265306123,0.5510204081632653,0.5544217687074829,0.5544217687074829,0.5612244897959183,0.564625850340136,0.564625850340136,0.5714285714285714,0.5748299319727891,0.5782312925170068,0.5850340136054422,0.5884353741496599,0.5952380952380952,0.5952380952380952,0.5986394557823129,0.6020408163265306,0.6054421768707483,0.608843537414966,0.6156462585034014,0.6224489795918368,0.6292517006802721,0.6360544217687075,0.6428571428571429,0.6496598639455783,0.6598639455782312,0.6700680272108843,0.6768707482993197,0.6870748299319728,0.6870748299319728,0.6870748299319728,0.717687074829932,0.7278911564625851,0.7380952380952381,0.7448979591836735,0.7517006802721088,0.7517006802721088,0.7619047619047619,0.7755102040816326,0.782312925170068,0.7925170068027211,0.7993197278911565,0.8061224489795918,0.8095238095238095,0.8129251700680272,0.8163265306122449,0.8197278911564626,0.8197278911564626,0.8231292517006803,0.826530612244898,0.826530612244898,0.8333333333333334,0.8367346938775511,0.8435374149659864,0.8571428571428571,0.8707482993197279,0.8741496598639455,0.8809523809523809,0.8877551020408163,0.891156462585034,0.8945578231292517,0.8979591836734694,0.9047619047619048,0.9081632653061225,0.9115646258503401,0.9149659863945578,0.9217687074829932,0.9217687074829932,0.9217687074829932,0.9217687074829932,0.9217687074829932,0.9217687074829932,0.9251700680272109,0.9285714285714286,0.9285714285714286,0.935374149659864,0.9387755102040817,0.9421768707482994,0.9455782312925171,0.9455782312925171,0.9523809523809523,0.9523809523809523,0.95578231292517,0.9591836734693877,0.9625850340136054,0.9625850340136054,0.9659863945578231,0.9659863945578231,0.9727891156462585,0.9829931972789115,0.9863945578231292,0.9931972789115646,1.0068027210884354,1.0136054421768708,1.0170068027210883,1.0238095238095237,1.030612244897959,1.034013605442177,1.0408163265306123,1.0442176870748299,1.0510204081632653,1.0680272108843538,1.0714285714285714,1.0816326530612246,1.08843537414966,1.0952380952380953,1.0952380952380953,1.098639455782313,1.098639455782313,1.098639455782313,1.1020408163265305,1.1054421768707483,1.1054421768707483,1.1088435374149659,1.1088435374149659,1.1122448979591837,1.1156462585034013,1.119047619047619,1.119047619047619,1.1224489795918366,1.1224489795918366,1.1258503401360545,1.1258503401360545,1.1258503401360545,1.1258503401360545,1.1258503401360545,1.1258503401360545,1.1258503401360545,1.1258503401360545,1.1258503401360545,1.1258503401360545,1.1258503401360545,1.1258503401360545,1.1258503401360545,1.1258503401360545,1.1258503401360545,1.1258503401360545,1.1258503401360545,1.1258503401360545,1.1258503401360545,1.1258503401360545,1.1258503401360545,1.1258503401360545,1.1258503401360545,1.1258503401360545,1.1258503401360545,1.1258503401360545,1.129251700680272,1.129251700680272,1.1326530612244898,1.1326530612244898,1.1326530612244898,1.1326530612244898,1.1360544217687074,1.1360544217687074,1.1360544217687074,1.1394557823129252,1.1462585034013606,1.1462585034013606,1.1462585034013606,1.1496598639455782,1.153061224489796,1.153061224489796,1.1564625850340136,1.1564625850340136,1.1564625850340136,1.1564625850340136,1.1564625850340136,1.1564625850340136,1.1564625850340136,1.1564625850340136,1.1564625850340136,1.1564625850340136,1.1564625850340136,1.1564625850340136,1.1564625850340136,1.1564625850340136,1.1564625850340136,1.1564625850340136,1.1564625850340136,1.1564625850340136,1.1564625850340136,1.1564625850340136,1.1564625850340136,1.1564625850340136,1.1564625850340136,1.1564625850340136,1.1564625850340136,1.1564625850340136,1.1564625850340136,1.1564625850340136,1.1564625850340136,1.1564625850340136,1.1564625850340136,1.1564625850340136,1.1564625850340136,1.1564625850340136,1.1564625850340136,1.1564625850340136,1.1564625850340136,1.1564625850340136,1.1564625850340136,1.153061224489796,1.153061224489796,1.1394557823129252,1.1326530612244898,1.119047619047619,1.1054421768707483,1.0850340136054422,1.0612244897959184,1.0408163265306123,1.0238095238095237,0.9863945578231292,0.9659863945578231,0.9489795918367347,0.9217687074829932,0.9013605442176871,0.8707482993197279,0.8401360544217688,0.8061224489795918,0.7721088435374149,0.7346938775510204,0.7108843537414966,0.6836734693877551,0.6496598639455783,0.6190476190476191,0.5918367346938775,0.5612244897959183,0.5306122448979592,0.5034013605442177,0.47959183673469385,0.4557823129251701,0.4421768707482993,0.4217687074829932,0.41836734693877553,0.40816326530612246,0.40476190476190477,0.3979591836734694,0.3979591836734694,0.3979591836734694,0.3945578231292517,0.3945578231292517,0.3945578231292517,0.3945578231292517,0.3945578231292517,0.3945578231292517,0.3945578231292517,0.391156462585034,0.391156462585034,0.391156462585034,0.3877551020408163,0.3843537414965986,0.3843537414965986,0.3843537414965986,0.3843537414965986,0.3843537414965986,0.38095238095238093,0.38095238095238093,0.38095238095238093,0.38095238095238093,0.38095238095238093,0.38095238095238093,0.38095238095238093,0.38095238095238093,0.38095238095238093,0.38095238095238093,0.38095238095238093,0.38095238095238093,0.38095238095238093,0.38095238095238093,0.38095238095238093,0.38095238095238093,0.38095238095238093,0.38095238095238093,0.38095238095238093,0.38095238095238093,0.38095238095238093,0.38095238095238093,0.38095238095238093,0.38095238095238093,0.38095238095238093,0.38095238095238093,0.38095238095238093,0.38095238095238093,0.38095238095238093,0.38095238095238093,0.38095238095238093,0.38095238095238093,0.38095238095238093,0.38095238095238093,0.38095238095238093,0.38095238095238093,0.38095238095238093,0.38095238095238093,0.38095238095238093,0.38095238095238093,0.38095238095238093,0.38095238095238093,0.38095238095238093,0.38095238095238093,0.38095238095238093,0.38095238095238093,0.38095238095238093,0.38095238095238093,0.38095238095238093,0.3843537414965986,0.3843537414965986,0.3877551020408163,0.391156462585034,0.3945578231292517,0.4013605442176871,0.40816326530612246,0.40816326530612246,0.41496598639455784,0.41496598639455784,0.41836734693877553,0.4217687074829932,0.4217687074829932,0.4217687074829932,0.4217687074829932,0.42517006802721086,0.42517006802721086,0.43197278911564624,0.43197278911564624,0.43197278911564624,0.43197278911564624,0.43197278911564624,0.43197278911564624,0.43197278911564624,0.43197278911564624,0.43197278911564624,0.43197278911564624,0.43197278911564624,0.43197278911564624,0.43197278911564624,0.43197278911564624,0.43197278911564624,0.43197278911564624,0.43197278911564624,0.43197278911564624,0.43197278911564624,0.43197278911564624,0.43197278911564624,0.43197278911564624,0.43197278911564624,0.43197278911564624,0.43197278911564624,0.43197278911564624,0.43197278911564624,0.43197278911564624,0.43197278911564624,0.43197278911564624,0.43197278911564624,0.43197278911564624,0.43197278911564624,0.43197278911564624,0.43197278911564624,0.43197278911564624,0.43197278911564624,0.43197278911564624,0.43197278911564624,0.43197278911564624,0.43197278911564624,0.43197278911564624,0.43197278911564624,0.43197278911564624,0.43197278911564624,0.43197278911564624,0.43197278911564624,0.43197278911564624,0.43197278911564624,0.43197278911564624,0.43197278911564624,0.43197278911564624,0.43197278911564624,0.43197278911564624,0.43197278911564624,0.43197278911564624,0.43197278911564624,0.43197278911564624,0.43197278911564624,0.43197278911564624,0.43197278911564624,0.43197278911564624,0.43197278911564624,0.43197278911564624,0.43197278911564624,0.43197278911564624,0.43197278911564624,0.43197278911564624,0.43197278911564624,0.43197278911564624,0.43197278911564624,0.43197278911564624,0.43197278911564624,0.43197278911564624,0.43197278911564624,0.43197278911564624,0.43197278911564624,0.43197278911564624,0.43197278911564624,0.43197278911564624,0.43197278911564624,0.43197278911564624,0.43197278911564624,0.43197278911564624,0.43197278911564624,0.43197278911564624,0.43197278911564624,0.43197278911564624,0.43197278911564624,0.43197278911564624,0.43537414965986393,0.43537414965986393,0.43537414965986393,0.43537414965986393,0.43537414965986393,0.43537414965986393,0.43537414965986393,0.43537414965986393,0.43197278911564624,0.43197278911564624,0.42857142857142855,0.4217687074829932,0.41836734693877553,0.41496598639455784,0.41156462585034015,0.3979591836734694,0.391156462585034,0.3707482993197279,0.35714285714285715,0.3401360544217687,0.3299319727891156,0.3231292517006803,0.3231292517006803,0.3197278911564626,0.3197278911564626,0.3197278911564626,0.3163265306122449,0.3163265306122449,0.3163265306122449,0.3163265306122449,0.3163265306122449,0.3129251700680272,0.3129251700680272,0.3129251700680272,0.3129251700680272,0.3129251700680272,0.30612244897959184,0.30272108843537415,0.30272108843537415,0.29591836734693877,0.29591836734693877,0.29591836734693877,0.29591836734693877,0.2925170068027211,0.2925170068027211,0.2925170068027211,0.2925170068027211,0.2925170068027211,0.2925170068027211,0.2925170068027211,0.2925170068027211,0.2925170068027211,0.2925170068027211,0.2891156462585034,0.2891156462585034,0.2891156462585034,0.282312925170068,0.282312925170068,0.282312925170068,0.282312925170068,0.282312925170068,0.282312925170068,0.282312925170068,0.282312925170068,0.282312925170068,0.282312925170068,0.282312925170068,0.282312925170068,0.282312925170068,0.282312925170068,0.282312925170068,0.282312925170068,0.282312925170068,0.282312925170068,0.282312925170068,0.282312925170068,0.282312925170068,0.282312925170068,0.282312925170068,0.282312925170068,0.282312925170068,0.282312925170068,0.282312925170068,0.282312925170068,0.282312925170068,0.282312925170068,0.282312925170068,0.282312925170068,0.282312925170068,0.2857142857142857,0.2857142857142857,0.2891156462585034,0.29591836734693877,0.29931972789115646,0.30612244897959184,0.3163265306122449,0.3197278911564626,0.3333333333333333,0.35374149659863946,0.3673469387755102,0.3843537414965986,0.3979591836734694,0.40816326530612246,0.4217687074829932,0.43197278911564624,0.4387755102040816,0.445578231292517,0.445578231292517,0.4489795918367347,0.4489795918367347,0.4489795918367347,0.4489795918367347,0.4489795918367347,0.4489795918367347,0.4489795918367347,0.4489795918367347,0.4489795918367347,0.4489795918367347,0.4489795918367347,0.4489795918367347,0.4489795918367347,0.4489795918367347,0.4489795918367347,0.4489795918367347,0.46258503401360546,0.46938775510204084,0.47278911564625853,0.47959183673469385,0.48639455782312924,0.4897959183673469,0.4897959183673469,0.4965986394557823,0.5,0.5034013605442177,0.5068027210884354,0.5102040816326531,0.5136054421768708,0.5136054421768708,0.5238095238095238,0.5374149659863946,0.54421768707483,0.5544217687074829,0.5714285714285714,0.5816326530612245,0.5952380952380952,0.608843537414966,0.6190476190476191,0.6326530612244898,0.6428571428571429,0.6496598639455783,0.6496598639455783,0.6496598639455783,0.6496598639455783,0.6496598639455783,0.6496598639455783,0.6496598639455783,0.6496598639455783,0.6496598639455783,0.6496598639455783,0.6496598639455783,0.6462585034013606,0.6462585034013606,0.6394557823129252,0.6394557823129252,0.6360544217687075,0.6326530612244898,0.6326530612244898,0.6292517006802721,0.6258503401360545,0.6258503401360545,0.6156462585034014,0.6156462585034014,0.6122448979591837,0.6054421768707483,0.6054421768707483,0.6054421768707483,0.6054421768707483,0.6054421768707483,0.6054421768707483,0.6054421768707483,0.6054421768707483,0.6020408163265306,0.5986394557823129,0.5918367346938775,0.5782312925170068,0.5714285714285714,0.5714285714285714,0.5680272108843537,0.564625850340136,0.5612244897959183,0.5612244897959183,0.5612244897959183,0.5612244897959183,0.5612244897959183,0.5612244897959183,0.5612244897959183,0.5612244897959183,0.5612244897959183,0.5612244897959183,0.5612244897959183,0.5612244897959183,0.5612244897959183,0.5612244897959183,0.5612244897959183,0.5612244897959183,0.5612244897959183,0.5612244897959183,0.5612244897959183,0.5612244897959183,0.5612244897959183,0.5612244897959183,0.5612244897959183,0.5612244897959183,0.5612244897959183,0.5612244897959183,0.5612244897959183,0.5612244897959183,0.564625850340136,0.564625850340136,0.5680272108843537,0.5714285714285714,0.5714285714285714,0.5748299319727891,0.5748299319727891,0.5782312925170068,0.5782312925170068,0.5782312925170068,0.5782312925170068,0.5816326530612245,0.5816326530612245,0.5816326530612245,0.5850340136054422,0.5850340136054422,0.5884353741496599,0.5884353741496599,0.5884353741496599,0.5884353741496599,0.5884353741496599,0.5884353741496599,0.5884353741496599,0.5884353741496599,0.5884353741496599,0.5884353741496599,0.5884353741496599,0.5884353741496599,0.5884353741496599,0.5884353741496599,0.5884353741496599,0.5884353741496599,0.5884353741496599,0.5884353741496599,0.5884353741496599,0.5884353741496599,0.5884353741496599,0.5884353741496599,0.5884353741496599,0.5884353741496599,0.5884353741496599,0.5884353741496599,0.5884353741496599,0.5884353741496599,0.5884353741496599,0.5884353741496599,0.5884353741496599,0.5884353741496599,0.5884353741496599,0.5850340136054422,0.5782312925170068,0.5782312925170068,0.5714285714285714,0.5714285714285714,0.5680272108843537,0.564625850340136,0.564625850340136,0.564625850340136,0.5612244897959183,0.5612244897959183,0.5578231292517006,0.5544217687074829,0.5476190476190477,0.5374149659863946,0.5238095238095238,0.5204081632653061,0.5204081632653061,0.5170068027210885,0.5170068027210885,0.5170068027210885,0.5170068027210885,0.5136054421768708,0.5102040816326531,0.5102040816326531,0.5102040816326531,0.5102040816326531,0.5102040816326531,0.5102040816326531,0.5136054421768708,0.5340136054421769,0.5782312925170068,0.6326530612244898,0.7006802721088435,0.7448979591836735,0.7721088435374149,0.7755102040816326,0.7755102040816326,0.7755102040816326,0.7755102040816326,0.7755102040816326,0.7755102040816326,0.7755102040816326,0.7755102040816326,0.7755102040816326,0.7755102040816326,0.7755102040816326,0.7755102040816326,0.7755102040816326,0.7755102040816326,0.7755102040816326,0.7755102040816326,0.7755102040816326,0.7755102040816326,0.7755102040816326,0.7721088435374149,0.7551020408163265,0.7414965986394558,0.7346938775510204,0.7278911564625851,0.7278911564625851,0.7278911564625851,0.7278911564625851,0.7278911564625851,0.7278911564625851,0.7244897959183674,0.7210884353741497,0.717687074829932,0.7142857142857143,0.7142857142857143,0.7108843537414966,0.7108843537414966,0.7074829931972789,0.7006802721088435,0.6938775510204082,0.6836734693877551,0.6802721088435374,0.6666666666666666,0.6462585034013606,0.6462585034013606,0.6462585034013606,0.6462585034013606,0.4931972789115646,0.46258503401360546,0.43197278911564624,0.40476190476190477,0.36394557823129253,0.3435374149659864,0.32653061224489793,0.2925170068027211,0.25510204081632654,0.20408163265306123,0.1598639455782313,0.12244897959183673,0.09863945578231292,0.07482993197278912,0.06802721088435375,0.05782312925170068,0.05782312925170068,0.05782312925170068,0.05782312925170068,0.05782312925170068,0.05782312925170068,0.05782312925170068,0.05782312925170068,0.05782312925170068,0.05782312925170068,0.05782312925170068,0.05782312925170068,0.05782312925170068,0.05782312925170068,0.05782312925170068,0.05782312925170068,0.05782312925170068,0.05782312925170068,0.05782312925170068,0.05782312925170068,0.05782312925170068,0.05782312925170068,0.05782312925170068,0.05782312925170068,0.05782312925170068,0.05782312925170068,0.05782312925170068,0.05782312925170068,0.05782312925170068,0.05782312925170068,0.05782312925170068,0.05442176870748299,0.05442176870748299,0.05102040816326531,0.05102040816326531,0.05102040816326531,0.05102040816326531,0.05102040816326531,0.047619047619047616,0.047619047619047616,0.04421768707482993,0.04421768707482993,0.04081632653061224,0.03741496598639456,0.030612244897959183,0.027210884353741496,0.023809523809523808,0.02040816326530612,0.02040816326530612,0.02040816326530612,0.02040816326530612,0.02040816326530612,0.02040816326530612,0.02040816326530612,0.02040816326530612,0.02040816326530612,0.02040816326530612,0.02040816326530612,0.02040816326530612,0.017006802721088437,0.017006802721088437,0.006802721088435374,0,-0.003401360544217687,-0.006802721088435374,-0.01020408163265306,-0.013605442176870748,-0.017006802721088437,-0.017006802721088437,-0.017006802721088437,-0.017006802721088437,-0.017006802721088437,-0.017006802721088437,-0.017006802721088437,-0.02040816326530612,-0.02040816326530612,-0.02040816326530612,-0.02040816326530612,-0.02040816326530612,-0.02040816326530612,-0.02040816326530612,-0.02040816326530612,-0.02040816326530612,-0.02040816326530612,-0.02040816326530612,-0.02040816326530612,-0.02040816326530612,-0.02040816326530612,-0.02040816326530612,-0.02040816326530612,-0.02040816326530612,-0.02040816326530612,-0.02040816326530612,-0.02040816326530612,-0.02040816326530612,-0.02040816326530612,-0.02040816326530612,-0.02040816326530612,-0.02040816326530612,-0.02040816326530612,-0.02040816326530612,-0.02040816326530612,-0.02040816326530612,-0.02040816326530612,-0.02040816326530612,-0.02040816326530612,-0.02040816326530612,-0.02040816326530612,-0.01020408163265306,0.003401360544217687,0.02040816326530612,0.04421768707482993,0.06802721088435375,0.08503401360544217,0.10884353741496598,0.14625850340136054,0.17346938775510204,0.20748299319727892,0.24489795918367346,0.2857142857142857,0.3299319727891156,0.3945578231292517,0.445578231292517,0.5034013605442177,0.5578231292517006,0.6156462585034014,0.6632653061224489,0.7040816326530612,0.7482993197278912,0.7857142857142857,0.8231292517006803,0.8503401360544217,0.8775510204081632,0.9081632653061225,0.9251700680272109,0.9319727891156463,0.935374149659864,0.9387755102040817,0.9421768707482994,0.9421768707482994,0.9421768707482994,0.9455782312925171,0.9523809523809523,0.95578231292517,0.9625850340136054,0.9761904761904762,0.9761904761904762,0.9829931972789115,0.9829931972789115,0.9829931972789115,0.9829931972789115,0.9897959183673469,0.9897959183673469,0.9965986394557823,1,1.0034013605442176,1.0068027210884354,1.010204081632653,1.010204081632653,1.010204081632653,1.0136054421768708,1.0170068027210883,1.0204081632653061,1.0238095238095237,1.0238095238095237,1.0272108843537415,1.030612244897959,1.030612244897959,1.034013605442177,1.034013605442177,1.0374149659863945,1.0476190476190477,1.0476190476190477,1.0578231292517006,1.0680272108843538,1.0748299319727892,1.0816326530612246,1.0918367346938775,1.0952380952380953,1.098639455782313,1.1054421768707483,1.1088435374149659,1.1156462585034013,1.119047619047619,1.1224489795918366,1.1258503401360545,1.1258503401360545,1.129251700680272,1.129251700680272,1.129251700680272,1.129251700680272,1.129251700680272,1.129251700680272,1.129251700680272,1.129251700680272,1.129251700680272,1.129251700680272,1.129251700680272,1.129251700680272,1.129251700680272,1.129251700680272,1.129251700680272,1.129251700680272,1.129251700680272,1.129251700680272,1.129251700680272,1.119047619047619,1.1020408163265305,1.0816326530612246,1.0612244897959184,1.0408163265306123,1.0238095238095237,1.0068027210884354,0.9965986394557823,0.9795918367346939,0.9625850340136054,0.9455782312925171,0.9285714285714286,0.8979591836734694,0.8775510204081632,0.8673469387755102,0.8503401360544217,0.8469387755102041,0.8401360544217688,0.8333333333333334,0.8299319727891157,0.8299319727891157,0.8299319727891157,0.8299319727891157,0.8163265306122449,0.8163265306122449,0.8129251700680272,0.8129251700680272,0.8061224489795918,0.8061224489795918,0.8027210884353742,0.8027210884353742,0.8027210884353742,0.8027210884353742,0.8027210884353742,0.8027210884353742,0.8027210884353742,0.8027210884353742,0.8027210884353742,0.8027210884353742,0.8027210884353742,0.8027210884353742,0.8027210884353742,0.8027210884353742,0.8027210884353742,0.8027210884353742,0.8027210884353742,0.8027210884353742,0.8027210884353742,0.8027210884353742,0.8027210884353742,0.8027210884353742,0.8027210884353742,0.8027210884353742,0.8027210884353742,0.8027210884353742,0.8027210884353742,0.8027210884353742,0.8027210884353742,0.8027210884353742,0.8027210884353742,0.8027210884353742,0.8027210884353742,0.8027210884353742,0.8027210884353742,0.8027210884353742,0.8027210884353742,0.8027210884353742,0.8027210884353742,0.8027210884353742,0.8027210884353742,0.8027210884353742,0.8027210884353742,0.7993197278911565,0.7925170068027211,0.7857142857142857,0.7653061224489796,0.7448979591836735,0.7244897959183674,0.7074829931972789,0.6938775510204082,0.6802721088435374,0.6700680272108843,0.6632653061224489,0.6564625850340136,0.6496598639455783,0.6394557823129252,0.6394557823129252,0.6394557823129252,0.6394557823129252,0.6394557823129252,0.6394557823129252,0.6394557823129252,0.6394557823129252,0.6394557823129252,0.6394557823129252,0.6394557823129252,0.6394557823129252,0.6394557823129252,0.6394557823129252,0.6394557823129252,0.6394557823129252,0.6394557823129252,0.6394557823129252,0.6394557823129252,0.6394557823129252,0.6394557823129252,0.6394557823129252,0.6394557823129252,0.6428571428571429,0.6428571428571429,0.6428571428571429,0.6462585034013606,0.6496598639455783,0.6496598639455783,0.6530612244897959,0.6564625850340136,0.6564625850340136,0.6564625850340136,0.6598639455782312,0.6598639455782312,0.6632653061224489,0.6632653061224489,0.6632653061224489,0.6632653061224489,0.6632653061224489,0.6632653061224489,0.6632653061224489,0.6632653061224489,0.6632653061224489,0.6632653061224489,0.6632653061224489,0.6632653061224489,0.6632653061224489,0.6632653061224489,0.6632653061224489,0.6632653061224489,0.6632653061224489,0.6632653061224489,0.6632653061224489,0.6632653061224489,0.6632653061224489,0.6666666666666666,0.6666666666666666,0.6700680272108843,0.6700680272108843,0.6768707482993197,0.6768707482993197,0.6768707482993197,0.6768707482993197,0.6802721088435374,0.6802721088435374,0.6802721088435374,0.6802721088435374,0.6802721088435374,0.6802721088435374,0.6802721088435374,0.6802721088435374,0.6802721088435374,0.6802721088435374,0.6802721088435374,0.6836734693877551,0.6836734693877551,0.6836734693877551,0.6836734693877551,0.6836734693877551,0.6836734693877551,0.6836734693877551,0.6836734693877551,0.6836734693877551,0.6836734693877551,0.6836734693877551,0.6836734693877551,0.6836734693877551,0.6836734693877551,0.6836734693877551,0.6836734693877551,0.6836734693877551,0.6836734693877551,0.6836734693877551,0.6836734693877551,0.6836734693877551,0.6836734693877551,0.6836734693877551,0.6836734693877551,0.6836734693877551,0.6802721088435374,0.6768707482993197,0.6666666666666666,0.6428571428571429,0.6258503401360545,0.6122448979591837,0.5986394557823129,0.5680272108843537,0.5510204081632653,0.5306122448979592,0.5102040816326531,0.4931972789115646,0.47619047619047616,0.4557823129251701,0.43537414965986393,0.41156462585034015,0.3979591836734694,0.3877551020408163,0.38095238095238093,0.37755102040816324,0.3741496598639456,0.3741496598639456,0.3741496598639456,0.3741496598639456,0.3741496598639456,0.3741496598639456,0.3741496598639456,0.3741496598639456,0.3741496598639456,0.3741496598639456,0.3741496598639456,0.3741496598639456,0.3741496598639456,0.3741496598639456,0.3741496598639456,0.3741496598639456,0.3741496598639456,0.3741496598639456,0.3741496598639456,0.3741496598639456,0.3741496598639456,0.3741496598639456,0.3741496598639456,0.3741496598639456,0.3741496598639456,0.3741496598639456,0.3741496598639456,0.3741496598639456,0.3741496598639456,0.3741496598639456,0.3741496598639456,0.3741496598639456,0.3741496598639456,0.3741496598639456,0.3741496598639456,0.3741496598639456,0.3741496598639456,0.3741496598639456,0.3707482993197279,0.36394557823129253,0.36054421768707484,0.35374149659863946,0.3469387755102041,0.3401360544217687,0.3333333333333333,0.3333333333333333,0.32653061224489793,0.3231292517006803,0.3231292517006803,0.3231292517006803,0.3231292517006803,0.3231292517006803,0.3231292517006803,0.3231292517006803,0.3231292517006803,0.3231292517006803,0.3231292517006803,0.3231292517006803,0.3231292517006803,0.3231292517006803,0.3231292517006803,0.3231292517006803,0.3231292517006803,0.3231292517006803,0.3231292517006803,0.3231292517006803,0.3231292517006803,0.3231292517006803,0.3231292517006803,0.3231292517006803,0.3231292517006803,0.3231292517006803,0.3231292517006803,0.3299319727891156,0.3333333333333333,0.336734693877551,0.3435374149659864,0.35034013605442177,0.35714285714285715,0.36394557823129253,0.37755102040816324,0.38095238095238093,0.3945578231292517,0.4013605442176871,0.40476190476190477,0.40816326530612246,0.41156462585034015,0.41156462585034015,0.41496598639455784,0.4217687074829932,0.42517006802721086,0.42857142857142855,0.43197278911564624,0.4387755102040816,0.445578231292517,0.4489795918367347,0.4489795918367347,0.4489795918367347,0.4489795918367347,0.4489795918367347,0.4489795918367347,0.4489795918367347,0.4489795918367347,0.4489795918367347,0.4489795918367347,0.4489795918367347,0.4489795918367347,0.4489795918367347,0.4489795918367347,0.4489795918367347,0.4489795918367347,0.4489795918367347,0.4489795918367347,0.445578231292517,0.4421768707482993,0.43537414965986393,0.42857142857142855,0.4217687074829932,0.40816326530612246,0.4013605442176871,0.3945578231292517,0.3877551020408163,0.38095238095238093,0.3707482993197279,0.36054421768707484,0.35034013605442177,0.3401360544217687,0.3299319727891156,0.3231292517006803,0.3129251700680272,0.2925170068027211,0.2857142857142857,0.2789115646258503,0.272108843537415,0.2687074829931973,0.2619047619047619,0.2585034013605442,0.25510204081632654,0.25170068027210885,0.24829931972789115,0.24489795918367346,0.24489795918367346,0.24489795918367346,0.23809523809523808,0.23809523809523808,0.23469387755102042,0.23129251700680273,0.22789115646258504,0.21768707482993196,0.20408163265306123,0.19047619047619047,0.17346938775510204,0.16666666666666666,0.1598639455782313,0.1564625850340136,0.1564625850340136,0.15306122448979592,0.15306122448979592,0.14965986394557823,0.14625850340136054,0.14625850340136054,0.14625850340136054,0.14625850340136054,0.14625850340136054,0.14625850340136054,0.14625850340136054,0.14625850340136054,0.14625850340136054,0.14625850340136054,0.14625850340136054,0.14625850340136054,0.14625850340136054,0.14625850340136054,0.14625850340136054,0.14625850340136054,0.14625850340136054,0.14285714285714285,0.13945578231292516,0.1326530612244898,0.12244897959183673,0.09863945578231292,0.07482993197278912,0.061224489795918366,0.05442176870748299,0.047619047619047616,0.047619047619047616,0.04421768707482993,0.04421768707482993,0.04421768707482993,0.04421768707482993,0.04081632653061224,0.03741496598639456,0.034013605442176874,0.030612244897959183,0.027210884353741496,0.027210884353741496,0.023809523809523808,0.023809523809523808,0.02040816326530612,0.02040816326530612,0.02040816326530612,0.02040816326530612,0.02040816326530612,0.02040816326530612,0.02040816326530612,0.02040816326530612,0.02040816326530612,0.02040816326530612,0.02040816326530612,0.02040816326530612,0.02040816326530612,0.02040816326530612,0.02040816326530612,0.02040816326530612,0.02040816326530612,0.02040816326530612,0.02040816326530612,0.02040816326530612,0.02040816326530612,0.02040816326530612,0.02040816326530612,0.02040816326530612,0.02040816326530612,0.02040816326530612,0.02040816326530612,0.02040816326530612,0.02040816326530612,0.02040816326530612,0.02040816326530612,0.02040816326530612,0.017006802721088437,0.013605442176870748,0.013605442176870748,0.013605442176870748,0.013605442176870748,0.013605442176870748,0.013605442176870748,0.013605442176870748,0.013605442176870748,0.013605442176870748,0.013605442176870748,0.013605442176870748,0.013605442176870748,0.013605442176870748,0.013605442176870748,0.013605442176870748,0.013605442176870748,0.013605442176870748,0.013605442176870748,0.017006802721088437,0.047619047619047616,0.09523809523809523,0.15306122448979592,0.2108843537414966,0.2653061224489796,0.3163265306122449,0.35374149659863946,0.391156462585034,0.42517006802721086,0.4489795918367347,0.46938775510204084,0.4931972789115646,0.5204081632653061,0.54421768707483,0.5544217687074829,0.5782312925170068,0.6020408163265306,0.608843537414966,0.6224489795918368,0.6292517006802721,0.6428571428571429,0.6530612244897959,0.6768707482993197,0.6938775510204082,0.717687074829932,0.7278911564625851,0.7448979591836735,0.7517006802721088,0.7653061224489796,0.782312925170068,0.7959183673469388,0.8163265306122449,0.826530612244898,0.8367346938775511,0.8401360544217688,0.8401360544217688,0.8401360544217688,0.8401360544217688,0.8401360544217688,0.8435374149659864,0.8435374149659864,0.8435374149659864,0.8435374149659864,0.8435374149659864,0.8435374149659864,0.8435374149659864,0.8435374149659864,0.8435374149659864,0.8435374149659864,0.8435374149659864,0.8435374149659864,0.8435374149659864,0.8333333333333334,0.826530612244898,0.8163265306122449,0.8095238095238095,0.7993197278911565,0.7891156462585034,0.782312925170068,0.7755102040816326,0.7653061224489796,0.7517006802721088,0.7482993197278912,0.7414965986394558,0.7346938775510204,0.7346938775510204,0.7312925170068028,0.7312925170068028,0.7312925170068028,0.7312925170068028,0.7312925170068028,0.7312925170068028,0.7312925170068028,0.7312925170068028,0.7312925170068028,0.7312925170068028,0.7312925170068028,0.7312925170068028,0.7312925170068028,0.7312925170068028,0.7312925170068028,0.7312925170068028,0.7312925170068028,0.7312925170068028,0.7312925170068028,0.7312925170068028,0.7312925170068028,0.7312925170068028,0.7312925170068028,0.7312925170068028,0.7312925170068028,0.7312925170068028,0.7312925170068028,0.7312925170068028,0.7312925170068028,0.7312925170068028,0.7312925170068028,0.7312925170068028,0.7312925170068028,0.7312925170068028,0.7312925170068028,0.7312925170068028,0.7312925170068028,0.7312925170068028,0.7312925170068028,0.7312925170068028,0.7312925170068028,0.7312925170068028,0.7312925170068028,0.7312925170068028,0.7244897959183674,0.7108843537414966,0.6938775510204082,0.673469387755102,0.6462585034013606,0.608843537414966,0.5714285714285714,0.54421768707483,0.5238095238095238,0.5068027210884354,0.5,0.5,0.5,0.5,0.5,0.5,0.5,0.5,0.5238095238095238,0.5476190476190477,0.5850340136054422,0.6224489795918368,0.6836734693877551,0.7142857142857143,0.7380952380952381,0.7585034013605442,0.7789115646258503,0.7993197278911565,0.8197278911564626,0.8401360544217688,0.8605442176870748,0.8741496598639455,0.891156462585034,0.9149659863945578,0.9217687074829932,0.9319727891156463,0.935374149659864,0.9421768707482994,0.9421768707482994,0.9455782312925171,0.9489795918367347,0.9489795918367347,0.95578231292517,0.9591836734693877,0.9625850340136054,0.9693877551020408,0.9693877551020408,0.9693877551020408,0.9693877551020408,0.9693877551020408,0.9693877551020408,0.9693877551020408,0.9693877551020408,0.9693877551020408,0.9693877551020408,0.9693877551020408,0.9693877551020408,0.9693877551020408,0.9693877551020408,0.9693877551020408,0.9693877551020408,0.9693877551020408,0.9693877551020408,0.9693877551020408,0.9693877551020408,0.9693877551020408,0.9693877551020408,0.9659863945578231,0.9625850340136054,0.9489795918367347,0.9319727891156463,0.9013605442176871,0.8809523809523809,0.8605442176870748,0.8367346938775511,0.8197278911564626,0.7925170068027211,0.7721088435374149,0.7448979591836735,0.7108843537414966,0.6768707482993197,0.6462585034013606,0.5816326530612245,0.5408163265306123,0.5068027210884354,0.48299319727891155,0.46598639455782315,0.46258503401360546,0.4557823129251701,0.4557823129251701,0.4523809523809524,0.4523809523809524,0.4523809523809524,0.4523809523809524,0.4523809523809524,0.4523809523809524,0.4523809523809524,0.4523809523809524,0.4523809523809524,0.4523809523809524,0.4523809523809524,0.4523809523809524,0.4523809523809524,0.4523809523809524,0.4523809523809524,0.4523809523809524,0.4557823129251701,0.4557823129251701,0.4557823129251701,0.4557823129251701,0.4557823129251701,0.4557823129251701,0.4523809523809524,0.4489795918367347,0.4489795918367347,0.445578231292517,0.445578231292517,0.445578231292517,0.43197278911564624,0.42517006802721086,0.41496598639455784,0.3979591836734694,0.3843537414965986,0.3707482993197279,0.35714285714285715,0.336734693877551,0.3129251700680272,0.2857142857142857,0.2687074829931973,0.2585034013605442,0.23469387755102042,0.21768707482993196,0.20068027210884354,0.1870748299319728,0.18027210884353742,0.17346938775510204,0.17006802721088435,0.16666666666666666,0.16666666666666666,0.16326530612244897,0.16326530612244897,0.16326530612244897,0.16326530612244897,0.16326530612244897,0.16326530612244897,0.16326530612244897,0.16326530612244897,0.16326530612244897,0.16326530612244897,0.16326530612244897,0.16326530612244897,0.16326530612244897,0.16326530612244897,0.16326530612244897,0.16326530612244897,0.16326530612244897,0.16326530612244897,0.16326530612244897,0.16326530612244897,0.16326530612244897,0.16326530612244897,0.16326530612244897,0.16326530612244897,0.16326530612244897,0.16326530612244897,0.16326530612244897,0.16326530612244897,0.16326530612244897,0.16326530612244897,0.16326530612244897,0.16326530612244897,0.16326530612244897,0.16326530612244897,0.16326530612244897,0.16326530612244897,0.16326530612244897,0.17687074829931973,0.20748299319727892,0.2755102040816326,0.3299319727891156,0.3877551020408163,0.4489795918367347,0.5,0.5,0.5,0.5,0.6564625850340136,0.673469387755102,0.6836734693877551,0.6904761904761905,0.7006802721088435,0.7006802721088435,0.7006802721088435,0.7006802721088435,0.7006802721088435,0.7006802721088435,0.7006802721088435,0.7006802721088435,0.7006802721088435,0.7006802721088435,0.7006802721088435,0.7006802721088435,0.7040816326530612,0.717687074829932,0.7278911564625851,0.7346938775510204,0.7346938775510204,0.7346938775510204,0.7346938775510204,0.7346938775510204,0.7346938775510204,0.7346938775510204,0.7346938775510204,0.7346938775510204,0.7346938775510204,0.7346938775510204,0.7346938775510204,0.7346938775510204,0.7346938775510204,0.7346938775510204,0.7346938775510204,0.7346938775510204,0.7346938775510204,0.7346938775510204,0.7346938775510204,0.7346938775510204,0.7346938775510204,0.7346938775510204,0.7346938775510204,0.7346938775510204,0.7346938775510204,0.7346938775510204,0.7346938775510204,0.7346938775510204,0.7346938775510204,0.7346938775510204,0.7346938775510204,0.7346938775510204,0.7346938775510204,0.7346938775510204,0.7346938775510204,0.7346938775510204,0.7346938775510204,0.7346938775510204,0.7346938775510204,0.7346938775510204,0.7346938775510204,0.7346938775510204,0.7346938775510204,0.7346938775510204,0.7346938775510204,0.7346938775510204,0.7346938775510204,0.7346938775510204,0.7346938775510204,0.7346938775510204,0.7346938775510204,0.7346938775510204,0.7346938775510204,0.7346938775510204,0.7346938775510204,0.7346938775510204,0.7346938775510204,0.7346938775510204,0.7346938775510204,0.7346938775510204,0.7346938775510204,0.7346938775510204,0.7346938775510204,0.7346938775510204,0.7346938775510204,0.7346938775510204,0.7346938775510204,0.7346938775510204],"y":[-3.8769841269841288,1.3658730158730168,1.3658730158730168,1.3658730158730168,1.3658730158730168,1.3658730158730168,1.3563492063492073,1.3563492063492073,1.3563492063492073,1.3563492063492073,1.3563492063492073,1.3563492063492073,1.3563492063492073,1.3563492063492073,1.3563492063492073,1.3563492063492073,1.3563492063492073,1.3563492063492073,1.3563492063492073,1.3563492063492073,1.3563492063492073,1.3563492063492073,1.3563492063492073,1.3563492063492073,1.3658730158730168,1.3753968253968263,1.4325396825396834,1.889682539682541,2.9087301587301604,3.7373015873015896,3.8420634920634944,3.851587301587304,3.851587301587304,3.851587301587304,3.851587301587304,3.851587301587304,3.851587301587304,3.851587301587304,3.851587301587304,3.8420634920634944,3.6706349206349227,3.5753968253968273,3.5373015873015894,3.52777777777778,3.5182539682539704,3.5182539682539704,3.4992063492063514,3.489682539682542,3.461111111111113,3.4325396825396846,3.3944444444444466,3.3182539682539702,3.203968253968256,3.061111111111113,2.899206349206351,2.7277777777777796,2.5277777777777795,2.3277777777777793,2.0515873015873027,1.8706349206349218,1.7087301587301598,1.5944444444444454,1.442063492063493,1.3182539682539691,1.1849206349206358,1.0515873015873023,0.9563492063492071,0.8611111111111117,0.8039682539682546,0.7087301587301593,0.6515873015873022,0.613492063492064,0.594444444444445,0.5849206349206354,0.5849206349206354,0.5849206349206354,0.5849206349206354,0.5658730158730163,0.5563492063492068,0.5468253968253973,0.5373015873015877,0.5277777777777782,0.5182539682539687,0.5087301587301591,0.49920634920634965,0.4706349206349211,0.4420634920634925,0.4134920634920639,0.3944444444444448,0.3753968253968258,0.33730158730158766,0.29920634920634953,0.23253968253968285,0.17539682539682566,0.15634920634920663,0.15634920634920663,0.15634920634920663,0.15634920634920663,0.14682539682539708,0.13730158730158756,0.1182539682539685,0.10873015873015897,0.10873015873015897,0.10873015873015897,0.10873015873015897,0.10873015873015897,0.09920634920634944,0.09920634920634944,0.09920634920634944,0.09920634920634944,0.09920634920634944,0.09920634920634944,0.09920634920634944,0.09920634920634944,0.09920634920634944,0.09920634920634944,0.09920634920634944,0.09920634920634944,0.09920634920634944,0.09920634920634944,0.09920634920634944,0.09920634920634944,0.09920634920634944,0.09920634920634944,0.09920634920634944,0.09920634920634944,0.09920634920634944,0.09920634920634944,0.09920634920634944,0.09920634920634944,0.09920634920634944,0.09920634920634944,0.09920634920634944,0.09920634920634944,0.09920634920634944,0.09920634920634944,0.09920634920634944,0.10873015873015897,0.10873015873015897,0.1182539682539685,0.1182539682539685,0.1182539682539685,0.1182539682539685,0.12777777777777802,0.12777777777777802,0.12777777777777802,0.12777777777777802,0.14682539682539708,0.14682539682539708,0.14682539682539708,0.15634920634920663,0.17539682539682566,0.17539682539682566,0.17539682539682566,0.17539682539682566,0.17539682539682566,0.17539682539682566,0.17539682539682566,0.17539682539682566,0.17539682539682566,0.17539682539682566,0.17539682539682566,0.17539682539682566,0.17539682539682566,0.17539682539682566,0.15634920634920663,0.15634920634920663,0.15634920634920663,0.14682539682539708,0.14682539682539708,0.13730158730158756,0.13730158730158756,0.13730158730158756,0.12777777777777802,0.12777777777777802,0.1182539682539685,0.1182539682539685,0.10873015873015897,0.09920634920634944,0.09920634920634944,0.09920634920634944,0.0896825396825399,0.0896825396825399,0.0896825396825399,0.0896825396825399,0.0896825396825399,0.0896825396825399,0.0896825396825399,0.0896825396825399,0.0896825396825399,0.0896825396825399,0.0896825396825399,0.0896825396825399,0.0896825396825399,0.0896825396825399,0.0896825396825399,0.0896825396825399,0.0896825396825399,0.0896825396825399,0.0896825396825399,0.0896825396825399,0.0896825396825399,0.0896825396825399,0.0896825396825399,0.0896825396825399,0.0896825396825399,0.0896825396825399,0.0896825396825399,0.0896825396825399,0.0896825396825399,0.0896825396825399,0.0896825396825399,0.0896825396825399,0.0896825396825399,0.0896825396825399,0.0896825396825399,0.0896825396825399,0.0896825396825399,0.0896825396825399,0.0896825396825399,0.0896825396825399,0.0896825396825399,0.0896825396825399,0.0896825396825399,0.0896825396825399,0.0896825396825399,0.0896825396825399,0.0896825396825399,0.0896825396825399,0.0896825396825399,0.0896825396825399,0.0896825396825399,0.0896825396825399,0.0896825396825399,0.0896825396825399,0.0896825396825399,0.0896825396825399,0.0896825396825399,0.0896825396825399,0.0896825396825399,0.0896825396825399,0.0896825396825399,0.0896825396825399,0.0896825396825399,0.0896825396825399,0.0896825396825399,0.0896825396825399,0.0896825396825399,0.0896825396825399,0.0896825396825399,0.0896825396825399,0.0896825396825399,0.0896825396825399,0.0896825396825399,0.0896825396825399,0.0896825396825399,0.0896825396825399,0.0896825396825399,0.0896825396825399,0.0896825396825399,0.0896825396825399,0.0896825396825399,0.0896825396825399,0.0896825396825399,0.0896825396825399,0.0896825396825399,0.0896825396825399,0.0896825396825399,0.0896825396825399,0.0896825396825399,0.0896825396825399,0.0896825396825399,0.0896825396825399,0.0896825396825399,0.0896825396825399,0.0896825396825399,0.0896825396825399,0.0896825396825399,0.0896825396825399,0.0896825396825399,0.0896825396825399,0.0896825396825399,0.0896825396825399,0.0896825396825399,0.0896825396825399,0.0896825396825399,0.0896825396825399,0.0896825396825399,0.0896825396825399,0.0896825396825399,0.0896825396825399,0.0896825396825399,0.0896825396825399,0.0896825396825399,0.0896825396825399,0.0896825396825399,0.0896825396825399,0.0896825396825399,0.0896825396825399,0.0896825396825399,0.0896825396825399,0.0896825396825399,0.0896825396825399,0.0896825396825399,0.0896825396825399,0.0896825396825399,0.0896825396825399,0.0896825396825399,0.0896825396825399,0.0896825396825399,0.0896825396825399,0.0896825396825399,0.0896825396825399,0.0896825396825399,0.0896825396825399,0.0896825396825399,0.0896825396825399,0.0896825396825399,0.0896825396825399,0.0896825396825399,0.0896825396825399,0.0896825396825399,0.0896825396825399,0.0896825396825399,0.0896825396825399,0.0896825396825399,0.0896825396825399,0.0896825396825399,0.0896825396825399,0.0896825396825399,0.0896825396825399,0.0896825396825399,0.0896825396825399,0.0896825396825399,0.0896825396825399,0.0896825396825399,0.0896825396825399,0.0896825396825399,0.0896825396825399,0.0896825396825399,0.0896825396825399,0.0896825396825399,0.0896825396825399,0.0896825396825399,0.0896825396825399,0.0896825396825399,0.08015873015873039,0.08015873015873039,0.08015873015873039,0.08015873015873039,0.08015873015873039,0.08015873015873039,0.08015873015873039,0.07063492063492086,0.061111111111111324,0.05158730158730179,0.04206349206349227,0.023015873015873208,0.023015873015873208,0.01349206349206368,0.01349206349206368,-0.005555555555555378,-0.005555555555555378,-0.005555555555555378,-0.005555555555555378,-0.005555555555555378,-0.005555555555555378,-0.005555555555555378,-0.005555555555555378,-0.015079365079364908,-0.015079365079364908,-0.015079365079364908,-0.015079365079364908,-0.015079365079364908,-0.015079365079364908,-0.024603174603174436,-0.024603174603174436,-0.024603174603174436,-0.024603174603174436,-0.024603174603174436,-0.024603174603174436,-0.024603174603174436,-0.024603174603174436,-0.024603174603174436,-0.024603174603174436,-0.024603174603174436,-0.024603174603174436,-0.024603174603174436,-0.024603174603174436,-0.024603174603174436,-0.024603174603174436,-0.024603174603174436,-0.024603174603174436,-0.024603174603174436,-0.024603174603174436,-0.024603174603174436,-0.024603174603174436,-0.024603174603174436,-0.024603174603174436,-0.024603174603174436,-0.024603174603174436,-0.024603174603174436,-0.024603174603174436,-0.024603174603174436,-0.024603174603174436,-0.024603174603174436,-0.024603174603174436,-0.024603174603174436,-0.024603174603174436,-0.024603174603174436,-0.024603174603174436,-0.024603174603174436,-0.024603174603174436,-0.024603174603174436,-0.024603174603174436,-0.024603174603174436,-0.024603174603174436,-0.024603174603174436,-0.024603174603174436,-0.024603174603174436,-0.024603174603174436,-0.024603174603174436,-0.024603174603174436,-0.024603174603174436,-0.024603174603174436,-0.024603174603174436,-0.024603174603174436,-0.034126984126983964,-0.043650793650793496,-0.043650793650793496,-0.05317460317460302,-0.05317460317460302,-0.06269841269841255,-0.06269841269841255,-0.06269841269841255,-0.06269841269841255,-0.06269841269841255,-0.10079365079365067,-0.10079365079365067,-0.10079365079365067,-0.1103174603174602,-0.1103174603174602,-0.1103174603174602,-0.1103174603174602,-0.1103174603174602,-0.1103174603174602,-0.1103174603174602,-0.1103174603174602,-0.1103174603174602,-0.1103174603174602,-0.1103174603174602,-0.1103174603174602,-0.1103174603174602,-0.1103174603174602,-0.1103174603174602,-0.1103174603174602,-0.1103174603174602,-0.1103174603174602,-0.1103174603174602,-0.1103174603174602,-0.1103174603174602,-0.1103174603174602,-0.1103174603174602,-0.1103174603174602,-0.1103174603174602,-0.1103174603174602,-0.1103174603174602,-0.10079365079365067,-0.10079365079365067,-0.09126984126984114,-0.09126984126984114,-0.07222222222222208,-0.07222222222222208,-0.06269841269841255,-0.05317460317460302,-0.043650793650793496,-0.043650793650793496,-0.015079365079364908,0.003968253968254151,0.032539682539682736,0.04206349206349227,0.08015873015873039,0.09920634920634944,0.13730158730158756,0.14682539682539708,0.16587301587301614,0.17539682539682566,0.17539682539682566,0.19444444444444473,0.2134920634920638,0.2230158730158733,0.23253968253968285,0.23253968253968285,0.24206349206349237,0.24206349206349237,0.24206349206349237,0.2515873015873019,0.2515873015873019,0.2515873015873019,0.2515873015873019,0.2515873015873019,0.2515873015873019,0.2515873015873019,0.2515873015873019,0.2515873015873019,0.2515873015873019,0.2515873015873019,0.2515873015873019,0.2515873015873019,0.2515873015873019,0.24206349206349237,0.2230158730158733,0.2134920634920638,0.19444444444444473,0.14682539682539708,0.09920634920634944,0.07063492063492086,0.023015873015873208,-0.024603174603174436,-0.06269841269841255,-0.1103174603174602,-0.1484126984126983,-0.1769841269841269,-0.18650793650793643,-0.2055555555555555,-0.215079365079365,-0.23412698412698407,-0.23412698412698407,-0.2436507936507936,-0.2436507936507936,-0.2436507936507936,-0.2436507936507936,-0.2436507936507936,-0.2436507936507936,-0.2436507936507936,-0.2436507936507936,-0.2436507936507936,-0.2436507936507936,-0.2436507936507936,-0.23412698412698407,-0.23412698412698407,-0.23412698412698407,-0.22460317460317455,-0.22460317460317455,-0.22460317460317455,-0.22460317460317455,-0.2055555555555555,-0.19603174603174595,-0.19603174603174595,-0.19603174603174595,-0.19603174603174595,-0.19603174603174595,-0.19603174603174595,-0.19603174603174595,-0.19603174603174595,-0.19603174603174595,-0.19603174603174595,-0.19603174603174595,-0.19603174603174595,-0.19603174603174595,-0.19603174603174595,-0.19603174603174595,-0.18650793650793643,-0.16746031746031736,-0.1484126984126983,-0.11984126984126972,-0.09126984126984114,-0.09126984126984114,-0.07222222222222208,-0.07222222222222208,-0.06269841269841255,-0.06269841269841255,-0.06269841269841255,-0.06269841269841255,-0.06269841269841255,-0.06269841269841255,-0.06269841269841255,-0.06269841269841255,-0.06269841269841255,-0.06269841269841255,-0.06269841269841255,-0.06269841269841255,-0.06269841269841255,-0.06269841269841255,-0.06269841269841255,-0.06269841269841255,-0.06269841269841255,-0.06269841269841255,-0.06269841269841255,-0.06269841269841255,-0.06269841269841255,-0.06269841269841255,-0.06269841269841255,-0.06269841269841255,-0.06269841269841255,-0.06269841269841255,-0.06269841269841255,-0.06269841269841255,-0.06269841269841255,-0.06269841269841255,-0.06269841269841255,-0.06269841269841255,-0.06269841269841255,-0.06269841269841255,-0.06269841269841255,-0.06269841269841255,-0.06269841269841255,-0.06269841269841255,-0.06269841269841255,-0.06269841269841255,-0.05317460317460302,-0.05317460317460302,-0.043650793650793496,-0.043650793650793496,-0.043650793650793496,-0.034126984126983964,-0.024603174603174436,-0.024603174603174436,-0.024603174603174436,-0.015079365079364908,-0.015079365079364908,-0.005555555555555378,-0.005555555555555378,0.01349206349206368,0.01349206349206368,0.023015873015873208,0.023015873015873208,0.04206349206349227,0.04206349206349227,0.04206349206349227,0.04206349206349227,0.04206349206349227,0.05158730158730179,0.05158730158730179,0.05158730158730179,0.061111111111111324,0.061111111111111324,0.07063492063492086,0.08015873015873039,0.0896825396825399,0.09920634920634944,0.10873015873015897,0.1182539682539685,0.13730158730158756,0.15634920634920663,0.16587301587301614,0.1849206349206352,0.19444444444444473,0.20396825396825427,0.2134920634920638,0.2134920634920638,0.2230158730158733,0.24206349206349237,0.2515873015873019,0.26111111111111146,0.27063492063492095,0.2801587301587305,0.28968253968254004,0.28968253968254004,0.29920634920634953,0.29920634920634953,0.3087301587301591,0.3087301587301591,0.3277777777777781,0.3277777777777781,0.33730158730158766,0.33730158730158766,0.33730158730158766,0.33730158730158766,0.33730158730158766,0.33730158730158766,0.33730158730158766,0.33730158730158766,0.33730158730158766,0.33730158730158766,0.33730158730158766,0.33730158730158766,0.33730158730158766,0.33730158730158766,0.33730158730158766,0.33730158730158766,0.33730158730158766,0.33730158730158766,0.33730158730158766,0.33730158730158766,0.33730158730158766,0.33730158730158766,0.33730158730158766,0.33730158730158766,0.33730158730158766,0.33730158730158766,0.33730158730158766,0.33730158730158766,0.33730158730158766,0.33730158730158766,0.3468253968253972,0.35634920634920675,0.38492063492063533,0.43253968253968295,0.4801587301587306,0.5277777777777782,0.5849206349206354,0.6039682539682545,0.613492063492064,0.613492063492064,0.613492063492064,0.613492063492064,0.613492063492064,0.6230158730158736,0.6230158730158736,0.6230158730158736,0.6230158730158736,0.6230158730158736,0.6230158730158736,0.6230158730158736,0.6230158730158736,0.6230158730158736,0.6230158730158736,0.6230158730158736,0.6230158730158736,0.6230158730158736,0.6230158730158736,0.6230158730158736,0.6230158730158736,0.6230158730158736,0.6230158730158736,0.6230158730158736,0.6230158730158736,0.6230158730158736,0.6230158730158736,0.6230158730158736,0.6230158730158736,0.6230158730158736,0.6230158730158736,0.6230158730158736,0.6230158730158736,0.6230158730158736,0.6230158730158736,0.6230158730158736,0.6230158730158736,0.6230158730158736,0.6230158730158736,0.6230158730158736,0.6230158730158736,0.6230158730158736,0.6230158730158736,0.6230158730158736,0.6230158730158736,0.6230158730158736,0.6230158730158736,0.6230158730158736,0.6230158730158736,0.6230158730158736,0.6230158730158736,0.6230158730158736,0.6230158730158736,0.6230158730158736,0.6230158730158736,0.6230158730158736,0.6230158730158736,0.6230158730158736,0.6230158730158736,0.6230158730158736,0.6230158730158736,0.6230158730158736,0.6230158730158736,0.6230158730158736,0.6230158730158736,0.6230158730158736,0.6230158730158736,0.6230158730158736,0.6230158730158736,0.6230158730158736,0.6230158730158736,0.613492063492064,0.613492063492064,0.613492063492064,0.594444444444445,0.5849206349206354,0.5658730158730163,0.5563492063492068,0.5373015873015877,0.5182539682539687,0.49920634920634965,0.4801587301587306,0.4706349206349211,0.4611111111111115,0.43253968253968295,0.4230158730158734,0.4134920634920639,0.40396825396825436,0.3944444444444448,0.3944444444444448,0.3944444444444448,0.3944444444444448,0.3944444444444448,0.3944444444444448,0.3944444444444448,0.3944444444444448,0.3753968253968258,0.3753968253968258,0.3753968253968258,0.3753968253968258,0.3753968253968258,0.3753968253968258,0.3753968253968258,0.3753968253968258,0.3753968253968258,0.3753968253968258,0.3753968253968258,0.3753968253968258,0.3753968253968258,0.3753968253968258,0.3753968253968258,0.3753968253968258,0.3753968253968258,0.3753968253968258,0.3753968253968258,0.3753968253968258,0.3753968253968258,0.3753968253968258,0.3753968253968258,0.3753968253968258,0.3753968253968258,0.3753968253968258,0.3753968253968258,0.3753968253968258,0.3753968253968258,0.3753968253968258,0.3753968253968258,0.3753968253968258,0.3753968253968258,0.3753968253968258,0.3753968253968258,0.3753968253968258,0.3753968253968258,0.3753968253968258,0.3753968253968258,0.3753968253968258,0.3753968253968258,0.3753968253968258,0.3753968253968258,0.3753968253968258,0.3753968253968258,0.3753968253968258,0.3753968253968258,0.3753968253968258,0.3753968253968258,0.3753968253968258,0.3753968253968258,0.3753968253968258,0.3753968253968258,0.3753968253968258,0.3753968253968258,0.3753968253968258,0.3753968253968258,0.3753968253968258,0.3753968253968258,0.3753968253968258,0.3753968253968258,0.3753968253968258,0.3753968253968258,0.3753968253968258,0.3753968253968258,0.3753968253968258,0.3753968253968258,0.3753968253968258,0.3753968253968258,0.3753968253968258,0.3753968253968258,0.3753968253968258,0.3753968253968258,0.3753968253968258,0.3753968253968258,0.3753968253968258,0.3753968253968258,0.3753968253968258,0.3753968253968258,0.3753968253968258,0.3753968253968258,0.3753968253968258,0.375396825