[{"success":true,"trial_type":"fullscreen","trial_index":0,"time_elapsed":5665,"internal_node_id":"0.0-0.0","protocol_sum":"","subject_identifier":215,"subject_sum":[51,70,242,187,246,195,75,210,219,226,139,209,187,101,125,14,156,55,57,42,29,94,201,146,158,106,93,244,118,61,220,45],"subject_pair":107,"STUDY_ID":"669eec2e4270c76bc184a38e","PROLIFIC_PID":"669674e91798fcb58e3c281c","SESSION_ID":"669faef62c6c19466777e65e","practice_instructions":1,"leaderboard_instructions":0,"bonus":1,"reveal_word":true,"self_rating":"1","confidence":"98"},{"view_history":"[{\"page_index\":0,\"viewing_time\":4649.200000001118}]","rt":4651,"trial_type":"instructions","trial_index":1,"time_elapsed":10320,"internal_node_id":"0.0-1.0","protocol_sum":"","subject_identifier":215,"subject_sum":[51,70,242,187,246,195,75,210,219,226,139,209,187,101,125,14,156,55,57,42,29,94,201,146,158,106,93,244,118,61,220,45],"subject_pair":107,"STUDY_ID":"669eec2e4270c76bc184a38e","PROLIFIC_PID":"669674e91798fcb58e3c281c","SESSION_ID":"669faef62c6c19466777e65e","practice_instructions":1,"leaderboard_instructions":0,"bonus":1,"reveal_word":true,"self_rating":"1","confidence":"98"},{"view_history":"[{\"page_index\":0,\"viewing_time\":122594.19999999925}]","rt":122595.19999999925,"trial_type":"instructions","trial_index":2,"time_elapsed":132918,"internal_node_id":"0.0-2.0-0.0","protocol_sum":"","subject_identifier":215,"subject_sum":[51,70,242,187,246,195,75,210,219,226,139,209,187,101,125,14,156,55,57,42,29,94,201,146,158,106,93,244,118,61,220,45],"subject_pair":107,"STUDY_ID":"669eec2e4270c76bc184a38e","PROLIFIC_PID":"669674e91798fcb58e3c281c","SESSION_ID":"669faef62c6c19466777e65e","practice_instructions":1,"leaderboard_instructions":0,"bonus":1,"reveal_word":true,"self_rating":"1","confidence":"98"},{"rt":11306.199999999255,"responses":"{\"Q0\":\"... reveal the word with as <b>few letter guesses</b> as possible\"}","question_order":"[0]","trial_type":"survey-multi-choice","trial_index":3,"time_elapsed":144233,"internal_node_id":"0.0-2.0-1.0","protocol_sum":"","subject_identifier":215,"subject_sum":[51,70,242,187,246,195,75,210,219,226,139,209,187,101,125,14,156,55,57,42,29,94,201,146,158,106,93,244,118,61,220,45],"subject_pair":107,"correct":true,"test_part":"multichoice_nonpretend","STUDY_ID":"669eec2e4270c76bc184a38e","PROLIFIC_PID":"669674e91798fcb58e3c281c","SESSION_ID":"669faef62c6c19466777e65e","practice_instructions":1,"leaderboard_instructions":0,"bonus":1,"reveal_word":true,"self_rating":"1","confidence":"98"},{"view_history":"[{\"page_index\":0,\"viewing_time\":2330}]","rt":2331.39999999851,"trial_type":"instructions","trial_index":4,"time_elapsed":146569,"internal_node_id":"0.0-3.0","protocol_sum":"","subject_identifier":215,"subject_sum":[51,70,242,187,246,195,75,210,219,226,139,209,187,101,125,14,156,55,57,42,29,94,201,146,158,106,93,244,118,61,220,45],"subject_pair":107,"STUDY_ID":"669eec2e4270c76bc184a38e","PROLIFIC_PID":"669674e91798fcb58e3c281c","SESSION_ID":"669faef62c6c19466777e65e","practice_instructions":1,"leaderboard_instructions":0,"bonus":1,"reveal_word":true,"self_rating":"1","confidence":"98"},{"word":"ZEBRA","click_log":{"letter":["","Z","E","B","R","A"],"t":[0,75031.40000000037,76708.59999999963,79976.29999999888,83966.59999999963,85035.09999999963],"hit":[null,1,1,1,1,1],"asked":["","Z","ZE","ZEB","ZEBR","ZEBRA"],"word_state":["_____","Z____","ZE___","ZEB__","ZEBR_","ZEBRA"]},"hover_log":{"letter":["?","?","?","?","?","?","?","?","?","?","?","?","?","?","?","?","?","?","?","?","?","?","?","?","?","?","?","?","?","?","?","?","?","?","?","?","?","?","?","?","?","?","?","?","?","?","?","?","?","?","?","?","?","?","?","?","?","?","?","?","?","?","?","?","?","?","?","?","?","?","?","?","?","?","?","?","?","?","?","?","?","?","?","?","?","?","?","?","?","?","?","?","?","?","?","?","?","?","?","?","?","?","?","?","?","?","?","?","?","?","?","?","?","?","?","?","?","?","?","?","?","?","?","?","?","?","?","?","?","?","?","?","?","?","?","?","?","?","?","?","?","?","?","?","?","?","?","?","?","?","?","?","?","?","?","?","?","?","?","?","?","?","?","?","?","?","?","?","?","?","?","?","?","?","?","?","?","?","?","?","?","?","?","?","?","?","?","?","?","?","?","?","?","?","?","?","?","?","?","?","?","?","?","?","?","?","?","?","?","?","?","?","?","?","?","?","?","?","?","?","?","?","?","?","?","?","?","?","?","?","?","?","?","?","?","?","?","?","?","?","?","?","?","?","?","?","?","?","?","?","?","?","?","?","?","?","?","?","?","?","?","?","?","?","?","?","?","?","?","?","?","?","?","?","?","?","?","?","?","?","?","?","?","?","?","?","?","?","?","?","?","?","?","?","?","?","?","?","?","?","?","?","?","?","?","?","?","?","?","?","?","?","?","?","?","?","?","?","?","?","?","?","?","?","?","?","?","?","?","?","?","?","?","?","?","?","?","?","?","?","?","?","?","?","?","?","?","?","?","?","?","?","?","?","?","?","?","?","?","?","?","?","?","?","?","?","?","?","?","?","?","?","?","?","?","?","?","?","?","?","?","?","?","?","?","?","?","?","?","?","?","?","?","?","?","?","?","?","?","?","?","?","?","?","?","?","?","?","?","?","?","?","?","?","?","?","?","?","?","?","?","?","?","?","?","?","?","?","?","?","?","?","?","?","?","?","?","?","?","?","?","?","?","?","?","?","?","?","?","?","?","?","?","?","?","?","?","?","?","?","?","?","?","?","?","?","?","?","?","?","?","?","?","?","?","?","?","?","?","?","?","?","?","?","?","?","?","?","?","?","?","?","?","?","?","?","?","?","?","?","?","?","?","?","?","?","?","?","?","?","?","?","?","?","?","?","?","?","?","?","?","?","?","?","?","?","?","?","?","?","?","?","?","?","?","?","?","?","?","?","?","?","?","?","?","?","?","?","?","?","?","?","?","?","?","?","?","?","?","?","?","?","?","?","?","?","?","?","?","?","?","?","?","?","?","?","?","?","?","?","?","?","?","?","?","?","?","?","?","?","?","?","?","?","?","?","?","?","?","?","?","?","?","?","?","?","?","?","?","?","?","?","?","?","?","?","?","?","?","?","?","?","?","?","?","?","?","?","?","?","?","?","?","?","?","?","?","?","?","?","?","?","?","?","?","?","?","?","?","?","?","?","?","?","?","?","?","?","?","?","?","?","?","?","?","?","?","?","?","?","?","?","?","?","?","?","?","?","?","?","?","?","?","?","?","?","?","?","?","?","?","?","?","?","?","?","?","?","?","?","?","?","?","?","?","?","?","?","?","?","?","?","?","?","?","?","?","?","?","?","?","?","?","?","?","?","?","?","?","?","?","?","?","?","?","?","?","?","?","?","?","?","?","?","?","?","?","?","?","?","?","?","?","?","?","?","?","?","?","?","?","?","?","?","?","?","?","?","?","?","?","?","?","?","?","?","?","?","?","?","?","?","?","?","?","?","?","?","?","?","?","?","?","?","?","?","?","?","?","?","?","?","?","?","?","?","?","?","?","?","?","?","?","?","?","?","?","?","?","?","?","?","?","?","?","?","?","?","?","?","?","?","?","?","?","?","?","?","?","?","?","?","?","?","?","?","?","?","?","?","?","?","?","?","?","?","?","?","?","?","?","?","?","?","?","?","?","?","?","?","?","?","?","?","?","?","?","?","?","?","?","?","?","?","?","?","?","?","?","?","?","?","?","?","?","?","?","?","?","?","?","?","?","?","?","?","?","?","?","?","?","?","?","?","?","?","?","?","?","?","?","?","?","?","?","?","?","?","?","?","?","?","?","?","?","?","?","?","?","?","?","?","?","?","?","?","?","?","?","?","?","?","?","?","?","?","?","?","?","?","?","?","?","?","?","?","?","?","?","?","?","?","?","?","?","?","?","?","?","?","?","?","?","?","?","?","?","?","?","?","?","?","?","?","?","?","?","?","?","?","?","?","?","?","?","?","?","?","?","?","?","?","?","?","?","?","?","?","?","?","?","?","?","?","?","?","?","?","?","?","?","?","?","?","?","?","?","?","?","?","?","?","?","?","?","?","?","?","?","?","?","?","?","?","?","?","?","?","?","?","?","?","?","?","?","?","?","?","?","?","?","?","?","?","?","?","?","?","?","?","?","?","?","?","?","?","?","?","?","?","?","?","?","?","?","?","?","?","?","?","?","?","?","?","?","?","?","?","?","?","?","?","?","?","?","?","?","?","?","?","?","?","?","?","?","?","?","?","?","?","?","?","?","?","?","?","?","?","?","?","?","?","?","?","?","?","?","?","?","?","?","?","?","?","?","?","?","?","?","?","?","?","?","?","?","?","?","?","?","?","?","?","?","?","?","?","?","?","?","?","?","?","?","?","?","?","?","?","?","?","?","?","?","?","?","?","?","?","?","?","?","?","?","?","?","?","?","?","?","?","?","?","?","?","?","?","?","?","?","?","?","?","?","?","?","?","?","?","?","?","?","?","?","?","?","?","?","?","?","?","?","?","?","?","?","?","?","?","?","?","?","?","?","?","?","?","?","?","?","?","?","?","?","?","?","?","?","?","?","?","?","?","?","?","?","?","?","?","?","?","?","?","?","?","?","?","?","?","?","?","?","?","?","?","?","?","?","?","?","?","?","?","?","?","?","?","?","?","?","?","?","?","?","?","?","?","?","?","?","?","?","?","?","?","?","?","?","?","?","?","?","?","?","?","?","?","?","?","?","?","?","?","?","?","?","?","?","?","?","?","?","?","?","?","?","?","?","?","?","?","?","?","?","?","?","?","?","?","?","?","?","?","?","?","?","?","?","?","?","?","?","?","?","?","?","?","?","?","?","?","?","?","?","?","?","?","?","?","?","?","?","?","?","?","?","?","?","?","?","?","?","?","?","?","?","?","?","?","?","?","?","?","?","?","?","?","?","?","?","?","?","?","?","?","?","?","?","?","?","?","?","?","?","?","?","?","?","?","?","?","?","?","?","?","?","?","?","?","?","?","?","?","?","?","?","?","?","?","?","?","?","?","?","?","?","?","?","?","?","?","?","?","?","?","?","?","?","?","?","?","?","?","?","?","?","?","?","?","?","?","?","?","?","?","?","?","?","?","?","?","?","?","?","?","?","?","?","?","?","?","?","?","?","?","?","?","?","?","?","?","?","?","?","?","?","?","?","?","?","?","?","?","?","?","?","?","?","?","?","?","?","?","?","?","?","?","?","?","?","?","?","?","?","?","?","?","?","?","?","?","?","?","?","?","?","?","?","?","?","?","?","?","?","?","?","?","?","?","?","?","?","?","?","?","?","?","?","?","?","?","?","?","?","?","?","?","?","?","?","?","?","?","?","?","?","?","?","?","?","?","?","?","?","?","?","?","?","?","?","?","?","?","?","?","?","?","?","?","?","?","?","?","?","?","?","?","?","?","?","?","?","?","?","?","?","?","?","?","?","?","?","?","?","?","?","?","?","?","?","?","?","?","?","?","?","?","?","?","?","?","?","?","?","?","?","?","?","?","?","?","?","?","?","?","?","?","?","?","?","?","?","?","?","?","?","?","?","?","?","?","?","?","?","?","?","?","?","?","?","?","?","?","?","?","?","?","?","?","?","?","?","?","?","?","?","?","?","?","?","?","?","?","?","?","?","?","?","?","?","?","?","?","?","?","?","?","?","?","?","?","?","?","?","?","?","?","?","?","?","?","?","?","?","?","?","?","?","?","?","?","?","?","?","?","?","?","?","?","?","?","?","?","?","?","?","?","?","?","?","?","?","?","?","?","?","?","?","?","?","?","?","?","?","?","?","?","?","?","?","?","?","?","?","?","?","?","?","?","?","?","?","?","?","?","?","?","?","?","?","?","?","?","?","?","?","?","?","?","?","?","?","?","?","?","?","?","?","?","?","?","?","?","?","?","?","?","?","?","?","?","?","?","?","?","?","?","?","?","?","?","?","?","?","?","?","?","?","?","?","?","?","?","?","?","?","?","?","?","?","?","?","?","?","?","?","?","?","?","?","?","?","?","?","?","?","?","?","?","?","?","?","?","?","?","?","?","?","?","?","?","?","?","?","?","?","?","?","?","?","?","?","?","?","?","?","?","?","?","?","?","?","?","?","?","?","?","?","?","?","?","?","?","?","?","?","?","?","?","?","?","?","?","?","?","?","?","?","?","?","?","?","?","?","?","?","?","?","?","?","?","?","?","?","?","?","?","?","?","?","?","?","?","?","?","?","?","?","?","?","?","?","?","?","?","?","?","?","?","?","?","?","?","?","?","?","?","?","?","?","?","?","?","?","?","?","?","?","?","?","?","?","?","?","?","?","?","?","?","?","?","?","?","?","?","?","?","?","?","?","?","?","?","?","?","?","?","?","?","?","?","?","?","?","?","?","?","?","?","?","?","?","?","?","?","?","?","?","?","?","?","?","?","?","?","?","?","?","?","?","?","?","?","?","?","?","?","?","?","?","?","?","?","?","?","?","?","?","?","?","?","?","?","?","?","?","?","?","?","?","?","?","?","?","?","?","?","?","?","?","?","?","?","?","?","?","?","?","?","?","?","?","?","?","?","?","?","?","?","?","?","?","?","?","?","?","?","?","?","?","?","?","?","?","?","?","?","?","?","?","?","?","?","?","?","?","?","?","?","?","?","?","?","?","?","?","?","?","?","?","?","?","?","?","?","?","?","?","?","?","?","?","?","?","?","?","?","?","?","?","?","?","?","?","?","?","?","?","?","?","?","?","?","?","?","?","?","?","?","?","?","?","?","?","?","?","?","?","?","?","?","?","?","?","?","?","?","?","?","?","?","?","?","?","?","?","?","?","?","?","?","?","?","?","?","?","?","?","?","?","?","?","?","?","?","?","?","?","?","?","?","?","?","?","?","?","?","?","?","?","?","?","?","?","?","?","?","?","?","?","?","?","?","?","?","?","?","?","?","?","?","?","?","?","?","?","?","?","?","?","?","?","?","?","?","?","?","?","?","?","?","?","?","?","?","?","?","?","?","?","?","?","?","?","?","?","?","?","?","?","?","?","?","?","?","?","?","?","?","?","?","?","?","?","?","?","?","?","?","?","?","?","?","?","?","?","?","?","?","?","?","?","?","?","?","?","?","?","?","?","?","?","?","?","?","?","?","?","?","?","?","?","?","?","?","?","?","?","?","?","?","?","?","?","?","?","?","?","?","?","?","?","?","?","?","?","?","?","?","?","?","?","?","?","?","?","?","?","?","?","?","?","?","?","?","?","?","?","?","?","?","?","?","?","?","?","?","?","?","?","?","?","?","?","?","?","?","?","?","?","?","?","?","?","?","?","?","?","?","?","?","?","?","?","?","?","?","?","?","?","?","?","?","?","?","?","?","?","?","?","?","?","?","?","?","?","?","?","?","?","?","?","?","?","?","?","?","?","?","?","?","?","?","?","?","?","?","?","?","?","?","?","?","?","?","?","?","?","?","?","?","?","?","?","?","?","?","?","?","?","?","?","?","?","?","?","?","?","?","?","?","?","?","?","?","?","?","?","?","?","?","?","?","?","?","?","?","?","?","?","?","?","?","?","?","?","?","?","?","?","?","?","?","?","?","?","?","?","?","?","?","?","?","?","?","?","?","?","?","?","?","?","?","?","?","?","?","?","?","?","?","?","?","?","?","?","?","?","?","?","?","?","?","?","?","?","?","?","?","?","?","?","?","?","?","?","?","?","?","?","?","?","?","?","?","?","?","?","?","?","?","?","?","?","?","?","?","?","?","?","?","?","?","?","?","?","?","?","?","?","?","?","?","?","?","?","?","?","?","?","?","?","?","?","?","?","?","?","?","?","?","?","?","?","?","?","?","?","?","?","?","?","?","?","?","?","?","?","?","?","?","?","?","?","?","?","?","?","?","?","?","?","?","?","?","?","?","?","?","?","?","?","?","?","?","?","?","?","?","?","?","?","?","?","?","?","?","?","?","?","?","?","?","?","?","?","?","?","?","?","?","?","?","?","?","?","?","?","?","?","?","?","?","?","?","?","?","?","?","?","?","?","?","?","?","?","?","?","?","?","?","?","?","?","?","?","?","?","?","?","?","?","?","?","?","?","?","?","?","?","?","?","?","?","?","?","?","?","?","?","?","?","?","?","?","?","?","?","?","?","?","?","?","?","?","?","?","?","?","?","?","?","?","?","?","?","?","?","?","?","?","?","?","?","?","?","?","?","?","?","?","?","?","?","?","?","?","?","?","?","?","?","?","?","?","?","?","?","?","?","?","?","?","?","?","?","?","?","?","?","?","?","?","?","?","?","?","?","?","?","?","?","?","?","?","?","?","?","?","?","?","?","?","?","?","?","?","?","?","?","?","?","?","?","?","?","?","?","?","?","?","?","?","?","?","?","?","?","?","?","?","?","?","?","?","?","?","?","?","?","?","?","?","?","?","?","?","?","?","?","?","?","?","?","?","?","?","?","?","?","?","?","?","?","?","?","?","?","?","?","?","?","?","?","?","?","?","?","?","?","?","?","?","?","?","?","?","?","?","?","?","?","?","?","?","?","?","?","?","?","?","?","?","?","?","?","?","?","?","?","?","?","?","?","?","?","?","?","?","?","?","?","?","?","?","?","?","?","?","?","?","?","?","?","?","?","?","?","?","?","?","?","?","?","?","?","?","?","?","?","?","?","?","?","?","?","?","?","?","?","?","?","?","?","?","?","?","?","?","?","?","?","?","?","?","?","?","?","?","?","?","?","?","?","?","?","?","?","?","?","?","?","?","?","?","?","?","?","?","?","?","?","?","?","?","?","?","?","?","?","?","?","?","?","?","?","?","?","?","?","?","?","?","?","?","?","?","?","?","?","?","?","?","?","?","?","?","?","?","?","?","?","?","?","?","?","?","?","?","?","?","?","?","?","?","?","?","?","?","?","?","?","?","?","?","?","?","?","?","?","?","?","?","?","?","?","?","?","?","?","?","?","?","?","?","?","?","?","?","?","?","?","?","?","?","?","?","?","?","?","?","?","?","?","?","?","?","?","?","?","?","?","?","?","?","?","?","?","?","?","?","?","?","?","?","?","?","?","?","?","?","?","?","?","?","?","?","?","?","?","?","?","?","?","?","?","?","?","?","?","?","?","?","?","?","?","?","?","?","?","?","?","?","?","?","?","?","?","?","?","?","?","?","?","?","?","?","?","?","?","?","?","?","?","?","?","?","?","?","?","?","?","?","?","?","?","?","?","?","?","?","?","?","?","?","?","?","?","?","?","?","?","?","?","?","?","?","?","?","?","?","?","?","?","?","?","?","?","?","?","?","?","?","?","?","?","?","?","?","?","?","?","?","?","?","?","?","?","?","?","?","?","?","?","?","?","?","?","?","?","?","?","?","?","?","?","?","?","?","?","?","?","?","?","?","?","?","?","?","?","?","?","?","?","?","?","?","?","?","?","?","?","?","?","?","?","?","?","?","?","?","?","?","?","?","?","?","?","?","?","?","?","?","?","?","?","?","?","?","?","?","?","?","?","?","?","?","?","?","?","?","?","?","?","?","?","?","?","?","?","?","?","?","?","?","?","?","?","?","?","?","?","?","?","?","?","?","?","?","?","?","?","?","?","?","?","?","?","?","?","?","?","?","?","?","?","?","?","?","?","?","?","?","?","?","?","?","?","?","?","?","?","?","?","?","?","?","?","?","?","?","?","?","?","?","?","?","?","?","?","?","?","?","?","?","?","?","?","?","?","?","?","?","?","?","?","?","?","?","?","?","?","?","?","?","?","?","?","?","?","?","?","?","?","?","?","?","?","?","?","?","?","?","?","?","?","?","?","?","?","?","?","?","?","?","?","?","?","?","?","?","?","?","?","?","?","?","?","?","?","?","?","?","?","?","?","?","?","?","?","?","?","?","?","?","?","?","?","?","?","?","?","?","?","?","?","?","?","?","?","?","?","?","?","?","?","?","?","?","?","?","?","?","?","?","?","?","?","?","?","?","?","?","?","?","?","?","?","?","?","?","?","?","?","?","?","?","?","?","?","?","?","?","?","?","?","?","?","?","?","?","?","?","?","?","?","?","?","?","?","?","?","?","?","?","?","?","?","?","?","?","?","?","?","?","?","?","?","?","?","?","?","?","?","?","?","?","?","?","?","?","?","?","?","?","?","?","?","?","?","?","?","?","?","?","?","?","?","?","?","?","?","?","?","?","?","?","?","?","?","?","?","?","?","?","?","?","?","?","?","?","?","?","?","?","?","?","?","?","?","?","?","?","?","?","?","?","?","?","?","?","?","?","?","?","?","?","?","?","?","?","?","?","?","?","?","?","?","?","?","?","?","?","?","?","?","?","?","?","?","?","?","?","?","?","?","?","?","?","?","?","?","?","?","?","?","?","?","?","?","?","?","?","?","?","?","?","?","?","?","?","?","?","?","?","?","?","?","?","?","?","?","?","?","?","?","?","?","?","?","?","?","?","?","?","?","?","?","?","?","?","?","?","?","?","?","?","?","?","?","?","?","?","?","?","?","?","?","?","?","?","?","?","?","?","?","?","?","?","?","?","?","?","?","?","?","?","?","?","?","?","?","?","?","?","?","?","?","?","?","?","?","?","?","?","?","?","?","?","?","?","?","?","?","?","?","?","?","?","?","?","?","?","?","?","?","?","?","?","?","?","?","?","?","?","?","?","?","?","?","?","?","?","?","?","?","?","?","?","?","?","?","?","?","?","?","?","?","?","?","?","?","?","?","?","?","?","?","?","?","?","?","?","?","?","?","?","?","?","?","?","?","?","?","?","?","?","?","?","?","?","?","?","?","?","?","?","?","?","?","?","?","?","?","?","?","?","?","?","?","?","?","?","?","?","?","?","?","?","?","?","?","?","?","?","?","?","?","?","?","?","?","?","?","?","?","?","?","?","?","?","?","?","?","?","?","?","?","?","?","?","?","?","?","?","?","?","?","?","?","?","?","?","?","?","?","?","?","?","?","?","?","?","?","?","?","?","?","?","?","?","?","?","?","?","?","?","?","?","?","?","?","?","?","?","?","?","?","?","?","?","?","?","?","?","?","?","?","?","?","?","?","?","?","?","?","?","?","?","?","?","?","?","?","?","?","?","?","?","?","?","?","?","?","?","?","?","?","?","?","?","?","?","?","?","?","?","?","?","?","?","?","?","?","?","?","?","?","?","?","?","?","?","?","?","?","?","?","?","?","?","?","?","?","?","?","?","?","?","?","?","?","?","?","?","?","?","?","?","?","?","?","?","?","?","?","?","?","?","?","?","?","?","?","?","?","?","?","?","?","?","?","?","?","?","?","?","?","?","?","?","?","?","?","?","?","?","?","?","?","?","?","?","?","?","?","?","?","?","?","?","?","?","?","?","?","?","?","?","?","?","?","?","?","?","?","?","?","?","?","?","?","?","?","?","?","?","?","?","?","?","?","?","?","?","?","?","?","?","?","?","?","?","?","?","?","?","?","?","?","?","?","?","?","?","?","?","?","?","?","?","?","?","?","?","?","?","?","?","?","?","?","?","?","?","?","?","?","?","?","?","?","?","?","?","?","K","K","K","K","K","K","K","K","K","K","K","K","K","K","K","K","K","K","K","K","K","K","K","?","L","?","X","Y","Y","Y","Y","Y","Y","Y","Y","Y","Y","Y","Y","Y","Y","Y","Y","Y","Y","Y","Y","Y","?","?","?","Z","Z","Z","Z","Z","Z","Z","Z","Z","Z","Z","Z","Z","Z","Z","Z","Z","Z","Z","Z","Z","Z","Z","Z","Z","Z","Z","Z","Z","Z","Z","Z","Z","Z","Z","Z","Z","Z","Z","Z","Z","Z","Z","Z","Z","Z","Z","Z","Z","Z","Z","Z","Z","Z","Z","Z","Z","Z","Z","Z","Z","Z","Z","Z","Z","Z","Z","Z","Z","Z","Z","Z","Z","?","?","?","?","D","?","?","?","?","?","?","?","?","?","?","?","?","?","?","?","?","?","?","D","D","?","E","E","E","E","E","E","E","E","E","E","E","E","E","E","E","E","E","E","E","E","E","E","E","E","E","E","E","E","E","E","E","E","E","E","E","E","E","E","E","E","E","E","E","E","E","E","E","E","E","E","E","E","E","E","E","E","E","E","E","E","E","E","E","E","E","E","E","E","E","E","E","E","E","E","E","?","?","?","M","M","M","M","M","?","?","?","?","?","?","?","?","?","?","?","?","?","?","?","?","?","?","?","?","?","?","?","?","?","?","?","?","?","?","?","?","?","?","?","?","?","?","?","?","?","?","?","?","?","?","?","M","M","M","M","M","M","M","M","M","M","M","M","?","?","?","?","?","?","?","?","?","?","?","?","?","?","?","?","?","?","?","?","?","?","?","?","?","?","?","?","M","M","?","?","?","C","C","C","C","C","C","C","C","C","?","?","?","?","?","?","?","?","?","B","B","B","B","B","B","B","B","B","B","B","B","B","B","B","B","B","B","B","B","B","B","B","B","B","B","B","B","B","B","B","B","B","B","B","B","B","B","B","B","B","B","B","B","B","B","B","B","B","B","B","B","B","B","B","B","B","B","B","B","B","B","B","B","B","B","B","B","B","B","?","C","?","?","?","N","N","N","N","N","N","N","N","N","N","N","N","N","N","N","N","N","N","N","N","?","?","?","?","?","?","?","?","?","?","?","?","?","?","?","?","?","?","?","?","?","?","?","?","?","?","?","?","?","?","?","?","?","?","?","?","?","?","?","?","?","?","?","?","W","W","?","?","?","?","?","?","?","?","?","?","?","?","?","?","?","?","?","?","?","?","?","?","?","?","?","?","?","?","?","?","?","?","?","X","X","X","X","X","X","X","X","X","?","?","?","Y","Y","Y","Y","Y","Y","Y","Y","Y","Y","Y","Y","Y","Y","Y","Y","?","?","?","?","?","?","?","?","Q","Q","Q","Q","Q","Q","Q","Q","Q","Q","Q","Q","Q","Q","Q","Q","Q","?","?","?","R","R","R","R","R","R","R","R","R","R","R","R","R","R","R","R","R","R","R","R","R","R","R","R","R","R","R","R","R","R","R","R","R","R","R","R","R","R","R","R","R","R","R","R","R","R","R","Q","?","?","D","C","?","B","A","A","A","A","A","A","A","A","A","A","A","A","A","A","A","A","A","A","A","A","A","A","A","A","A","A","A","A","A","A","A","A","A","A","A","A","A","A","A","A","A","A","A","A","A","A","A","A","A","A","A","A","A","A","A","A","A","A","A","A","A","A","A","A","A","A","A","A","A","A","A","A","A","A","?","L","?","W","?","?","?","?","?","?","?","?","?","?","?","?","?","?","?","?","?","?","?","?","?","?","?","?","?","?","?","?","?","?","?","?","?","?","?","?","?","?","?","?","?","?","?","?","?","?","?","?","?","?","?","?","?","?","?","?","?","?","?","?","?","?","?","?","?","?","?","?","?","?","?","?","?","?","?","?","?","?","?","?","?"],"t":[160,191,211,232,249,266,286,299,316,334,348,364,380,396,413,431,448,465,481,497,514,530,547,563,579,597,613,630,646,663,679,696,712,729,746,763,779,796,813,829,846,863,879,896,913,929,946,963,979,996,1013,1029,1046,1063,1080,1096,1113,1129,1146,1164,1179,1196,1213,1229,1246,1264,1279,1296,1313,1329,1345,1362,1379,1397,1412,1429,1446,1462,1479,1497,1514,1530,1545,1562,1586,1602,1619,1639,1654,1667,1682,1698,1714,1733,1749,1764,1780,1798,1814,1832,1848,1865,1882,1898,1914,1932,1947,1964,1980,1998,2013,2031,2048,2065,2081,2096,2115,2131,2147,2164,2180,2197,2213,2231,2248,2264,2281,2297,2314,2330,2348,2364,2380,2398,2415,2430,2447,2464,2481,2497,2514,2531,2548,2570,2594,2611,2628,2645,2661,2677,2694,2713,2727,2744,2761,2777,2794,2811,2827,2844,2861,2878,2894,2911,2927,2944,2961,2978,2994,3010,3028,3044,3061,3084,3097,3113,3129,3153,3168,3183,3196,3212,3228,3245,3262,3278,3295,3311,3328,3346,3362,3378,3395,3411,3428,3445,3461,3478,3495,3511,3529,3545,3561,3578,3594,3612,3628,3645,3661,3679,3695,3711,3728,3745,3761,3778,3795,3811,3829,3845,3861,3878,3894,3911,3928,3945,3961,3978,3995,4011,4029,4044,4061,4078,4095,4111,4128,4145,4161,4178,4196,4211,4228,4245,4261,4278,4294,4311,4328,4345,4361,4378,4394,4411,4428,4446,4461,4479,4495,4511,4528,4546,4562,4580,4602,4627,4644,4660,4677,4694,4710,4727,4744,4760,4776,4794,4810,4827,4844,4860,4877,4893,4910,4927,4943,4961,4977,4993,5010,5028,5044,5060,5076,5093,5110,5126,5143,5160,5178,5193,5210,5226,5243,5260,5276,5293,5310,5327,5344,5360,5377,5393,5410,5427,5443,5460,5476,5494,5510,5527,5544,5560,5577,5594,5610,5628,5644,5660,5678,5696,5710,5728,5744,5761,5777,5794,5811,5827,5844,5861,5878,5894,5910,5927,5944,5961,5977,5994,6011,6028,6044,6066,6078,6102,6114,6129,6145,6161,6178,6195,6212,6228,6245,6262,6278,6295,6312,6329,6345,6362,6378,6395,6412,6430,6445,6462,6478,6495,6511,6528,6545,6562,6579,6595,6614,6630,6645,6662,6678,6695,6712,6728,6745,6762,6778,6796,6812,6828,6845,6862,6878,6895,6911,6928,6945,6962,6981,6995,7011,7028,7045,7062,7078,7097,7111,7128,7145,7161,7178,7195,7212,7228,7245,7262,7279,7295,7312,7328,7345,7362,7378,7395,7412,7428,7445,7461,7478,7495,7512,7528,7547,7571,7585,7604,7619,7633,7651,7666,7679,7696,7712,7728,7746,7763,7779,7795,7813,7829,7845,7862,7879,7895,7912,7929,7945,7963,7979,7995,8012,8031,8046,8062,8078,8095,8112,8128,8147,8161,8179,8195,8212,8230,8246,8263,8279,8295,8312,8330,8345,8361,8379,8396,8412,8428,8445,8462,8478,8498,8512,8529,8545,8562,8580,8595,8612,8630,8645,8661,8679,8701,8727,8743,8759,8776,8792,8809,8826,8843,8859,8876,8892,8909,8926,8942,8959,8976,8992,9009,9026,9046,9060,9083,9096,9110,9126,9143,9160,9177,9193,9210,9227,9243,9260,9277,9293,9310,9326,9343,9360,9376,9393,9410,9427,9443,9460,9476,9493,9510,9527,9543,9560,9578,9593,9610,9626,9644,9661,9676,9693,9710,9727,9743,9760,9776,9793,9810,9826,9843,9860,9876,9893,9910,9926,9943,9960,9976,9993,10010,10026,10043,10060,10077,10093,10109,10126,10143,10159,10177,10193,10210,10226,10243,10260,10278,10293,10309,10326,10343,10359,10376,10393,10409,10426,10443,10459,10476,10493,10524,10534,10551,10575,10592,10609,10625,10642,10659,10675,10692,10709,10725,10742,10759,10775,10793,10809,10825,10842,10859,10875,10892,10909,10925,10942,10959,10975,10992,11008,11027,11042,11059,11075,11092,11108,11125,11142,11159,11175,11194,11209,11225,11242,11259,11275,11292,11309,11325,11342,11358,11375,11392,11409,11425,11442,11458,11475,11492,11509,11525,11542,11559,11575,11592,11610,11625,11642,11659,11675,11692,11708,11725,11742,11758,11775,11795,11808,11825,11842,11858,11875,11892,11909,11925,11942,11959,11975,11992,12009,12032,12050,12065,12092,12108,12125,12142,12158,12175,12192,12208,12225,12242,12260,12276,12293,12309,12325,12341,12358,12375,12392,12408,12426,12442,12458,12475,12492,12508,12525,12542,12558,12575,12591,12609,12625,12641,12658,12675,12692,12708,12725,12742,12758,12776,12792,12808,12825,12842,12858,12875,12891,12908,12925,12942,12958,12975,12991,13008,13025,13042,13058,13075,13092,13108,13125,13142,13160,13176,13192,13208,13226,13241,13259,13275,13291,13308,13325,13342,13359,13375,13392,13409,13426,13444,13463,13477,13493,13510,13527,13542,13560,13575,13592,13609,13627,13642,13659,13676,13692,13709,13726,13742,13760,13775,13792,13809,13826,13842,13859,13875,13892,13909,13925,13942,13959,13975,13994,14009,14026,14042,14059,14075,14092,14109,14125,14142,14158,14175,14192,14210,14228,14242,14259,14275,14292,14309,14325,14342,14359,14375,14392,14408,14425,14443,14459,14476,14493,14509,14525,14542,14559,14578,14592,14608,14626,14642,14659,14675,14692,14708,14725,14742,14758,14775,14792,14809,14825,14842,14859,14875,14892,14909,14925,14942,14958,14976,14993,15015,15029,15042,15059,15075,15092,15108,15125,15143,15158,15175,15192,15209,15226,15242,15258,15275,15292,15308,15325,15341,15358,15375,15393,15410,15426,15441,15458,15475,15492,15508,15526,15542,15558,15575,15591,15608,15625,15642,15658,15675,15692,15712,15725,15744,15758,15775,15791,15809,15825,15842,15858,15875,15892,15909,15925,15942,15958,15975,15991,16008,16026,16044,16058,16075,16093,16110,16125,16141,16158,16175,16191,16209,16225,16241,16258,16275,16291,16308,16325,16342,16358,16375,16392,16408,16425,16441,16463,16477,16498,16513,16527,16541,16558,16575,16591,16608,16625,16641,16658,16675,16691,16708,16726,16741,16758,16775,16791,16808,16825,16842,16858,16875,16891,16908,16924,16941,16958,16975,16991,17008,17025,17041,17058,17074,17091,17108,17125,17141,17158,17175,17192,17208,17225,17241,17260,17275,17291,17308,17324,17342,17358,17374,17391,17408,17424,17441,17458,17475,17491,17508,17525,17541,17558,17574,17591,17608,17625,17641,17658,17676,17692,17708,17725,17741,17758,17774,17791,17808,17825,17841,17858,17874,17891,17908,17925,17942,17964,17983,17998,18024,18040,18058,18074,18090,18107,18124,18140,18157,18174,18190,18207,18224,18240,18257,18274,18290,18307,18324,18340,18357,18374,18391,18407,18424,18440,18457,18474,18490,18507,18524,18540,18557,18574,18591,18607,18624,18640,18657,18675,18691,18707,18724,18741,18757,18774,18790,18807,18824,18840,18857,18874,18890,18907,18923,18940,18957,18973,18990,19007,19024,19040,19057,19076,19091,19108,19124,19142,19158,19174,19191,19208,19224,19241,19258,19274,19291,19322,19362,19377,19392,19408,19425,19442,19459,19475,19492,19509,19525,19542,19559,19575,19592,19609,19625,19642,19658,19675,19694,19709,19725,19742,19759,19775,19792,19809,19825,19842,19859,19875,19892,19909,19925,19943,19958,19975,19992,20008,20029,20042,20058,20075,20092,20109,20125,20142,20159,20175,20192,20209,20225,20242,20258,20275,20292,20308,20325,20342,20358,20375,20392,20409,20425,20442,20459,20475,20492,20509,20525,20542,20558,20575,20591,20609,20625,20642,20658,20675,20692,20708,20725,20742,20758,20775,20792,20809,20827,20851,20861,20879,20904,20923,20938,20957,20973,20990,21007,21023,21039,21057,21073,21090,21107,21124,21140,21156,21173,21189,21206,21223,21240,21256,21273,21290,21306,21323,21340,21356,21373,21389,21407,21423,21440,21456,21473,21490,21506,21523,21540,21556,21573,21590,21607,21623,21640,21656,21673,21690,21706,21723,21739,21757,21773,21789,21806,21823,21839,21856,21873,21889,21906,21923,21940,21956,21973,21990,22006,22023,22039,22056,22073,22089,22106,22123,22139,22157,22173,22189,22206,22223,22239,22256,22273,22289,22312,22325,22347,22362,22374,22390,22407,22423,22440,22457,22473,22490,22507,22523,22541,22557,22573,22590,22607,22623,22640,22657,22673,22690,22707,22723,22740,22757,22773,22790,22807,22823,22840,22857,22874,22890,22907,22924,22940,22957,22973,22990,23007,23024,23040,23057,23073,23091,23107,23124,23140,23157,23174,23190,23207,23223,23240,23257,23273,23290,23307,23323,23340,23357,23373,23390,23407,23423,23440,23457,23473,23490,23507,23523,23540,23556,23573,23591,23608,23623,23641,23657,23673,23690,23706,23724,23740,23757,23789,23805,23825,23840,23857,23873,23890,23907,23925,23940,23956,23974,23990,24007,24024,24040,24057,24073,24090,24107,24123,24140,24156,24173,24190,24206,24223,24240,24257,24273,24290,24306,24323,24340,24356,24373,24390,24407,24423,24441,24456,24473,24490,24506,24523,24540,24556,24573,24590,24606,24624,24640,24656,24673,24690,24706,24723,24740,24756,24773,24791,24807,24824,24839,24856,24873,24890,24907,24923,24940,24956,24974,24990,25007,25024,25039,25056,25073,25090,25106,25123,25140,25156,25173,25190,25206,25224,25240,25257,25274,25293,25311,25339,25355,25372,25388,25405,25422,25439,25455,25472,25489,25505,25522,25539,25555,25572,25589,25605,25622,25639,25657,25672,25689,25705,25722,25739,25755,25772,25788,25805,25822,25839,25855,25872,25889,25905,25922,25939,25955,25972,25988,26006,26023,26039,26055,26072,26088,26105,26123,26139,26155,26172,26189,26205,26222,26239,26255,26272,26288,26305,26322,26338,26356,26372,26388,26405,26422,26438,26455,26472,26488,26505,26522,26538,26555,26572,26588,26605,26622,26639,26655,26672,26688,26705,26722,26738,26755,26776,26790,26810,26828,26855,26872,26888,26905,26921,26938,26955,26971,26988,27005,27022,27038,27056,27072,27089,27106,27122,27139,27156,27172,27189,27206,27222,27240,27257,27273,27289,27306,27324,27339,27356,27372,27389,27406,27422,27439,27456,27472,27489,27506,27522,27539,27555,27572,27589,27606,27623,27639,27656,27672,27689,27706,27722,27739,27756,27772,27789,27806,27822,27839,27856,27873,27889,27906,27922,27939,27956,27972,27989,28006,28023,28039,28055,28072,28089,28106,28122,28139,28156,28172,28189,28206,28222,28239,28257,28273,28295,28308,28326,28340,28357,28373,28390,28406,28423,28440,28456,28473,28490,28507,28523,28540,28556,28573,28590,28607,28623,28641,28657,28673,28689,28708,28723,28740,28756,28773,28794,28806,28823,28839,28856,28873,28890,28906,28923,28940,28956,28973,28989,29007,29028,29040,29056,29073,29089,29107,29123,29140,29156,29173,29190,29207,29223,29240,29257,29275,29290,29306,29323,29340,29359,29375,29389,29406,29423,29440,29456,29473,29490,29506,29523,29540,29556,29572,29590,29606,29622,29640,29656,29673,29690,29707,29723,29742,29763,29782,29796,29821,29837,29854,29871,29887,29904,29921,29938,29954,29971,29987,30004,30022,30038,30054,30071,30088,30104,30121,30138,30154,30171,30187,30204,30221,30238,30254,30271,30288,30304,30321,30337,30354,30371,30388,30404,30421,30438,30454,30471,30488,30507,30521,30538,30555,30571,30588,30605,30622,30638,30655,30672,30688,30705,30722,30738,30756,30772,30788,30805,30821,30839,30855,30871,30888,30905,30922,30938,30957,30972,30988,31005,31022,31038,31055,31071,31089,31105,31122,31138,31155,31171,31188,31205,31223,31240,31256,31272,31291,31305,31322,31339,31355,31372,31388,31405,31422,31438,31455,31472,31488,31505,31522,31538,31555,31571,31588,31605,31621,31638,31655,31672,31688,31705,31721,31738,31755,31771,31788,31805,31821,31838,31855,31871,31888,31905,31921,31939,31956,31971,31989,32005,32022,32039,32054,32071,32088,32105,32121,32138,32155,32171,32188,32205,32221,32238,32255,32271,32289,32305,32321,32338,32355,32371,32388,32405,32421,32439,32455,32471,32488,32504,32521,32538,32554,32571,32588,32605,32621,32638,32655,32671,32688,32705,32721,32738,32757,32772,32794,32806,32822,32838,32854,32871,32888,32905,32921,32938,32954,32971,32988,33004,33023,33038,33054,33071,33088,33104,33121,33138,33154,33171,33188,33204,33221,33238,33254,33271,33288,33304,33321,33337,33355,33371,33388,33405,33421,33438,33454,33471,33489,33504,33521,33538,33555,33571,33588,33604,33621,33638,33654,33671,33687,33704,33721,33738,33754,33771,33788,33804,33821,33837,33854,33871,33888,33904,33921,33939,33954,33971,33988,34004,34022,34037,34054,34071,34087,34104,34121,34138,34154,34171,34188,34204,34221,34246,34266,34280,34303,34320,34337,34353,34370,34386,34403,34420,34437,34453,34470,34486,34503,34520,34536,34553,34570,34587,34603,34620,34637,34653,34670,34687,34703,34720,34737,34753,34770,34786,34803,34820,34836,34853,34870,34886,34903,34920,34937,34953,34970,34986,35003,35021,35037,35054,35070,35087,35104,35120,35138,35154,35171,35187,35204,35221,35238,35254,35271,35287,35304,35320,35337,35355,35370,35388,35404,35421,35438,35454,35471,35487,35504,35521,35537,35554,35570,35587,35604,35620,35637,35654,35671,35688,35704,35720,35737,35771,35788,35808,35820,35837,35853,35870,35887,35904,35920,35937,35954,35970,35987,36004,36021,36037,36054,36070,36089,36104,36120,36137,36154,36170,36187,36204,36221,36237,36254,36270,36287,36304,36321,36337,36354,36370,36387,36404,36420,36437,36454,36471,36487,36504,36520,36538,36554,36570,36587,36604,36620,36637,36654,36670,36687,36705,36720,36737,36753,36770,36787,36804,36820,36837,36854,36870,36887,36903,36920,36937,36953,36970,36987,37004,37021,37037,37053,37070,37087,37104,37120,37137,37154,37170,37187,37203,37220,37237,37254,37278,37310,37336,37352,37369,37386,37403,37419,37436,37452,37469,37486,37503,37519,37536,37553,37569,37586,37603,37620,37636,37653,37669,37686,37703,37720,37736,37753,37769,37786,37802,37819,37836,37852,37869,37886,37902,37919,37936,37953,37969,37986,38003,38020,38036,38052,38069,38086,38103,38119,38136,38152,38169,38186,38202,38219,38236,38252,38269,38286,38302,38319,38336,38353,38369,38386,38402,38419,38436,38452,38469,38486,38502,38519,38536,38552,38569,38585,38602,38619,38635,38652,38669,38686,38702,38719,38735,38752,38785,38805,38821,38836,38853,38870,38886,38903,38920,38937,38953,38970,38986,39003,39020,39036,39053,39070,39086,39103,39122,39136,39153,39169,39186,39203,39220,39236,39253,39270,39286,39303,39320,39336,39353,39370,39386,39403,39419,39437,39453,39470,39486,39503,39520,39536,39553,39569,39586,39603,39619,39636,39653,39670,39686,39704,39720,39736,39753,39770,39786,39803,39819,39836,39853,39870,39887,39903,39919,39936,39953,39970,39986,40003,40020,40036,40053,40069,40086,40103,40119,40136,40153,40169,40186,40203,40220,40236,40253,40270,40286,40308,40325,40352,40369,40385,40402,40418,40435,40452,40469,40485,40502,40519,40535,40552,40568,40585,40602,40619,40635,40652,40668,40685,40702,40718,40735,40752,40768,40785,40802,40819,40835,40852,40868,40885,40902,40918,40935,40952,40968,40985,41002,41019,41035,41052,41068,41085,41102,41118,41135,41152,41168,41185,41202,41218,41235,41252,41268,41285,41302,41318,41335,41352,41368,41385,41402,41418,41435,41452,41468,41485,41502,41519,41535,41551,41568,41585,41601,41618,41635,41652,41668,41685,41701,41719,41735,41752,41769,41786,41810,41827,41851,41868,41885,41902,41919,41935,41952,41968,41985,42001,42019,42035,42051,42068,42085,42102,42118,42135,42152,42168,42185,42202,42218,42235,42251,42268,42285,42301,42318,42335,42351,42368,42385,42401,42418,42435,42452,42468,42485,42502,42518,42535,42551,42568,42585,42601,42618,42635,42651,42669,42685,42701,42718,42735,42751,42768,42786,42801,42818,42834,42851,42868,42884,42901,42918,42935,42951,42968,42984,43001,43018,43035,43051,43068,43085,43101,43118,43135,43151,43168,43184,43201,43218,43234,43251,43269,43286,43308,43324,43351,43368,43387,43401,43418,43435,43451,43468,43485,43501,43518,43534,43551,43568,43585,43602,43618,43635,43651,43668,43684,43701,43718,43734,43751,43767,43785,43801,43818,43835,43851,43868,43884,43901,43918,43934,43951,43969,43985,44001,44018,44034,44051,44068,44085,44101,44117,44134,44151,44167,44184,44201,44218,44234,44251,44268,44284,44301,44318,44334,44351,44368,44384,44401,44418,44434,44451,44468,44485,44501,44518,44535,44551,44568,44584,44601,44617,44634,44651,44668,44685,44701,44718,44734,44751,44775,44805,44827,44842,44868,44884,44901,44917,44934,44951,44968,44984,45001,45017,45034,45051,45068,45088,45101,45118,45135,45151,45168,45185,45201,45218,45235,45251,45268,45285,45301,45318,45335,45352,45368,45385,45402,45418,45435,45452,45468,45485,45502,45518,45551,45560,45584,45601,45617,45634,45651,45667,45684,45701,45717,45734,45750,45767,45784,45800,45817,45834,45851,45867,45884,45900,45917,45935,45951,45967,45984,46001,46017,46034,46051,46067,46084,46100,46118,46134,46150,46167,46184,46201,46218,46234,46250,46267,46318,46330,46356,46369,46385,46401,46418,46435,46451,46468,46485,46502,46518,46535,46551,46568,46585,46601,46618,46635,46651,46668,46684,46701,46718,46735,46751,46768,46785,46801,46818,46835,46851,46868,46885,46901,46918,46935,46951,46968,46985,47001,47018,47034,47051,47068,47085,47102,47118,47135,47152,47168,47184,47201,47218,47234,47251,47268,47285,47301,47318,47334,47351,47368,47384,47402,47418,47435,47451,47468,47484,47502,47518,47535,47552,47569,47585,47601,47618,47634,47652,47668,47684,47701,47718,47744,47756,47777,47790,47817,47833,47850,47867,47883,47900,47917,47934,47950,47967,47983,48000,48017,48036,48050,48067,48085,48102,48118,48135,48151,48167,48184,48201,48218,48234,48251,48268,48284,48301,48317,48334,48351,48368,48384,48401,48418,48434,48451,48467,48484,48502,48517,48534,48551,48567,48584,48601,48617,48634,48651,48667,48684,48700,48717,48735,48751,48767,48784,48801,48817,48834,48851,48867,48885,48901,48918,48934,48950,48967,48985,49000,49017,49034,49051,49067,49084,49100,49117,49134,49151,49168,49184,49201,49218,49234,49251,49268,49291,49317,49333,49350,49367,49383,49400,49416,49433,49450,49466,49483,49500,49517,49533,49550,49566,49583,49601,49616,49633,49650,49666,49683,49700,49716,49734,49749,49766,49783,49800,49816,49833,49850,49866,49883,49900,49916,49933,49950,49966,49983,49999,50016,50033,50050,50069,50083,50099,50116,50133,50150,50166,50183,50200,50217,50233,50250,50266,50283,50300,50316,50333,50349,50366,50383,50400,50417,50433,50449,50466,50483,50500,50516,50534,50550,50566,50584,50600,50616,50633,50649,50666,50683,50700,50716,50734,50750,50773,50786,50800,50817,50834,50850,50867,50884,50900,50917,50934,50950,50967,50983,51000,51017,51034,51050,51067,51084,51100,51117,51134,51150,51167,51184,51200,51217,51234,51250,51267,51283,51300,51317,51333,51350,51367,51383,51400,51417,51433,51450,51467,51483,51500,51517,51534,51551,51566,51583,51600,51617,51634,51650,51667,51683,51700,51717,51733,51751,51767,51783,51800,51816,51833,51851,51867,51884,51900,51917,51934,51950,51967,51983,52000,52017,52033,52050,52067,52083,52100,52117,52133,52151,52167,52183,52200,52218,52234,52259,52273,52285,52300,52316,52333,52350,52367,52383,52400,52417,52433,52450,52467,52483,52500,52516,52533,52551,52567,52583,52600,52618,52634,52650,52666,52683,52700,52717,52733,52750,52766,52783,52800,52816,52833,52850,52866,52883,52900,52916,52934,52950,52966,52983,53000,53017,53033,53049,53066,53083,53100,53116,53133,53150,53166,53184,53199,53216,53233,53250,53266,53283,53300,53316,53333,53350,53366,53383,53400,53416,53433,53450,53466,53483,53499,53516,53533,53550,53566,53583,53600,53617,53634,53650,53666,53683,53701,53717,53741,53755,53782,53799,53816,53832,53849,53865,53882,53899,53915,53932,53949,53965,53982,53999,54015,54032,54049,54065,54082,54099,54115,54132,54149,54165,54182,54199,54215,54232,54248,54265,54282,54299,54318,54332,54349,54365,54382,54399,54415,54432,54449,54465,54482,54499,54515,54532,54549,54566,54582,54598,54616,54632,54649,54665,54682,54698,54715,54732,54749,54765,54782,54799,54815,54832,54849,54865,54882,54899,54915,54932,54949,54965,54982,54999,55016,55033,55049,55066,55082,55099,55116,55132,55149,55166,55183,55200,55219,55240,55258,55282,55298,55315,55333,55348,55365,55382,55398,55415,55432,55448,55465,55482,55498,55515,55532,55548,55566,55582,55598,55615,55632,55648,55665,55682,55698,55715,55732,55748,55765,55782,55798,55815,55832,55848,55865,55881,55898,55915,55932,55948,55965,55981,55998,56015,56033,56049,56065,56082,56098,56115,56131,56148,56165,56182,56198,56215,56231,56248,56265,56282,56299,56315,56331,56348,56365,56381,56398,56415,56432,56448,56465,56481,56498,56515,56532,56548,56566,56581,56598,56615,56632,56648,56665,56683,56699,56724,56738,56751,56766,56782,56799,56815,56832,56849,56866,56882,56899,56916,56932,56949,56965,56982,56999,57016,57032,57048,57065,57082,57099,57115,57132,57149,57165,57182,57199,57215,57232,57249,57265,57282,57300,57316,57332,57349,57366,57383,57399,57415,57432,57448,57466,57482,57499,57515,57532,57549,57566,57583,57598,57616,57632,57650,57666,57682,57699,57715,57732,57748,57765,57782,57799,57815,57832,57849,57865,57882,57899,57915,57932,57949,57965,57982,57999,58015,58032,58049,58065,58082,58099,58115,58132,58149,58167,58183,58206,58219,58232,58248,58265,58282,58299,58315,58332,58348,58365,58382,58399,58415,58432,58449,58465,58482,58499,58515,58532,58548,58565,58582,58599,58615,58633,58649,58665,58682,58699,58715,58732,58748,58765,58782,58798,58815,58832,58848,58865,58882,58898,58915,58932,58949,58965,58981,58998,59016,59032,59049,59065,59082,59098,59115,59131,59148,59165,59182,59198,59215,59232,59248,59267,59282,59298,59315,59331,59348,59365,59382,59399,59415,59432,59448,59465,59481,59498,59515,59532,59548,59565,59581,59598,59615,59631,59663,59674,59698,59716,59732,59748,59765,59782,59798,59815,59832,59848,59865,59881,59898,59915,59931,59949,59965,59981,59998,60016,60032,60048,60065,60081,60098,60115,60131,60148,60165,60181,60198,60215,60231,60249,60265,60282,60298,60315,60331,60348,60365,60382,60398,60414,60431,60448,60465,60481,60498,60514,60531,60548,60565,60581,60598,60614,60632,60648,60665,60682,60698,60715,60731,60749,60765,60781,60798,60815,60831,60848,60865,60881,60898,60915,60931,60948,60965,60981,60999,61015,61050,61070,61086,61114,61130,61148,61164,61180,61197,61214,61230,61247,61264,61280,61297,61314,61330,61347,61364,61381,61397,61414,61430,61447,61464,61480,61497,61513,61530,61547,61564,61580,61597,61615,61631,61647,61664,61681,61697,61714,61731,61747,61764,61780,61797,61814,61830,61848,61864,61881,61898,61914,61930,61947,61964,61980,61997,62014,62031,62047,62064,62080,62097,62113,62130,62147,62163,62180,62197,62213,62230,62247,62263,62280,62297,62314,62330,62347,62364,62380,62397,62413,62430,62447,62463,62480,62497,62513,62530,62547,62570,62587,62604,62631,62647,62663,62680,62697,62713,62730,62747,62763,62781,62796,62813,62830,62847,62863,62880,62898,62914,62930,62947,62964,62980,62996,63014,63030,63047,63063,63080,63096,63113,63130,63146,63163,63180,63197,63213,63230,63247,63263,63280,63297,63314,63332,63347,63363,63380,63396,63413,63430,63446,63463,63480,63496,63513,63530,63547,63563,63580,63597,63613,63630,63647,63663,63680,63697,63714,63730,63746,63763,63780,63796,63813,63830,63848,63863,63882,63897,63914,63930,63948,63964,63981,63997,64014,64033,64047,64064,64081,64099,64120,64134,64148,64164,64180,64197,64214,64230,64247,64264,64281,64297,64315,64331,64347,64364,64380,64397,64413,64430,64447,64464,64480,64497,64514,64530,64547,64563,64580,64597,64614,64630,64648,64663,64680,64697,64714,64730,64747,64763,64780,64797,64814,64830,64847,64864,64880,64897,64913,64931,64947,64964,64980,64997,65014,65031,65047,65064,65081,65097,65114,65130,65147,65164,65180,65197,65214,65230,65250,65264,65280,65297,65314,65330,65347,65363,65380,65397,65414,65430,65447,65463,65480,65497,65513,65530,65547,65564,65581,65602,65620,65646,65663,65681,65696,65714,65730,65746,65764,65780,65797,65813,65830,65847,65865,65880,65897,65913,65930,65947,65963,65980,65997,66014,66030,66047,66063,66080,66097,66113,66130,66147,66163,66180,66197,66213,66230,66247,66263,66280,66296,66313,66330,66347,66364,66380,66398,66413,66430,66447,66466,66480,66497,66514,66530,66547,66563,66580,66597,66613,66630,66648,66664,66680,66697,66714,66730,66746,66763,66780,66797,66813,66830,66846,66863,66881,66897,66913,66930,66947,66963,66981,66997,67013,67031,67047,67065,67081,67104,67117,67132,67146,67163,67180,67197,67213,67230,67246,67263,67280,67296,67313,67330,67346,67363,67380,67396,67413,67430,67446,67463,67480,67496,67513,67532,67548,67563,67580,67596,67613,67630,67646,67664,67680,67696,67714,67730,67747,67763,67780,67796,67813,67829,67846,67863,67880,67896,67913,67930,67946,67963,67980,67996,68013,68032,68047,68063,68080,68096,68113,68130,68146,68163,68179,68196,68213,68230,68246,68263,68280,68296,68313,68330,68346,68363,68379,68396,68413,68429,68446,68463,68480,68496,68513,68529,68546,68563,68582,68597,68620,68633,68647,68663,68679,68696,68713,68730,68747,68763,68779,68797,68813,68829,68846,68863,68879,68896,68913,68929,68946,68963,68979,68996,69013,69030,69046,69063,69080,69096,69113,69129,69146,69163,69179,69196,69213,69229,69246,69263,69279,69296,69312,69329,69346,69363,69379,69396,69413,69429,69446,69463,69479,69496,69512,69529,69546,69562,69579,69596,69613,69629,69646,69664,69680,69696,69712,69730,69746,69762,69779,69797,69813,69829,69846,69862,69879,69896,69912,69929,69946,69962,69979,69996,70013,70030,70046,70063,70080,70101,70118,70129,70145,70162,70180,70196,70212,70229,70246,70262,70279,70296,70312,70329,70346,70362,70379,70396,70412,70429,70446,70462,70479,70496,70512,70529,70546,70562,70579,70596,70612,70629,70646,70663,70680,70695,70712,70729,70746,70762,70779,70796,70812,70829,70846,70862,70879,70896,70912,70929,70945,70962,70979,70995,71013,71029,71045,71062,71079,71096,71112,71131,71146,71162,71180,71196,71212,71229,71245,71262,71279,71296,71312,71329,71346,71362,71379,71395,71412,71429,71445,71462,71479,71496,71512,71529,71545,71562,71584,71596,71618,71632,71646,71662,71680,71695,71712,71729,71745,71762,71779,71795,71812,71829,71845,71862,71879,71896,71912,71929,71945,71962,71979,71995,72012,72029,72045,72062,72079,72096,72112,72129,72145,72162,72178,72195,72212,72229,72245,72262,72279,72295,72313,72329,72345,72362,72379,72395,72412,72428,72445,72462,72479,72495,72512,72528,72545,72562,72579,72595,72612,72628,72645,72662,72680,72695,72712,72729,72746,72762,72780,72795,72812,72829,72846,72862,72879,72895,72912,72929,72946,72962,72979,72995,73013,73030,73047,73064,73080,73099,73118,73133,73149,73164,73199,73220,73238,73258,73276,73289,73304,73321,73339,73364,73380,73396,73413,73429,73443,73458,73470,73485,73501,73519,73533,73550,73567,73583,73600,73617,73633,73651,73668,73683,73703,73718,73736,73755,73772,73803,73822,73846,73867,73885,73903,73919,73932,73946,73964,73979,73996,74013,74031,74049,74065,74081,74102,74119,74139,74155,74172,74188,74204,74220,74239,74255,74271,74287,74303,74317,74335,74349,74372,74386,74398,74415,74432,74447,74465,74482,74500,74515,74533,74550,74566,74585,74601,74619,74638,74658,74671,74695,74711,74730,74746,74763,74780,74797,74813,74830,74845,74862,74879,74902,74915,74932,74949,74966,74983,74999,75020,75042,75071,75086,75101,75116,75133,75148,75168,75183,75199,75215,75232,75248,75266,75282,75300,75315,75333,75350,75366,75382,75399,75415,75433,75449,75469,75487,75506,75529,75546,75563,75585,75601,75625,75653,75670,75686,75703,75719,75734,75750,75766,75784,75801,75821,75838,75860,75876,75896,75913,75931,75951,75970,75988,76007,76024,76041,76057,76076,76093,76114,76133,76150,76167,76188,76216,76240,76255,76271,76295,76312,76328,76348,76363,76379,76396,76412,76430,76446,76464,76479,76496,76512,76529,76546,76563,76585,76597,76612,76629,76648,76663,76679,76696,76718,76731,76780,76797,76813,76831,76848,76863,76879,76896,76912,76929,76947,76963,76979,76996,77013,77029,77046,77062,77079,77095,77111,77129,77146,77163,77179,77196,77212,77230,77250,77270,77286,77308,77332,77351,77381,77403,77426,77445,77461,77472,77488,77504,77518,77534,77549,77567,77581,77601,77618,77635,77649,77667,77682,77701,77716,77735,77762,77776,77788,77815,77834,77861,77877,77894,77911,77928,77945,77962,77979,77999,78013,78029,78046,78062,78079,78096,78112,78129,78146,78162,78179,78196,78212,78231,78249,78269,78290,78308,78325,78348,78364,78381,78396,78412,78429,78444,78465,78479,78497,78513,78528,78543,78554,78571,78585,78598,78617,78636,78649,78667,78684,78698,78715,78735,78753,78769,78783,78807,78829,78846,78862,78877,78897,78915,78934,78952,78970,78985,79004,79021,79042,79060,79080,79096,79113,79130,79147,79160,79175,79187,79204,79219,79237,79250,79275,79291,79311,79338,79357,79378,79399,79415,79433,79448,79483,79507,79519,79532,79550,79565,79582,79599,79618,79632,79650,79665,79681,79699,79716,79732,79749,79764,79787,79802,79815,79833,79850,79867,79882,79902,79917,79933,79948,79966,79987,80002,80017,80032,80048,80066,80082,80099,80116,80133,80147,80165,80183,80200,80217,80232,80249,80265,80283,80299,80317,80332,80348,80365,80381,80397,80415,80429,80450,80465,80482,80499,80516,80535,80552,80576,80587,80607,80624,80641,80658,80677,80693,80709,80726,80742,80762,80779,80799,80813,80830,80848,80882,80918,80940,80962,80980,81001,81021,81045,81067,81083,81099,81114,81131,81151,81168,81182,81191,81203,81217,81237,81251,81266,81283,81297,81316,81332,81348,81367,81386,81406,81425,81437,81459,81471,81492,81509,81521,81534,81552,81568,81582,81599,81614,81631,81650,81665,81684,81714,81735,81753,81769,81791,81812,81828,81844,81860,81877,81888,81901,81920,81937,81963,81980,81998,82011,82030,82046,82062,82078,82094,82112,82127,82144,82161,82178,82194,82211,82227,82245,82261,82279,82317,82336,82350,82364,82381,82399,82418,82435,82452,82468,82486,82503,82518,82535,82550,82568,82585,82602,82620,82636,82654,82666,82681,82701,82718,82734,82752,82765,82780,82797,82813,82832,82845,82867,82882,82897,82917,82934,82953,82966,82985,83002,83020,83036,83051,83066,83083,83100,83113,83132,83149,83160,83186,83202,83219,83235,83256,83280,83299,83318,83334,83350,83369,83389,83407,83419,83438,83450,83463,83485,83500,83514,83540,83560,83578,83594,83610,83627,83644,83662,83677,83696,83716,83731,83755,83769,83783,83802,83817,83845,83862,83877,83895,83912,83927,83944,83963,83981,83993,84018,84030,84046,84063,84081,84096,84113,84129,84146,84168,84184,84201,84225,84243,84253,84274,84285,84301,84320,84339,84352,84368,84381,84398,84413,84431,84448,84466,84481,84497,84513,84532,84547,84565,84581,84597,84614,84630,84647,84665,84682,84697,84713,84731,84746,84765,84781,84802,84827,84844,84861,84877,84894,84912,84927,84944,84961,84978,84994,85011,85027,85056,85067,85083,85097,85113,85140,85157,85172,85196,85214,85229,85244,85260,85280,85294,85311,85327,85345,85361,85378,85394,85411,85427,85444,85461,85477,85494,85511,85533,85556,85574,85589,85606,85619,85635,85652,85669,85684,85697,85714,85730,85748,85763,85781,85800,85828,85844,85861,85878,85895,85910,85927,85944,85960,85977,85994,86010,86027,86044,86061,86077,86094,86110,86129,86148,86169,86191,86208,86225,86246,86262,86279,86295,86312,86327,86344,86361,86377,86393,86411,86428,86445,86461,86477,86500,86518,86539,86593,86610,86627,86641,86661,86677,86694,86711,86727,86744,86760,86778,86797,86811,86827,86844,86860,86876,86893,86909,86926,86944,86959,86977,86993,87009,87026,87047],"hit":[null],"x":[-1.751700680272109,-1.751700680272109,-1.751700680272109,-1.751700680272109,-1.751700680272109,-1.751700680272109,-1.751700680272109,-1.751700680272109,-1.751700680272109,-1.751700680272109,-1.751700680272109,-1.751700680272109,-1.751700680272109,-1.751700680272109,-1.751700680272109,-1.751700680272109,-1.751700680272109,-1.751700680272109,-1.751700680272109,-1.751700680272109,-1.751700680272109,-1.751700680272109,-1.751700680272109,-1.751700680272109,-1.751700680272109,-1.751700680272109,-1.751700680272109,-1.751700680272109,-1.751700680272109,-1.751700680272109,-1.751700680272109,-1.751700680272109,-1.751700680272109,-1.751700680272109,-1.751700680272109,-1.751700680272109,-1.751700680272109,-1.751700680272109,-1.751700680272109,-1.751700680272109,-1.751700680272109,-1.751700680272109,-1.751700680272109,-1.751700680272109,-1.751700680272109,-1.751700680272109,-1.751700680272109,-1.751700680272109,-1.751700680272109,-1.751700680272109,-1.751700680272109,-1.751700680272109,-1.751700680272109,-1.751700680272109,-1.751700680272109,-1.751700680272109,-1.751700680272109,-1.751700680272109,-1.751700680272109,-1.751700680272109,-1.751700680272109,-1.751700680272109,-1.751700680272109,-1.751700680272109,-1.751700680272109,-1.751700680272109,-1.751700680272109,-1.751700680272109,-1.751700680272109,-1.751700680272109,-1.751700680272109,-1.751700680272109,-1.751700680272109,-1.751700680272109,-1.751700680272109,-1.751700680272109,-1.751700680272109,-1.751700680272109,-1.751700680272109,-1.751700680272109,-1.751700680272109,-1.751700680272109,-1.751700680272109,-1.751700680272109,-1.751700680272109,-1.751700680272109,-1.751700680272109,-1.751700680272109,-1.751700680272109,-1.751700680272109,-1.751700680272109,-1.751700680272109,-1.751700680272109,-1.751700680272109,-1.751700680272109,-1.751700680272109,-1.751700680272109,-1.751700680272109,-1.751700680272109,-1.751700680272109,-1.751700680272109,-1.751700680272109,-1.751700680272109,-1.751700680272109,-1.751700680272109,-1.751700680272109,-1.751700680272109,-1.751700680272109,-1.751700680272109,-1.751700680272109,-1.751700680272109,-1.751700680272109,-1.751700680272109,-1.751700680272109,-1.751700680272109,-1.751700680272109,-1.751700680272109,-1.751700680272109,-1.751700680272109,-1.751700680272109,-1.751700680272109,-1.751700680272109,-1.751700680272109,-1.751700680272109,-1.751700680272109,-1.751700680272109,-1.751700680272109,-1.751700680272109,-1.751700680272109,-1.751700680272109,-1.751700680272109,-1.751700680272109,-1.751700680272109,-1.751700680272109,-1.751700680272109,-1.751700680272109,-1.751700680272109,-1.751700680272109,-1.751700680272109,-1.751700680272109,-1.751700680272109,-1.751700680272109,-1.751700680272109,-1.751700680272109,-1.751700680272109,-1.751700680272109,-1.751700680272109,-1.751700680272109,-1.751700680272109,-1.751700680272109,-1.751700680272109,-1.751700680272109,-1.751700680272109,-1.751700680272109,-1.751700680272109,-1.751700680272109,-1.751700680272109,-1.751700680272109,-1.751700680272109,-1.751700680272109,-1.751700680272109,-1.751700680272109,-1.751700680272109,-1.751700680272109,-1.751700680272109,-1.751700680272109,-1.751700680272109,-1.751700680272109,-1.751700680272109,-1.751700680272109,-1.751700680272109,-1.751700680272109,-1.751700680272109,-1.751700680272109,-1.751700680272109,-1.751700680272109,-1.751700680272109,-1.751700680272109,-1.751700680272109,-1.751700680272109,-1.751700680272109,-1.751700680272109,-1.751700680272109,-1.751700680272109,-1.751700680272109,-1.751700680272109,-1.751700680272109,-1.751700680272109,-1.751700680272109,-1.751700680272109,-1.751700680272109,-1.751700680272109,-1.751700680272109,-1.751700680272109,-1.751700680272109,-1.751700680272109,-1.751700680272109,-1.751700680272109,-1.751700680272109,-1.751700680272109,-1.751700680272109,-1.751700680272109,-1.751700680272109,-1.751700680272109,-1.751700680272109,-1.751700680272109,-1.751700680272109,-1.751700680272109,-1.751700680272109,-1.751700680272109,-1.751700680272109,-1.751700680272109,-1.751700680272109,-1.751700680272109,-1.751700680272109,-1.751700680272109,-1.751700680272109,-1.751700680272109,-1.751700680272109,-1.751700680272109,-1.751700680272109,-1.751700680272109,-1.751700680272109,-1.751700680272109,-1.751700680272109,-1.751700680272109,-1.751700680272109,-1.751700680272109,-1.751700680272109,-1.751700680272109,-1.751700680272109,-1.751700680272109,-1.751700680272109,-1.751700680272109,-1.751700680272109,-1.751700680272109,-1.751700680272109,-1.751700680272109,-1.751700680272109,-1.751700680272109,-1.751700680272109,-1.751700680272109,-1.751700680272109,-1.751700680272109,-1.751700680272109,-1.751700680272109,-1.751700680272109,-1.751700680272109,-1.751700680272109,-1.751700680272109,-1.751700680272109,-1.751700680272109,-1.751700680272109,-1.751700680272109,-1.751700680272109,-1.751700680272109,-1.751700680272109,-1.751700680272109,-1.751700680272109,-1.751700680272109,-1.751700680272109,-1.751700680272109,-1.751700680272109,-1.751700680272109,-1.751700680272109,-1.751700680272109,-1.751700680272109,-1.751700680272109,-1.751700680272109,-1.751700680272109,-1.751700680272109,-1.751700680272109,-1.751700680272109,-1.751700680272109,-1.751700680272109,-1.751700680272109,-1.751700680272109,-1.751700680272109,-1.751700680272109,-1.751700680272109,-1.751700680272109,-1.751700680272109,-1.751700680272109,-1.751700680272109,-1.751700680272109,-1.751700680272109,-1.751700680272109,-1.751700680272109,-1.751700680272109,-1.751700680272109,-1.751700680272109,-1.751700680272109,-1.751700680272109,-1.751700680272109,-1.751700680272109,-1.751700680272109,-1.751700680272109,-1.751700680272109,-1.751700680272109,-1.751700680272109,-1.751700680272109,-1.751700680272109,-1.751700680272109,-1.751700680272109,-1.751700680272109,-1.751700680272109,-1.751700680272109,-1.751700680272109,-1.751700680272109,-1.751700680272109,-1.751700680272109,-1.751700680272109,-1.751700680272109,-1.751700680272109,-1.751700680272109,-1.751700680272109,-1.751700680272109,-1.751700680272109,-1.751700680272109,-1.751700680272109,-1.751700680272109,-1.751700680272109,-1.751700680272109,-1.751700680272109,-1.751700680272109,-1.751700680272109,-1.751700680272109,-1.751700680272109,-1.751700680272109,-1.751700680272109,-1.751700680272109,-1.751700680272109,-1.751700680272109,-1.751700680272109,-1.751700680272109,-1.751700680272109,-1.751700680272109,-1.751700680272109,-1.751700680272109,-1.751700680272109,-1.751700680272109,-1.751700680272109,-1.751700680272109,-1.751700680272109,-1.751700680272109,-1.751700680272109,-1.751700680272109,-1.751700680272109,-1.751700680272109,-1.751700680272109,-1.751700680272109,-1.751700680272109,-1.751700680272109,-1.751700680272109,-1.751700680272109,-1.751700680272109,-1.751700680272109,-1.751700680272109,-1.751700680272109,-1.751700680272109,-1.751700680272109,-1.751700680272109,-1.751700680272109,-1.751700680272109,-1.751700680272109,-1.751700680272109,-1.751700680272109,-1.751700680272109,-1.751700680272109,-1.751700680272109,-1.751700680272109,-1.751700680272109,-1.751700680272109,-1.751700680272109,-1.751700680272109,-1.751700680272109,-1.751700680272109,-1.751700680272109,-1.751700680272109,-1.751700680272109,-1.751700680272109,-1.751700680272109,-1.751700680272109,-1.751700680272109,-1.751700680272109,-1.751700680272109,-1.751700680272109,-1.751700680272109,-1.751700680272109,-1.751700680272109,-1.751700680272109,-1.751700680272109,-1.751700680272109,-1.751700680272109,-1.751700680272109,-1.751700680272109,-1.751700680272109,-1.751700680272109,-1.751700680272109,-1.751700680272109,-1.751700680272109,-1.751700680272109,-1.751700680272109,-1.751700680272109,-1.751700680272109,-1.751700680272109,-1.751700680272109,-1.751700680272109,-1.751700680272109,-1.751700680272109,-1.751700680272109,-1.751700680272109,-1.751700680272109,-1.751700680272109,-1.751700680272109,-1.751700680272109,-1.751700680272109,-1.751700680272109,-1.751700680272109,-1.751700680272109,-1.751700680272109,-1.751700680272109,-1.751700680272109,-1.751700680272109,-1.751700680272109,-1.751700680272109,-1.751700680272109,-1.751700680272109,-1.751700680272109,-1.751700680272109,-1.751700680272109,-1.751700680272109,-1.751700680272109,-1.751700680272109,-1.751700680272109,-1.751700680272109,-1.751700680272109,-1.751700680272109,-1.751700680272109,-1.751700680272109,-1.751700680272109,-1.751700680272109,-1.751700680272109,-1.751700680272109,-1.751700680272109,-1.751700680272109,-1.751700680272109,-1.751700680272109,-1.751700680272109,-1.751700680272109,-1.751700680272109,-1.751700680272109,-1.751700680272109,-1.751700680272109,-1.751700680272109,-1.751700680272109,-1.751700680272109,-1.751700680272109,-1.751700680272109,-1.751700680272109,-1.751700680272109,-1.751700680272109,-1.751700680272109,-1.751700680272109,-1.751700680272109,-1.751700680272109,-1.751700680272109,-1.751700680272109,-1.751700680272109,-1.751700680272109,-1.751700680272109,-1.751700680272109,-1.751700680272109,-1.751700680272109,-1.751700680272109,-1.751700680272109,-1.751700680272109,-1.751700680272109,-1.751700680272109,-1.751700680272109,-1.751700680272109,-1.751700680272109,-1.751700680272109,-1.751700680272109,-1.751700680272109,-1.751700680272109,-1.751700680272109,-1.751700680272109,-1.751700680272109,-1.751700680272109,-1.751700680272109,-1.751700680272109,-1.751700680272109,-1.751700680272109,-1.751700680272109,-1.751700680272109,-1.751700680272109,-1.751700680272109,-1.751700680272109,-1.751700680272109,-1.751700680272109,-1.751700680272109,-1.751700680272109,-1.751700680272109,-1.751700680272109,-1.751700680272109,-1.751700680272109,-1.751700680272109,-1.751700680272109,-1.751700680272109,-1.751700680272109,-1.751700680272109,-1.751700680272109,-1.751700680272109,-1.751700680272109,-1.751700680272109,-1.751700680272109,-1.751700680272109,-1.751700680272109,-1.751700680272109,-1.751700680272109,-1.751700680272109,-1.751700680272109,-1.751700680272109,-1.751700680272109,-1.751700680272109,-1.751700680272109,-1.751700680272109,-1.751700680272109,-1.751700680272109,-1.751700680272109,-1.751700680272109,-1.751700680272109,-1.751700680272109,-1.751700680272109,-1.751700680272109,-1.751700680272109,-1.751700680272109,-1.751700680272109,-1.751700680272109,-1.751700680272109,-1.751700680272109,-1.751700680272109,-1.751700680272109,-1.751700680272109,-1.751700680272109,-1.751700680272109,-1.751700680272109,-1.751700680272109,-1.751700680272109,-1.751700680272109,-1.751700680272109,-1.751700680272109,-1.751700680272109,-1.751700680272109,-1.751700680272109,-1.751700680272109,-1.751700680272109,-1.751700680272109,-1.751700680272109,-1.751700680272109,-1.751700680272109,-1.751700680272109,-1.751700680272109,-1.751700680272109,-1.751700680272109,-1.751700680272109,-1.751700680272109,-1.751700680272109,-1.751700680272109,-1.751700680272109,-1.751700680272109,-1.751700680272109,-1.751700680272109,-1.751700680272109,-1.751700680272109,-1.751700680272109,-1.751700680272109,-1.751700680272109,-1.751700680272109,-1.751700680272109,-1.751700680272109,-1.751700680272109,-1.751700680272109,-1.751700680272109,-1.751700680272109,-1.751700680272109,-1.751700680272109,-1.751700680272109,-1.751700680272109,-1.751700680272109,-1.751700680272109,-1.751700680272109,-1.751700680272109,-1.751700680272109,-1.751700680272109,-1.751700680272109,-1.751700680272109,-1.751700680272109,-1.751700680272109,-1.751700680272109,-1.751700680272109,-1.751700680272109,-1.751700680272109,-1.751700680272109,-1.751700680272109,-1.751700680272109,-1.751700680272109,-1.751700680272109,-1.751700680272109,-1.751700680272109,-1.751700680272109,-1.751700680272109,-1.751700680272109,-1.751700680272109,-1.751700680272109,-1.751700680272109,-1.751700680272109,-1.751700680272109,-1.751700680272109,-1.751700680272109,-1.751700680272109,-1.751700680272109,-1.751700680272109,-1.751700680272109,-1.751700680272109,-1.751700680272109,-1.751700680272109,-1.751700680272109,-1.751700680272109,-1.751700680272109,-1.751700680272109,-1.751700680272109,-1.751700680272109,-1.751700680272109,-1.751700680272109,-1.751700680272109,-1.751700680272109,-1.751700680272109,-1.751700680272109,-1.751700680272109,-1.751700680272109,-1.751700680272109,-1.751700680272109,-1.751700680272109,-1.751700680272109,-1.751700680272109,-1.751700680272109,-1.751700680272109,-1.751700680272109,-1.751700680272109,-1.751700680272109,-1.751700680272109,-1.751700680272109,-1.751700680272109,-1.751700680272109,-1.751700680272109,-1.751700680272109,-1.751700680272109,-1.751700680272109,-1.751700680272109,-1.751700680272109,-1.751700680272109,-1.751700680272109,-1.751700680272109,-1.751700680272109,-1.751700680272109,-1.751700680272109,-1.751700680272109,-1.751700680272109,-1.751700680272109,-1.751700680272109,-1.751700680272109,-1.751700680272109,-1.751700680272109,-1.751700680272109,-1.751700680272109,-1.751700680272109,-1.751700680272109,-1.751700680272109,-1.751700680272109,-1.751700680272109,-1.751700680272109,-1.751700680272109,-1.751700680272109,-1.751700680272109,-1.751700680272109,-1.751700680272109,-1.751700680272109,-1.751700680272109,-1.751700680272109,-1.751700680272109,-1.751700680272109,-1.751700680272109,-1.751700680272109,-1.751700680272109,-1.751700680272109,-1.751700680272109,-1.751700680272109,-1.751700680272109,-1.751700680272109,-1.751700680272109,-1.751700680272109,-1.751700680272109,-1.751700680272109,-1.751700680272109,-1.751700680272109,-1.751700680272109,-1.751700680272109,-1.751700680272109,-1.751700680272109,-1.751700680272109,-1.751700680272109,-1.751700680272109,-1.751700680272109,-1.751700680272109,-1.751700680272109,-1.751700680272109,-1.751700680272109,-1.751700680272109,-1.751700680272109,-1.751700680272109,-1.751700680272109,-1.751700680272109,-1.751700680272109,-1.751700680272109,-1.751700680272109,-1.751700680272109,-1.751700680272109,-1.751700680272109,-1.751700680272109,-1.751700680272109,-1.751700680272109,-1.751700680272109,-1.751700680272109,-1.751700680272109,-1.751700680272109,-1.751700680272109,-1.751700680272109,-1.751700680272109,-1.751700680272109,-1.751700680272109,-1.751700680272109,-1.751700680272109,-1.751700680272109,-1.751700680272109,-1.751700680272109,-1.751700680272109,-1.751700680272109,-1.751700680272109,-1.751700680272109,-1.751700680272109,-1.751700680272109,-1.751700680272109,-1.751700680272109,-1.751700680272109,-1.751700680272109,-1.751700680272109,-1.751700680272109,-1.751700680272109,-1.751700680272109,-1.751700680272109,-1.751700680272109,-1.751700680272109,-1.751700680272109,-1.751700680272109,-1.751700680272109,-1.751700680272109,-1.751700680272109,-1.751700680272109,-1.751700680272109,-1.751700680272109,-1.751700680272109,-1.751700680272109,-1.751700680272109,-1.751700680272109,-1.751700680272109,-1.751700680272109,-1.751700680272109,-1.751700680272109,-1.751700680272109,-1.751700680272109,-1.751700680272109,-1.751700680272109,-1.751700680272109,-1.751700680272109,-1.751700680272109,-1.751700680272109,-1.751700680272109,-1.751700680272109,-1.751700680272109,-1.751700680272109,-1.751700680272109,-1.751700680272109,-1.751700680272109,-1.751700680272109,-1.751700680272109,-1.751700680272109,-1.751700680272109,-1.751700680272109,-1.751700680272109,-1.751700680272109,-1.751700680272109,-1.751700680272109,-1.751700680272109,-1.751700680272109,-1.751700680272109,-1.751700680272109,-1.751700680272109,-1.751700680272109,-1.751700680272109,-1.751700680272109,-1.751700680272109,-1.751700680272109,-1.751700680272109,-1.751700680272109,-1.751700680272109,-1.751700680272109,-1.751700680272109,-1.751700680272109,-1.751700680272109,-1.751700680272109,-1.751700680272109,-1.751700680272109,-1.751700680272109,-1.751700680272109,-1.751700680272109,-1.751700680272109,-1.751700680272109,-1.751700680272109,-1.751700680272109,-1.751700680272109,-1.751700680272109,-1.751700680272109,-1.751700680272109,-1.751700680272109,-1.751700680272109,-1.751700680272109,-1.751700680272109,-1.751700680272109,-1.751700680272109,-1.751700680272109,-1.751700680272109,-1.751700680272109,-1.751700680272109,-1.751700680272109,-1.751700680272109,-1.751700680272109,-1.751700680272109,-1.751700680272109,-1.751700680272109,-1.751700680272109,-1.751700680272109,-1.751700680272109,-1.751700680272109,-1.751700680272109,-1.751700680272109,-1.751700680272109,-1.751700680272109,-1.751700680272109,-1.751700680272109,-1.751700680272109,-1.751700680272109,-1.751700680272109,-1.751700680272109,-1.751700680272109,-1.751700680272109,-1.751700680272109,-1.751700680272109,-1.751700680272109,-1.751700680272109,-1.751700680272109,-1.751700680272109,-1.751700680272109,-1.751700680272109,-1.751700680272109,-1.751700680272109,-1.751700680272109,-1.751700680272109,-1.751700680272109,-1.751700680272109,-1.751700680272109,-1.751700680272109,-1.751700680272109,-1.751700680272109,-1.751700680272109,-1.751700680272109,-1.751700680272109,-1.751700680272109,-1.751700680272109,-1.751700680272109,-1.751700680272109,-1.751700680272109,-1.751700680272109,-1.751700680272109,-1.751700680272109,-1.751700680272109,-1.751700680272109,-1.751700680272109,-1.751700680272109,-1.751700680272109,-1.751700680272109,-1.751700680272109,-1.751700680272109,-1.751700680272109,-1.751700680272109,-1.751700680272109,-1.751700680272109,-1.751700680272109,-1.751700680272109,-1.751700680272109,-1.751700680272109,-1.751700680272109,-1.751700680272109,-1.751700680272109,-1.751700680272109,-1.751700680272109,-1.751700680272109,-1.751700680272109,-1.751700680272109,-1.751700680272109,-1.751700680272109,-1.751700680272109,-1.751700680272109,-1.751700680272109,-1.751700680272109,-1.751700680272109,-1.751700680272109,-1.751700680272109,-1.751700680272109,-1.751700680272109,-1.751700680272109,-1.751700680272109,-1.751700680272109,-1.751700680272109,-1.751700680272109,-1.751700680272109,-1.751700680272109,-1.751700680272109,-1.751700680272109,-1.751700680272109,-1.751700680272109,-1.751700680272109,-1.751700680272109,-1.751700680272109,-1.751700680272109,-1.751700680272109,-1.751700680272109,-1.751700680272109,-1.751700680272109,-1.751700680272109,-1.751700680272109,-1.751700680272109,-1.751700680272109,-1.751700680272109,-1.751700680272109,-1.751700680272109,-1.751700680272109,-1.751700680272109,-1.751700680272109,-1.751700680272109,-1.751700680272109,-1.751700680272109,-1.751700680272109,-1.751700680272109,-1.751700680272109,-1.751700680272109,-1.751700680272109,-1.751700680272109,-1.751700680272109,-1.751700680272109,-1.751700680272109,-1.751700680272109,-1.751700680272109,-1.751700680272109,-1.751700680272109,-1.751700680272109,-1.751700680272109,-1.751700680272109,-1.751700680272109,-1.751700680272109,-1.751700680272109,-1.751700680272109,-1.751700680272109,-1.751700680272109,-1.751700680272109,-1.751700680272109,-1.751700680272109,-1.751700680272109,-1.751700680272109,-1.751700680272109,-1.751700680272109,-1.751700680272109,-1.751700680272109,-1.751700680272109,-1.751700680272109,-1.751700680272109,-1.751700680272109,-1.751700680272109,-1.751700680272109,-1.751700680272109,-1.751700680272109,-1.751700680272109,-1.751700680272109,-1.751700680272109,-1.751700680272109,-1.751700680272109,-1.751700680272109,-1.751700680272109,-1.751700680272109,-1.751700680272109,-1.751700680272109,-1.751700680272109,-1.751700680272109,-1.751700680272109,-1.751700680272109,-1.751700680272109,-1.751700680272109,-1.751700680272109,-1.751700680272109,-1.751700680272109,-1.751700680272109,-1.751700680272109,-1.751700680272109,-1.751700680272109,-1.751700680272109,-1.751700680272109,-1.751700680272109,-1.751700680272109,-1.751700680272109,-1.751700680272109,-1.751700680272109,-1.751700680272109,-1.751700680272109,-1.751700680272109,-1.751700680272109,-1.751700680272109,-1.751700680272109,-1.751700680272109,-1.751700680272109,-1.751700680272109,-1.751700680272109,-1.751700680272109,-1.751700680272109,-1.751700680272109,-1.751700680272109,-1.751700680272109,-1.751700680272109,-1.751700680272109,-1.751700680272109,-1.751700680272109,-1.751700680272109,-1.751700680272109,-1.751700680272109,-1.751700680272109,-1.751700680272109,-1.751700680272109,-1.751700680272109,-1.751700680272109,-1.751700680272109,-1.751700680272109,-1.751700680272109,-1.751700680272109,-1.751700680272109,-1.751700680272109,-1.751700680272109,-1.751700680272109,-1.751700680272109,-1.751700680272109,-1.751700680272109,-1.751700680272109,-1.751700680272109,-1.751700680272109,-1.751700680272109,-1.751700680272109,-1.751700680272109,-1.751700680272109,-1.751700680272109,-1.751700680272109,-1.751700680272109,-1.751700680272109,-1.751700680272109,-1.751700680272109,-1.751700680272109,-1.751700680272109,-1.751700680272109,-1.751700680272109,-1.751700680272109,-1.751700680272109,-1.751700680272109,-1.751700680272109,-1.751700680272109,-1.751700680272109,-1.751700680272109,-1.751700680272109,-1.751700680272109,-1.751700680272109,-1.751700680272109,-1.751700680272109,-1.751700680272109,-1.751700680272109,-1.751700680272109,-1.751700680272109,-1.751700680272109,-1.751700680272109,-1.751700680272109,-1.751700680272109,-1.751700680272109,-1.751700680272109,-1.751700680272109,-1.751700680272109,-1.751700680272109,-1.751700680272109,-1.751700680272109,-1.751700680272109,-1.751700680272109,-1.751700680272109,-1.751700680272109,-1.751700680272109,-1.751700680272109,-1.751700680272109,-1.751700680272109,-1.751700680272109,-1.751700680272109,-1.751700680272109,-1.751700680272109,-1.751700680272109,-1.751700680272109,-1.751700680272109,-1.751700680272109,-1.751700680272109,-1.751700680272109,-1.751700680272109,-1.751700680272109,-1.751700680272109,-1.751700680272109,-1.751700680272109,-1.751700680272109,-1.751700680272109,-1.751700680272109,-1.751700680272109,-1.751700680272109,-1.751700680272109,-1.751700680272109,-1.751700680272109,-1.751700680272109,-1.751700680272109,-1.751700680272109,-1.751700680272109,-1.751700680272109,-1.751700680272109,-1.751700680272109,-1.751700680272109,-1.751700680272109,-1.751700680272109,-1.751700680272109,-1.751700680272109,-1.751700680272109,-1.751700680272109,-1.751700680272109,-1.751700680272109,-1.751700680272109,-1.751700680272109,-1.751700680272109,-1.751700680272109,-1.751700680272109,-1.751700680272109,-1.751700680272109,-1.751700680272109,-1.751700680272109,-1.751700680272109,-1.751700680272109,-1.751700680272109,-1.751700680272109,-1.751700680272109,-1.751700680272109,-1.751700680272109,-1.751700680272109,-1.751700680272109,-1.751700680272109,-1.751700680272109,-1.751700680272109,-1.751700680272109,-1.751700680272109,-1.751700680272109,-1.751700680272109,-1.751700680272109,-1.751700680272109,-1.751700680272109,-1.751700680272109,-1.751700680272109,-1.751700680272109,-1.751700680272109,-1.751700680272109,-1.751700680272109,-1.751700680272109,-1.751700680272109,-1.751700680272109,-1.751700680272109,-1.751700680272109,-1.751700680272109,-1.751700680272109,-1.751700680272109,-1.751700680272109,-1.751700680272109,-1.751700680272109,-1.751700680272109,-1.751700680272109,-1.751700680272109,-1.751700680272109,-1.751700680272109,-1.751700680272109,-1.751700680272109,-1.751700680272109,-1.751700680272109,-1.751700680272109,-1.751700680272109,-1.751700680272109,-1.751700680272109,-1.751700680272109,-1.751700680272109,-1.751700680272109,-1.751700680272109,-1.751700680272109,-1.751700680272109,-1.751700680272109,-1.751700680272109,-1.751700680272109,-1.751700680272109,-1.751700680272109,-1.751700680272109,-1.751700680272109,-1.751700680272109,-1.751700680272109,-1.751700680272109,-1.751700680272109,-1.751700680272109,-1.751700680272109,-1.751700680272109,-1.751700680272109,-1.751700680272109,-1.751700680272109,-1.751700680272109,-1.751700680272109,-1.751700680272109,-1.751700680272109,-1.751700680272109,-1.751700680272109,-1.751700680272109,-1.751700680272109,-1.751700680272109,-1.751700680272109,-1.751700680272109,-1.751700680272109,-1.751700680272109,-1.751700680272109,-1.751700680272109,-1.751700680272109,-1.751700680272109,-1.751700680272109,-1.751700680272109,-1.751700680272109,-1.751700680272109,-1.751700680272109,-1.751700680272109,-1.751700680272109,-1.751700680272109,-1.751700680272109,-1.751700680272109,-1.751700680272109,-1.751700680272109,-1.751700680272109,-1.751700680272109,-1.751700680272109,-1.751700680272109,-1.751700680272109,-1.751700680272109,-1.751700680272109,-1.751700680272109,-1.751700680272109,-1.751700680272109,-1.751700680272109,-1.751700680272109,-1.751700680272109,-1.751700680272109,-1.751700680272109,-1.751700680272109,-1.751700680272109,-1.751700680272109,-1.751700680272109,-1.751700680272109,-1.751700680272109,-1.751700680272109,-1.751700680272109,-1.751700680272109,-1.751700680272109,-1.751700680272109,-1.751700680272109,-1.751700680272109,-1.751700680272109,-1.751700680272109,-1.751700680272109,-1.751700680272109,-1.751700680272109,-1.751700680272109,-1.751700680272109,-1.751700680272109,-1.751700680272109,-1.751700680272109,-1.751700680272109,-1.751700680272109,-1.751700680272109,-1.751700680272109,-1.751700680272109,-1.751700680272109,-1.751700680272109,-1.751700680272109,-1.751700680272109,-1.751700680272109,-1.751700680272109,-1.751700680272109,-1.751700680272109,-1.751700680272109,-1.751700680272109,-1.751700680272109,-1.751700680272109,-1.751700680272109,-1.751700680272109,-1.751700680272109,-1.751700680272109,-1.751700680272109,-1.751700680272109,-1.751700680272109,-1.751700680272109,-1.751700680272109,-1.751700680272109,-1.751700680272109,-1.751700680272109,-1.751700680272109,-1.751700680272109,-1.751700680272109,-1.751700680272109,-1.751700680272109,-1.751700680272109,-1.751700680272109,-1.751700680272109,-1.751700680272109,-1.751700680272109,-1.751700680272109,-1.751700680272109,-1.751700680272109,-1.751700680272109,-1.751700680272109,-1.751700680272109,-1.751700680272109,-1.751700680272109,-1.751700680272109,-1.751700680272109,-1.751700680272109,-1.751700680272109,-1.751700680272109,-1.751700680272109,-1.751700680272109,-1.751700680272109,-1.751700680272109,-1.751700680272109,-1.751700680272109,-1.751700680272109,-1.751700680272109,-1.751700680272109,-1.751700680272109,-1.751700680272109,-1.751700680272109,-1.751700680272109,-1.751700680272109,-1.751700680272109,-1.751700680272109,-1.751700680272109,-1.751700680272109,-1.751700680272109,-1.751700680272109,-1.751700680272109,-1.751700680272109,-1.751700680272109,-1.751700680272109,-1.751700680272109,-1.751700680272109,-1.751700680272109,-1.751700680272109,-1.751700680272109,-1.751700680272109,-1.751700680272109,-1.751700680272109,-1.751700680272109,-1.751700680272109,-1.751700680272109,-1.751700680272109,-1.751700680272109,-1.751700680272109,-1.751700680272109,-1.751700680272109,-1.751700680272109,-1.751700680272109,-1.751700680272109,-1.751700680272109,-1.751700680272109,-1.751700680272109,-1.751700680272109,-1.751700680272109,-1.751700680272109,-1.751700680272109,-1.751700680272109,-1.751700680272109,-1.751700680272109,-1.751700680272109,-1.751700680272109,-1.751700680272109,-1.751700680272109,-1.751700680272109,-1.751700680272109,-1.751700680272109,-1.751700680272109,-1.751700680272109,-1.751700680272109,-1.751700680272109,-1.751700680272109,-1.751700680272109,-1.751700680272109,-1.751700680272109,-1.751700680272109,-1.751700680272109,-1.751700680272109,-1.751700680272109,-1.751700680272109,-1.751700680272109,-1.751700680272109,-1.751700680272109,-1.751700680272109,-1.751700680272109,-1.751700680272109,-1.751700680272109,-1.751700680272109,-1.751700680272109,-1.751700680272109,-1.751700680272109,-1.751700680272109,-1.751700680272109,-1.751700680272109,-1.751700680272109,-1.751700680272109,-1.751700680272109,-1.751700680272109,-1.751700680272109,-1.751700680272109,-1.751700680272109,-1.751700680272109,-1.751700680272109,-1.751700680272109,-1.751700680272109,-1.751700680272109,-1.751700680272109,-1.751700680272109,-1.751700680272109,-1.751700680272109,-1.751700680272109,-1.751700680272109,-1.751700680272109,-1.751700680272109,-1.751700680272109,-1.751700680272109,-1.751700680272109,-1.751700680272109,-1.751700680272109,-1.751700680272109,-1.751700680272109,-1.751700680272109,-1.751700680272109,-1.751700680272109,-1.751700680272109,-1.751700680272109,-1.751700680272109,-1.751700680272109,-1.751700680272109,-1.751700680272109,-1.751700680272109,-1.751700680272109,-1.751700680272109,-1.751700680272109,-1.751700680272109,-1.751700680272109,-1.751700680272109,-1.751700680272109,-1.751700680272109,-1.751700680272109,-1.751700680272109,-1.751700680272109,-1.751700680272109,-1.751700680272109,-1.751700680272109,-1.751700680272109,-1.751700680272109,-1.751700680272109,-1.751700680272109,-1.751700680272109,-1.751700680272109,-1.751700680272109,-1.751700680272109,-1.751700680272109,-1.751700680272109,-1.751700680272109,-1.751700680272109,-1.751700680272109,-1.751700680272109,-1.751700680272109,-1.751700680272109,-1.751700680272109,-1.751700680272109,-1.751700680272109,-1.751700680272109,-1.751700680272109,-1.751700680272109,-1.751700680272109,-1.751700680272109,-1.751700680272109,-1.751700680272109,-1.751700680272109,-1.751700680272109,-1.751700680272109,-1.751700680272109,-1.751700680272109,-1.751700680272109,-1.751700680272109,-1.751700680272109,-1.751700680272109,-1.751700680272109,-1.751700680272109,-1.751700680272109,-1.751700680272109,-1.751700680272109,-1.751700680272109,-1.751700680272109,-1.751700680272109,-1.751700680272109,-1.751700680272109,-1.751700680272109,-1.751700680272109,-1.751700680272109,-1.751700680272109,-1.751700680272109,-1.751700680272109,-1.751700680272109,-1.751700680272109,-1.751700680272109,-1.751700680272109,-1.751700680272109,-1.751700680272109,-1.751700680272109,-1.751700680272109,-1.751700680272109,-1.751700680272109,-1.751700680272109,-1.751700680272109,-1.751700680272109,-1.751700680272109,-1.751700680272109,-1.751700680272109,-1.751700680272109,-1.751700680272109,-1.751700680272109,-1.751700680272109,-1.751700680272109,-1.751700680272109,-1.751700680272109,-1.751700680272109,-1.751700680272109,-1.751700680272109,-1.751700680272109,-1.751700680272109,-1.751700680272109,-1.751700680272109,-1.751700680272109,-1.751700680272109,-1.751700680272109,-1.751700680272109,-1.751700680272109,-1.751700680272109,-1.751700680272109,-1.751700680272109,-1.751700680272109,-1.751700680272109,-1.751700680272109,-1.751700680272109,-1.751700680272109,-1.751700680272109,-1.751700680272109,-1.751700680272109,-1.751700680272109,-1.751700680272109,-1.751700680272109,-1.751700680272109,-1.751700680272109,-1.751700680272109,-1.751700680272109,-1.751700680272109,-1.751700680272109,-1.751700680272109,-1.751700680272109,-1.751700680272109,-1.751700680272109,-1.751700680272109,-1.751700680272109,-1.751700680272109,-1.751700680272109,-1.751700680272109,-1.751700680272109,-1.751700680272109,-1.751700680272109,-1.751700680272109,-1.751700680272109,-1.751700680272109,-1.751700680272109,-1.751700680272109,-1.751700680272109,-1.751700680272109,-1.751700680272109,-1.751700680272109,-1.751700680272109,-1.751700680272109,-1.751700680272109,-1.751700680272109,-1.751700680272109,-1.751700680272109,-1.751700680272109,-1.751700680272109,-1.751700680272109,-1.751700680272109,-1.751700680272109,-1.751700680272109,-1.751700680272109,-1.751700680272109,-1.751700680272109,-1.751700680272109,-1.751700680272109,-1.751700680272109,-1.751700680272109,-1.751700680272109,-1.751700680272109,-1.751700680272109,-1.751700680272109,-1.751700680272109,-1.751700680272109,-1.751700680272109,-1.751700680272109,-1.751700680272109,-1.751700680272109,-1.751700680272109,-1.751700680272109,-1.751700680272109,-1.751700680272109,-1.751700680272109,-1.751700680272109,-1.751700680272109,-1.751700680272109,-1.751700680272109,-1.751700680272109,-1.751700680272109,-1.751700680272109,-1.751700680272109,-1.751700680272109,-1.751700680272109,-1.751700680272109,-1.751700680272109,-1.751700680272109,-1.751700680272109,-1.751700680272109,-1.751700680272109,-1.751700680272109,-1.751700680272109,-1.751700680272109,-1.751700680272109,-1.751700680272109,-1.751700680272109,-1.751700680272109,-1.751700680272109,-1.751700680272109,-1.751700680272109,-1.751700680272109,-1.751700680272109,-1.751700680272109,-1.751700680272109,-1.751700680272109,-1.751700680272109,-1.751700680272109,-1.751700680272109,-1.751700680272109,-1.751700680272109,-1.751700680272109,-1.751700680272109,-1.751700680272109,-1.751700680272109,-1.751700680272109,-1.751700680272109,-1.751700680272109,-1.751700680272109,-1.751700680272109,-1.751700680272109,-1.751700680272109,-1.751700680272109,-1.751700680272109,-1.751700680272109,-1.751700680272109,-1.751700680272109,-1.751700680272109,-1.751700680272109,-1.751700680272109,-1.751700680272109,-1.751700680272109,-1.751700680272109,-1.751700680272109,-1.751700680272109,-1.751700680272109,-1.751700680272109,-1.751700680272109,-1.751700680272109,-1.751700680272109,-1.751700680272109,-1.751700680272109,-1.751700680272109,-1.751700680272109,-1.751700680272109,-1.751700680272109,-1.751700680272109,-1.751700680272109,-1.751700680272109,-1.751700680272109,-1.751700680272109,-1.751700680272109,-1.751700680272109,-1.751700680272109,-1.751700680272109,-1.751700680272109,-1.751700680272109,-1.751700680272109,-1.751700680272109,-1.751700680272109,-1.751700680272109,-1.751700680272109,-1.751700680272109,-1.751700680272109,-1.751700680272109,-1.751700680272109,-1.751700680272109,-1.751700680272109,-1.751700680272109,-1.751700680272109,-1.751700680272109,-1.751700680272109,-1.751700680272109,-1.751700680272109,-1.751700680272109,-1.751700680272109,-1.751700680272109,-1.751700680272109,-1.751700680272109,-1.751700680272109,-1.751700680272109,-1.751700680272109,-1.751700680272109,-1.751700680272109,-1.751700680272109,-1.751700680272109,-1.751700680272109,-1.751700680272109,-1.751700680272109,-1.751700680272109,-1.751700680272109,-1.751700680272109,-1.751700680272109,-1.751700680272109,-1.751700680272109,-1.751700680272109,-1.751700680272109,-1.751700680272109,-1.751700680272109,-1.751700680272109,-1.751700680272109,-1.751700680272109,-1.751700680272109,-1.751700680272109,-1.751700680272109,-1.751700680272109,-1.751700680272109,-1.751700680272109,-1.751700680272109,-1.751700680272109,-1.751700680272109,-1.751700680272109,-1.751700680272109,-1.751700680272109,-1.751700680272109,-1.751700680272109,-1.751700680272109,-1.751700680272109,-1.751700680272109,-1.751700680272109,-1.751700680272109,-1.751700680272109,-1.751700680272109,-1.751700680272109,-1.751700680272109,-1.751700680272109,-1.751700680272109,-1.751700680272109,-1.751700680272109,-1.751700680272109,-1.751700680272109,-1.751700680272109,-1.751700680272109,-1.751700680272109,-1.751700680272109,-1.751700680272109,-1.751700680272109,-1.751700680272109,-1.751700680272109,-1.751700680272109,-1.751700680272109,-1.751700680272109,-1.751700680272109,-1.751700680272109,-1.751700680272109,-1.751700680272109,-1.751700680272109,-1.751700680272109,-1.751700680272109,-1.751700680272109,-1.751700680272109,-1.751700680272109,-1.751700680272109,-1.751700680272109,-1.751700680272109,-1.751700680272109,-1.751700680272109,-1.751700680272109,-1.751700680272109,-1.751700680272109,-1.751700680272109,-1.751700680272109,-1.751700680272109,-1.751700680272109,-1.751700680272109,-1.751700680272109,-1.751700680272109,-1.751700680272109,-1.751700680272109,-1.751700680272109,-1.751700680272109,-1.751700680272109,-1.751700680272109,-1.751700680272109,-1.751700680272109,-1.751700680272109,-1.751700680272109,-1.751700680272109,-1.751700680272109,-1.751700680272109,-1.751700680272109,-1.751700680272109,-1.751700680272109,-1.751700680272109,-1.751700680272109,-1.751700680272109,-1.751700680272109,-1.751700680272109,-1.751700680272109,-1.751700680272109,-1.751700680272109,-1.751700680272109,-1.751700680272109,-1.751700680272109,-1.751700680272109,-1.751700680272109,-1.751700680272109,-1.751700680272109,-1.751700680272109,-1.751700680272109,-1.751700680272109,-1.751700680272109,-1.751700680272109,-1.751700680272109,-1.751700680272109,-1.751700680272109,-1.751700680272109,-1.751700680272109,-1.751700680272109,-1.751700680272109,-1.751700680272109,-1.751700680272109,-1.751700680272109,-1.751700680272109,-1.751700680272109,-1.751700680272109,-1.751700680272109,-1.751700680272109,-1.751700680272109,-1.751700680272109,-1.751700680272109,-1.751700680272109,-1.751700680272109,-1.751700680272109,-1.751700680272109,-1.751700680272109,-1.751700680272109,-1.751700680272109,-1.751700680272109,-1.751700680272109,-1.751700680272109,-1.751700680272109,-1.751700680272109,-1.751700680272109,-1.751700680272109,-1.751700680272109,-1.751700680272109,-1.751700680272109,-1.751700680272109,-1.751700680272109,-1.751700680272109,-1.751700680272109,-1.751700680272109,-1.751700680272109,-1.751700680272109,-1.751700680272109,-1.751700680272109,-1.751700680272109,-1.751700680272109,-1.751700680272109,-1.751700680272109,-1.751700680272109,-1.751700680272109,-1.751700680272109,-1.751700680272109,-1.751700680272109,-1.751700680272109,-1.751700680272109,-1.751700680272109,-1.751700680272109,-1.751700680272109,-1.751700680272109,-1.751700680272109,-1.751700680272109,-1.751700680272109,-1.751700680272109,-1.751700680272109,-1.751700680272109,-1.751700680272109,-1.751700680272109,-1.751700680272109,-1.751700680272109,-1.751700680272109,-1.751700680272109,-1.751700680272109,-1.751700680272109,-1.751700680272109,-1.751700680272109,-1.751700680272109,-1.751700680272109,-1.751700680272109,-1.751700680272109,-1.751700680272109,-1.751700680272109,-1.751700680272109,-1.751700680272109,-1.751700680272109,-1.751700680272109,-1.751700680272109,-1.751700680272109,-1.751700680272109,-1.751700680272109,-1.751700680272109,-1.751700680272109,-1.751700680272109,-1.751700680272109,-1.751700680272109,-1.751700680272109,-1.751700680272109,-1.751700680272109,-1.751700680272109,-1.751700680272109,-1.751700680272109,-1.751700680272109,-1.751700680272109,-1.751700680272109,-1.751700680272109,-1.751700680272109,-1.751700680272109,-1.751700680272109,-1.751700680272109,-1.751700680272109,-1.751700680272109,-1.751700680272109,-1.751700680272109,-1.751700680272109,-1.751700680272109,-1.751700680272109,-1.751700680272109,-1.751700680272109,-1.751700680272109,-1.751700680272109,-1.751700680272109,-1.751700680272109,-1.751700680272109,-1.751700680272109,-1.751700680272109,-1.751700680272109,-1.751700680272109,-1.751700680272109,-1.751700680272109,-1.751700680272109,-1.751700680272109,-1.751700680272109,-1.751700680272109,-1.751700680272109,-1.751700680272109,-1.751700680272109,-1.751700680272109,-1.751700680272109,-1.751700680272109,-1.751700680272109,-1.751700680272109,-1.751700680272109,-1.751700680272109,-1.751700680272109,-1.751700680272109,-1.751700680272109,-1.751700680272109,-1.751700680272109,-1.751700680272109,-1.751700680272109,-1.751700680272109,-1.751700680272109,-1.751700680272109,-1.751700680272109,-1.751700680272109,-1.751700680272109,-1.751700680272109,-1.751700680272109,-1.751700680272109,-1.751700680272109,-1.751700680272109,-1.751700680272109,-1.751700680272109,-1.751700680272109,-1.751700680272109,-1.751700680272109,-1.751700680272109,-1.751700680272109,-1.751700680272109,-1.751700680272109,-1.751700680272109,-1.751700680272109,-1.751700680272109,-1.751700680272109,-1.751700680272109,-1.751700680272109,-1.751700680272109,-1.751700680272109,-1.751700680272109,-1.751700680272109,-1.751700680272109,-1.751700680272109,-1.751700680272109,-1.751700680272109,-1.751700680272109,-1.751700680272109,-1.751700680272109,-1.751700680272109,-1.751700680272109,-1.751700680272109,-1.751700680272109,-1.751700680272109,-1.751700680272109,-1.751700680272109,-1.751700680272109,-1.751700680272109,-1.751700680272109,-1.751700680272109,-1.751700680272109,-1.751700680272109,-1.751700680272109,-1.751700680272109,-1.751700680272109,-1.751700680272109,-1.751700680272109,-1.751700680272109,-1.751700680272109,-1.751700680272109,-1.751700680272109,-1.751700680272109,-1.751700680272109,-1.751700680272109,-1.751700680272109,-1.751700680272109,-1.751700680272109,-1.751700680272109,-1.751700680272109,-1.751700680272109,-1.751700680272109,-1.751700680272109,-1.751700680272109,-1.751700680272109,-1.751700680272109,-1.751700680272109,-1.751700680272109,-1.751700680272109,-1.751700680272109,-1.751700680272109,-1.751700680272109,-1.751700680272109,-1.751700680272109,-1.751700680272109,-1.751700680272109,-1.751700680272109,-1.751700680272109,-1.751700680272109,-1.751700680272109,-1.751700680272109,-1.751700680272109,-1.751700680272109,-1.751700680272109,-1.751700680272109,-1.751700680272109,-1.751700680272109,-1.751700680272109,-1.751700680272109,-1.751700680272109,-1.751700680272109,-1.751700680272109,-1.751700680272109,-1.751700680272109,-1.751700680272109,-1.751700680272109,-1.751700680272109,-1.751700680272109,-1.751700680272109,-1.751700680272109,-1.751700680272109,-1.751700680272109,-1.751700680272109,-1.751700680272109,-1.751700680272109,-1.751700680272109,-1.751700680272109,-1.751700680272109,-1.751700680272109,-1.751700680272109,-1.751700680272109,-1.751700680272109,-1.751700680272109,-1.751700680272109,-1.751700680272109,-1.751700680272109,-1.751700680272109,-1.751700680272109,-1.751700680272109,-1.751700680272109,-1.751700680272109,-1.751700680272109,-1.751700680272109,-1.751700680272109,-1.751700680272109,-1.751700680272109,-1.751700680272109,-1.751700680272109,-1.751700680272109,-1.751700680272109,-1.751700680272109,-1.751700680272109,-1.751700680272109,-1.751700680272109,-1.751700680272109,-1.751700680272109,-1.751700680272109,-1.751700680272109,-1.751700680272109,-1.751700680272109,-1.751700680272109,-1.751700680272109,-1.751700680272109,-1.751700680272109,-1.751700680272109,-1.751700680272109,-1.751700680272109,-1.751700680272109,-1.751700680272109,-1.751700680272109,-1.751700680272109,-1.751700680272109,-1.751700680272109,-1.751700680272109,-1.751700680272109,-1.751700680272109,-1.751700680272109,-1.751700680272109,-1.751700680272109,-1.751700680272109,-1.751700680272109,-1.751700680272109,-1.751700680272109,-1.751700680272109,-1.751700680272109,-1.751700680272109,-1.751700680272109,-1.751700680272109,-1.751700680272109,-1.751700680272109,-1.751700680272109,-1.751700680272109,-1.751700680272109,-1.751700680272109,-1.751700680272109,-1.751700680272109,-1.751700680272109,-1.751700680272109,-1.751700680272109,-1.751700680272109,-1.751700680272109,-1.751700680272109,-1.751700680272109,-1.751700680272109,-1.751700680272109,-1.751700680272109,-1.751700680272109,-1.751700680272109,-1.751700680272109,-1.751700680272109,-1.751700680272109,-1.751700680272109,-1.751700680272109,-1.751700680272109,-1.751700680272109,-1.751700680272109,-1.751700680272109,-1.751700680272109,-1.751700680272109,-1.751700680272109,-1.751700680272109,-1.751700680272109,-1.751700680272109,-1.751700680272109,-1.751700680272109,-1.751700680272109,-1.751700680272109,-1.751700680272109,-1.751700680272109,-1.751700680272109,-1.751700680272109,-1.751700680272109,-1.751700680272109,-1.751700680272109,-1.751700680272109,-1.751700680272109,-1.751700680272109,-1.751700680272109,-1.751700680272109,-1.751700680272109,-1.751700680272109,-1.751700680272109,-1.751700680272109,-1.751700680272109,-1.751700680272109,-1.751700680272109,-1.751700680272109,-1.751700680272109,-1.751700680272109,-1.751700680272109,-1.751700680272109,-1.751700680272109,-1.751700680272109,-1.751700680272109,-1.751700680272109,-1.751700680272109,-1.751700680272109,-1.751700680272109,-1.751700680272109,-1.751700680272109,-1.751700680272109,-1.751700680272109,-1.751700680272109,-1.751700680272109,-1.751700680272109,-1.751700680272109,-1.751700680272109,-1.751700680272109,-1.751700680272109,-1.751700680272109,-1.751700680272109,-1.751700680272109,-1.751700680272109,-1.751700680272109,-1.751700680272109,-1.751700680272109,-1.751700680272109,-1.751700680272109,-1.751700680272109,-1.751700680272109,-1.751700680272109,-1.751700680272109,-1.751700680272109,-1.751700680272109,-1.751700680272109,-1.751700680272109,-1.751700680272109,-1.751700680272109,-1.751700680272109,-1.751700680272109,-1.751700680272109,-1.751700680272109,-1.751700680272109,-1.751700680272109,-1.751700680272109,-1.751700680272109,-1.751700680272109,-1.751700680272109,-1.751700680272109,-1.751700680272109,-1.751700680272109,-1.751700680272109,-1.751700680272109,-1.751700680272109,-1.751700680272109,-1.751700680272109,-1.751700680272109,-1.751700680272109,-1.751700680272109,-1.751700680272109,-1.751700680272109,-1.751700680272109,-1.751700680272109,-1.751700680272109,-1.751700680272109,-1.751700680272109,-1.751700680272109,-1.751700680272109,-1.751700680272109,-1.751700680272109,-1.751700680272109,-1.751700680272109,-1.751700680272109,-1.751700680272109,-1.751700680272109,-1.751700680272109,-1.751700680272109,-1.751700680272109,-1.751700680272109,-1.751700680272109,-1.751700680272109,-1.751700680272109,-1.751700680272109,-1.751700680272109,-1.751700680272109,-1.751700680272109,-1.751700680272109,-1.751700680272109,-1.751700680272109,-1.751700680272109,-1.751700680272109,-1.751700680272109,-1.751700680272109,-1.751700680272109,-1.751700680272109,-1.751700680272109,-1.751700680272109,-1.751700680272109,-1.751700680272109,-1.751700680272109,-1.751700680272109,-1.751700680272109,-1.751700680272109,-1.751700680272109,-1.751700680272109,-1.751700680272109,-1.751700680272109,-1.751700680272109,-1.751700680272109,-1.751700680272109,-1.751700680272109,-1.751700680272109,-1.751700680272109,-1.751700680272109,-1.751700680272109,-1.751700680272109,-1.751700680272109,-1.751700680272109,-1.751700680272109,-1.751700680272109,-1.751700680272109,-1.751700680272109,-1.751700680272109,-1.751700680272109,-1.751700680272109,-1.751700680272109,-1.751700680272109,-1.751700680272109,-1.751700680272109,-1.751700680272109,-1.751700680272109,-1.751700680272109,-1.751700680272109,-1.751700680272109,