[{"success":true,"trial_type":"fullscreen","trial_index":0,"time_elapsed":3516,"internal_node_id":"0.0-0.0","protocol_sum":"","subject_identifier":523,"subject_sum":[232,136,166,118,225,146,109,12,8,181,241,31,185,17,109,245,139,98,96,75,5,132,111,57,248,214,252,77,208,186,49,241],"subject_pair":261,"STUDY_ID":"66a3ed3c5d10d0e7d8a6b9da","PROLIFIC_PID":"615dbec57d764bf5ab0a56e5","SESSION_ID":"66a44c9498b2677590fcddc6","practice_instructions":1,"leaderboard_instructions":0,"bonus":0,"reveal_word":true,"self_rating":"5","confidence":"100"},{"view_history":"[{\"page_index\":0,\"viewing_time\":8441.300000190735}]","rt":8441.800000190735,"trial_type":"instructions","trial_index":1,"time_elapsed":11960,"internal_node_id":"0.0-1.0","protocol_sum":"","subject_identifier":523,"subject_sum":[232,136,166,118,225,146,109,12,8,181,241,31,185,17,109,245,139,98,96,75,5,132,111,57,248,214,252,77,208,186,49,241],"subject_pair":261,"STUDY_ID":"66a3ed3c5d10d0e7d8a6b9da","PROLIFIC_PID":"615dbec57d764bf5ab0a56e5","SESSION_ID":"66a44c9498b2677590fcddc6","practice_instructions":1,"leaderboard_instructions":0,"bonus":0,"reveal_word":true,"self_rating":"5","confidence":"100"},{"view_history":"[{\"page_index\":0,\"viewing_time\":43729.800000190735}]","rt":43730.300000190735,"trial_type":"instructions","trial_index":2,"time_elapsed":55692,"internal_node_id":"0.0-2.0-0.0","protocol_sum":"","subject_identifier":523,"subject_sum":[232,136,166,118,225,146,109,12,8,181,241,31,185,17,109,245,139,98,96,75,5,132,111,57,248,214,252,77,208,186,49,241],"subject_pair":261,"STUDY_ID":"66a3ed3c5d10d0e7d8a6b9da","PROLIFIC_PID":"615dbec57d764bf5ab0a56e5","SESSION_ID":"66a44c9498b2677590fcddc6","practice_instructions":1,"leaderboard_instructions":0,"bonus":0,"reveal_word":true,"self_rating":"5","confidence":"100"},{"rt":13760.199999809265,"responses":"{\"Q0\":\"... reveal the word with as <b>few letter guesses</b> as possible\"}","question_order":"[0]","trial_type":"survey-multi-choice","trial_index":3,"time_elapsed":69455,"internal_node_id":"0.0-2.0-1.0","protocol_sum":"","subject_identifier":523,"subject_sum":[232,136,166,118,225,146,109,12,8,181,241,31,185,17,109,245,139,98,96,75,5,132,111,57,248,214,252,77,208,186,49,241],"subject_pair":261,"correct":true,"test_part":"multichoice_nonpretend","STUDY_ID":"66a3ed3c5d10d0e7d8a6b9da","PROLIFIC_PID":"615dbec57d764bf5ab0a56e5","SESSION_ID":"66a44c9498b2677590fcddc6","practice_instructions":1,"leaderboard_instructions":0,"bonus":0,"reveal_word":true,"self_rating":"5","confidence":"100"},{"view_history":"[{\"page_index\":0,\"viewing_time\":2399.7000000476837}]","rt":2400.0999999046326,"trial_type":"instructions","trial_index":4,"time_elapsed":71857,"internal_node_id":"0.0-3.0","protocol_sum":"","subject_identifier":523,"subject_sum":[232,136,166,118,225,146,109,12,8,181,241,31,185,17,109,245,139,98,96,75,5,132,111,57,248,214,252,77,208,186,49,241],"subject_pair":261,"STUDY_ID":"66a3ed3c5d10d0e7d8a6b9da","PROLIFIC_PID":"615dbec57d764bf5ab0a56e5","SESSION_ID":"66a44c9498b2677590fcddc6","practice_instructions":1,"leaderboard_instructions":0,"bonus":0,"reveal_word":true,"self_rating":"5","confidence":"100"},{"word":"ZEBRA","click_log":{"letter":["","C","A","M","N","P","Q","W","U","T","K","D","S","J","H","O","Z","E","B","R"],"t":[0,11767.299999952316,13323.099999904633,16539.5,17358.900000095367,18189.099999904633,18565.400000095367,19091.400000095367,20107.5,20489.799999952316,21067.599999904633,21914.900000095367,22588.400000095367,23010.700000047684,24181.200000047684,25323.900000095367,27289.900000095367,30783.299999952316,34112.200000047684,35153.90000009537],"hit":[null,0,1,0,0,0,0,0,0,0,0,0,0,0,0,0,1,1,1,1],"asked":["","C","CA","CAM","CAMN","CAMNP","CAMNPQ","CAMNPQW","CAMNPQWU","CAMNPQWUT","CAMNPQWUTK","CAMNPQWUTKD","CAMNPQWUTKDS","CAMNPQWUTKDSJ","CAMNPQWUTKDSJH","CAMNPQWUTKDSJHO","CAMNPQWUTKDSJHOZ","CAMNPQWUTKDSJHOZE","CAMNPQWUTKDSJHOZEB","CAMNPQWUTKDSJHOZEBR"],"word_state":["_____","_____","____A","____A","____A","____A","____A","____A","____A","____A","____A","____A","____A","____A","____A","____A","Z___A","ZE__A","ZEB_A","ZEBRA"]},"hover_log":{"letter":["?","?","?","?","?","?","?","?","?","?","?","?","?","?","?","?","?","?","?","?","K","K","L","M","N","O","?","?","?","?","?","?","?","?","?","?","?","?","?","?","?","?","?","?","?","?","?","?","?","?","?","?","?","?","?","?","?","?","?","?","?","?","?","?","?","?","?","?","?","?","?","?","?","?","?","?","?","?","?","?","?","?","?","?","?","?","?","?","?","?","?","?","?","?","?","?","?","?","?","?","?","?","?","?","?","?","?","?","?","?","?","?","?","?","?","?","?","?","?","?","?","?","?","?","?","?","?","?","?","?","?","?","?","?","?","?","?","?","?","?","?","?","?","?","?","?","?","?","?","?","?","?","?","?","?","?","?","?","?","?","?","?","?","?","?","?","?","?","?","?","?","?","?","?","?","?","?","?","?","?","?","?","?","?","?","?","?","?","?","?","?","?","?","?","?","?","?","?","?","?","?","?","?","?","?","?","?","?","?","?","?","?","?","?","?","?","?","?","?","?","?","?","?","?","?","?","?","?","?","?","?","?","?","?","?","?","?","?","?","?","?","?","?","?","?","?","?","?","?","?","?","?","?","?","?","?","?","?","?","?","?","?","?","?","?","?","?","?","?","?","?","?","?","?","?","?","?","?","?","?","?","?","?","?","?","?","?","?","?","?","?","?","?","?","?","?","?","?","?","?","?","?","?","?","?","?","?","?","?","?","?","?","?","?","?","?","?","?","?","?","?","?","?","?","?","?","?","?","?","?","?","?","?","?","?","?","?","?","?","?","?","?","?","?","?","?","?","?","?","?","?","?","?","?","?","?","?","?","?","?","?","?","?","?","?","?","?","?","?","?","?","?","?","?","?","?","?","?","?","?","?","?","?","?","?","?","?","?","?","?","?","?","?","?","?","?","?","?","?","?","?","?","?","?","?","?","?","?","?","?","?","?","?","?","?","?","?","?","?","?","?","?","?","?","?","?","?","?","?","?","?","?","?","?","?","?","?","?","?","?","?","?","?","?","?","?","?","?","?","?","?","?","?","?","?","?","?","?","?","?","?","?","?","?","?","?","?","?","?","?","?","?","?","?","?","?","?","?","?","?","?","?","?","?","?","?","?","?","?","?","?","?","?","?","?","?","?","?","?","?","?","?","?","?","?","?","?","?","?","?","?","?","?","?","?","?","?","?","?","?","?","?","?","?","?","?","?","?","?","?","?","?","?","?","?","?","?","?","?","?","?","?","?","?","?","?","?","?","?","?","D","D","D","D","?","C","C","C","C","C","?","?","B","B","B","B","?","?","?","?","?","?","?","?","?","?","?","?","?","?","V","W","X","X","?","?","?","?","?","?","?","?","?","?","?","?","?","Q","Q","Q","Q","Q","Q","Q","Q","Q","Q","Q","Q","Q","Q","Q","Q","Q","Q","Q","Q","Q","Q","Q","Q","Q","?","?","?","?","?","?","?","?","?","?","?","?","?","?","O","O","O","O","?","N","N","?","?","?","?","?","?","?","?","?","?","?","?","?","?","E","E","E","E","?","?","?","?","D","D","D","D","D","?","C","C","C","C","C","C","C","C","C","C","C","C","C","C","C","C","C","C","C","C","C","C","C","C","C","C","C","C","C","C","C","C","C","C","C","C","C","C","C","C","C","C","C","C","C","C","C","C","C","C","C","C","C","C","C","C","C","C","?","B","B","B","B","?","A","A","A","A","A","A","A","A","A","A","A","A","A","A","A","A","A","A","A","A","A","A","A","A","A","A","A","A","A","A","A","A","A","A","A","A","A","A","A","A","A","A","A","A","A","A","A","A","A","A","A","A","A","A","A","A","A","A","A","A","A","A","A","A","A","A","A","A","A","A","A","A","A","A","A","A","A","A","A","A","A","A","A","A","A","A","A","A","A","B","B","B","?","C","C","?","?","D","D","?","?","?","E","E","?","?","?","?","?","?","?","?","?","?","?","?","?","?","?","?","?","?","?","?","?","?","P","P","P","P","P","P","P","P","P","P","P","P","P","P","P","P","P","P","P","P","P","P","P","P","P","P","P","P","P","P","P","P","P","P","P","P","?","?","?","?","?","?","?","?","?","?","?","?","?","?","?","?","?","?","?","P","P","?","O","?","?","?","?","?","?","?","?","?","?","?","?","?","?","?","?","?","D","D","D","D","D","D","D","D","D","D","D","D","D","D","D","D","D","D","D","?","?","?","M","M","M","M","M","M","M","M","M","M","M","M","M","M","M","M","M","M","M","M","M","M","M","M","M","M","M","M","M","N","N","N","N","N","N","N","N","N","N","N","N","N","N","N","N","N","N","N","N","N","N","N","N","N","N","N","N","N","N","N","N","N","N","N","N","N","N","N","N","N","N","N","N","N","N","O","O","O","O","O","O","O","O","O","O","O","O","O","O","O","O","O","O","O","?","P","P","P","P","P","P","P","P","P","P","P","P","P","P","P","P","P","P","P","P","P","P","P","P","P","P","P","P","P","P","P","Q","Q","Q","Q","Q","Q","Q","Q","Q","Q","Q","Q","Q","Q","Q","Q","Q","Q","Q","Q","Q","?","P","?","?","?","?","?","?","?","?","?","W","W","W","W","W","W","W","W","W","W","W","W","W","W","W","W","W","W","W","W","?","V","V","?","?","?","?","?","?","?","?","?","?","?","?","?","?","?","?","?","?","?","U","U","U","U","U","U","U","U","U","U","U","U","U","U","U","U","U","U","U","U","U","U","U","U","U","U","U","U","U","U","U","U","U","U","U","U","U","U","U","U","?","T","T","T","T","T","T","T","T","T","T","T","T","T","T","T","T","T","T","T","T","T","T","T","?","?","?","?","?","?","?","?","K","K","K","K","K","K","K","K","K","K","K","K","K","K","K","K","K","K","K","K","K","K","K","K","K","K","K","K","K","K","K","K","K","K","K","K","K","K","K","?","?","?","?","?","?","?","?","D","D","D","D","D","D","D","D","D","D","D","D","D","D","D","D","D","D","D","D","D","D","D","D","D","D","D","D","D","D","C","?","?","J","?","?","?","?","?","?","?","?","?","?","?","?","?","?","S","S","S","S","S","S","S","S","S","S","S","S","S","S","S","S","S","S","S","S","S","S","S","?","?","?","?","?","J","J","J","J","J","J","J","J","J","J","J","J","J","J","J","J","J","J","J","J","J","J","J","J","J","J","J","J","J","J","J","J","J","J","J","J","K","?","L","?","?","?","?","?","?","?","?","?","?","?","?","?","?","I","I","I","I","I","I","I","I","I","I","?","?","?","?","H","H","H","H","H","H","H","H","H","H","H","H","H","H","H","H","H","H","H","H","?","I","I","I","I","I","I","I","I","H","H","?","G","G","G","G","G","G","G","G","G","G","G","G","G","G","G","G","G","G","G","G","G","G","G","?","?","?","?","?","P","P","P","P","?","O","O","O","O","O","O","O","O","O","O","O","O","O","O","O","O","O","O","O","O","O","O","O","O","O","O","O","?","?","P","P","P","P","?","?","?","?","?","?","?","?","?","?","?","?","?","?","?","?","?","?","?","?","?","?","?","?","?","?","?","?","?","?","?","?","?","?","?","?","?","?","?","?","?","?","?","?","?","?","?","?","?","?","?","?","Z","Z","Z","Z","Z","Z","Z","Z","Z","Z","Z","Z","Z","Z","Z","Z","Z","Z","Z","Z","Z","Z","Z","Z","Z","Z","Z","Z","Z","Z","Z","Z","Z","Z","Z","Z","Z","Z","Z","Z","Z","Z","Z","Z","Z","Z","Z","Z","Z","Z","Z","Z","Z","Z","Z","Z","Z","Z","Z","Z","Z","Z","Z","Z","Z","Z","Z","Z","Z","Z","Z","Z","Z","Z","Z","Z","Z","Z","Z","Z","Z","Z","Z","Z","Z","Z","?","?","R","R","R","?","I","I","I","I","?","?","?","?","?","?","?","?","?","?","?","?","?","?","?","?","?","?","?","?","?","?","?","?","?","?","?","?","?","?","?","?","?","?","?","?","?","?","?","?","?","?","?","?","?","?","?","?","?","?","?","?","?","?","?","?","?","?","?","?","?","?","?","?","?","?","?","?","?","?","?","?","?","?","?","?","?","?","?","?","?","?","?","?","?","?","?","?","?","?","?","?","?","?","?","?","?","?","?","?","?","?","?","?","?","?","?","?","?","?","?","?","?","?","?","?","?","F","?","E","E","E","E","E","E","E","E","E","E","E","E","?","D","D","D","D","D","D","D","D","D","D","D","D","D","?","?","?","?","?","E","E","E","E","E","E","E","E","E","E","E","E","E","E","E","E","E","E","E","E","E","E","E","E","E","E","E","E","E","E","E","E","E","E","E","E","E","E","E","E","E","E","E","E","E","E","E","E","E","E","E","E","E","E","E","E","E","E","E","E","E","E","?","?","?","?","?","?","?","?","?","?","?","?","?","?","?","?","?","?","?","?","?","?","?","?","?","?","?","?","?","?","?","?","?","?","?","?","?","?","?","?","?","?","?","?","?","?","?","G","G","G","G","?","?","?","?","?","?","?","?","?","?","?","?","?","?","?","?","?","?","?","F","F","F","F","F","F","F","F","F","?","?","?","?","O","O","O","?","?","?","?","?","?","W","W","W","W","W","W","W","?","V","V","V","?","?","?","?","?","?","L","?","?","?","?","?","?","?","?","?","?","?","?","?","?","?","?","?","?","?","?","B","B","B","B","B","B","B","B","B","B","B","B","B","B","B","B","B","B","B","B","B","B","B","B","B","B","B","B","B","B","C","D","E","?","F","G","G","G","?","?","?","?","?","?","?","?","H","H","H","H","H","H","?","?","?","?","?","?","?","?","?","?","?","?","?","R","R","R","R","R","R","R","R","R","R","R","R","R","R","R","R","R","R","R","R","R","R","R","R","R","R","?","?","?","?","?","?","?","?","?","?","?","?","?","?","?","?","?","?","?","?","?","?","?","?","?","?","?","?","?","?","?","?","?","?","?","?","?","?","?","?","?","?","?","?","?","?","?","?","?","?","?","?","?","?","?","?","?","?","?","?","?","?","?","?","?","?","?","?","?","?","?","?","?","F","F","G","?","?","?","?","?","?","?","?","?","?","?","?","?","?","?","?","?","?","?","?","?","?","?","?","?","?","?","?","?","?","?","?","?","?","?","?","?","?","?"],"t":[36,41,61,75,95,114,139,148,161,177,194,210,227,243,260,278,298,314,327,351,361,377,396,413,429,448,462,478,495,513,528,545,562,578,595,613,629,645,663,679,696,713,729,746,766,782,797,815,832,849,866,882,897,919,933,947,968,979,998,1019,1030,1049,1066,1083,1097,1117,1133,1148,1168,1181,1200,1217,1234,1249,1267,1285,1299,1319,1335,1349,1368,1383,1401,1416,1433,1452,1469,1486,1501,1517,1533,1554,1574,1603,1619,1636,1653,1669,1684,1701,1717,1731,1753,1767,1787,1801,1818,1836,1852,1870,1885,1901,1919,1935,1952,1969,1985,2002,2019,2037,2052,2069,2086,2103,2119,2136,2153,2171,2187,2203,2219,2238,2253,2270,2287,2304,2321,2337,2355,2371,2387,2404,2421,2438,2455,2474,2489,2505,2521,2538,2555,2572,2589,2606,2623,2639,2655,2673,2690,2709,2723,2740,2759,2773,2790,2806,2823,2840,2857,2874,2891,2907,2924,2942,2959,2974,2991,3008,3026,3042,3058,3075,3091,3108,3125,3142,3159,3175,3192,3209,3226,3243,3259,3276,3293,3310,3326,3343,3360,3377,3394,3410,3427,3444,3461,3477,3494,3511,3527,3544,3561,3578,3595,3611,3628,3645,3661,3678,3695,3712,3728,3745,3762,3779,3796,3813,3829,3846,3863,3882,3899,3913,3931,3947,3963,3981,3996,4013,4030,4048,4064,4081,4098,4114,4131,4147,4165,4182,4198,4216,4231,4248,4265,4282,4299,4315,4332,4349,4365,4382,4400,4416,4433,4450,4466,4483,4500,4518,4533,4551,4567,4583,4600,4617,4634,4652,4668,4684,4702,4718,4734,4752,4768,4786,4801,4818,4835,4852,4868,4886,4902,4919,4937,4952,4969,4988,5004,5019,5036,5053,5070,5087,5103,5120,5136,5153,5170,5187,5204,5222,5237,5256,5271,5288,5306,5321,5339,5356,5371,5389,5405,5423,5439,5455,5472,5489,5505,5522,5539,5556,5573,5589,5606,5623,5640,5656,5674,5690,5707,5724,5740,5758,5774,5790,5807,5824,5841,5857,5874,5891,5908,5924,5941,5958,5976,5991,6008,6025,6042,6059,6075,6092,6110,6126,6143,6159,6176,6192,6209,6226,6243,6260,6277,6293,6310,6327,6343,6361,6377,6394,6411,6427,6444,6461,6478,6495,6511,6528,6545,6561,6578,6595,6612,6629,6645,6662,6679,6695,6713,6730,6746,6764,6780,6796,6813,6830,6846,6864,6880,6897,6914,6930,6947,6964,6980,6997,7015,7031,7048,7064,7081,7098,7115,7131,7148,7165,7185,7199,7215,7232,7249,7266,7282,7299,7316,7333,7349,7366,7383,7400,7416,7433,7450,7467,7483,7500,7517,7534,7550,7567,7584,7601,7618,7634,7651,7670,7685,7702,7718,7735,7752,7769,7785,7802,7819,7836,7852,7869,7886,7903,7919,7936,7953,7970,7986,8003,8020,8036,8054,8072,8087,8104,8120,8137,8154,8172,8187,8204,8221,8238,8255,8271,8288,8305,8321,8338,8355,8372,8389,8405,8422,8440,8456,8473,8490,8507,8524,8540,8557,8576,8590,8606,8623,8640,8657,8674,8691,8707,8724,8743,8759,8775,8791,8808,8827,8843,8858,8875,8892,8910,8926,8943,8959,8976,8992,9010,9026,9042,9059,9076,9092,9109,9127,9143,9160,9176,9193,9210,9227,9245,9265,9279,9295,9312,9329,9344,9364,9379,9396,9413,9429,9445,9462,9479,9498,9513,9530,9546,9564,9579,9597,9613,9631,9646,9663,9681,9698,9714,9732,9747,9764,9780,9799,9813,9830,9846,9863,9882,9897,9915,9932,9948,9965,9982,9998,10016,10032,10050,10068,10083,10099,10115,10134,10149,10166,10183,10198,10216,10233,10249,10266,10282,10299,10316,10333,10349,10369,10383,10400,10417,10434,10451,10467,10484,10500,10517,10534,10551,10567,10585,10603,10618,10636,10653,10670,10686,10702,10719,10736,10753,10771,10786,10805,10819,10836,10852,10869,10886,10902,10922,10937,10954,10973,10987,11004,11021,11039,11054,11072,11087,11104,11121,11140,11156,11176,11189,11208,11222,11239,11255,11273,11289,11307,11324,11339,11357,11373,11390,11406,11423,11439,11457,11473,11491,11507,11524,11543,11558,11574,11590,11607,11624,11643,11659,11675,11692,11708,11725,11743,11759,11776,11794,11813,11837,11846,11860,11880,11894,11912,11926,11945,11961,11978,11995,12010,12030,12045,12060,12078,12095,12112,12129,12150,12161,12179,12196,12212,12228,12246,12263,12281,12297,12313,12329,12351,12364,12380,12397,12413,12432,12446,12463,12480,12496,12513,12530,12547,12564,12581,12600,12615,12630,12648,12665,12681,12699,12719,12732,12749,12764,12788,12798,12815,12832,12849,12866,12882,12898,12915,12936,12948,12966,12984,12999,13016,13037,13049,13066,13086,13099,13116,13139,13151,13167,13184,13201,13217,13238,13255,13267,13287,13302,13321,13336,13351,13368,13387,13401,13422,13438,13455,13475,13486,13502,13520,13538,13553,13570,13587,13603,13620,13639,13655,13673,13688,13703,13721,13738,13760,13771,13788,13805,13821,13839,13856,13874,13890,13905,13923,13939,13960,13972,13990,14006,14023,14040,14057,14075,14090,14107,14125,14141,14159,14173,14194,14208,14224,14241,14257,14278,14292,14307,14324,14342,14361,14375,14393,14409,14425,14447,14459,14476,14492,14508,14526,14545,14560,14575,14594,14616,14644,14660,14678,14696,14711,14729,14745,14761,14779,14796,14812,14828,14845,14862,14880,14896,14913,14930,14946,14962,14981,14997,15014,15031,15048,15063,15081,15097,15114,15132,15148,15164,15181,15196,15215,15231,15248,15265,15282,15298,15315,15332,15349,15364,15384,15399,15415,15431,15450,15465,15484,15498,15520,15532,15550,15564,15582,15598,15617,15632,15650,15665,15684,15699,15717,15734,15751,15768,15785,15799,15819,15834,15851,15868,15885,15902,15918,15935,15951,15968,15985,16003,16018,16033,16054,16069,16086,16104,16123,16136,16154,16170,16187,16202,16221,16234,16254,16268,16287,16302,16321,16337,16354,16369,16388,16404,16420,16439,16455,16469,16488,16503,16522,16536,16556,16572,16590,16603,16620,16637,16654,16673,16687,16704,16720,16737,16754,16770,16792,16804,16821,16837,16854,16874,16888,16907,16921,16938,16955,16972,16993,17005,17023,17039,17055,17072,17089,17108,17123,17139,17156,17172,17193,17207,17224,17240,17257,17273,17290,17312,17324,17341,17358,17375,17394,17407,17429,17441,17458,17474,17492,17511,17525,17542,17558,17575,17593,17609,17629,17642,17659,17676,17693,17713,17726,17744,17760,17777,17793,17809,17829,17844,17860,17876,17894,17912,17927,17946,17961,17978,17994,18011,18031,18044,18061,18078,18095,18113,18128,18147,18162,18179,18195,18212,18234,18246,18264,18279,18296,18313,18330,18349,18363,18380,18396,18413,18432,18447,18465,18480,18497,18514,18531,18552,18565,18582,18597,18614,18632,18648,18669,18682,18699,18716,18732,18752,18765,18783,18799,18816,18833,18849,18870,18883,18900,18916,18933,18952,18966,18984,19000,19017,19034,19050,19070,19083,19101,19117,19134,19153,19168,19185,19201,19218,19234,19251,19269,19285,19304,19319,19336,19352,19369,19386,19405,19420,19438,19453,19471,19486,19507,19520,19541,19554,19574,19586,19607,19621,19637,19654,19671,19690,19704,19723,19738,19755,19772,19788,19807,19821,19838,19855,19872,19889,19906,19924,19942,19955,19972,19989,20008,20023,20040,20056,20073,20091,20107,20126,20140,20157,20177,20191,20210,20224,20241,20260,20273,20291,20308,20326,20341,20360,20375,20390,20411,20425,20443,20458,20476,20492,20509,20531,20542,20559,20576,20593,20611,20626,20645,20660,20677,20693,20710,20727,20744,20763,20778,20794,20811,20828,20845,20865,20878,20896,20911,20928,20947,20961,20981,20995,21011,21028,21048,21062,21078,21095,21112,21131,21146,21166,21179,21196,21213,21230,21251,21263,21280,21297,21314,21332,21348,21365,21381,21398,21414,21431,21452,21465,21481,21498,21515,21531,21548,21569,21582,21598,21615,21632,21651,21665,21682,21699,21716,21733,21754,21769,21783,21799,21816,21833,21852,21866,21887,21900,21917,21934,21951,21971,21984,22001,22018,22035,22053,22068,22087,22101,22118,22135,22152,22172,22185,22202,22219,22236,22252,22272,22286,22303,22324,22336,22353,22370,22387,22406,22420,22437,22453,22470,22489,22503,22521,22537,22555,22571,22588,22608,22621,22638,22655,22671,22689,22705,22722,22739,22755,22773,22791,22809,22823,22840,22855,22872,22889,22906,22926,22939,22956,22973,22990,23010,23023,23040,23057,23074,23090,23107,23125,23141,23158,23174,23191,23211,23224,23241,23257,23275,23292,23308,23330,23342,23359,23376,23393,23413,23426,23444,23460,23476,23493,23509,23531,23543,23560,23576,23594,23612,23627,23644,23661,23678,23699,23712,23728,23746,23762,23777,23795,23811,23828,23849,23862,23879,23895,23911,23930,23945,23966,23979,23996,24012,24029,24048,24063,24080,24096,24113,24130,24147,24164,24180,24197,24214,24231,24247,24265,24280,24299,24314,24331,24348,24364,24381,24398,24415,24432,24449,24469,24482,24499,24516,24533,24551,24566,24585,24599,24615,24632,24649,24670,24683,24700,24717,24733,24752,24767,24786,24801,24817,24834,24851,24871,24884,24901,24917,24935,24952,24968,24985,25002,25018,25035,25052,25071,25085,25103,25119,25136,25152,25170,25191,25203,25219,25236,25253,25271,25286,25306,25321,25337,25357,25374,25388,25404,25421,25438,25454,25471,25488,25504,25523,25539,25558,25572,25591,25606,25622,25638,25656,25672,25688,25707,25724,25739,25759,25773,25789,25806,25823,25841,25856,25878,25890,25907,25923,25940,25961,25974,25991,26008,26024,26041,26067,26075,26090,26108,26125,26141,26161,26175,26191,26208,26225,26241,26258,26277,26292,26309,26325,26343,26363,26376,26397,26410,26426,26447,26460,26478,26496,26512,26530,26547,26563,26581,26598,26613,26629,26648,26662,26680,26698,26715,26732,26747,26764,26781,26798,26815,26832,26848,26864,26882,26898,26914,26931,26949,26965,26982,26999,27015,27033,27049,27065,27083,27100,27116,27133,27148,27164,27181,27200,27216,27234,27250,27267,27284,27300,27318,27336,27356,27366,27383,27398,27415,27432,27449,27468,27483,27499,27516,27533,27552,27566,27587,27600,27617,27633,27650,27669,27684,27700,27717,27734,27752,27768,27788,27801,27818,27835,27852,27873,27885,27903,27918,27935,27952,27969,27989,28003,28019,28036,28052,28071,28086,28107,28120,28136,28154,28171,28191,28204,28220,28237,28254,28271,28288,28305,28321,28338,28355,28371,28390,28405,28424,28439,28457,28474,28490,28506,28525,28541,28557,28572,28592,28606,28625,28642,28658,28675,28693,28709,28726,28743,28759,28774,28793,28807,28826,28843,28860,28877,28893,28909,28927,28944,28960,28976,28994,29011,29027,29043,29062,29078,29095,29111,29127,29144,29161,29176,29196,29211,29228,29246,29263,29278,29296,29312,29330,29345,29363,29379,29397,29413,29430,29447,29463,29479,29497,29513,29530,29547,29563,29581,29597,29613,29630,29647,29664,29681,29698,29714,29732,29749,29765,29781,29798,29815,29832,29848,29865,29882,29899,29916,29932,29947,29966,29983,29997,30015,30031,30050,30064,30082,30099,30117,30133,30150,30168,30182,30200,30217,30234,30249,30267,30286,30302,30316,30335,30349,30369,30384,30402,30418,30436,30450,30469,30484,30503,30518,30536,30552,30570,30587,30603,30621,30638,30654,30669,30687,30704,30721,30738,30754,30771,30788,30805,30821,30838,30853,30869,30888,30902,30919,30936,30953,30973,30986,31003,31020,31036,31055,31070,31088,31104,31120,31137,31153,31175,31187,31204,31220,31238,31255,31271,31292,31305,31322,31338,31357,31374,31388,31409,31422,31439,31455,31472,31491,31506,31525,31539,31556,31572,31589,31610,31623,31640,31656,31674,31690,31707,31726,31740,31757,31774,31791,31811,31824,31843,31857,31875,31891,31910,31928,31945,31961,31978,31994,32012,32029,32045,32060,32079,32095,32111,32127,32146,32163,32179,32195,32212,32230,32246,32262,32280,32295,32314,32330,32347,32362,32379,32396,32415,32430,32446,32465,32481,32498,32514,32531,32548,32565,32581,32599,32616,32632,32649,32666,32682,32698,32716,32733,32749,32767,32783,32799,32817,32832,32849,32864,32882,32899,32916,32932,32950,32967,32982,32999,33016,33032,33049,33067,33083,33099,33117,33132,33151,33169,33185,33201,33219,33234,33252,33266,33287,33303,33322,33335,33353,33369,33387,33402,33422,33435,33455,33471,33487,33503,33521,33537,33554,33571,33588,33604,33621,33639,33655,33671,33689,33705,33722,33739,33755,33774,33788,33805,33823,33838,33856,33872,33889,33904,33924,33939,33956,33973,33990,34004,34023,34040,34057,34072,34088,34104,34121,34139,34159,34178,34194,34207,34224,34238,34259,34272,34292,34305,34325,34339,34359,34372,34393,34406,34423,34439,34456,34475,34490,34510,34524,34540,34557,34574,34594,34607,34624,34641,34658,34676,34691,34709,34725,34741,34759,34775,34795,34809,34825,34842,34859,34876,34892,34914,34926,34943,34959,34976,34996,35009,35028,35043,35060,35076,35093,35114,35127,35144,35163,35177,35197,35211,35229,35244,35262,35281,35295,35317,35328,35345,35365,35378,35397,35413,35432,35445,35462,35479,35496,35512,35531,35546,35563,35580,35598,35613,35633,35646,35663,35681,35697,35716,35730,35749,35764,35781,35797,35814,35833,35848,35864,35881,35898,35916,35931,35952,35965,35982,35998,36015,36034,36048,36066,36082,36099,36117,36133,36153,36166,36183,36199,36216,36235,36250,36268,36286,36303,36320,36336,36353,36370,36386,36403,36419,36438,36452,36471,36485,36505,36520,36539,36558,36574,36590,36605,36622,36638,36656,36672,36689,36705,36722,36739,36755,36774,36787,36807,36821,36839,36853,36872,36887,36906,36923,36940,36956,36975,36991,37007,37025,37041,37058,37074,37090,37108,37124,37142,37157,37177],"hit":[null],"x":[-2.3316326530612246,-2.3316326530612246,-2.3316326530612246,-2.3316326530612246,-2.3316326530612246,-2.3316326530612246,-2.3316326530612246,-2.3316326530612246,-2.3316326530612246,-2.3316326530612246,-2.3316326530612246,-2.3316326530612246,-2.3316326530612246,-2.3316326530612246,-2.3316326530612246,-2.3316326530612246,-2.3316326530612246,-2.3316326530612246,-2.3316326530612246,0.06972789115646258,0.12414965986394558,0.195578231292517,0.29081632653061223,0.4200680272108844,0.5629251700680272,0.6955782312925171,0.8112244897959183,0.9030612244897959,0.9710884353741497,0.9710884353741497,1.0051020408163265,1.0085034013605443,1.0085034013605443,1.0085034013605443,1.0085034013605443,1.0085034013605443,1.0085034013605443,1.0085034013605443,1.0085034013605443,1.0085034013605443,1.0085034013605443,1.0085034013605443,1.0085034013605443,1.0085034013605443,1.0085034013605443,1.0085034013605443,1.0085034013605443,1.0085034013605443,1.0187074829931972,1.022108843537415,1.0255102040816326,1.0255102040816326,1.032312925170068,1.032312925170068,1.032312925170068,1.032312925170068,1.032312925170068,1.032312925170068,1.032312925170068,1.032312925170068,1.032312925170068,1.032312925170068,1.032312925170068,1.032312925170068,1.032312925170068,1.032312925170068,1.032312925170068,1.032312925170068,1.032312925170068,1.032312925170068,1.032312925170068,1.032312925170068,1.032312925170068,1.032312925170068,1.032312925170068,1.032312925170068,1.032312925170068,1.032312925170068,1.032312925170068,1.032312925170068,1.0391156462585034,1.0493197278911566,1.066326530612245,1.0935374149659864,1.1275510204081634,1.1717687074829932,1.2091836734693877,1.2295918367346939,1.25,1.280612244897959,1.3078231292517006,1.3418367346938775,1.3758503401360545,1.4200680272108843,1.4370748299319729,1.4472789115646258,1.4506802721088434,1.4540816326530612,1.4540816326530612,1.4574829931972788,1.4574829931972788,1.4574829931972788,1.4574829931972788,1.4574829931972788,1.4574829931972788,1.4574829931972788,1.4574829931972788,1.4574829931972788,1.4574829931972788,1.4574829931972788,1.4574829931972788,1.4574829931972788,1.4574829931972788,1.4574829931972788,1.4574829931972788,1.4574829931972788,1.4574829931972788,1.4574829931972788,1.4574829931972788,1.4574829931972788,1.4574829931972788,1.4574829931972788,1.4574829931972788,1.4574829931972788,1.4574829931972788,1.4574829931972788,1.4574829931972788,1.4574829931972788,1.4574829931972788,1.4574829931972788,1.4574829931972788,1.4574829931972788,1.4574829931972788,1.4574829931972788,1.4574829931972788,1.4574829931972788,1.4574829931972788,1.4574829931972788,1.4574829931972788,1.4574829931972788,1.4574829931972788,1.4574829931972788,1.4574829931972788,1.4574829931972788,1.4574829931972788,1.4574829931972788,1.4574829931972788,1.4574829931972788,1.4574829931972788,1.4574829931972788,1.4574829931972788,1.4574829931972788,1.4574829931972788,1.4574829931972788,1.4574829931972788,1.4574829931972788,1.4574829931972788,1.4574829931972788,1.4574829931972788,1.4574829931972788,1.4574829931972788,1.4574829931972788,1.4574829931972788,1.4574829931972788,1.4574829931972788,1.4574829931972788,1.4574829931972788,1.4574829931972788,1.4574829931972788,1.4574829931972788,1.4574829931972788,1.4574829931972788,1.4574829931972788,1.4574829931972788,1.4574829931972788,1.4574829931972788,1.4574829931972788,1.4574829931972788,1.4574829931972788,1.4574829931972788,1.4574829931972788,1.4574829931972788,1.4574829931972788,1.4574829931972788,1.4574829931972788,1.4574829931972788,1.4574829931972788,1.4574829931972788,1.4574829931972788,1.4574829931972788,1.4540816326530612,1.4540816326530612,1.4540816326530612,1.4540816326530612,1.4540816326530612,1.4540816326530612,1.4540816326530612,1.4540816326530612,1.4540816326530612,1.4540816326530612,1.4540816326530612,1.4540816326530612,1.4540816326530612,1.4540816326530612,1.4540816326530612,1.4540816326530612,1.4540816326530612,1.4540816326530612,1.4540816326530612,1.4540816326530612,1.4540816326530612,1.4540816326530612,1.4540816326530612,1.4540816326530612,1.4540816326530612,1.4540816326530612,1.4540816326530612,1.4540816326530612,1.4540816326530612,1.4540816326530612,1.4540816326530612,1.4540816326530612,1.4540816326530612,1.4540816326530612,1.4540816326530612,1.4540816326530612,1.4540816326530612,1.4540816326530612,1.4540816326530612,1.4506802721088434,1.4506802721088434,1.4506802721088434,1.4506802721088434,1.4506802721088434,1.4506802721088434,1.4506802721088434,1.4506802721088434,1.4506802721088434,1.4506802721088434,1.4506802721088434,1.4506802721088434,1.4506802721088434,1.4506802721088434,1.4506802721088434,1.4506802721088434,1.4506802721088434,1.4506802721088434,1.4506802721088434,1.4506802721088434,1.4506802721088434,1.4506802721088434,1.4506802721088434,1.4506802721088434,1.4506802721088434,1.4506802721088434,1.4506802721088434,1.4506802721088434,1.4506802721088434,1.4506802721088434,1.4506802721088434,1.4506802721088434,1.4506802721088434,1.4506802721088434,1.4506802721088434,1.4506802721088434,1.4506802721088434,1.4506802721088434,1.4506802721088434,1.4506802721088434,1.4506802721088434,1.4506802721088434,1.4506802721088434,1.4506802721088434,1.4506802721088434,1.4506802721088434,1.4506802721088434,1.4506802721088434,1.4506802721088434,1.4506802721088434,1.4506802721088434,1.4506802721088434,1.4506802721088434,1.4506802721088434,1.4472789115646258,1.4472789115646258,1.4472789115646258,1.4472789115646258,1.4472789115646258,1.4472789115646258,1.4472789115646258,1.4472789115646258,1.4472789115646258,1.4472789115646258,1.4438775510204083,1.4438775510204083,1.4064625850340136,1.4064625850340136,1.4064625850340136,1.4064625850340136,1.4064625850340136,0.9982993197278912,0.8826530612244898,0.8826530612244898,0.8826530612244898,0.8826530612244898,0.8826530612244898,0.8826530612244898,0.5595238095238095,0.5595238095238095,0.4812925170068027,0.4642857142857143,0.4608843537414966,0.4608843537414966,0.4608843537414966,0.45408163265306123,0.4302721088435374,0.38945578231292516,0.3486394557823129,0.31802721088435376,0.2942176870748299,0.28401360544217685,0.28401360544217685,0.28401360544217685,0.28401360544217685,0.28401360544217685,0.28401360544217685,0.28401360544217685,0.28401360544217685,0.28401360544217685,0.28401360544217685,0.28401360544217685,0.28401360544217685,0.28401360544217685,0.28401360544217685,0.28401360544217685,0.28401360544217685,0.28401360544217685,0.28401360544217685,0.27380952380952384,0.26360544217687076,0.2534013605442177,0.2465986394557823,0.2465986394557823,0.2465986394557823,0.2465986394557823,0.2465986394557823,0.2465986394557823,0.2465986394557823,0.2465986394557823,0.2465986394557823,0.2465986394557823,0.2465986394557823,0.2465986394557823,0.2465986394557823,0.2465986394557823,0.2465986394557823,0.2465986394557823,0.2465986394557823,0.2465986394557823,0.2465986394557823,0.2465986394557823,0.2465986394557823,0.2465986394557823,0.2465986394557823,0.2465986394557823,0.2465986394557823,0.2465986394557823,0.2465986394557823,0.2465986394557823,0.2465986394557823,0.2465986394557823,0.2465986394557823,0.2465986394557823,0.2465986394557823,0.2465986394557823,0.2465986394557823,0.2465986394557823,0.2465986394557823,0.2465986394557823,0.2465986394557823,0.2465986394557823,0.2465986394557823,0.2465986394557823,0.2465986394557823,0.2465986394557823,0.2465986394557823,0.2465986394557823,0.2465986394557823,0.2465986394557823,0.2465986394557823,0.2465986394557823,0.2465986394557823,0.2465986394557823,0.2465986394557823,0.2465986394557823,0.2465986394557823,0.2465986394557823,0.2465986394557823,0.2465986394557823,0.2465986394557823,0.2465986394557823,0.2465986394557823,0.2465986394557823,0.2465986394557823,0.2465986394557823,0.2465986394557823,0.2465986394557823,0.2465986394557823,0.2465986394557823,0.2465986394557823,0.2465986394557823,0.2465986394557823,0.2465986394557823,0.2465986394557823,0.2465986394557823,0.2465986394557823,0.2465986394557823,0.2465986394557823,0.2465986394557823,0.2465986394557823,0.2465986394557823,0.2465986394557823,0.2465986394557823,0.2465986394557823,0.2465986394557823,0.2465986394557823,0.2465986394557823,0.2465986394557823,0.2465986394557823,0.2465986394557823,0.2465986394557823,0.2465986394557823,0.2465986394557823,0.2465986394557823,0.2465986394557823,0.2465986394557823,0.2465986394557823,0.2465986394557823,0.2465986394557823,0.2465986394557823,0.2465986394557823,0.2465986394557823,0.2465986394557823,0.2465986394557823,0.2465986394557823,0.2465986394557823,0.2465986394557823,0.2465986394557823,0.2465986394557823,0.2465986394557823,0.2465986394557823,0.2465986394557823,0.2465986394557823,0.2465986394557823,0.2465986394557823,0.2465986394557823,0.2465986394557823,0.2465986394557823,0.2465986394557823,0.2465986394557823,0.2465986394557823,0.2465986394557823,0.2465986394557823,0.2465986394557823,0.2465986394557823,0.2465986394557823,0.2465986394557823,0.2465986394557823,0.2465986394557823,0.2465986394557823,0.2465986394557823,0.2465986394557823,0.2465986394557823,0.2465986394557823,0.2465986394557823,0.2465986394557823,0.2465986394557823,0.2465986394557823,0.2465986394557823,0.2465986394557823,0.2465986394557823,0.2465986394557823,0.2465986394557823,0.2465986394557823,0.2465986394557823,0.2465986394557823,0.2465986394557823,0.2465986394557823,0.2465986394557823,0.2465986394557823,0.2465986394557823,0.2465986394557823,0.2465986394557823,0.2465986394557823,0.2465986394557823,0.2465986394557823,0.2465986394557823,0.2465986394557823,0.2465986394557823,0.2465986394557823,0.2465986394557823,0.2465986394557823,0.2465986394557823,0.2465986394557823,0.2465986394557823,0.2465986394557823,0.2568027210884354,0.26700680272108845,0.27721088435374147,0.28061224489795916,0.28061224489795916,0.28061224489795916,0.28061224489795916,0.28061224489795916,0.28061224489795916,0.28061224489795916,0.28061224489795916,0.28061224489795916,0.28061224489795916,0.28061224489795916,0.28061224489795916,0.28061224489795916,0.4880952380952381,0.49829931972789115,0.5017006802721088,0.5119047619047619,0.5187074829931972,0.532312925170068,0.5561224489795918,0.5901360544217688,0.6275510204081632,0.6717687074829932,0.6717687074829932,0.6717687074829932,0.6717687074829932,0.6717687074829932,0.6717687074829932,0.6717687074829932,0.6717687074829932,0.6717687074829932,0.6717687074829932,0.6717687074829932,0.6717687074829932,0.6717687074829932,0.6717687074829932,0.6717687074829932,0.6717687074829932,0.6717687074829932,0.6717687074829932,0.6717687074829932,0.4574829931972789,0.4200680272108844,0.39965986394557823,0.3792517006802721,0.34523809523809523,0.3282312925170068,0.3010204081632653,0.27721088435374147,0.2602040816326531,0.23979591836734693,0.2261904761904762,0.195578231292517,0.17517006802721088,0.15816326530612246,0.1445578231292517,0.13435374149659865,0.11054421768707483,0.0935374149659864,0.08673469387755102,0.07653061224489796,0.0663265306122449,0.06292517006802721,0.05612244897959184,0.05612244897959184,0.05952380952380952,0.07653061224489796,0.08673469387755102,0.15816326530612246,0.24319727891156462,0.34523809523809523,0.4642857142857143,0.6139455782312925,0.6785714285714286,0.7159863945578231,0.7534013605442177,0.7534013605442177,0.7534013605442177,0.7534013605442177,0.7534013605442177,0.8554421768707483,0.8656462585034014,0.8792517006802721,0.8928571428571429,0.9098639455782312,0.923469387755102,0.9302721088435374,0.9404761904761905,0.9438775510204082,0.9472789115646258,0.9574829931972789,0.9608843537414966,0.9710884353741497,0.9846938775510204,0.9914965986394558,1.0119047619047619,1.0153061224489797,1.0153061224489797,1.0153061224489797,1.0153061224489797,1.0153061224489797,1.0153061224489797,1.0153061224489797,1.0153061224489797,1.0153061224489797,1.0153061224489797,1.0153061224489797,1.0085034013605443,0.9982993197278912,0.9846938775510204,0.9744897959183674,0.967687074829932,0.9642857142857143,0.9574829931972789,0.9540816326530612,0.9540816326530612,0.9540816326530612,0.9506802721088435,0.9506802721088435,0.9506802721088435,0.9506802721088435,0.9438775510204082,0.9336734693877551,0.9166666666666666,0.8860544217687075,0.8452380952380952,0.7806122448979592,0.7431972789115646,0.7125850340136054,0.6955782312925171,0.6649659863945578,0.6343537414965986,0.576530612244898,0.5493197278911565,0.5459183673469388,0.5595238095238095,0.5595238095238095,0.5595238095238095,0.5595238095238095,0.5595238095238095,0.5595238095238095,0.5595238095238095,0.5595238095238095,0.5595238095238095,0.5595238095238095,0.5595238095238095,0.5663265306122449,0.5697278911564626,0.5697278911564626,0.5629251700680272,0.5629251700680272,0.5629251700680272,0.5391156462585034,0.5221088435374149,0.5017006802721088,0.4812925170068027,0.44387755102040816,0.4268707482993197,0.4064625850340136,0.39965986394557823,0.37244897959183676,0.3554421768707483,0.34183673469387754,0.33843537414965985,0.3282312925170068,0.32142857142857145,0.31462585034013607,0.31462585034013607,0.3112244897959184,0.3112244897959184,0.3112244897959184,0.3112244897959184,0.3078231292517007,0.3078231292517007,0.3078231292517007,0.3078231292517007,0.3010204081632653,0.2976190476190476,0.2942176870748299,0.2942176870748299,0.2942176870748299,0.2942176870748299,0.2942176870748299,0.2942176870748299,0.2942176870748299,0.2942176870748299,0.2942176870748299,0.2942176870748299,0.2942176870748299,0.2942176870748299,0.2942176870748299,0.2942176870748299,0.2942176870748299,0.2942176870748299,0.2942176870748299,0.2942176870748299,0.2942176870748299,0.2942176870748299,0.2942176870748299,0.2942176870748299,0.2942176870748299,0.2942176870748299,0.2942176870748299,0.2942176870748299,0.2942176870748299,0.2942176870748299,0.2942176870748299,0.2942176870748299,0.2942176870748299,0.2942176870748299,0.2942176870748299,0.2942176870748299,0.2942176870748299,0.2942176870748299,0.2942176870748299,0.2942176870748299,0.2942176870748299,0.27721088435374147,0.2602040816326531,0.23639455782312926,0.21258503401360543,0.18877551020408162,0.1717687074829932,0.14795918367346939,0.12755102040816327,0.08673469387755102,0.04591836734693878,0.022108843537414966,0.00510204081632653,0.00510204081632653,0.00510204081632653,0.00510204081632653,0.00510204081632653,0.00510204081632653,0.00510204081632653,0.00510204081632653,0.00510204081632653,0.00510204081632653,0.00510204081632653,0.00510204081632653,0.00510204081632653,0.00510204081632653,0.00510204081632653,0.00510204081632653,0.00510204081632653,0.00510204081632653,0.00510204081632653,0.00510204081632653,0.00510204081632653,0.00510204081632653,0.0017006802721088435,0.0017006802721088435,0.0017006802721088435,0.0017006802721088435,0.0017006802721088435,0.0017006802721088435,0.0017006802721088435,0.0017006802721088435,0.0017006802721088435,0.0017006802721088435,0.0017006802721088435,0.0017006802721088435,0.0017006802721088435,0.0017006802721088435,0.0017006802721088435,0.0017006802721088435,0.008503401360544218,0.008503401360544218,0.008503401360544218,0.008503401360544218,0.008503401360544218,0.008503401360544218,0.008503401360544218,0.008503401360544218,0.008503401360544218,0.008503401360544218,0.008503401360544218,0.008503401360544218,0.008503401360544218,0.008503401360544218,0.008503401360544218,0.008503401360544218,0.008503401360544218,0.008503401360544218,0.008503401360544218,0.008503401360544218,0.008503401360544218,0.008503401360544218,0.008503401360544218,0.008503401360544218,0.008503401360544218,0.008503401360544218,0.008503401360544218,0.008503401360544218,0.008503401360544218,0.008503401360544218,0.008503401360544218,0.008503401360544218,0.008503401360544218,0.008503401360544218,0.008503401360544218,0.008503401360544218,0.008503401360544218,0.008503401360544218,0.008503401360544218,0.008503401360544218,0.008503401360544218,0.008503401360544218,0.008503401360544218,0.008503401360544218,0.008503401360544218,0.008503401360544218,0.008503401360544218,0.011904761904761904,0.04251700680272109,0.0935374149659864,0.13435374149659865,0.1717687074829932,0.20918367346938777,0.25,0.2942176870748299,0.33503401360544216,0.3656462585034014,0.4030612244897959,0.4370748299319728,0.4608843537414966,0.4812925170068027,0.5085034013605442,0.5493197278911565,0.5867346938775511,0.6139455782312925,0.6343537414965986,0.6513605442176871,0.6683673469387755,0.7023809523809523,0.7125850340136054,0.7363945578231292,0.7568027210884354,0.7704081632653061,0.7738095238095238,0.7806122448979592,0.7840136054421769,0.7908163265306123,0.7908163265306123,0.7908163265306123,0.7976190476190477,0.8044217687074829,0.8078231292517006,0.814625850340136,0.8214285714285714,0.8214285714285714,0.8214285714285714,0.8248299319727891,0.8248299319727891,0.8248299319727891,0.8248299319727891,0.8248299319727891,0.8248299319727891,0.8248299319727891,0.8248299319727891,0.8248299319727891,0.8248299319727891,0.8248299319727891,0.8248299319727891,0.8248299319727891,0.8248299319727891,0.8248299319727891,0.8248299319727891,0.8248299319727891,0.8248299319727891,0.8248299319727891,0.8248299319727891,0.8248299319727891,0.8248299319727891,0.8248299319727891,0.8248299319727891,0.8248299319727891,0.8316326530612245,0.8384353741496599,0.8486394557823129,0.8520408163265306,0.8520408163265306,0.8554421768707483,0.8554421768707483,0.8554421768707483,0.858843537414966,0.8792517006802721,0.8996598639455783,0.9302721088435374,0.9370748299319728,0.9370748299319728,0.9370748299319728,0.9370748299319728,0.9370748299319728,0.9370748299319728,0.9370748299319728,0.9370748299319728,0.9370748299319728,0.9404761904761905,0.9438775510204082,0.9540816326530612,0.9574829931972789,0.9540816326530612,0.9438775510204082,0.9370748299319728,0.923469387755102,0.9030612244897959,0.8826530612244898,0.8282312925170068,0.7772108843537415,0.7227891156462585,0.6717687074829932,0.6445578231292517,0.6207482993197279,0.6105442176870748,0.5969387755102041,0.5935374149659864,0.5935374149659864,0.5867346938775511,0.5799319727891157,0.5629251700680272,0.5459183673469388,0.5357142857142857,0.5255102040816326,0.5187074829931972,0.5119047619047619,0.5017006802721088,0.4846938775510204,0.4744897959183674,0.4574829931972789,0.44727891156462585,0.44047619047619047,0.44047619047619047,0.44047619047619047,0.44047619047619047,0.44047619047619047,0.44047619047619047,0.44047619047619047,0.44047619047619047,0.44047619047619047,0.44047619047619047,0.44047619047619047,0.44047619047619047,0.44047619047619047,0.44047619047619047,0.4268707482993197,0.413265306122449,0.4098639455782313,0.4098639455782313,0.4064625850340136,0.4064625850340136,0.4064625850340136,0.4064625850340136,0.4064625850340136,0.4064625850340136,0.4064625850340136,0.4064625850340136,0.4064625850340136,0.4064625850340136,0.4064625850340136,0.4064625850340136,0.4064625850340136,0.4064625850340136,0.4064625850340136,0.4064625850340136,0.4064625850340136,0.4064625850340136,0.4064625850340136,0.4064625850340136,0.4064625850340136,0.4064625850340136,0.4064625850340136,0.4064625850340136,0.4064625850340136,0.4064625850340136,0.4064625850340136,0.413265306122449,0.44387755102040816,0.4846938775510204,0.5391156462585034,0.5527210884353742,0.5561224489795918,0.5561224489795918,0.5561224489795918,0.5561224489795918,0.5561224489795918,0.5561224489795918,0.5561224489795918,0.5561224489795918,0.5561224489795918,0.5561224489795918,0.5561224489795918,0.5561224489795918,0.5561224489795918,0.5561224489795918,0.5561224489795918,0.5561224489795918,0.5561224489795918,0.5561224489795918,0.5561224489795918,0.5561224489795918,0.5561224489795918,0.5629251700680272,0.5629251700680272,0.5663265306122449,0.5663265306122449,0.5663265306122449,0.5663265306122449,0.5663265306122449,0.5663265306122449,0.5663265306122449,0.5663265306122449,0.5663265306122449,0.5731292517006803,0.576530612244898,0.576530612244898,0.5799319727891157,0.5799319727891157,0.5799319727891157,0.5799319727891157,0.5799319727891157,0.5799319727891157,0.5799319727891157,0.5799319727891157,0.5969387755102041,0.6785714285714286,0.7295918367346939,0.7602040816326531,0.7704081632653061,0.7704081632653061,0.7704081632653061,0.7704081632653061,0.7704081632653061,0.7704081632653061,0.7704081632653061,0.7704081632653061,0.7704081632653061,0.7704081632653061,0.7704081632653061,0.7704081632653061,0.7704081632653061,0.7704081632653061,0.7704081632653061,0.7704081632653061,0.7840136054421769,0.8010204081632653,0.8180272108843537,0.8282312925170068,0.8418367346938775,0.8418367346938775,0.8418367346938775,0.8418367346938775,0.8418367346938775,0.8418367346938775,0.8418367346938775,0.8418367346938775,0.8418367346938775,0.8418367346938775,0.8418367346938775,0.8418367346938775,0.8418367346938775,0.8418367346938775,0.8418367346938775,0.8418367346938775,0.8418367346938775,0.8418367346938775,0.8418367346938775,0.8418367346938775,0.8418367346938775,0.8418367346938775,0.8418367346938775,0.8418367346938775,0.8418367346938775,0.8418367346938775,0.8452380952380952,0.8724489795918368,0.9438775510204082,0.9710884353741497,0.9846938775510204,0.9914965986394558,0.9914965986394558,0.9914965986394558,0.9914965986394558,0.9914965986394558,0.9914965986394558,0.9914965986394558,0.9914965986394558,0.9914965986394558,0.9914965986394558,0.9914965986394558,0.9914965986394558,0.9914965986394558,0.9914965986394558,0.9914965986394558,0.9914965986394558,0.9914965986394558,0.9914965986394558,0.9302721088435374,0.8622448979591837,0.7806122448979592,0.7125850340136054,0.6717687074829932,0.6513605442176871,0.6445578231292517,0.6377551020408163,0.6309523809523809,0.6309523809523809,0.6309523809523809,0.6207482993197279,0.6105442176870748,0.5935374149659864,0.5901360544217688,0.5833333333333334,0.5799319727891157,0.576530612244898,0.576530612244898,0.576530612244898,0.576530612244898,0.576530612244898,0.576530612244898,0.576530612244898,0.576530612244898,0.576530612244898,0.576530612244898,0.576530612244898,0.576530612244898,0.576530612244898,0.5595238095238095,0.4914965986394558,0.4302721088435374,0.4064625850340136,0.358843537414966,0.358843537414966,0.358843537414966,0.358843537414966,0.358843537414966,0.358843537414966,0.358843537414966,0.358843537414966,0.358843537414966,0.358843537414966,0.358843537414966,0.358843537414966,0.358843537414966,0.358843537414966,0.358843537414966,0.358843537414966,0.358843537414966,0.358843537414966,0.34523809523809523,0.32142857142857145,0.29081632653061223,0.28401360544217685,0.2568027210884354,0.23979591836734693,0.23299319727891157,0.23299319727891157,0.23299319727891157,0.23299319727891157,0.23299319727891157,0.23299319727891157,0.23299319727891157,0.23299319727891157,0.23299319727891157,0.23299319727891157,0.23299319727891157,0.2465986394557823,0.26360544217687076,0.26360544217687076,0.26360544217687076,0.26360544217687076,0.26360544217687076,0.26360544217687076,0.26360544217687076,0.26360544217687076,0.26360544217687076,0.27040816326530615,0.27040816326530615,0.27040816326530615,0.27040816326530615,0.27040816326530615,0.27040816326530615,0.27040816326530615,0.27040816326530615,0.27040816326530615,0.27040816326530615,0.27040816326530615,0.27040816326530615,0.27040816326530615,0.2568027210884354,0.21598639455782312,0.18877551020408162,0.17517006802721088,0.1445578231292517,0.141156462585034,0.141156462585034,0.141156462585034,0.141156462585034,0.141156462585034,0.141156462585034,0.141156462585034,0.141156462585034,0.141156462585034,0.1377551020408163,0.1377551020408163,0.1377551020408163,0.1377551020408163,0.1377551020408163,0.1377551020408163,0.1377551020408163,0.1377551020408163,0.13435374149659865,0.13095238095238096,0.12414965986394558,0.11394557823129252,0.11054421768707483,0.11054421768707483,0.11054421768707483,0.11054421768707483,0.11054421768707483,0.11054421768707483,0.11054421768707483,0.11054421768707483,0.11054421768707483,0.11054421768707483,0.11054421768707483,0.11054421768707483,0.11054421768707483,0.11054421768707483,0.11054421768707483,0.11054421768707483,0.11054421768707483,0.11054421768707483,0.11054421768707483,0.11054421768707483,0.11054421768707483,0.11054421768707483,0.11054421768707483,0.11054421768707483,0.11054421768707483,0.11054421768707483,0.11054421768707483,0.11054421768707483,0.11054421768707483,0.11054421768707483,0.11054421768707483,0.11054421768707483,0.11054421768707483,0.11054421768707483,0.11054421768707483,0.11054421768707483,0.11054421768707483,0.11054421768707483,0.11054421768707483,0.11054421768707483,0.11054421768707483,0.11054421768707483,0.11394557823129252,0.13095238095238096,0.15816326530612246,0.18537414965986396,0.20238095238095238,0.21598639455782312,0.25,0.2602040816326531,0.3112244897959184,0.3520408163265306,0.36904761904761907,0.37244897959183676,0.3758503401360544,0.3758503401360544,0.3826530612244898,0.3826530612244898,0.3826530612244898,0.3826530612244898,0.38605442176870747,0.39285714285714285,0.413265306122449,0.4200680272108844,0.4200680272108844,0.4200680272108844,0.4200680272108844,0.4200680272108844,0.4200680272108844,0.4200680272108844,0.4200680272108844,0.4200680272108844,0.4200680272108844,0.4200680272108844,0.4200680272108844,0.4200680272108844,0.4200680272108844,0.4200680272108844,0.4200680272108844,0.4200680272108844,0.4200680272108844,0.4200680272108844,0.4200680272108844,0.3826530612244898,0.304421768707483,0.195578231292517,0.08333333333333333,0.04591836734693878,-0.03231292517006803,-0.0391156462585034,-0.05952380952380952,-0.05952380952380952,-0.06292517006802721,-0.06292517006802721,-0.06292517006802721,-0.06292517006802721,-0.06292517006802721,-0.06292517006802721,-0.06292517006802721,-0.06292517006802721,-0.06292517006802721,-0.05952380952380952,-0.04591836734693878,-0.02891156462585034,-0.011904761904761904,-0.00510204081632653,-0.0017006802721088435,-0.0017006802721088435,-0.0017006802721088435,-0.0017006802721088435,-0.0017006802721088435,-0.0017006802721088435,-0.0017006802721088435,-0.0017006802721088435,-0.0017006802721088435,-0.0017006802721088435,-0.0017006802721088435,-0.0017006802721088435,-0.0017006802721088435,-0.0017006802721088435,-0.0017006802721088435,0.0017006802721088435,0.0017006802721088435,0.0017006802721088435,0.0017006802721088435,0.0017006802721088435,0.0017006802721088435,0.0017006802721088435,0.0017006802721088435,0.0017006802721088435,0.0017006802721088435,0.0017006802721088435,0.0017006802721088435,0.0017006802721088435,0.0017006802721088435,0.0017006802721088435,0.0017006802721088435,0.0017006802721088435,0.0017006802721088435,0.0017006802721088435,0.0017006802721088435,0.0017006802721088435,0.0017006802721088435,0.0017006802721088435,0.0017006802721088435,0.0017006802721088435,0.0017006802721088435,0.0017006802721088435,0.0017006802721088435,0.0017006802721088435,0.0017006802721088435,0.0017006802721088435,0.0017006802721088435,0.0017006802721088435,0.0017006802721088435,0.0017006802721088435,0.0017006802721088435,0.0017006802721088435,0.0017006802721088435,0.0017006802721088435,0.0017006802721088435,0.0017006802721088435,0.0017006802721088435,0.0017006802721088435,0.01870748299319728,0.04931972789115646,0.11734693877551021,0.2227891156462585,0.28741496598639454,0.5119047619047619,0.6649659863945578,0.7908163265306123,0.8520408163265306,0.8860544217687075,0.8928571428571429,0.9064625850340136,0.9200680272108843,0.9472789115646258,0.9744897959183674,1.0119047619047619,1.0357142857142858,1.0561224489795917,1.0765306122448979,1.1037414965986394,1.1105442176870748,1.1173469387755102,1.1173469387755102,1.1173469387755102,1.1173469387755102,1.1173469387755102,1.1173469387755102,1.1173469387755102,1.1173469387755102,1.0901360544217686,1.0697278911564625,1.0527210884353742,1.0459183673469388,1.0357142857142858,1.0255102040816326,1.0187074829931972,1.0119047619047619,1.0119047619047619,1.0085034013605443,1.0051020408163265,1.001700680272109,1.001700680272109,1.001700680272109,1.001700680272109,1.001700680272109,1.001700680272109,1.001700680272109,1.001700680272109,1.001700680272109,1.001700680272109,1.001700680272109,1.001700680272109,1.022108843537415,1.0595238095238095,1.1139455782312926,1.120748299319728,1.120748299319728,1.120748299319728,1.120748299319728,1.120748299319728,1.120748299319728,1.1003401360544218,1.0561224489795917,1.001700680272109,0.9302721088435374,0.9030612244897959,0.8928571428571429,0.8758503401360545,0.8656462585034014,0.8554421768707483,0.8452380952380952,0.8350340136054422,0.8282312925170068,0.8248299319727891,0.8248299319727891,0.8248299319727891,0.8248299319727891,0.8248299319727891,0.8248299319727891,0.8248299319727891,0.8248299319727891,0.8248299319727891,0.8248299319727891,0.8248299319727891,0.8248299319727891,0.8248299319727891,0.8316326530612245,0.8486394557823129,0.8690476190476191,0.8826530612244898,0.8928571428571429,0.8928571428571429,0.8928571428571429,0.8894557823129252,0.8656462585034014,0.8350340136054422,0.8112244897959183,0.7908163265306123,0.7602040816326531,0.75,0.7431972789115646,0.7397959183673469,0.7329931972789115,0.7227891156462585,0.7193877551020408,0.70578231292517,0.6989795918367347,0.6921768707482994,0.6921768707482994,0.6921768707482994,0.6921768707482994,0.6921768707482994,0.6921768707482994,0.6921768707482994,0.6921768707482994,0.6921768707482994,0.6921768707482994,0.6921768707482994,0.6921768707482994,0.6921768707482994,0.6887755102040817,0.7023809523809523,0.7193877551020408,0.7363945578231292,0.7568027210884354,0.7738095238095238,0.7908163265306123,0.8112244897959183,0.8316326530612245,0.858843537414966,0.8792517006802721,0.8928571428571429,0.9064625850340136,0.9132653061224489,0.923469387755102,0.923469387755102,0.9268707482993197,0.9302721088435374,0.9302721088435374,0.9302721088435374,0.9302721088435374,0.9302721088435374,0.9336734693877551,0.9336734693877551,0.9336734693877551,0.9336734693877551,0.9336734693877551,0.9370748299319728,0.9370748299319728,0.9370748299319728,0.9370748299319728,0.9370748299319728,0.9370748299319728,0.9370748299319728,0.9370748299319728,0.9370748299319728,0.9370748299319728,0.9370748299319728,0.9370748299319728,0.9370748299319728,0.9370748299319728,0.9370748299319728,0.9370748299319728,0.9370748299319728,0.9370748299319728,0.9370748299319728,0.9370748299319728,0.9370748299319728,0.9370748299319728,0.9370748299319728,0.9370748299319728,0.9370748299319728,0.9370748299319728,0.9370748299319728,0.9370748299319728,0.9370748299319728,0.9404761904761905,0.9438775510204082,0.9438775510204082,0.9438775510204082,0.9438775510204082,0.9438775510204082,0.9438775510204082,0.9472789115646258,0.9574829931972789,0.9574829931972789,0.9574829931972789,0.9574829931972789,0.9574829931972789,0.9574829931972789,0.9574829931972789,0.9642857142857143,0.9642857142857143,0.9642857142857143,0.967687074829932,0.9710884353741497,0.9710884353741497,0.9710884353741497,0.9710884353741497,0.9710884353741497,0.9710884353741497,0.9710884353741497,0.9710884353741497,0.9710884353741497,0.9710884353741497,0.9710884353741497,0.9710884353741497,0.9710884353741497,0.9710884353741497,0.9710884353741497,0.9710884353741497,0.9710884353741497,0.9710884353741497,0.9710884353741497,0.9710884353741497,0.9710884353741497,0.9710884353741497,0.9710884353741497,0.9710884353741497,0.9710884353741497,0.9710884353741497,0.9710884353741497,0.9710884353741497,0.9710884353741497,0.9710884353741497,0.9710884353741497,0.9710884353741497,0.9710884353741497,0.9710884353741497,0.9710884353741497,0.9710884353741497,0.9710884353741497,0.9710884353741497,0.9710884353741497,0.9710884353741497,0.9710884353741497,0.9710884353741497,0.9710884353741497,0.9710884353741497,0.9710884353741497,0.9710884353741497,0.9710884353741497,0.9710884353741497,0.9710884353741497,0.9710884353741497,0.9710884353741497,0.9710884353741497,0.9710884353741497,0.9710884353741497,0.9710884353741497,0.9710884353741497,0.9710884353741497,0.9710884353741497,0.9710884353741497,0.9710884353741497,0.9710884353741497,0.9710884353741497,0.9710884353741497,0.9710884353741497,0.9710884353741497,0.9710884353741497,0.9710884353741497,0.9710884353741497,0.9744897959183674,0.9778911564625851,0.9778911564625851,0.9880952380952381,0.9948979591836735,1.0119047619047619,1.032312925170068,1.0527210884353742,1.0935374149659864,1.120748299319728,1.1411564625850341,1.151360544217687,1.1717687074829932,1.1751700680272108,1.1785714285714286,1.1819727891156462,1.1819727891156462,1.1887755102040816,1.1887755102040816,1.1887755102040816,1.1887755102040816,1.1887755102040816,1.1887755102040816,1.1887755102040816,1.1887755102040816,1.1887755102040816,1.195578231292517,1.1989795918367347,1.2057823129251701,1.219387755102041,1.2329931972789117,1.25,1.2534013605442176,1.2636054421768708,1.2670068027210883,1.280612244897959,1.2908163265306123,1.3010204081632653,1.3180272108843538,1.3214285714285714,1.3214285714285714,1.3214285714285714,1.3214285714285714,1.3214285714285714,1.3214285714285714,1.3214285714285714,1.3214285714285714,1.3214285714285714,1.3214285714285714,1.3214285714285714,1.3214285714285714,1.3214285714285714,1.3214285714285714,1.3214285714285714,1.3214285714285714,1.3214285714285714,1.3214285714285714,1.3214285714285714,1.3214285714285714,1.3214285714285714,1.3214285714285714,1.3214285714285714,1.3214285714285714,1.3214285714285714,1.3214285714285714,1.3214285714285714,1.3214285714285714,1.3214285714285714,1.3214285714285714,1.3214285714285714,1.3214285714285714,1.3214285714285714,1.3214285714285714,1.3214285714285714,1.3214285714285714,1.3214285714285714,1.3214285714285714,1.3214285714285714,1.3214285714285714,1.3214285714285714,1.3214285714285714,1.3214285714285714,1.3214285714285714,1.3214285714285714,1.3214285714285714,1.3214285714285714,1.3214285714285714,1.3214285714285714,1.3214285714285714,1.3214285714285714,1.3214285714285714,1.3214285714285714,1.3214285714285714,1.3214285714285714,1.3214285714285714,1.3214285714285714,1.3214285714285714,1.3214285714285714,1.3214285714285714,1.3214285714285714,1.3214285714285714,1.3214285714285714,1.3214285714285714,1.3214285714285714,1.3214285714285714,1.3214285714285714,1.3214285714285714,1.3214285714285714,1.3214285714285714,1.3214285714285714,1.3214285714285714,1.3214285714285714,1.3214285714285714,1.3214285714285714,1.3214285714285714,1.3214285714285714,1.3214285714285714,1.3214285714285714,1.3214285714285714,1.3214285714285714,1.3214285714285714,1.3214285714285714,1.3214285714285714,1.3214285714285714,1.3214285714285714,1.3214285714285714,1.3214285714285714,1.3214285714285714,1.3214285714285714,1.3214285714285714,0.967687074829932,0.8792517006802721,0.8044217687074829,0.6887755102040817,0.6581632653061225,0.5459183673469388,0.5459183673469388,0.5459183673469388,0.5459183673469388,0.5459183673469388,0.5459183673469388,0.5459183673469388,0.5459183673469388,0.5459183673469388,0.5459183673469388,0.5459183673469388,0.5459183673469388,0.3622448979591837,0.3826530612244898,0.4098639455782313,0.44047619047619047,0.4574829931972789,0.4642857142857143,0.4710884353741497,0.4710884353741497,0.4710884353741497,0.4710884353741497,0.4710884353741497,0.4710884353741497,0.477891156462585,0.4812925170068027,0.4880952380952381,0.4914965986394558,0.49489795918367346,0.49829931972789115,0.5085034013605442,0.5153061224489796,0.5255102040816326,0.5255102040816326,0.5255102040816326,0.5289115646258503,0.5289115646258503,0.5289115646258503,0.5357142857142857,0.5357142857142857,0.5357142857142857,0.5357142857142857,0.5357142857142857,0.5357142857142857,0.5357142857142857,0.5357142857142857,0.5357142857142857,0.5357142857142857,0.5357142857142857,0.5357142857142857,0.5357142857142857,0.5357142857142857,0.5357142857142857,0.5357142857142857,0.5357142857142857,0.5357142857142857,0.5357142857142857,0.5357142857142857,0.5357142857142857,0.5357142857142857,0.5357142857142857,0.5357142857142857,0.5357142857142857,0.5357142857142857,0.5357142857142857,0.5357142857142857,0.5357142857142857,0.5357142857142857,0.5357142857142857,0.5357142857142857,0.5357142857142857,0.5357142857142857,0.5357142857142857,0.5357142857142857,0.5357142857142857,0.5357142857142857,0.5357142857142857,0.5357142857142857,0.5357142857142857,0.5357142857142857,0.5357142857142857,0.5357142857142857,0.5357142857142857,0.5357142857142857,0.5357142857142857,0.5357142857142857,0.5357142857142857,0.5357142857142857,0.5357142857142857,0.5357142857142857,0.5357142857142857,0.5425170068027211,0.6139455782312925,0.6989795918367347,0.8248299319727891,0.9506802721088435,1.0187074829931972,1.2295918367346939,1.3248299319727892,1.379251700680272,1.3996598639455782,1.3996598639455782,1.3996598639455782,1.3996598639455782,1.3996598639455782,1.3996598639455782,1.3996598639455782,1.3996598639455782,1.3996598639455782,1.3996598639455782,1.3996598639455782,1.3996598639455782,1.3996598639455782,1.3996598639455782,1.3996598639455782,1.3996598639455782,1.3996598639455782,1.3996598639455782,1.3996598639455782,1.3996598639455782,1.3996598639455782,1.3996598639455782,1.3996598639455782,1.3962585034013606,1.3894557823129252,1.3758503401360545,1.3520408163265305,1.33843537414966,1.2976190476190477,1.2670068027210883,1.2329931972789117,1.1989795918367347,1.1139455782312926,1.0493197278911566,0.9880952380952381,0.9472789115646258,0.9132653061224489,0.8724489795918368,0.8656462585034014,0.8554421768707483,0.8452380952380952,0.8350340136054422,0.8248299319727891,0.814625850340136,0.8078231292517006,0.8010204081632653,0.8010204081632653,0.8010204081632653,0.8010204081632653,0.8010204081632653,0.8010204081632653,0.8010204081632653,0.8010204081632653,0.7976190476190477,0.7908163265306123,0.7874149659863946,0.7874149659863946,0.7806122448979592,0.7806122448979592,0.7772108843537415,0.7772108843537415,0.7772108843537415,0.7738095238095238,0.7704081632653061,0.7602040816326531,0.7568027210884354,0.7534013605442177,0.7431972789115646,0.7397959183673469,0.7363945578231292,0.7295918367346939,0.7227891156462585,0.7091836734693877,0.7023809523809523,0.6887755102040817,0.6819727891156463,0.6751700680272109,0.6683673469387755,0.6649659863945578,0.6581632653061225,0.6513605442176871,0.6479591836734694,0.6377551020408163,0.6309523809523809,0.6207482993197279,0.6071428571428571,0.6003401360544217,0.5901360544217688,0.576530612244898,0.5663265306122449,0.5425170068027211,0.5255102040816326,0.5051020408163265,0.477891156462585,0.44727891156462585,0.44727891156462585,0.4030612244897959,0.3792517006802721,0.358843537414966,0.3520408163265306,0.3486394557823129,0.34523809523809523,0.34183673469387754,0.34183673469387754,0.34183673469387754,0.34183673469387754,0.34183673469387754,0.34183673469387754,0.34183673469387754,0.34183673469387754,0.34183673469387754,0.34183673469387754,0.34183673469387754,0.34183673469387754,0.33163265306122447,0.2942176870748299,0.2534013605442177,0.2227891156462585,0.20238095238095238,0.1921768707482993,0.18877551020408162,0.18877551020408162,0.18877551020408162,0.18197278911564627,0.17517006802721088,0.1717687074829932,0.1649659863945578,0.16156462585034015,0.16156462585034015,0.16156462585034015,0.16156462585034015,0.15816326530612246,0.15816326530612246,0.15476190476190477,0.15136054421768708,0.1377551020408163,0.1377551020408163,0.1377551020408163,0.1377551020408163,0.1377551020408163,0.1377551020408163,0.1377551020408163,0.1377551020408163,0.1377551020408163,0.1377551020408163,0.1377551020408163,0.1377551020408163,0.1377551020408163,0.1377551020408163,0.1377551020408163,0.1377551020408163,0.15476190476190477,0.17517006802721088,0.2942176870748299,0.413265306122449,0.5255102040816326,0.6445578231292517,0.7397959183673469,0.8112244897959183,0.8112244897959183,0.9064625850340136,0.9370748299319728,0.9438775510204082,0.9438775510204082,0.9438775510204082,0.9438775510204082,0.9438775510204082,0.9438775510204082,0.9438775510204082,0.9506802721088435,0.9506802721088435,0.9506802721088435,0.9574829931972789,0.9744897959183674,1.0085034013605443,1.0527210884353742,1.1037414965986394,1.130952380952381,1.1411564625850341,1.1479591836734695,1.1479591836734695,1.1479591836734695,1.1479591836734695,1.1479591836734695,1.1547619047619047,1.1547619047619047,1.1547619047619047,1.1581632653061225,1.1581632653061225,1.1581632653061225,1.1581632653061225,1.1581632653061225,1.1581632653061225,1.1581632653061225,1.1581632653061225,1.1581632653061225,1.1581632653061225,1.1581632653061225,1.1581632653061225,1.1581632653061225,1.1581632653061225,1.1581632653061225,1.1581632653061225,1.1581632653061225,1.1581632653061225,1.1581632653061225,1.1581632653061225,1.1581632653061225,1.1581632653061225,1.1581632653061225,1.1581632653061225,1.1581632653061225,1.1581632653061225,1.1411564625850341,1.0901360544217686,1.0561224489795917,1.0289115646258504,0.9948979591836735,0.9710884353741497,0.9472789115646258,0.9268707482993197,0.9200680272108843,0.9200680272108843,0.9064625850340136,0.8928571428571429,0.8792517006802721,0.8690476190476191,0.858843537414966,0.8554421768707483,0.8452380952380952,0.8452380952380952,0.8452380952380952,0.8418367346938775,0.8248299319727891,0.8180272108843537,0.7772108843537415,0.7534013605442177,0.7363945578231292,0.7193877551020408,0.7159863945578231,0.7023809523809523,0.6955782312925171,0.685374149659864,0.685374149659864,0.685374149659864,0.685374149659864,0.685374149659864,0.685374149659864,0.685374149659864,0.685374149659864,0.685374149659864,0.685374149659864,0.685374149659864,0.685374149659864,0.685374149659864,0.685374149659864,0.685374149659864,0.685374149659864,0.685374149659864,0.685374149659864,0.685374149659864,0.685374149659864,0.685374149659864,0.685374149659864,0.685374149659864,0.685374149659864,0.685374149659864,0.685374149659864,0.685374149659864,0.685374149659864,0.685374149659864,0.685374149659864,0.685374149659864,0.685374149659864,0.685374149659864,0.685374149659864,0.685374149659864,0.685374149659864,0.685374149659864,0.685374149659864,0.685374149659864,0.685374149659864,0.685374149659864,0.685374149659864,0.685374149659864,0.685374149659864,0.6989795918367347,0.7193877551020408,0.7636054421768708,0.8078231292517006,0.8928571428571429,1.0799319727891157,1.2091836734693877,1.3520408163265305,1.4268707482993197,1.4642857142857142,1.467687074829932,1.467687074829932,1.4846938775510203,1.4880952380952381,1.4914965986394557,1.4914965986394557,1.4914965986394557,1.4914965986394557,1.4914965986394557,1.4914965986394557,1.4914965986394557,1.4914965986394557,1.4914965986394557,1.4914965986394557,1.4914965986394557,1.4914965986394557,1.4914965986394557,1.4914965986394557,1.4914965986394557,1.4914965986394557,1.4914965986394557,1.4914965986394557,1.4914965986394557,1.4914965986394557,1.4914965986394557,1.4914965986394557,1.4914965986394557,1.4914965986394557,1.4914965986394557,1.4914965986394557,1.4914965986394557,1.4914965986394557,1.4914965986394557],"y":[-3.8095238095238093,-3.8095238095238093,-3.8095238095238093,-3.8095238095238093,-3.8095238095238093,-3.8095238095238093,-3.8095238095238093,-3.8095238095238093,-3.8095238095238093,-3.8095238095238093,-3.8095238095238093,-3.8095238095238093,-3.8095238095238093,-3.8095238095238093,-3.8095238095238093,-3.8095238095238093,-3.8095238095238093,-3.8095238095238093,-3.8095238095238093,0.4666666666666667,0.4666666666666667,0.4380952380952381,0.41904761904761906,0.41904761904761906,0.41904761904761906,0.4,0.3523809523809524,0.3523809523809524,0.3238095238095238,0.3238095238095238,0.3047619047619048,0.29523809523809524,0.29523809523809524,0.29523809523809524,0.29523809523809524,0.29523809523809524,0.29523809523809524,0.29523809523809524,0.29523809523809524,0.29523809523809524,0.29523809523809524,0.29523809523809524,0.29523809523809524,0.29523809523809524,0.29523809523809524,0.29523809523809524,0.29523809523809524,0.29523809523809524,0.29523809523809524,0.29523809523809524,0.29523809523809524,0.29523809523809524,0.29523809523809524,0.29523809523809524,0.29523809523809524,0.29523809523809524,0.29523809523809524,0.29523809523809524,0.29523809523809524,0.29523809523809524,0.29523809523809524,0.29523809523809524,0.29523809523809524,0.29523809523809524,0.29523809523809524,0.29523809523809524,0.29523809523809524,0.29523809523809524,0.29523809523809524,0.29523809523809524,0.29523809523809524,0.29523809523809524,0.29523809523809524,0.29523809523809524,0.29523809523809524,0.29523809523809524,0.29523809523809524,0.29523809523809524,0.29523809523809524,0.29523809523809524,0.2857142857142857,0.2857142857142857,0.2761904761904762,0.2761904761904762,0.24761904761904763,0.24761904761904763,0.24761904761904763,0.23809523809523808,0.22857142857142856,0.2,0.18095238095238095,0.14285714285714285,0.12380952380952381,0.0761904761904762,0.0761904761904762,0.06666666666666667,0.05714285714285714,0.05714285714285714,0.05714285714285714,0.05714285714285714,0.05714285714285714,0.05714285714285714,0.05714285714285714,0.05714285714285714,0.05714285714285714,0.05714285714285714,0.05714285714285714,0.05714285714285714,0.05714285714285714,0.05714285714285714,0.05714285714285714,0.05714285714285714,0.05714285714285714,0.05714285714285714,0.05714285714285714,0.05714285714285714,0.05714285714285714,0.05714285714285714,0.05714285714285714,0.05714285714285714,0.05714285714285714,0.05714285714285714,0.05714285714285714,0.05714285714285714,0.05714285714285714,0.05714285714285714,0.05714285714285714,0.05714285714285714,0.05714285714285714,0.05714285714285714,0.05714285714285714,0.05714285714285714,0.05714285714285714,0.05714285714285714,0.05714285714285714,0.05714285714285714,0.05714285714285714,0.05714285714285714,0.05714285714285714,0.05714285714285714,0.05714285714285714,0.05714285714285714,0.05714285714285714,0.05714285714285714,0.05714285714285714,0.05714285714285714,0.05714285714285714,0.05714285714285714,0.05714285714285714,0.05714285714285714,0.05714285714285714,0.05714285714285714,0.05714285714285714,0.05714285714285714,0.05714285714285714,0.05714285714285714,0.05714285714285714,0.05714285714285714,0.05714285714285714,0.05714285714285714,0.05714285714285714,0.05714285714285714,0.05714285714285714,0.05714285714285714,0.05714285714285714,0.05714285714285714,0.05714285714285714,0.05714285714285714,0.05714285714285714,0.05714285714285714,0.05714285714285714,0.05714285714285714,0.05714285714285714,0.05714285714285714,0.05714285714285714,0.05714285714285714,0.05714285714285714,0.05714285714285714,0.05714285714285714,0.05714285714285714,0.05714285714285714,0.05714285714285714,0.05714285714285714,0.05714285714285714,0.05714285714285714,0.05714285714285714,0.05714285714285714,0.05714285714285714,0.05714285714285714,0.05714285714285714,0.05714285714285714,0.05714285714285714,0.05714285714285714,0.05714285714285714,0.05714285714285714,0.05714285714285714,0.05714285714285714,0.05714285714285714,0.05714285714285714,0.05714285714285714,0.05714285714285714,0.05714285714285714,0.05714285714285714,0.05714285714285714,0.05714285714285714,0.05714285714285714,0.05714285714285714,0.05714285714285714,0.05714285714285714,0.05714285714285714,0.05714285714285714,0.05714285714285714,0.05714285714285714,0.05714285714285714,0.05714285714285714,0.05714285714285714,0.05714285714285714,0.05714285714285714,0.05714285714285714,0.05714285714285714,0.05714285714285714,0.05714285714285714,0.05714285714285714,0.05714285714285714,0.05714285714285714,0.05714285714285714,0.05714285714285714,0.05714285714285714,0.05714285714285714,0.05714285714285714,0.047619047619047616,0.047619047619047616,0.0380952380952381,0.0380952380952381,0.0380952380952381,0.0380952380952381,0.0380952380952381,0.0380952380952381,0.0380952380952381,0.0380952380952381,0.0380952380952381,0.0380952380952381,0.0380952380952381,0.0380952380952381,0.0380952380952381,0.0380952380952381,0.0380952380952381,0.0380952380952381,0.0380952380952381,0.0380952380952381,0.0380952380952381,0.0380952380952381,0.0380952380952381,0.0380952380952381,0.0380952380952381,0.0380952380952381,0.0380952380952381,0.0380952380952381,0.0380952380952381,0.0380952380952381,0.0380952380952381,0.0380952380952381,0.0380952380952381,0.0380952380952381,0.0380952380952381,0.0380952380952381,0.0380952380952381,0.0380952380952381,0.0380952380952381,0.0380952380952381,0.0380952380952381,0.0380952380952381,0.0380952380952381,0.0380952380952381,0.0380952380952381,0.0380952380952381,0.0380952380952381,0.0380952380952381,0.0380952380952381,0.0380952380952381,0.0380952380952381,0.0380952380952381,0.0380952380952381,0.01904761904761905,0.01904761904761905,0.01904761904761905,0.01904761904761905,0.01904761904761905,0.01904761904761905,0.009523809523809525,0.009523809523809525,0.009523809523809525,0.009523809523809525,-0.01904761904761905,-0.01904761904761905,-0.1619047619047619,-0.1619047619047619,-0.1619047619047619,-0.1619047619047619,-0.1619047619047619,-1.0761904761904761,-1.3047619047619048,-1.3047619047619048,-1.3047619047619048,-1.3047619047619048,-1.3047619047619048,-1.3047619047619048,-1.5047619047619047,-1.5047619047619047,-1.5047619047619047,-1.5047619047619047,-1.5047619047619047,-1.5047619047619047,-1.5047619047619047,-1.5047619047619047,-1.5047619047619047,-1.5047619047619047,-1.5047619047619047,-1.5047619047619047,-1.5047619047619047,-1.5047619047619047,-1.5047619047619047,-1.5047619047619047,-1.5047619047619047,-1.5047619047619047,-1.5047619047619047,-1.5047619047619047,-1.5047619047619047,-1.5047619047619047,-1.5047619047619047,-1.5047619047619047,-1.5047619047619047,-1.5047619047619047,-1.5047619047619047,-1.5047619047619047,-1.5047619047619047,-1.5047619047619047,-1.5047619047619047,-1.5047619047619047,-1.4952380952380953,-1.4952380952380953,-1.4857142857142858,-1.4857142857142858,-1.4857142857142858,-1.4857142857142858,-1.4857142857142858,-1.4857142857142858,-1.4857142857142858,-1.4857142857142858,-1.4857142857142858,-1.4857142857142858,-1.4857142857142858,-1.4857142857142858,-1.4857142857142858,-1.4857142857142858,-1.4857142857142858,-1.4857142857142858,-1.4857142857142858,-1.4857142857142858,-1.4857142857142858,-1.4857142857142858,-1.4857142857142858,-1.4857142857142858,-1.4857142857142858,-1.4857142857142858,-1.4857142857142858,-1.4857142857142858,-1.4857142857142858,-1.4857142857142858,-1.4857142857142858,-1.4857142857142858,-1.4857142857142858,-1.4857142857142858,-1.4857142857142858,-1.4857142857142858,-1.4857142857142858,-1.4857142857142858,-1.4857142857142858,-1.4857142857142858,-1.4857142857142858,-1.4857142857142858,-1.4857142857142858,-1.4857142857142858,-1.4857142857142858,-1.4857142857142858,-1.4857142857142858,-1.4857142857142858,-1.4857142857142858,-1.4857142857142858,-1.4857142857142858,-1.4857142857142858,-1.4857142857142858,-1.4857142857142858,-1.4857142857142858,-1.4857142857142858,-1.4857142857142858,-1.4857142857142858,-1.4857142857142858,-1.4857142857142858,-1.4857142857142858,-1.4857142857142858,-1.4857142857142858,-1.4857142857142858,-1.4857142857142858,-1.4857142857142858,-1.4857142857142858,-1.4857142857142858,-1.4857142857142858,-1.4857142857142858,-1.4857142857142858,-1.4857142857142858,-1.4857142857142858,-1.4857142857142858,-1.4857142857142858,-1.4857142857142858,-1.4857142857142858,-1.4857142857142858,-1.4857142857142858,-1.4857142857142858,-1.4857142857142858,-1.4857142857142858,-1.4857142857142858,-1.4857142857142858,-1.4857142857142858,-1.4857142857142858,-1.4857142857142858,-1.4857142857142858,-1.4857142857142858,-1.4857142857142858,-1.4857142857142858,-1.4857142857142858,-1.4857142857142858,-1.4857142857142858,-1.4857142857142858,-1.4857142857142858,-1.4857142857142858,-1.4857142857142858,-1.4857142857142858,-1.4857142857142858,-1.4857142857142858,-1.4857142857142858,-1.4857142857142858,-1.4857142857142858,-1.4857142857142858,-1.4857142857142858,-1.4857142857142858,-1.4857142857142858,-1.4857142857142858,-1.4857142857142858,-1.4857142857142858,-1.4857142857142858,-1.4857142857142858,-1.4857142857142858,-1.4857142857142858,-1.4857142857142858,-1.4857142857142858,-1.4857142857142858,-1.4857142857142858,-1.4857142857142858,-1.4857142857142858,-1.4857142857142858,-1.4857142857142858,-1.4857142857142858,-1.4857142857142858,-1.4857142857142858,-1.4857142857142858,-1.4857142857142858,-1.4857142857142858,-1.4857142857142858,-1.4857142857142858,-1.4857142857142858,-1.4857142857142858,-1.4857142857142858,-1.4857142857142858,-1.4857142857142858,-1.4857142857142858,-1.4857142857142858,-1.4857142857142858,-1.4857142857142858,-1.4857142857142858,-1.4857142857142858,-1.4857142857142858,-1.4857142857142858,-1.4857142857142858,-1.4857142857142858,-1.4857142857142858,-1.4857142857142858,-1.4857142857142858,-1.4857142857142858,-1.4857142857142858,-1.4857142857142858,-1.4857142857142858,-1.4857142857142858,-1.4857142857142858,-1.4857142857142858,-1.4857142857142858,-1.4857142857142858,-1.4857142857142858,-1.4857142857142858,-1.4857142857142858,-1.4857142857142858,-1.4857142857142858,-1.4857142857142858,-1.4857142857142858,-1.4857142857142858,-1.457142857142857,-1.4095238095238096,-1.3714285714285714,-1.3333333333333333,-1.3047619047619048,-1.3047619047619048,-1.3047619047619048,-1.3047619047619048,-1.3047619047619048,-1.3047619047619048,-1.3047619047619048,-1.3047619047619048,-1.3047619047619048,-1.3047619047619048,-1.3047619047619048,-1.3047619047619048,-1.3047619047619048,-0.05714285714285714,-0.009523809523809525,0.0380952380952381,0.06666666666666667,0.09523809523809523,0.14285714285714285,0.17142857142857143,0.2,0.20952380952380953,0.20952380952380953,0.20952380952380953,0.20952380952380953,0.20952380952380953,0.20952380952380953,0.20952380952380953,0.20952380952380953,0.20952380952380953,0.20952380952380953,0.20952380952380953,0.20952380952380953,0.20952380952380953,0.20952380952380953,0.20952380952380953,0.20952380952380953,0.20952380952380953,0.20952380952380953,0.20952380952380953,0.20952380952380953,0.06666666666666667,0.06666666666666667,0.06666666666666667,0.06666666666666667,0.06666666666666667,0.06666666666666667,0.06666666666666667,0.06666666666666667,0.06666666666666667,0.06666666666666667,0.06666666666666667,0.08571428571428572,0.10476190476190476,0.11428571428571428,0.14285714285714285,0.1523809523809524,0.20952380952380953,0.24761904761904763,0.2857142857142857,0.34285714285714286,0.4,0.4857142857142857,0.5904761904761905,0.6476190476190476,0.6952380952380952,0.7428571428571429,0.7523809523809524,0.819047619047619,0.8666666666666667,0.8857142857142857,0.8857142857142857,0.8857142857142857,0.8857142857142857,0.8857142857142857,0.8571428571428571,0.8571428571428571,0.8571428571428571,0.8571428571428571,0.8571428571428571,0.7619047619047619,0.7333333333333333,0.7047619047619048,0.6666666666666666,0.6190476190476191,0.5904761904761905,0.5714285714285714,0.5428571428571428,0.5238095238095238,0.5142857142857142,0.47619047619047616,0.4666666666666667,0.44761904761904764,0.41904761904761906,0.4095238095238095,0.37142857142857144,0.3619047619047619,0.3619047619047619,0.3619047619047619,0.3619047619047619,0.3619047619047619,0.3619047619047619,0.3619047619047619,0.3619047619047619,0.3619047619047619,0.3619047619047619,0.3619047619047619,0.37142857142857144,0.4095238095238095,0.45714285714285713,0.5047619047619047,0.5523809523809524,0.6095238095238096,0.6285714285714286,0.6666666666666666,0.6761904761904762,0.6857142857142857,0.7047619047619048,0.7047619047619048,0.7047619047619048,0.7047619047619048,0.7142857142857143,0.7142857142857143,0.7142857142857143,0.7142857142857143,0.7142857142857143,0.6761904761904762,0.638095238095238,0.5904761904761905,0.5714285714285714,0.5142857142857142,0.4857142857142857,0.41904761904761906,0.38095238095238093,0.34285714285714286,0.22857142857142856,0.22857142857142856,0.22857142857142856,0.22857142857142856,0.22857142857142856,0.22857142857142856,0.22857142857142856,0.22857142857142856,0.22857142857142856,0.22857142857142856,0.22857142857142856,0.22857142857142856,0.20952380952380953,0.1619047619047619,0.14285714285714285,0.14285714285714285,0.14285714285714285,0.14285714285714285,0.14285714285714285,0.14285714285714285,0.13333333333333333,0.10476190476190476,0.08571428571428572,0.06666666666666667,0.06666666666666667,0.047619047619047616,0.0380952380952381,0.01904761904761905,0.01904761904761905,0.01904761904761905,0.01904761904761905,0.01904761904761905,0.01904761904761905,0.01904761904761905,0.01904761904761905,0.01904761904761905,0.01904761904761905,0.009523809523809525,0.009523809523809525,0.009523809523809525,0.009523809523809525,0,0,0,0,0,0,0,0,0,0,0,0,0,0,0,0,0,0,0,0,0,0,0,0,0,0,0,0,0,0,0,0,0,0,0,0,0,0,0,0,0,0,0,0,0.01904761904761905,0.02857142857142857,0.0380952380952381,0.047619047619047616,0.0761904761904762,0.08571428571428572,0.09523809523809523,0.09523809523809523,0.10476190476190476,0.10476190476190476,0.10476190476190476,0.10476190476190476,0.10476190476190476,0.10476190476190476,0.10476190476190476,0.10476190476190476,0.10476190476190476,0.10476190476190476,0.10476190476190476,0.10476190476190476,0.10476190476190476,0.10476190476190476,0.10476190476190476,0.10476190476190476,0.10476190476190476,0.10476190476190476,0.10476190476190476,0.10476190476190476,0.10476190476190476,0.10476190476190476,0.09523809523809523,0.09523809523809523,0.09523809523809523,0.09523809523809523,0.09523809523809523,0.09523809523809523,0.09523809523809523,0.09523809523809523,0.09523809523809523,0.09523809523809523,0.09523809523809523,0.09523809523809523,0.09523809523809523,0.09523809523809523,0.09523809523809523,0.08571428571428572,0.0761904761904762,0.0761904761904762,0.0761904761904762,0.0761904761904762,0.0761904761904762,0.0761904761904762,0.0761904761904762,0.0761904761904762,0.0761904761904762,0.0761904761904762,0.0761904761904762,0.0761904761904762,0.0761904761904762,0.0761904761904762,0.0761904761904762,0.0761904761904762,0.0761904761904762,0.0761904761904762,0.0761904761904762,0.0761904761904762,0.0761904761904762,0.0761904761904762,0.0761904761904762,0.0761904761904762,0.0761904761904762,0.0761904761904762,0.0761904761904762,0.0761904761904762,0.0761904761904762,0.0761904761904762,0.0761904761904762,0.0761904761904762,0.0761904761904762,0.0761904761904762,0.0761904761904762,0.0761904761904762,0.0761904761904762,0.0761904761904762,0.0761904761904762,0.0761904761904762,0.0761904761904762,0.0761904761904762,0.0761904761904762,0.0761904761904762,0.0761904761904762,0.0761904761904762,0.0761904761904762,0.06666666666666667,0.06666666666666667,0.06666666666666667,0.06666666666666667,0.06666666666666667,0.0761904761904762,0.09523809523809523,0.09523809523809523,0.11428571428571428,0.12380952380952381,0.13333333333333333,0.1523809523809524,0.1523809523809524,0.1523809523809524,0.1523809523809524,0.1523809523809524,0.1523809523809524,0.1523809523809524,0.1523809523809524,0.1523809523809524,0.1523809523809524,0.17142857142857143,0.17142857142857143,0.19047619047619047,0.19047619047619047,0.2,0.20952380952380953,0.20952380952380953,0.20952380952380953,0.21904761904761905,0.21904761904761905,0.21904761904761905,0.21904761904761905,0.23809523809523808,0.24761904761904763,0.2761904761904762,0.3047619047619048,0.3333333333333333,0.3523809523809524,0.4,0.4380952380952381,0.45714285714285713,0.49523809523809526,0.5238095238095238,0.5428571428571428,0.5714285714285714,0.5904761904761905,0.6,0.6285714285714286,0.6285714285714286,0.6285714285714286,0.6285714285714286,0.6285714285714286,0.6285714285714286,0.6285714285714286,0.6285714285714286,0.6285714285714286,0.6285714285714286,0.6285714285714286,0.6285714285714286,0.6285714285714286,0.6285714285714286,0.6285714285714286,0.638095238095238,0.638095238095238,0.638095238095238,0.638095238095238,0.638095238095238,0.638095238095238,0.638095238095238,0.638095238095238,0.638095238095238,0.6285714285714286,0.6095238095238096,0.5619047619047619,0.44761904761904764,0.4,0.4,0.4,0.4,0.4,0.4,0.4,0.4,0.4,0.3904761904761905,0.37142857142857144,0.37142857142857144,0.37142857142857144,0.37142857142857144,0.37142857142857144,0.37142857142857144,0.37142857142857144,0.37142857142857144,0.37142857142857144,0.37142857142857144,0.37142857142857144,0.3523809523809524,0.3333333333333333,0.3238095238095238,0.3142857142857143,0.3142857142857143,0.3047619047619048,0.29523809523809524,0.29523809523809524,0.2857142857142857,0.26666666666666666,0.22857142857142856,0.2,0.18095238095238095,0.17142857142857143,0.14285714285714285,0.13333333333333333,0.12380952380952381,0.09523809523809523,0.08571428571428572,0.0761904761904762,0.0761904761904762,0.05714285714285714,0.05714285714285714,0.05714285714285714,0.05714285714285714,0.05714285714285714,0.05714285714285714,0.05714285714285714,0.05714285714285714,0.05714285714285714,0.05714285714285714,0.05714285714285714,0.05714285714285714,0.05714285714285714,0.05714285714285714,0.05714285714285714,0.11428571428571428,0.17142857142857143,0.2571428571428571,0.3238095238095238,0.37142857142857144,0.41904761904761906,0.4380952380952381,0.45714285714285713,0.4666666666666667,0.4666666666666667,0.4666666666666667,0.4666666666666667,0.4666666666666667,0.4666666666666667,0.4666666666666667,0.4666666666666667,0.4666666666666667,0.4666666666666667,0.4666666666666667,0.4666666666666667,0.4666666666666667,0.4666666666666667,0.4666666666666667,0.4666666666666667,0.4666666666666667,0.4666666666666667,0.4666666666666667,0.4666666666666667,0.4666666666666667,0.4666666666666667,0.4666666666666667,0.4666666666666667,0.47619047619047616,0.5047619047619047,0.5047619047619047,0.5047619047619047,0.5047619047619047,0.5047619047619047,0.5047619047619047,0.5047619047619047,0.5047619047619047,0.5047619047619047,0.5047619047619047,0.5047619047619047,0.5047619047619047,0.5047619047619047,0.5047619047619047,0.5047619047619047,0.5047619047619047,0.5047619047619047,0.5047619047619047,0.5047619047619047,0.5047619047619047,0.5047619047619047,0.5047619047619047,0.5047619047619047,0.5047619047619047,0.5047619047619047,0.5047619047619047,0.5047619047619047,0.5047619047619047,0.5047619047619047,0.5047619047619047,0.5047619047619047,0.5047619047619047,0.5047619047619047,0.5047619047619047,0.5047619047619047,0.5047619047619047,0.5047619047619047,0.5047619047619047,0.5047619047619047,0.5047619047619047,0.5047619047619047,0.5047619047619047,0.5047619047619047,0.5047619047619047,0.5047619047619047,0.5047619047619047,0.5142857142857142,0.5142857142857142,0.5142857142857142,0.5142857142857142,0.5142857142857142,0.5142857142857142,0.5142857142857142,0.5142857142857142,0.5142857142857142,0.5142857142857142,0.5142857142857142,0.5142857142857142,0.5142857142857142,0.5142857142857142,0.5142857142857142,0.5142857142857142,0.5142857142857142,0.5142857142857142,0.5142857142857142,0.5142857142857142,0.5142857142857142,0.5047619047619047,0.5047619047619047,0.49523809523809526,0.49523809523809526,0.49523809523809526,0.49523809523809526,0.49523809523809526,0.49523809523809526,0.49523809523809526,0.49523809523809526,0.49523809523809526,0.49523809523809526,0.49523809523809526,0.49523809523809526,0.49523809523809526,0.49523809523809526,0.49523809523809526,0.49523809523809526,0.49523809523809526,0.49523809523809526,0.49523809523809526,0.49523809523809526,0.49523809523809526,0.49523809523809526,0.49523809523809526,0.49523809523809526,0.49523809523809526,0.49523809523809526,0.49523809523809526,0.5047619047619047,0.5047619047619047,0.5142857142857142,0.5142857142857142,0.5142857142857142,0.5142857142857142,0.5142857142857142,0.5142857142857142,0.5142857142857142,0.5142857142857142,0.5142857142857142,0.5142857142857142,0.5142857142857142,0.5142857142857142,0.5142857142857142,0.5142857142857142,0.5142857142857142,0.5142857142857142,0.5142857142857142,0.5142857142857142,0.5142857142857142,0.5142857142857142,0.580952380952381,0.6571428571428571,0.7428571428571429,0.819047619047619,0.8761904761904762,0.9142857142857143,0.9142857142857143,0.9238095238095239,0.9333333333333333,0.9333333333333333,0.9333333333333333,0.9333333333333333,0.9333333333333333,0.9619047619047619,0.9714285714285714,0.9809523809523809,0.9904761904761905,1.0095238095238095,1.0095238095238095,1.0095238095238095,1.0095238095238095,1.0095238095238095,1.0095238095238095,1.0095238095238095,1.0095238095238095,1.0095238095238095,1.0095238095238095,1.0095238095238095,1.0095238095238095,1.0095238095238095,1.0285714285714285,1.0285714285714285,1.0285714285714285,1.0285714285714285,1.0476190476190477,1.0476190476190477,1.0476190476190477,1.0476190476190477,1.0476190476190477,1.0476190476190477,1.0476190476190477,1.0476190476190477,1.0476190476190477,1.0476190476190477,1.0476190476190477,1.0476190476190477,1.0476190476190477,1.0476190476190477,1.0476190476190477,1.0476190476190477,1.0476190476190477,1.0476190476190477,1.0476190476190477,1.0476190476190477,1.0476190476190477,1.0476190476190477,1.0476190476190477,1.0476190476190477,1.0476190476190477,1.0476190476190477,1.0476190476190477,1.0476190476190477,1.0476190476190477,1.0476190476190477,1.0476190476190477,1.0476190476190477,1.0476190476190477,1.0476190476190477,1.0476190476190477,1.0380952380952382,1.0285714285714285,1.0285714285714285,1.0285714285714285,1.0285714285714285,1.0285714285714285,1.0285714285714285,1.0285714285714285,1.0285714285714285,1.0285714285714285,1.0285714285714285,1.0285714285714285,1.0285714285714285,1.0285714285714285,1.0285714285714285,1.0285714285714285,1.0285714285714285,1.0285714285714285,1.0285714285714285,1.0285714285714285,1.0285714285714285,1.0285714285714285,1.0285714285714285,1.0285714285714285,1.0285714285714285,1.0285714285714285,1.0285714285714285,1.0095238095238095,1.0095238095238095,1.0095238095238095,1.0095238095238095,1.0095238095238095,1.0095238095238095,1.0095238095238095,1.0095238095238095,1.0095238095238095,1.0095238095238095,1,1,1,1,1,1,1,1,0.9809523809523809,0.9619047619047619,0.8857142857142857,0.8095238095238095,0.7619047619047619,0.7238095238095238,0.7047619047619048,0.6857142857142857,0.6666666666666666,0.6666666666666666,0.6571428571428571,0.638095238095238,0.638095238095238,0.638095238095238,0.638095238095238,0.6190476190476191,0.6,0.5904761904761905,0.580952380952381,0.5714285714285714,0.5523809523809524,0.5523809523809524,0.5523809523809524,0.5523809523809524,0.5523809523809524,0.5523809523809524,0.5523809523809524,0.5523809523809524,0.5523809523809524,0.5523809523809524,0.5523809523809524,0.5523809523809524,0.5523809523809524,0.5523809523809524,0.5523809523809524,0.5523809523809524,0.5523809523809524,0.5523809523809524,0.5523809523809524,0.5523809523809524,0.5523809523809524,0.5523809523809524,0.5523809523809524,0.5523809523809524,0.5523809523809524,0.5523809523809524,0.5333333333333333,0.5238095238095238,0.5142857142857142,0.47619047619047616,0.44761904761904764,0.41904761904761906,0.34285714285714286,0.3142857142857143,0.19047619047619047,0.13333333333333333,0.08571428571428572,0.0761904761904762,0.06666666666666667,0.06666666666666667,0.047619047619047616,0.047619047619047616,0.047619047619047616,0.047619047619047616,0.0380952380952381,0.01904761904761905,0,-0.009523809523809525,-0.009523809523809525,-0.009523809523809525,-0.009523809523809525,-0.009523809523809525,-0.009523809523809525,-0.009523809523809525,-0.009523809523809525,-0.009523809523809525,-0.009523809523809525,-0.009523809523809525,-0.009523809523809525,-0.009523809523809525,-0.009523809523809525,-0.009523809523809525,-0.009523809523809525,-0.009523809523809525,-0.009523809523809525,-0.009523809523809525,-0.009523809523809525,-0.009523809523809525,0.0761904761904762,0.23809523809523808,0.4380952380952381,0.5238095238095238,0.7142857142857143,0.7619047619047619,0.8666666666666667,0.8857142857142857,0.9238095238095239,0.9238095238095239,0.9333333333333333,0.9523809523809523,0.9714285714285714,0.9904761904761905,1.019047619047619,1.0476190476190477,1.0571428571428572,1.0761904761904761,1.0952380952380953,1.0952380952380953,1.1047619047619048,1.1047619047619048,1.1047619047619048,1.1047619047619048,1.1047619047619048,1.1047619047619048,1.1047619047619048,1.1047619047619048,1.1047619047619048,1.1047619047619048,1.1047619047619048,1.1047619047619048,1.1047619047619048,1.1047619047619048,1.1047619047619048,1.1047619047619048,1.1047619047619048,1.1047619047619048,1.0666666666666667,0.9904761904761905,0.9523809523809523,0.8285714285714286,0.7619047619047619,0.7142857142857143,0.6952380952380952,0.6666666666666666,0.6476190476190476,0.6190476190476191,0.6,0.5904761904761905,0.5904761904761905,0.5904761904761905,0.5904761904761905,0.5904761904761905,0.5904761904761905,0.5904761904761905,0.5904761904761905,0.5904761904761905,0.5904761904761905,0.5904761904761905,0.5904761904761905,0.580952380952381,0.5714285714285714,0.5714285714285714,0.5714285714285714,0.5714285714285714,0.5619047619047619,0.5619047619047619,0.5619047619047619,0.5619047619047619,0.5619047619047619,0.5619047619047619,0.5619047619047619,0.5619047619047619,0.5619047619047619,0.5619047619047619,0.5619047619047619,0.5619047619047619,0.5619047619047619,0.5523809523809524,0.5333333333333333,0.5238095238095238,0.4857142857142857,0.44761904761904764,0.42857142857142855,0.3523809523809524,0.29523809523809524,0.2761904761904762,0.24761904761904763,0.22857142857142856,0.21904761904761905,0.20952380952380953,0.2,0.18095238095238095,0.17142857142857143,0.17142857142857143,0.1523809523809524,0.1523809523809524,0.13333333333333333,0.12380952380952381,0.12380952380952381,0.12380952380952381,0.12380952380952381,0.12380952380952381,0.12380952380952381,0.12380952380952381,0.12380952380952381,0.12380952380952381,0.12380952380952381,0.12380952380952381,0.12380952380952381,0.11428571428571428,0.11428571428571428,0.10476190476190476,0.08571428571428572,0.0761904761904762,0.06666666666666667,0.06666666666666667,0.06666666666666667,0.06666666666666667,0.06666666666666667,0.06666666666666667,0.06666666666666667,0.06666666666666667,0.06666666666666667,0.06666666666666667,0.06666666666666667,0.06666666666666667,0.06666666666666667,0.06666666666666667,0.06666666666666667,0.05714285714285714,0.0380952380952381,0.02857142857142857,0.009523809523809525,0.009523809523809525,0.009523809523809525,0.009523809523809525,0.009523809523809525,0.009523809523809525,0.009523809523809525,0.009523809523809525,0.009523809523809525,0.009523809523809525,0.009523809523809525,0.009523809523809525,0.009523809523809525,0.009523809523809525,0.009523809523809525,0.009523809523809525,0.009523809523809525,0.009523809523809525,0.009523809523809525,0.009523809523809525,0.009523809523809525,0.009523809523809525,0.009523809523809525,0.009523809523809525,0.009523809523809525,0.009523809523809525,0.009523809523809525,0.009523809523809525,0.009523809523809525,0.009523809523809525,0.009523809523809525,0.009523809523809525,0.047619047619047616,0.12380952380952381,0.20952380952380953,0.29523809523809524,0.3333333333333333,0.3523809523809524,0.3619047619047619,0.4095238095238095,0.4095238095238095,0.44761904761904764,0.45714285714285713,0.4666666666666667,0.49523809523809526,0.49523809523809526,0.49523809523809526,0.49523809523809526,0.49523809523809526,0.49523809523809526,0.49523809523809526,0.49523809523809526,0.49523809523809526,0.49523809523809526,0.49523809523809526,0.49523809523809526,0.49523809523809526,0.49523809523809526,0.49523809523809526,0.49523809523809526,0.49523809523809526,0.49523809523809526,0.49523809523809526,0.49523809523809526,0.49523809523809526,0.49523809523809526,0.5047619047619047,0.5142857142857142,0.5142857142857142,0.5238095238095238,0.5333333333333333,0.5523809523809524,0.5619047619047619,0.5904761904761905,0.6,0.6190476190476191,0.6476190476190476,0.6666666666666666,0.6952380952380952,0.7047619047619048,0.7238095238095238,0.7238095238095238,0.7333333333333333,0.7428571428571429,0.7428571428571429,0.7428571428571429,0.7523809523809524,0.7523809523809524,0.7523809523809524,0.7714285714285715,0.7904761904761904,0.819047619047619,0.8380952380952381,0.8761904761904762,0.9047619047619048,0.9142857142857143,0.9523809523809523,0.9523809523809523,0.9619047619047619,0.9619047619047619,0.9714285714285714,0.9714285714285714,0.9714285714285714,0.9714285714285714,1,1.0095238095238095,1.019047619047619,1.019047619047619,1.019047619047619,1.019047619047619,1.019047619047619,1.019047619047619,1.019047619047619,1.019047619047619,1.019047619047619,1.019047619047619,1.019047619047619,1.019047619047619,1.019047619047619,1.019047619047619,1.019047619047619,1.019047619047619,1.0285714285714285,1.0571428571428572,1.0571428571428572,1.0571428571428572,1.0571428571428572,1.0571428571428572,1.0571428571428572,1.0571428571428572,1.0476190476190477,1.0476190476190477,1.0476190476190477,1.0476190476190477,1.0476190476190477,1.0476190476190477,1.0476190476190477,1.0380952380952382,1.0380952380952382,1.0380952380952382,1.0380952380952382,1.0285714285714285,1.0285714285714285,1.0285714285714285,1.0285714285714285,1.0285714285714285,1.0285714285714285,1.0285714285714285,1.0285714285714285,1.0285714285714285,1.0285714285714285,1.0285714285714285,1.0285714285714285,1.0285714285714285,1.0285714285714285,1.0285714285714285,1.0285714285714285,1.0285714285714285,1.0285714285714285,1.0285714285714285,1.0285714285714285,1.0285714285714285,1.0285714285714285,1.0285714285714285,1.0285714285714285,1.0285714285714285,1.0285714285714285,1.0285714285714285,1.0285714285714285,1.0285714285714285,1.0285714285714285,1.0285714285714285,1.0285714285714285,1.0285714285714285,1.0285714285714285,1.0285714285714285,1.0285714285714285,1.0285714285714285,1.0285714285714285,1.0285714285714285,1.0285714285714285,1.0285714285714285,1.0285714285714285,1.0285714285714285,1.0285714285714285,1.0285714285714285,1.0285714285714285,1.0285714285714285,1.0285714285714285,1.0285714285714285,1.0285714285714285,1.0285714285714285,1.0285714285714285,1.0285714285714285,1.0285714285714285,1.0285714285714285,1.0285714285714285,1.0285714285714285,1.0285714285714285,1.0285714285714285,1.0285714285714285,1.0285714285714285,1.0285714285714285,1.0285714285714285,1.0285714285714285,1.0285714285714285,1.0285714285714285,1.0285714285714285,1.0095238095238095,1,0.9904761904761905,0.9619047619047619,0.9333333333333333,0.8952380952380953,0.8380952380952381,0.7619047619047619,0.7047619047619048,0.5523809523809524,0.44761904761904764,0.37142857142857144,0.3142857142857143,0.13333333333333333,0.02857142857142857,-0.0380952380952381,-0.10476190476190476,-0.1523809523809524,-0.19047619047619047,-0.2,-0.20952380952380953,-0.20952380952380953,-0.20952380952380953,-0.20952380952380953,-0.20952380952380953,-0.20952380952380953,-0.20952380952380953,-0.24761904761904763,-0.2857142857142857,-0.3238095238095238,-0.41904761904761906,-0.4857142857142857,-0.6190476190476191,-0.638095238095238,-0.6952380952380952,-0.7238095238095238,-0.7714285714285715,-0.8,-0.8380952380952381,-0.8666666666666667,-0.8761904761904762,-0.8761904761904762,-0.8761904761904762,-0.8761904761904762,-0.8761904761904762,-0