[{"success":true,"trial_type":"fullscreen","trial_index":0,"time_elapsed":13555,"internal_node_id":"0.0-0.0","protocol_sum":"","subject_identifier":423,"subject_sum":[9,52,52,163,238,158,10,1,11,178,194,170,224,108,38,20,221,36,137,64,98,161,202,242,103,24,160,30,23,85,105,184],"subject_pair":211,"STUDY_ID":"66a22c0758a3d5c9d26873c6","PROLIFIC_PID":"65c523100ad7bf41ef536598","SESSION_ID":"66a2b4b175e3a045f064d316","practice_instructions":1,"leaderboard_instructions":0,"bonus":0,"reveal_word":true,"self_rating":"5","confidence":"53"},{"view_history":"[{\"page_index\":0,\"viewing_time\":4904.0999999940395}]","rt":4904.399999991059,"trial_type":"instructions","trial_index":1,"time_elapsed":18462,"internal_node_id":"0.0-1.0","protocol_sum":"","subject_identifier":423,"subject_sum":[9,52,52,163,238,158,10,1,11,178,194,170,224,108,38,20,221,36,137,64,98,161,202,242,103,24,160,30,23,85,105,184],"subject_pair":211,"STUDY_ID":"66a22c0758a3d5c9d26873c6","PROLIFIC_PID":"65c523100ad7bf41ef536598","SESSION_ID":"66a2b4b175e3a045f064d316","practice_instructions":1,"leaderboard_instructions":0,"bonus":0,"reveal_word":true,"self_rating":"5","confidence":"53"},{"view_history":"[{\"page_index\":0,\"viewing_time\":162005}]","rt":162005.20000000298,"trial_type":"instructions","trial_index":2,"time_elapsed":180469,"internal_node_id":"0.0-2.0-0.0","protocol_sum":"","subject_identifier":423,"subject_sum":[9,52,52,163,238,158,10,1,11,178,194,170,224,108,38,20,221,36,137,64,98,161,202,242,103,24,160,30,23,85,105,184],"subject_pair":211,"STUDY_ID":"66a22c0758a3d5c9d26873c6","PROLIFIC_PID":"65c523100ad7bf41ef536598","SESSION_ID":"66a2b4b175e3a045f064d316","practice_instructions":1,"leaderboard_instructions":0,"bonus":0,"reveal_word":true,"self_rating":"5","confidence":"53"},{"rt":13271,"responses":"{\"Q0\":\"... reveal the word with as <b>few letter guesses</b> as possible\"}","question_order":"[0]","trial_type":"survey-multi-choice","trial_index":3,"time_elapsed":193742,"internal_node_id":"0.0-2.0-1.0","protocol_sum":"","subject_identifier":423,"subject_sum":[9,52,52,163,238,158,10,1,11,178,194,170,224,108,38,20,221,36,137,64,98,161,202,242,103,24,160,30,23,85,105,184],"subject_pair":211,"correct":true,"test_part":"multichoice_nonpretend","STUDY_ID":"66a22c0758a3d5c9d26873c6","PROLIFIC_PID":"65c523100ad7bf41ef536598","SESSION_ID":"66a2b4b175e3a045f064d316","practice_instructions":1,"leaderboard_instructions":0,"bonus":0,"reveal_word":true,"self_rating":"5","confidence":"53"},{"view_history":"[{\"page_index\":0,\"viewing_time\":2486}]","rt":2486.2999999970198,"trial_type":"instructions","trial_index":4,"time_elapsed":196229,"internal_node_id":"0.0-3.0","protocol_sum":"","subject_identifier":423,"subject_sum":[9,52,52,163,238,158,10,1,11,178,194,170,224,108,38,20,221,36,137,64,98,161,202,242,103,24,160,30,23,85,105,184],"subject_pair":211,"STUDY_ID":"66a22c0758a3d5c9d26873c6","PROLIFIC_PID":"65c523100ad7bf41ef536598","SESSION_ID":"66a2b4b175e3a045f064d316","practice_instructions":1,"leaderboard_instructions":0,"bonus":0,"reveal_word":true,"self_rating":"5","confidence":"53"},{"word":"ZEBRA","click_log":{"letter":["","H","O","G","S","T","L","U","A","D","C","P","J","E","Z","B","R"],"t":[0,5537.4000000059605,7977.100000008941,22417.29999999702,25432.90000000596,27200.90000000596,31961.5,34897.29999999702,36097.10000000894,38352.90000000596,40200.90000000596,42505,44888.90000000596,47104.79999999702,59332.79999999702,60424.79999999702,63640.90000000596],"hit":[null,0,0,0,0,0,0,0,1,0,0,0,0,1,1,1,1],"asked":["","H","HO","HOG","HOGS","HOGST","HOGSTL","HOGSTLU","HOGSTLUA","HOGSTLUAD","HOGSTLUADC","HOGSTLUADCP","HOGSTLUADCPJ","HOGSTLUADCPJE","HOGSTLUADCPJEZ","HOGSTLUADCPJEZB","HOGSTLUADCPJEZBR"],"word_state":["_____","_____","_____","_____","_____","_____","_____","_____","____A","____A","____A","____A","____A","_E__A","ZE__A","ZEB_A","ZEBRA"]},"hover_log":{"letter":["?","?","?","?","?","?","?","?","?","?","?","?","?","?","?","?","?","?","?","?","?","?","?","?","?","?","?","?","?","?","?","?","?","?","?","?","?","?","?","?","?","?","?","?","?","?","?","?","?","?","?","?","?","?","?","?","?","?","?","?","?","?","?","?","?","?","?","?","?","?","?","?","?","?","?","?","?","?","?","?","?","?","?","?","?","?","?","?","?","?","?","?","?","?","?","?","?","?","?","?","?","?","?","?","?","?","?","?","?","?","?","?","?","?","?","?","?","?","?","?","?","?","?","?","?","?","?","?","?","?","?","?","?","?","?","?","?","?","?","?","?","?","?","?","?","?","?","?","?","?","?","?","?","?","?","?","?","?","?","?","?","?","?","?","?","?","?","?","?","?","?","?","?","?","?","?","?","?","?","?","?","?","?","?","?","?","?","?","?","?","?","?","?","?","?","?","?","?","?","?","?","?","?","?","?","?","?","?","?","?","?","?","?","?","?","?","?","?","?","?","?","?","?","?","?","?","?","?","?","?","?","?","?","?","?","?","?","?","?","?","?","?","?","?","?","?","?","?","?","?","B","B","B","B","B","B","B","?","?","?","?","?","?","?","?","?","?","?","?","?","?","M","M","?","?","?","?","?","?","?","?","?","?","?","?","?","?","?","F","F","F","F","F","F","F","G","G","G","G","G","G","G","?","H","H","H","H","H","H","H","H","H","H","H","H","H","H","H","H","H","H","H","H","H","H","H","H","H","H","H","H","H","H","H","H","H","H","H","H","H","H","H","H","H","H","H","?","?","?","?","?","?","?","Q","Q","Q","Q","Q","Q","Q","Q","Q","Q","Q","Q","Q","Q","Q","Q","Q","Q","Q","Q","?","?","P","P","?","?","?","?","?","?","?","?","?","?","?","?","?","?","?","?","O","O","O","O","O","O","O","O","O","O","O","O","O","O","O","O","O","O","O","O","O","O","O","O","O","O","O","O","O","O","O","O","O","O","O","O","O","O","O","O","O","O","O","O","O","O","O","O","O","O","O","O","O","O","O","O","O","O","O","O","O","O","O","O","O","O","O","O","O","O","O","O","O","O","O","O","O","O","O","O","O","O","O","O","O","O","O","O","O","O","O","O","O","O","O","O","O","O","O","O","O","O","O","O","O","O","O","O","O","O","O","O","O","O","O","O","O","O","O","O","O","O","O","O","O","O","O","O","O","O","O","O","O","O","O","O","O","O","O","O","O","O","O","O","O","O","O","O","O","O","O","O","O","O","O","O","O","O","O","O","O","O","O","O","O","O","O","O","O","O","O","O","O","O","O","O","O","O","O","O","O","O","O","O","O","O","O","O","O","O","O","O","O","O","?","?","?","?","?","?","?","?","?","?","?","?","?","?","?","?","?","?","?","?","?","?","?","?","?","?","?","?","?","?","?","?","P","P","P","P","P","P","P","P","P","P","P","P","P","P","P","P","P","P","P","P","P","P","P","P","P","P","P","P","P","P","P","P","P","P","P","P","P","P","P","P","P","P","P","P","P","P","P","P","P","P","P","P","P","P","P","P","P","P","P","P","P","P","P","P","P","P","P","P","P","P","P","P","P","P","P","P","P","P","P","P","P","P","P","P","P","P","P","P","P","P","P","P","P","P","P","P","P","P","P","P","P","P","P","P","P","P","P","P","P","P","P","P","P","P","P","P","P","P","P","P","P","P","P","P","P","P","P","P","P","?","Q","Q","Q","Q","Q","Q","?","?","?","I","I","I","I","I","I","?","?","?","Q","Q","?","?","?","?","?","?","?","?","V","U","?","T","?","?","?","?","?","?","S","T","?","?","N","?","?","?","N","?","K","?","J","J","?","?","?","J","J","?","?","?","?","?","?","?","?","?","?","?","?","?","?","?","?","?","?","?","?","?","?","?","?","?","?","?","?","?","?","?","?","?","?","?","?","?","?","?","?","?","?","?","?","?","?","?","?","?","?","?","L","L","L","L","L","L","L","L","L","L","?","?","?","?","?","?","?","?","?","?","?","?","?","?","?","?","J","K","L","M","?","?","?","?","?","?","?","?","?","?","?","?","?","?","?","?","?","?","?","P","?","?","?","?","?","?","?","P","P","P","P","P","P","P","P","P","P","P","P","P","P","?","?","?","?","?","?","?","?","?","?","?","?","?","?","?","?","?","?","?","?","?","?","?","?","?","?","?","?","?","?","?","?","?","?","?","?","?","?","?","?","?","?","?","?","?","?","?","?","?","?","?","?","?","?","?","?","?","?","?","?","?","?","?","?","?","?","?","?","?","?","?","?","?","?","?","?","?","?","?","?","?","?","?","?","?","?","?","?","?","?","?","?","?","?","?","?","?","?","?","?","?","?","?","?","?","?","?","?","?","?","?","?","?","?","?","?","?","?","?","?","?","?","?","?","?","?","?","?","?","?","?","?","?","?","?","?","?","?","?","?","?","?","?","?","?","?","?","?","?","?","?","?","?","?","?","?","?","?","?","?","?","?","?","?","?","?","?","O","N","M","?","L","?","K","K","K","K","?","?","?","?","?","?","?","?","?","?","?","?","?","?","?","?","?","?","?","?","L","L","L","L","L","L","?","K","?","?","?","J","J","J","J","J","J","?","K","K","?","L","L","L","L","L","L","L","L","L","L","L","?","?","?","?","?","?","?","?","?","?","?","?","?","?","?","?","?","?","?","?","?","?","?","?","?","?","?","?","?","?","?","?","?","?","?","?","?","?","?","?","?","?","?","?","?","?","?","?","?","?","?","?","?","?","?","?","?","?","?","?","?","?","?","?","?","?","?","?","?","?","?","?","?","?","?","?","?","?","L","L","?","?","?","?","?","?","?","?","?","?","?","?","?","M","M","M","M","M","?","?","?","?","?","?","?","?","?","?","?","?","?","?","?","?","?","?","?","?","F","F","F","F","F","F","F","F","F","?","?","?","F","F","F","F","?","?","?","?","G","G","G","G","G","G","G","G","G","G","G","G","G","G","G","G","G","G","G","G","G","G","G","G","G","G","G","G","G","G","G","G","G","G","G","G","G","G","G","G","G","G","G","G","G","G","G","G","G","G","G","G","G","G","G","G","G","G","G","G","G","G","G","G","G","G","G","G","G","G","G","G","G","G","G","G","G","G","G","G","G","G","G","G","G","G","G","G","G","G","G","G","G","G","G","G","G","G","G","G","G","G","G","G","G","G","G","G","G","G","G","G","G","G","G","G","G","G","G","G","G","G","G","G","G","G","G","G","G","G","G","G","G","G","G","G","G","G","G","G","G","G","G","G","G","G","G","?","?","?","?","N","N","M","?","?","U","U","U","U","U","U","U","U","?","?","?","?","?","?","?","?","?","?","?","?","?","?","T","T","T","?","?","?","?","?","?","?","?","?","?","?","?","?","?","?","S","S","S","S","S","S","S","S","S","S","S","S","S","S","S","S","S","S","S","S","S","S","S","S","S","S","S","S","S","S","S","S","S","S","S","S","S","S","S","S","S","S","S","S","S","S","S","S","S","S","S","S","S","S","S","S","S","S","S","S","S","S","S","S","S","S","S","S","S","S","S","S","S","S","S","S","S","S","S","S","S","S","S","?","?","?","?","?","?","?","T","T","T","T","T","T","T","T","T","T","T","T","T","T","T","T","T","T","T","T","T","T","T","T","T","T","T","T","T","T","T","T","T","T","T","T","T","T","T","T","T","T","T","T","T","T","T","T","T","T","T","T","T","T","T","T","T","T","T","T","T","T","T","T","T","T","T","T","T","T","T","T","T","T","T","T","T","T","T","T","T","T","T","T","T","T","T","T","T","T","T","T","T","T","?","?","?","?","?","?","?","?","?","K","K","K","K","K","K","K","K","K","K","K","K","K","K","K","K","?","?","?","?","?","?","?","?","?","?","C","C","C","?","D","?","?","?","?","?","?","?","?","?","?","D","D","D","D","D","D","D","D","D","D","D","?","?","E","E","E","E","E","E","E","E","E","E","E","E","E","E","E","E","E","E","E","E","E","E","E","E","E","E","E","E","E","E","E","E","E","E","E","E","E","E","E","E","E","E","E","E","E","E","E","E","E","?","?","?","D","D","D","D","D","D","D","D","D","D","D","D","D","D","D","D","D","D","D","D","D","D","D","D","D","D","D","D","D","D","D","D","D","D","D","?","C","C","C","C","C","C","C","C","C","C","C","C","C","C","C","C","C","C","C","C","C","C","C","C","C","C","C","C","C","C","C","C","C","C","C","C","C","C","C","C","C","C","C","C","C","C","?","?","?","?","?","?","?","?","?","?","?","?","L","L","L","L","L","L","L","L","L","L","L","L","L","L","L","L","L","L","L","L","L","L","L","L","L","L","L","L","L","L","L","L","L","L","L","L","L","L","L","L","L","L","L","L","L","L","L","L","L","L","L","L","L","L","L","L","L","L","L","L","L","L","L","L","L","L","L","L","L","L","L","L","L","L","L","L","L","L","L","L","L","L","L","L","L","L","L","L","L","L","L","L","L","L","L","L","L","L","L","L","L","L","L","L","L","L","L","L","L","L","L","L","L","L","L","L","L","L","L","L","L","L","L","L","L","L","L","L","L","L","L","L","L","L","L","L","L","L","L","L","L","L","L","L","L","L","L","L","L","L","L","L","L","L","L","L","L","L","L","L","L","L","?","?","U","U","U","U","U","U","U","U","U","U","U","U","U","U","U","U","U","U","U","U","U","U","U","U","U","U","U","U","U","U","U","U","U","U","U","U","U","U","U","U","U","U","U","U","U","U","?","K","K","?","?","?","?","?","?","?","B","B","B","B","B","B","B","B","B","B","B","B","B","B","B","B","B","B","?","?","?","?","?","?","?","?","?","A","A","A","A","A","A","A","A","A","A","A","A","A","A","A","A","A","A","A","A","A","A","A","A","A","A","A","A","A","A","A","A","A","A","A","A","A","A","A","A","A","A","A","A","A","A","A","A","A","A","A","A","A","A","A","A","A","A","A","A","A","A","A","A","A","A","A","A","A","A","A","A","A","A","A","A","A","A","A","A","A","A","A","A","?","B","B","B","B","B","B","B","B","B","B","B","B","B","B","B","B","B","B","B","B","?","?","?","?","?","?","?","?","?","?","?","?","?","?","?","C","C","C","C","C","C","C","C","C","C","C","C","C","C","C","C","C","?","D","D","D","D","D","D","D","D","D","D","D","D","D","D","D","D","D","D","D","D","D","D","D","D","D","D","D","D","D","D","D","D","D","D","D","D","D","D","D","D","D","D","D","D","D","D","D","D","D","D","D","D","D","D","D","D","D","D","D","D","D","D","D","D","D","D","D","D","D","D","D","D","D","D","D","D","D","D","D","?","C","C","?","?","?","?","?","?","?","?","?","?","?","?","?","?","?","?","?","?","?","?","?","C","C","C","C","C","C","C","C","C","C","C","C","C","C","C","C","C","C","C","C","C","C","C","C","C","C","C","C","C","C","C","C","C","C","C","C","C","C","C","C","C","C","C","C","C","C","C","C","C","C","C","C","C","C","C","C","C","C","C","C","C","C","C","C","C","C","C","C","C","C","C","C","C","C","C","C","C","C","C","C","C","C","?","?","N","O","?","?","?","?","?","?","?","?","?","?","?","?","?","?","?","?","?","?","Y","Y","Y","Y","Y","Y","Y","Y","Y","Y","Y","Y","?","?","?","?","?","?","?","?","?","?","?","?","?","?","?","?","?","?","?","?","?","?","?","?","P","P","P","P","P","P","P","P","P","P","P","P","P","P","P","P","P","P","P","P","P","P","P","P","P","P","P","P","P","P","P","P","P","P","P","P","P","P","P","P","P","P","P","P","P","P","P","P","P","P","P","P","P","P","P","P","P","P","P","P","P","P","P","P","P","P","P","P","P","P","P","P","P","P","P","P","P","P","P","P","P","P","P","P","P","P","P","P","P","P","?","O","?","?","?","?","?","?","?","?","?","?","?","?","?","?","L","?","K","?","J","J","J","J","J","J","J","J","?","?","K","K","K","K","K","K","K","K","K","K","K","K","?","?","?","?","J","?","?","?","?","?","?","?","?","?","?","?","J","J","J","J","J","J","J","J","J","J","J","J","J","J","J","J","J","J","J","J","J","J","J","J","J","J","J","J","J","J","J","J","J","J","J","J","J","J","J","J","J","J","J","J","J","J","J","J","J","J","J","J","J","J","J","J","J","J","J","J","J","J","J","J","J","J","J","J","J","J","J","?","?","K","K","?","?","?","?","?","?","?","?","?","?","E","E","E","E","E","?","?","?","?","?","?","F","F","F","F","F","F","F","F","F","F","F","?","?","?","E","E","E","?","?","?","?","E","?","?","?","?","?","?","?","?","?","?","?","?","E","E","E","E","E","E","E","E","E","E","E","E","E","E","E","E","E","E","E","E","E","E","E","E","E","E","E","E","E","E","E","E","E","E","E","E","E","E","E","E","E","E","E","E","E","E","E","E","E","E","E","E","E","E","E","E","E","E","E","E","E","E","E","E","E","E","E","E","E","E","E","E","E","E","E","E","E","E","E","E","E","E","E","E","E","E","E","E","E","E","E","E","E","E","E","E","E","E","E","E","E","E","E","E","E","E","E","E","E","E","E","E","E","E","E","E","E","E","E","E","E","E","E","E","E","E","E","E","E","E","E","E","E","E","E","E","E","E","E","E","E","E","E","E","E","E","E","E","E","E","E","E","E","E","E","E","E","E","E","E","E","E","E","E","E","E","E","E","E","E","E","E","E","E","E","E","E","E","E","E","E","E","E","E","E","E","E","E","E","E","E","E","E","E","E","?","?","?","?","?","?","?","?","?","?","?","?","?","?","B","B","A","A","A","A","A","A","A","A","A","A","B","C","?","D","?","E","E","E","E","E","E","E","E","E","E","E","E","E","E","E","E","E","E","E","E","E","E","E","E","E","E","E","E","E","E","E","E","E","E","E","E","E","E","E","?","D","?","C","C","C","C","C","C","C","C","C","B","B","?","A","A","A","A","A","A","A","A","A","A","A","A","A","A","A","A","A","A","A","A","A","A","A","A","A","A","A","A","A","A","A","A","A","A","?","?","?","?","L","?","M","M","M","?","N","N","N","N","N","N","N","N","N","N","N","N","?","?","?","?","?","?","?","?","?","?","?","?","?","?","?","?","?","?","?","F","F","F","F","?","G","G","G","G","G","G","G","G","G","G","G","G","G","G","G","G","G","G","G","G","G","G","G","G","F","F","F","?","?","?","?","?","?","?","?","?","?","?","?","?","?","?","?","?","?","?","?","?","?","?","?","?","?","?","?","?","?","?","?","?","?","?","?","?","?","?","?","?","?","?","?","?","?","?","?","?","?","?","?","?","?","?","?","?","?","?","?","?","?","?","?","?","?","?","?","?","?","?","?","?","?","?","?","?","?","?","?","?","?","?","?","?","?","?","?","?","?","?","?","?","?","?","?","?","?","?","?","?","?","?","?","?","?","?","?","?","?","?","?","?","?","?","?","?","?","?","?","?","?","?","?","?","?","?","?","?","?","?","?","?","?","?","?","?","?","?","?","?","?","?","?","?","?","?","?","?","?","?","?","?","?","?","?","?","?","?","?","?","?","?","?","?","?","?","?","?","?","?","?","?","?","?","?","?","?","?","?","?","?","?","E","E","?","?","N","N","N","N","N","M","M","M","L","L","L","L","L","L","L","L","L","L","L","L","L","L","L","L","L","?","?","?","?","?","?","?","?","?","?","?","?","?","?","?","K","K","K","?","?","?","?","?","?","?","?","?","?","?","?","?","B","?","?","?","L","L","L","?","?","?","?","U","U","U","U","U","U","U","U","U","U","U","U","U","U","U","U","T","T","T","T","T","T","T","T","T","?","?","?","?","?","?","?","?","?","?","?","?","?","?","U","U","U","U","U","U","?","V","?","W","?","?","?","?","?","?","?","?","?","?","?","X","X","X","X","X","?","?","Y","Y","Y","Y","Y","Y","Y","Y","Y","?","Z","Z","Z","Z","Z","Z","Z","Z","Z","Z","Z","Z","Z","Z","Z","Z","Z","Z","Z","Z","Z","Z","Z","Z","Z","Z","Z","Z","Z","Z","Z","Z","Z","Z","Z","Z","Z","Z","Z","Z","Z","Z","Z","?","?","?","P","P","?","?","?","?","?","?","?","?","?","?","?","C","C","C","C","C","C","?","?","?","?","?","?","?","?","?","?","?","?","?","B","B","B","B","B","B","B","B","B","B","B","B","B","B","B","B","B","B","B","B","B","B","B","B","B","B","B","B","B","B","B","B","B","B","B","B","B","B","B","B","B","B","B","B","B","B","B","B","B","B","B","B","B","B","B","B","B","B","B","B","B","B","B","B","B","B","B","B","B","B","B","B","B","B","B","B","B","B","B","B","B","B","B","B","B","B","C","C","D","?","?","?","?","?","?","?","?","?","N","N","N","N","N","N","N","N","N","?","?","O","O","O","O","O","O","O","O","?","?","?","?","?","?","P","P","P","P","P","P","P","P","P","P","P","P","P","P","P","P","P","P","P","P","P","P","P","P","P","P","P","P","P","P","P","P","P","P","P","P","P","P","P","?","?","?","?","?","V","V","V","?","W","X","?","?","?","?","?","?","?","?","?","?","?","Q","?","?","?","?","R","R","R","R","R","R","R","R","R","R","R","R","R","R","R","R","R","R","R","R","R","R","R","R","R","R","R","R","R","R","R","R","R","R","R","R","R","R","R","R","R","R","R","R","R","R","R","R","R","R","R","R","R","R","R","R","R","R","R","R","R","R","R","R","R","R","R","R","R","R","R","R","R","R","R","R","R","R","R","R","R","R","R","R","R","R","R","R","R","R","R","R","R","R","R","R","R","R","R","R","R","R","R","R","R","R","R","R","R","R","R","R","R","R","R","R","R","R","R","R","R","R","R","R","R","R","R","R","R","R","R","R","R","R","R","R","R","R","R","R","R","R","R","R","R","R","R","R","R","R","R","R"],"t":[29,33,49,66,82,99,116,132,149,165,182,198,215,231,248,265,281,299,315,331,348,364,381,399,414,431,448,464,481,498,515,531,548,564,581,597,615,631,648,664,681,698,714,731,747,765,781,798,815,831,848,865,881,898,915,931,948,964,981,998,1015,1031,1048,1064,1081,1098,1115,1131,1148,1165,1182,1198,1215,1231,1248,1264,1281,1298,1316,1332,1348,1365,1381,1398,1416,1432,1448,1466,1481,1498,1515,1532,1549,1564,1581,1598,1615,1631,1649,1666,1684,1698,1714,1732,1748,1765,1782,1800,1814,1831,1848,1864,1882,1898,1914,1931,1948,1965,1981,1998,2015,2031,2049,2065,2081,2098,2115,2131,2148,2164,2181,2198,2215,2231,2248,2265,2284,2298,2315,2332,2349,2366,2382,2398,2415,2433,2448,2465,2481,2498,2514,2532,2548,2564,2581,2597,2615,2631,2647,2665,2681,2699,2714,2731,2748,2764,2781,2798,2815,2831,2848,2864,2881,2898,2915,2931,2949,2965,2981,2998,3014,3033,3048,3067,3081,3098,3114,3131,3147,3165,3181,3198,3214,3232,3247,3264,3281,3298,3314,3331,3348,3366,3381,3398,3414,3431,3447,3464,3481,3498,3514,3531,3547,3564,3582,3599,3614,3631,3647,3664,3684,3697,3714,3731,3748,3764,3781,3797,3814,3831,3847,3864,3881,3897,3914,3930,3948,3964,3981,3997,4014,4030,4048,4066,4081,4098,4115,4131,4148,4164,4186,4198,4216,4231,4248,4264,4282,4299,4315,4332,4349,4368,4381,4397,4414,4432,4449,4466,4483,4498,4514,4532,4548,4565,4582,4598,4615,4632,4649,4665,4681,4697,4715,4732,4748,4764,4781,4798,4817,4832,4849,4866,4882,4898,4916,4933,4951,4966,4983,4999,5016,5033,5051,5067,5083,5100,5116,5133,5150,5166,5183,5200,5216,5233,5250,5266,5283,5300,5316,5333,5350,5366,5383,5400,5417,5434,5451,5467,5484,5500,5516,5533,5550,5567,5583,5600,5617,5633,5650,5667,5683,5700,5717,5733,5751,5767,5784,5801,5817,5834,5851,5867,5884,5901,5917,5934,5950,5967,5983,6000,6017,6033,6050,6067,6083,6100,6117,6133,6150,6167,6183,6200,6217,6234,6251,6268,6284,6300,6317,6333,6350,6366,6383,6400,6416,6433,6450,6467,6483,6500,6517,6533,6550,6567,6583,6600,6617,6634,6651,6667,6684,6701,6717,6734,6750,6767,6783,6800,6816,6833,6850,6867,6883,6900,6917,6934,6950,6967,6983,7000,7017,7033,7050,7067,7083,7100,7117,7133,7150,7167,7183,7200,7217,7234,7250,7267,7284,7300,7317,7333,7350,7366,7383,7400,7417,7435,7451,7467,7483,7500,7517,7533,7550,7567,7583,7600,7617,7633,7650,7667,7684,7700,7716,7733,7750,7767,7784,7800,7817,7834,7851,7867,7883,7900,7916,7933,7949,7966,7983,7999,8016,8033,8049,8066,8083,8099,8116,8133,8150,8166,8183,8200,8216,8234,8250,8267,8284,8300,8316,8333,8350,8369,8383,8400,8416,8433,8450,8467,8483,8500,8516,8533,8550,8566,8583,8599,8616,8633,8650,8666,8683,8700,8716,8733,8750,8767,8783,8800,8817,8833,8850,8867,8883,8900,8917,8933,8950,8967,8983,9000,9016,9033,9050,9066,9083,9100,9116,9133,9150,9167,9183,9200,9216,9233,9250,9266,9284,9300,9317,9333,9350,9367,9384,9400,9416,9433,9450,9466,9483,9500,9517,9533,9549,9566,9584,9600,9616,9633,9650,9667,9683,9700,9717,9734,9750,9767,9783,9800,9816,9833,9849,9866,9883,9900,9916,9933,9950,9967,9983,10000,10016,10033,10050,10067,10083,10099,10117,10133,10150,10166,10183,10199,10216,10234,10249,10267,10283,10300,10316,10335,10350,10367,10383,10399,10417,10433,10449,10466,10483,10499,10516,10533,10550,10566,10583,10600,10617,10633,10650,10666,10683,10700,10716,10733,10749,10767,10783,10799,10817,10833,10850,10866,10883,10900,10916,10933,10949,10966,10983,10999,11016,11033,11049,11067,11083,11100,11116,11133,11150,11166,11183,11199,11216,11234,11250,11266,11283,11300,11316,11334,11349,11366,11383,11399,11416,11433,11450,11466,11483,11499,11516,11533,11549,11566,11583,11599,11617,11633,11650,11666,11683,11699,11716,11733,11750,11767,11783,11799,11817,11833,11849,11866,11883,11899,11916,11933,11950,11966,11983,11999,12016,12033,12050,12066,12083,12099,12117,12133,12150,12166,12183,12199,12216,12233,12249,12266,12283,12300,12317,12333,12350,12368,12383,12399,12416,12433,12450,12467,12483,12500,12516,12533,12549,12566,12583,12600,12616,12634,12650,12666,12683,12699,12716,12733,12750,12766,12783,12800,12817,12833,12851,12867,12884,12900,12933,12950,12966,12983,13000,13017,13034,13051,13067,13083,13099,13116,13133,13150,13166,13183,13199,13217,13234,13250,13267,13284,13300,13317,13333,13350,13366,13383,13400,13416,13433,13451,13467,13483,13500,13516,13533,13550,13566,13582,13599,13616,13633,13650,13666,13682,13699,13715,13732,13749,13766,13783,13799,13816,13833,13849,13866,13882,13899,13916,13933,13950,13966,13983,13999,14016,14032,14049,14066,14082,14099,14115,14132,14149,14166,14182,14199,14216,14233,14249,14266,14282,14299,14316,14332,14349,14367,14382,14399,14418,14432,14450,14466,14483,14499,14516,14532,14549,14566,14582,14599,14616,14633,14650,14666,14683,14699,14716,14732,14749,14766,14782,14799,14816,14833,14849,14866,14883,14899,14916,14933,14949,14966,14983,15000,15017,15034,15050,15067,15083,15100,15116,15133,15149,15166,15183,15199,15216,15233,15250,15267,15283,15300,15316,15333,15349,15367,15382,15399,15417,15433,15450,15467,15483,15499,15516,15532,15549,15566,15582,15599,15616,15632,15649,15666,15682,15699,15715,15732,15749,15766,15782,15799,15815,15833,15851,15866,15883,15899,15916,15944,15965,15982,15998,16015,16032,16048,16065,16082,16098,16115,16132,16148,16165,16182,16199,16215,16232,16248,16265,16282,16306,16330,16347,16363,16380,16396,16413,16429,16446,16464,16480,16496,16513,16530,16546,16563,16580,16596,16613,16630,16646,16663,16680,16696,16713,16730,16746,16763,16780,16796,16813,16830,16846,16863,16880,16896,16913,16930,16946,16963,16979,16996,17013,17030,17046,17063,17079,17096,17113,17129,17146,17163,17179,17196,17213,17230,17246,17263,17280,17297,17314,17330,17349,17363,17380,17396,17413,17430,17446,17463,17479,17496,17513,17529,17546,17563,17580,17596,17613,17629,17646,17663,17680,17696,17713,17729,17746,17763,17780,17796,17813,17830,17846,17863,17880,17896,17913,17930,17946,17963,17979,17996,18013,18029,18046,18063,18080,18096,18113,18130,18146,18163,18179,18196,18213,18229,18246,18263,18280,18297,18314,18330,18348,18365,18382,18397,18413,18430,18447,18464,18480,18497,18514,18530,18547,18563,18580,18596,18613,18630,18646,18663,18679,18696,18713,18730,18746,18763,18783,18797,18814,18830,18846,18863,18880,18897,18914,18931,18946,18964,18980,18996,19013,19029,19046,19064,19081,19097,19114,19130,19146,19163,19179,19196,19213,19229,19246,19263,19279,19296,19313,19330,19347,19363,19379,19399,19415,19429,19446,19463,19480,19496,19513,19531,19546,19563,19580,19596,19613,19629,19646,19663,19679,19696,19713,19729,19746,19763,19779,19796,19813,19829,19846,19863,19879,19896,19913,19930,19946,19963,19979,19996,20013,20029,20046,20063,20079,20096,20113,20129,20146,20163,20179,20196,20213,20229,20246,20263,20279,20296,20313,20329,20346,20363,20379,20396,20413,20429,20447,20463,20479,20497,20513,20531,20548,20565,20580,20597,20613,20631,20647,20663,20681,20699,20716,20731,20749,20763,20780,20796,20815,20830,20846,20863,20880,20897,20914,20930,20947,20963,20979,20996,21013,21029,21046,21067,21082,21098,21117,21132,21147,21163,21181,21197,21214,21230,21246,21263,21280,21297,21314,21330,21348,21365,21382,21398,21415,21431,21449,21466,21482,21500,21524,21531,21548,21565,21582,21599,21615,21631,21651,21666,21687,21700,21715,21749,21768,21790,21801,21815,21831,21853,21879,21897,21913,21929,21950,21965,21982,22005,22029,22046,22063,22079,22096,22113,22129,22146,22162,22179,22196,22213,22229,22246,22262,22279,22296,22312,22329,22346,22363,22379,22396,22412,22430,22446,22462,22479,22496,22513,22529,22546,22564,22580,22597,22614,22631,22647,22663,22680,22702,22714,22729,22746,22763,22781,22798,22816,22830,22846,22864,22880,22896,22914,22931,22946,22965,22979,22997,23013,23030,23048,23063,23079,23100,23113,23130,23146,23166,23179,23196,23214,23229,23246,23263,23280,23297,23313,23330,23346,23363,23380,23396,23413,23429,23446,23463,23480,23496,23513,23529,23546,23562,23580,23597,23613,23630,23646,23663,23679,23696,23714,23732,23746,23762,23779,23796,23814,23829,23846,23863,23879,23896,23916,23929,23950,23963,23979,23996,24014,24029,24047,24062,24080,24096,24113,24131,24147,24167,24179,24196,24217,24229,24246,24263,24279,24297,24314,24330,24346,24363,24379,24396,24413,24430,24447,24463,24481,24497,24512,24529,24546,24563,24579,24597,24613,24630,24651,24666,24682,24697,24719,24729,24746,24764,24779,24796,24814,24829,24845,24863,24879,24896,24913,24930,24946,24964,24980,24997,25015,25030,25046,25063,25081,25095,25112,25129,25146,25162,25179,25195,25212,25229,25246,25262,25279,25296,25312,25330,25346,25362,25379,25396,25412,25429,25446,25462,25479,25496,25512,25529,25545,25562,25579,25596,25612,25629,25646,25662,25679,25696,25712,25729,25746,25762,25779,25795,25812,25829,25846,25862,25879,25895,25912,25929,25946,25962,25979,25995,26012,26029,26045,26062,26079,26095,26112,26129,26145,26162,26182,26195,26212,26229,26246,26263,26279,26296,26313,26330,26346,26362,26379,26396,26412,26429,26446,26463,26480,26496,26513,26529,26546,26562,26580,26596,26612,26629,26646,26662,26679,26696,26713,26729,26746,26763,26779,26796,26813,26830,26846,26863,26879,26896,26913,26929,26946,26963,26980,26997,27014,27030,27047,27062,27079,27095,27112,27129,27145,27162,27179,27195,27213,27230,27246,27262,27279,27295,27312,27329,27346,27362,27379,27395,27412,27429,27445,27462,27479,27495,27512,27529,27546,27562,27579,27595,27612,27629,27646,27665,27679,27695,27712,27729,27745,27762,27779,27795,27812,27829,27845,27862,27880,27895,27912,27929,27946,27962,27979,27997,28013,28031,28046,28063,28080,28097,28114,28130,28147,28162,28180,28196,28212,28229,28245,28263,28280,28296,28313,28330,28346,28363,28379,28396,28413,28429,28447,28464,28480,28497,28514,28530,28547,28563,28580,28597,28613,28630,28646,28663,28680,28697,28712,28729,28746,28762,28779,28796,28813,28830,28846,28863,28880,28896,28912,28929,28945,28962,28979,28996,29012,29030,29046,29062,29079,29095,29112,29131,29145,29162,29178,29195,29212,29229,29245,29262,29279,29295,29312,29329,29346,29362,29379,29395,29412,29428,29445,29462,29479,29495,29513,29530,29546,29562,29579,29596,29612,29629,29645,29662,29679,29696,29713,29729,29745,29762,29779,29797,29813,29829,29846,29863,29880,29895,29913,29930,29946,29962,29979,29995,30012,30028,30045,30062,30078,30095,30112,30129,30145,30162,30178,30195,30213,30228,30245,30262,30278,30295,30312,30328,30345,30362,30379,30395,30412,30428,30445,30462,30479,30495,30513,30530,30546,30564,30583,30597,30614,30631,30648,30664,30681,30697,30714,30730,30747,30764,30781,30797,30814,30830,30847,30864,30881,30897,30914,30931,30947,30964,30981,30997,31014,31031,31047,31064,31080,31097,31114,31130,31147,31164,31181,31197,31214,31231,31247,31264,31282,31298,31315,31331,31364,31381,31397,31414,31431,31447,31464,31481,31497,31514,31531,31547,31564,31581,31597,31614,31631,31648,31664,31680,31697,31714,31731,31747,31764,31781,31797,31814,31830,31847,31864,31881,31897,31914,31930,31947,31964,31981,31997,32014,32031,32049,32064,32081,32097,32114,32130,32147,32164,32180,32197,32214,32231,32247,32264,32281,32297,32314,32331,32347,32364,32381,32397,32414,32430,32447,32464,32480,32497,32514,32530,32547,32564,32580,32597,32614,32631,32647,32664,32681,32697,32714,32731,32747,32764,32781,32797,32814,32830,32847,32864,32881,32897,32914,32930,32947,32964,32980,32997,33014,33030,33047,33064,33081,33097,33114,33130,33147,33164,33180,33197,33214,33230,33247,33264,33280,33297,33314,33330,33347,33364,33381,33397,33414,33430,33447,33463,33482,33497,33514,33530,33547,33564,33581,33597,33614,33630,33647,33664,33681,33697,33714,33731,33747,33763,33781,33797,33814,33830,33847,33864,33881,33897,33914,33930,33947,33964,33981,33997,34014,34030,34047,34064,34080,34097,34114,34131,34147,34164,34181,34197,34214,34231,34247,34265,34281,34298,34315,34331,34347,34364,34380,34397,34414,34431,34448,34464,34480,34497,34514,34531,34547,34564,34581,34597,34614,34630,34647,34664,34680,34697,34714,34730,34747,34764,34781,34797,34814,34830,34847,34864,34880,34899,34914,34932,34947,34964,34981,34997,35014,35030,35047,35064,35081,35098,35115,35131,35148,35164,35181,35197,35214,35230,35247,35264,35281,35297,35314,35330,35347,35364,35380,35397,35414,35430,35447,35464,35481,35498,35514,35530,35547,35563,35580,35597,35614,35630,35648,35664,35681,35698,35714,35730,35747,35764,35780,35797,35813,35830,35847,35864,35880,35897,35914,35930,35947,35964,35980,35997,36014,36030,36047,36064,36080,36101,36114,36130,36147,36164,36180,36197,36214,36230,36248,36264,36280,36297,36314,36330,36347,36365,36380,36397,36414,36430,36447,36463,36480,36497,36514,36530,36547,36563,36580,36597,36614,36630,36647,36664,36680,36697,36714,36730,36747,36763,36780,36797,36814,36830,36848,36863,36880,36897,36914,36930,36947,36963,36981,36997,37014,37031,37047,37064,37081,37098,37115,37132,37147,37163,37180,37198,37214,37230,37247,37264,37280,37297,37314,37330,37347,37363,37380,37397,37414,37430,37447,37464,37480,37497,37514,37530,37547,37564,37580,37597,37614,37630,37647,37663,37680,37697,37715,37730,37747,37763,37781,37797,37814,37831,37847,37864,37881,37898,37914,37931,37947,37964,37980,37997,38013,38030,38047,38064,38080,38097,38113,38130,38147,38164,38180,38196,38214,38230,38247,38264,38280,38297,38313,38330,38347,38364,38380,38397,38415,38431,38447,38468,38485,38497,38513,38530,38547,38564,38580,38597,38613,38630,38647,38664,38680,38697,38713,38730,38747,38763,38780,38797,38813,38830,38847,38863,38880,38897,38915,38930,38947,38963,38980,38997,39014,39030,39047,39063,39080,39096,39114,39130,39147,39164,39182,39197,39213,39230,39247,39264,39281,39298,39314,39330,39347,39364,39380,39397,39414,39430,39447,39463,39481,39498,39514,39530,39547,39580,39597,39613,39630,39646,39663,39681,39697,39713,39730,39746,39763,39780,39797,39813,39830,39847,39864,39880,39897,39913,39930,39947,39964,39980,39997,40013,40030,40046,40063,40080,40097,40113,40130,40146,40163,40180,40197,40214,40230,40247,40264,40280,40297,40314,40330,40347,40363,40380,40397,40413,40430,40446,40464,40481,40497,40513,40530,40546,40563,40580,40597,40613,40630,40649,40663,40680,40697,40714,40730,40747,40763,40780,40797,40813,40830,40847,40863,40880,40897,40913,40930,40946,40963,40980,40996,41013,41030,41047,41063,41081,41098,41114,41131,41147,41163,41180,41197,41213,41230,41247,41263,41280,41297,41317,41331,41347,41364,41381,41398,41415,41431,41448,41464,41480,41497,41513,41531,41547,41564,41581,41597,41614,41631,41647,41663,41681,41698,41715,41731,41747,41764,41781,41797,41814,41830,41846,41864,41881,41898,41914,41930,41947,41963,41981,41997,42014,42030,42048,42064,42082,42097,42113,42131,42147,42163,42180,42197,42214,42230,42247,42263,42280,42297,42314,42330,42347,42364,42381,42397,42413,42430,42447,42465,42480,42497,42514,42530,42547,42563,42580,42596,42613,42630,42646,42663,42680,42697,42713,42730,42747,42763,42780,42797,42813,42830,42847,42863,42880,42896,42913,42929,42946,42963,42980,42996,43013,43030,43046,43063,43079,43096,43113,43130,43147,43163,43180,43197,43213,43230,43247,43263,43280,43297,43314,43330,43347,43364,43380,43397,43414,43430,43447,43464,43480,43498,43515,43531,43548,43564,43581,43597,43614,43630,43647,43664,43681,43697,43714,43730,43747,43764,43780,43797,43814,43830,43848,43864,43880,43897,43915,43930,43947,43963,43980,43997,44014,44030,44047,44063,44080,44097,44114,44130,44146,44164,44180,44197,44214,44230,44247,44264,44281,44298,44313,44330,44347,44363,44380,44396,44413,44430,44446,44463,44480,44497,44514,44530,44547,44563,44579,44597,44613,44629,44647,44664,44680,44696,44713,44730,44746,44763,44780,44796,44813,44829,44848,44863,44879,44896,44913,44930,44946,44963,44980,44997,45013,45029,45046,45063,45081,45096,45113,45129,45147,45163,45180,45196,45213,45231,45246,45263,45279,45296,45313,45329,45346,45364,45379,45396,45413,45429,45446,45463,45479,45496,45513,45531,45547,45563,45579,45596,45613,45630,45646,45663,45680,45698,45714,45731,45747,45763,45780,45797,45813,45830,45847,45863,45880,45897,45914,45930,45947,45963,45980,45997,46013,46030,46047,46063,46080,46096,46113,46129,46146,46163,46179,46196,46213,46230,46246,46265,46280,46297,46314,46331,46347,46363,46380,46397,46413,46431,46447,46463,46480,46496,46513,46530,46546,46563,46579,46596,46613,46630,46647,46663,46680,46697,46714,46730,46746,46763,46780,46796,46813,46829,46846,46863,46879,46896,46913,46929,46946,46963,46980,46996,47013,47030,47046,47063,47079,47096,47113,47129,47146,47163,47179,47196,47213,47229,47246,47263,47279,47296,47313,47329,47346,47363,47380,47396,47413,47429,47446,47463,47480,47496,47513,47529,47546,47562,47580,47596,47613,47630,47646,47663,47680,47697,47713,47729,47746,47763,47780,47796,47813,47830,47846,47863,47880,47896,47913,47930,47946,47963,47980,47996,48013,48029,48046,48063,48080,48096,48113,48130,48146,48163,48179,48196,48213,48229,48246,48263,48280,48296,48313,48330,48346,48363,48380,48396,48413,48430,48446,48463,48480,48498,48513,48530,48546,48563,48579,48596,48613,48630,48646,48664,48680,48696,48713,48729,48746,48762,48779,48796,48813,48829,48846,48863,48879,48896,48913,48929,48946,48962,48979,48996,49013,49029,49046,49063,49083,49096,49113,49129,49146,49162,49180,49196,49213,49229,49246,49263,49279,49296,49312,49329,49346,49362,49379,49396,49412,49430,49446,49463,49480,49496,49513,49529,49546,49562,49580,49596,49613,49629,49646,49663,49679,49696,49713,49729,49746,49763,49779,49796,49813,49829,49846,49863,49880,49897,49914,49930,49947,49963,49980,49996,50012,50030,50046,50063,50080,50097,50114,50131,50147,50163,50179,50196,50213,50229,50246,50263,50279,50296,50314,50331,50347,50363,50380,50396,50412,50430,50446,50462,50479,50497,50513,50529,50546,50563,50579,50596,50613,50629,50646,50663,50680,50697,50714,50729,50746,50763,50779,50796,50812,50829,50846,50862,50879,50896,50913,50929,50946,50963,50979,50996,51013,51030,51046,51063,51079,51096,51114,51131,51146,51162,51179,51196,51213,51230,51246,51263,51280,51297,51314,51330,51346,51363,51379,51396,51413,51429,51446,51462,51479,51496,51513,51529,51546,51562,51579,51596,51613,51629,51646,51662,51679,51696,51713,51729,51746,51762,51779,51796,51815,51829,51846,51863,51879,51896,51914,51930,51947,51963,51979,51996,52013,52029,52046,52063,52079,52095,52113,52129,52145,52162,52179,52195,52213,52229,52246,52263,52279,52297,52314,52330,52346,52362,52379,52395,52413,52429,52446,52463,52479,52496,52513,52530,52546,52563,52579,52596,52613,52629,52646,52662,52679,52695,52712,52729,52745,52762,52779,52796,52812,52829,52845,52862,52879,52896,52912,52929,52946,52963,52979,52996,53013,53029,53046,53063,53079,53096,53113,53130,53147,53163,53180,53196,53215,53229,53246,53263,53279,53296,53313,53329,53346,53363,53379,53396,53413,53429,53446,53462,53479,53495,53512,53529,53545,53562,53579,53596,53613,53629,53646,53662,53679,53696,53712,53729,53745,53762,53779,53796,53813,53829,53846,53862,53879,53896,53912,53929,53946,53962,53979,53996,54012,54029,54046,54062,54079,54096,54112,54129,54145,54162,54179,54196,54212,54229,54246,54262,54279,54295,54312,54329,54346,54362,54379,54395,54412,54429,54447,54462,54479,54495,54512,54529,54546,54562,54579,54596,54612,54629,54645,54662,54679,54696,54712,54729,54746,54762,54779,54796,54812,54829,54846,54862,54879,54895,54912,54929,54946,54962,54979,54996,55012,55029,55045,55062,55079,55095,55112,55129,55146,55162,55179,55195,55212,55229,55246,55262,55279,55295,55312,55329,55345,55362,55378,55395,55412,55429,55446,55462,55478,55496,55512,55529,55545,55562,55579,55595,55612,55629,55645,55662,55679,55695,55712,55729,55746,55762,55779,55796,55812,55829,55846,55862,55879,55895,55913,55930,55947,55963,55979,55996,56012,56029,56046,56063,56079,56096,56113,56130,56147,56163,56179,56195,56212,56229,56246,56262,56279,56296,56313,56330,56346,56363,56379,56396,56412,56429,56445,56462,56478,56495,56512,56529,56546,56562,56579,56596,56612,56629,56646,56663,56679,56695,56713,56730,56746,56762,56779,56795,56812,56829,56846,56862,56879,56896,56913,56930,56946,56962,56979,56995,57012,57029,57046,57063,57079,57095,57112,57129,57146,57162,57179,57196,57212,57229,57246,57262,57279,57296,57313,57330,57346,57362,57379,57396,57412,57429,57446,57462,57479,57496,57513,57530,57546,57563,57579,57612,57629,57646,57662,57679,57695,57712,57729,57746,57762,57779,57812,57829,57845,57862,57879,57895,57912,57930,57946,57962,57979,58012,58029,58046,58062,58079,58095,58112,58130,58146,58162,58179,58196,58212,58229,58245,58262,58279,58295,58312,58330,58346,58363,58379,58412,58429,58445,58462,58479,58496,58512,58530,58546,58562,58579,58595,58612,58629,58646,58662,58681,58695,58712,58729,58745,58762,58778,58795,58812,58828,58845,58862,58878,58895,58912,58930,58946,58963,58978,58995,59012,59029,59045,59062,59079,59095,59112,59129,59146,59162,59179,59196,59212,59228,59245,59262,59279,59295,59312,59330,59347,59363,59379,59396,59412,59429,59446,59462,59479,59496,59513,59530,59546,59563,59579,59596,59612,59629,59645,59662,59679,59695,59713,59730,59746,59763,59779,59795,59812,59829,59845,59862,59879,59895,59912,59930,59946,59963,59979,59995,60012,60029,60045,60064,60078,60095,60112,60129,60145,60162,60178,60195,60212,60228,60246,60262,60279,60295,60312,60328,60345,60362,60378,60395,60412,60429,60446,60462,60479,60495,60512,60528,60545,60562,60579,60595,60612,60629,60645,60662,60679,60695,60712,60729,60746,60762,60778,60795,60812,60828,60845,60861,60878,60895,60912,60928,60945,60961,60979,60995,61012,61028,61045,61062,61078,61095,61112,61128,61145,61162,61178,61195,61212,61228,61245,61262,61279,61296,61312,61328,61345,61362,61379,61396,61412,61428,61446,61462,61479,61495,61512,61528,61545,61563,61579,61596,61612,61629,61645,61661,61678,61695,61712,61730,61746,61762,61778,61795,61812,61829,61845,61862,61879,61895,61912,61929,61945,61962,61978,61995,62012,62029,62045,62062,62078,62095,62112,62128,62145,62162,62179,62195,62212,62228,62245,62262,62278,62295,62312,62329,62345,62361,62378,62395,62412,62428,62445,62462,62479,62495,62512,62528,62545,62562,62579,62595,62612,62629,62645,62662,62678,62695,62715,62729,62746,62763,62778,62795,62812,62828,62846,62862,62878,62895,62912,62928,62946,62963,62978,62996,63012,63028,63045,63062,63078,63095,63112,63129,63145,63161,63178,63195,63212,63228,63245,63262,63278,63295,63312,63329,63345,63362,63378,63395,63412,63428,63445,63462,63478,63495,63511,63528,63547,63562,63578,63595,63612,63628,63647,63662,63679,63695,63712,63728,63745,63762,63778,63795,63812,63829,63845,63862,63878,63895,63912,63928,63945,63962,63979,63995,64014,64028,64045,64062,64078,64095,64112,64128,64145,64162,64178,64195,64212,64228,64245,64261,64278,64295,64313,64329,64345,64362,64378,64395,64412,64428,64445,64462,64478,64495,64512,64528,64545,64562,64578,64595,64612,64629,64645,64662,64679,64695,64712,64728,64746,64762,64778,64795,64812,64828,64846,64862,64879,64896,64912,64928,64945,64962,64978,64995,65012,65028,65045,65061,65078,65095,65112,65128,65145,65162,65178,65195,65212,65228,65245,65261,65278,65295,65312,65330,65345,65362,65378,65395,65412,65428,65445,65461,65478,65495,65511,65528,65545,65562,65578,65595,65612,65628,65647],"hit":[null],"x":[-1.751700680272109,-1.751700680272109,-1.751700680272109,-1.751700680272109,-1.751700680272109,-1.751700680272109,-1.751700680272109,-1.751700680272109,-1.751700680272109,-1.751700680272109,-1.751700680272109,-1.751700680272109,-1.751700680272109,-1.751700680272109,-1.751700680272109,-1.751700680272109,-1.751700680272109,-1.751700680272109,-1.751700680272109,-1.751700680272109,-1.751700680272109,-1.751700680272109,-1.751700680272109,-1.751700680272109,-1.751700680272109,-1.751700680272109,-1.751700680272109,-1.751700680272109,-1.751700680272109,-1.751700680272109,-1.751700680272109,-1.751700680272109,-1.751700680272109,-1.751700680272109,-1.751700680272109,-1.751700680272109,-1.751700680272109,-1.751700680272109,-1.751700680272109,-1.751700680272109,-1.751700680272109,-1.751700680272109,-1.751700680272109,-1.751700680272109,-1.751700680272109,-1.751700680272109,-1.751700680272109,-1.751700680272109,-1.751700680272109,-1.751700680272109,-1.751700680272109,-1.751700680272109,-1.751700680272109,-1.751700680272109,-1.751700680272109,-1.751700680272109,-1.751700680272109,-1.751700680272109,-1.751700680272109,-1.751700680272109,-1.751700680272109,-1.751700680272109,-1.751700680272109,-1.751700680272109,-1.751700680272109,-1.751700680272109,-1.751700680272109,-1.751700680272109,-1.751700680272109,-1.751700680272109,-1.751700680272109,-1.751700680272109,-1.751700680272109,-1.751700680272109,-1.751700680272109,-1.751700680272109,-1.751700680272109,-1.751700680272109,-0.034013605442176874,-0.034013605442176874,-0.034013605442176874,-0.034013605442176874,-0.034013605442176874,-0.034013605442176874,-0.034013605442176874,-0.034013605442176874,-0.034013605442176874,-0.034013605442176874,-0.034013605442176874,-0.034013605442176874,-0.034013605442176874,-0.034013605442176874,-0.034013605442176874,-0.034013605442176874,-0.034013605442176874,-0.034013605442176874,-0.034013605442176874,-0.034013605442176874,-0.034013605442176874,-0.034013605442176874,-0.034013605442176874,-0.034013605442176874,-0.034013605442176874,-0.034013605442176874,-0.034013605442176874,-0.034013605442176874,-0.034013605442176874,-0.034013605442176874,-0.034013605442176874,-0.034013605442176874,-0.034013605442176874,-0.034013605442176874,-0.034013605442176874,-0.034013605442176874,-0.034013605442176874,-0.034013605442176874,-0.034013605442176874,-0.034013605442176874,-0.034013605442176874,-0.034013605442176874,-0.034013605442176874,-0.034013605442176874,-0.034013605442176874,-0.034013605442176874,-0.034013605442176874,-0.034013605442176874,-0.034013605442176874,-0.034013605442176874,-0.034013605442176874,-0.034013605442176874,-0.034013605442176874,-0.034013605442176874,-0.034013605442176874,-0.034013605442176874,-0.034013605442176874,-0.034013605442176874,-0.030612244897959183,-0.030612244897959183,-0.030612244897959183,-0.030612244897959183,-0.030612244897959183,-0.027210884353741496,-0.027210884353741496,-0.027210884353741496,-0.027210884353741496,-0.027210884353741496,-0.027210884353741496,-0.027210884353741496,-0.027210884353741496,-0.027210884353741496,-0.027210884353741496,-0.027210884353741496,-0.027210884353741496,-0.027210884353741496,-0.027210884353741496,-0.027210884353741496,-0.027210884353741496,-0.027210884353741496,-0.027210884353741496,-0.027210884353741496,-0.027210884353741496,-0.027210884353741496,-0.027210884353741496,-0.027210884353741496,-0.027210884353741496,-0.027210884353741496,-0.027210884353741496,-0.027210884353741496,-0.027210884353741496,-0.027210884353741496,-0.027210884353741496,-0.027210884353741496,-0.027210884353741496,-0.027210884353741496,-0.027210884353741496,-0.027210884353741496,-0.027210884353741496,-0.027210884353741496,-0.027210884353741496,-0.027210884353741496,-0.027210884353741496,-0.027210884353741496,-0.027210884353741496,-0.027210884353741496,-0.027210884353741496,-0.027210884353741496,-0.027210884353741496,-0.027210884353741496,-0.027210884353741496,-0.027210884353741496,-0.027210884353741496,-0.027210884353741496,-0.027210884353741496,-0.027210884353741496,-0.027210884353741496,-0.027210884353741496,-0.027210884353741496,-0.027210884353741496,-0.027210884353741496,-0.027210884353741496,-0.027210884353741496,-0.027210884353741496,-0.027210884353741496,-0.027210884353741496,-0.027210884353741496,-0.027210884353741496,-0.027210884353741496,-0.027210884353741496,-0.027210884353741496,-0.027210884353741496,-0.027210884353741496,-0.027210884353741496,-0.027210884353741496,-0.027210884353741496,-0.027210884353741496,-0.027210884353741496,-0.027210884353741496,-0.027210884353741496,-0.027210884353741496,-0.027210884353741496,-0.027210884353741496,-0.027210884353741496,-0.027210884353741496,-0.027210884353741496,-0.027210884353741496,-0.027210884353741496,-0.027210884353741496,-0.027210884353741496,-0.027210884353741496,-0.027210884353741496,-0.027210884353741496,-0.027210884353741496,-0.027210884353741496,-0.027210884353741496,-0.027210884353741496,-0.027210884353741496,-0.027210884353741496,-0.027210884353741496,-0.027210884353741496,-0.027210884353741496,-0.027210884353741496,-0.027210884353741496,-0.027210884353741496,-0.027210884353741496,-0.027210884353741496,-0.023809523809523808,0.003401360544217687,0.027210884353741496,0.05442176870748299,0.08503401360544217,0.11904761904761904,0.14625850340136054,0.1598639455782313,0.1598639455782313,0.1598639455782313,0.1598639455782313,0.17006802721088435,0.22108843537414966,0.282312925170068,0.336734693877551,0.35714285714285715,0.35714285714285715,0.35714285714285715,0.35714285714285715,0.35714285714285715,0.36054421768707484,0.36394557823129253,0.3741496598639456,0.3877551020408163,0.3945578231292517,0.3945578231292517,0.3979591836734694,0.41156462585034015,0.43537414965986393,0.46938775510204084,0.5034013605442177,0.5340136054421769,0.5578231292517006,0.5850340136054422,0.5952380952380952,0.5952380952380952,0.6020408163265306,0.608843537414966,0.6190476190476191,0.6394557823129252,0.6598639455782312,0.6666666666666666,0.673469387755102,0.6802721088435374,0.6904761904761905,0.6972789115646258,0.7040816326530612,0.7108843537414966,0.7210884353741497,0.7687074829931972,0.8333333333333334,0.8877551020408163,0.9149659863945578,0.9149659863945578,0.9149659863945578,0.9149659863945578,0.9149659863945578,0.9319727891156463,0.9455782312925171,0.9693877551020408,0.9761904761904762,0.9829931972789115,0.9829931972789115,0.9829931972789115,0.9829931972789115,0.9829931972789115,0.9829931972789115,0.9829931972789115,0.9829931972789115,0.9829931972789115,0.9829931972789115,0.9829931972789115,0.9829931972789115,0.9829931972789115,0.9829931972789115,0.9829931972789115,0.9829931972789115,0.9829931972789115,0.9829931972789115,0.9829931972789115,0.9829931972789115,0.9829931972789115,0.9863945578231292,0.9863945578231292,0.9863945578231292,0.9863945578231292,0.9863945578231292,0.9863945578231292,0.9863945578231292,0.9863945578231292,0.9863945578231292,0.9863945578231292,0.9863945578231292,0.9863945578231292,0.9863945578231292,0.9863945578231292,0.9863945578231292,0.9863945578231292,0.9863945578231292,0.9863945578231292,0.9829931972789115,0.9795918367346939,0.9795918367346939,0.9761904761904762,0.9727891156462585,0.9693877551020408,0.9625850340136054,0.9591836734693877,0.9591836734693877,0.9523809523809523,0.9489795918367347,0.9489795918367347,0.9489795918367347,0.9489795918367347,0.9489795918367347,0.9489795918367347,0.9489795918367347,0.9489795918367347,0.9489795918367347,0.9489795918367347,0.9489795918367347,0.9489795918367347,0.9489795918367347,0.9489795918367347,0.9489795918367347,0.9489795918367347,0.9455782312925171,0.9455782312925171,0.9285714285714286,0.9183673469387755,0.891156462585034,0.8537414965986394,0.8129251700680272,0.7687074829931972,0.7346938775510204,0.7142857142857143,0.7108843537414966,0.7108843537414966,0.7108843537414966,0.7108843537414966,0.7108843537414966,0.7108843537414966,0.7074829931972789,0.7074829931972789,0.7074829931972789,0.7074829931972789,0.7074829931972789,0.7074829931972789,0.7074829931972789,0.7074829931972789,0.7074829931972789,0.7074829931972789,0.7074829931972789,0.7040816326530612,0.7006802721088435,0.6972789115646258,0.6938775510204082,0.6938775510204082,0.6904761904761905,0.6870748299319728,0.6836734693877551,0.6802721088435374,0.6768707482993197,0.6768707482993197,0.6768707482993197,0.6768707482993197,0.6768707482993197,0.6768707482993197,0.6768707482993197,0.6768707482993197,0.6768707482993197,0.6768707482993197,0.6768707482993197,0.6768707482993197,0.6768707482993197,0.6768707482993197,0.6768707482993197,0.6768707482993197,0.6768707482993197,0.6768707482993197,0.6768707482993197,0.6768707482993197,0.6768707482993197,0.6768707482993197,0.6768707482993197,0.6768707482993197,0.6768707482993197,0.6768707482993197,0.6768707482993197,0.6768707482993197,0.6768707482993197,0.6768707482993197,0.6768707482993197,0.6768707482993197,0.6768707482993197,0.6768707482993197,0.6768707482993197,0.6768707482993197,0.6768707482993197,0.6768707482993197,0.6904761904761905,0.6972789115646258,0.6972789115646258,0.7006802721088435,0.7074829931972789,0.7108843537414966,0.7108843537414966,0.7142857142857143,0.7210884353741497,0.7278911564625851,0.7278911564625851,0.7278911564625851,0.7278911564625851,0.7278911564625851,0.7278911564625851,0.7278911564625851,0.7278911564625851,0.7278911564625851,0.7278911564625851,0.7278911564625851,0.7278911564625851,0.7278911564625851,0.7278911564625851,0.7278911564625851,0.7278911564625851,0.7312925170068028,0.7312925170068028,0.7312925170068028,0.7312925170068028,0.7312925170068028,0.7312925170068028,0.7312925170068028,0.7312925170068028,0.7312925170068028,0.7312925170068028,0.7312925170068028,0.7312925170068028,0.7312925170068028,0.7312925170068028,0.7312925170068028,0.7312925170068028,0.7312925170068028,0.7312925170068028,0.7312925170068028,0.7312925170068028,0.7312925170068028,0.7312925170068028,0.7312925170068028,0.7312925170068028,0.7312925170068028,0.7312925170068028,0.7312925170068028,0.7312925170068028,0.7312925170068028,0.7312925170068028,0.7312925170068028,0.7312925170068028,0.7312925170068028,0.7312925170068028,0.7312925170068028,0.7312925170068028,0.7312925170068028,0.7312925170068028,0.7312925170068028,0.7312925170068028,0.7312925170068028,0.7312925170068028,0.7312925170068028,0.7312925170068028,0.7312925170068028,0.7312925170068028,0.7312925170068028,0.7312925170068028,0.7312925170068028,0.7312925170068028,0.7312925170068028,0.7312925170068028,0.7380952380952381,0.7380952380952381,0.7380952380952381,0.7380952380952381,0.7380952380952381,0.7380952380952381,0.7380952380952381,0.7380952380952381,0.7380952380952381,0.7380952380952381,0.7380952380952381,0.7380952380952381,0.7380952380952381,0.7380952380952381,0.7380952380952381,0.7380952380952381,0.7380952380952381,0.7380952380952381,0.7380952380952381,0.7380952380952381,0.7380952380952381,0.7380952380952381,0.7380952380952381,0.7380952380952381,0.7380952380952381,0.7380952380952381,0.7380952380952381,0.7380952380952381,0.7380952380952381,0.7380952380952381,0.7414965986394558,0.7414965986394558,0.7414965986394558,0.7414965986394558,0.7482993197278912,0.7653061224489796,0.7653061224489796,0.7653061224489796,0.7653061224489796,0.7653061224489796,0.7653061224489796,0.7653061224489796,0.7653061224489796,0.7653061224489796,0.7653061224489796,0.7653061224489796,0.7653061224489796,0.7653061224489796,0.7653061224489796,0.7653061224489796,0.7653061224489796,0.7653061224489796,0.7653061224489796,0.7653061224489796,0.7653061224489796,0.7653061224489796,0.7653061224489796,0.7653061224489796,0.7653061224489796,0.7653061224489796,0.7653061224489796,0.7653061224489796,0.7653061224489796,0.7653061224489796,0.7687074829931972,0.7755102040816326,0.7755102040816326,0.7755102040816326,0.7755102040816326,0.7755102040816326,0.7755102040816326,0.7755102040816326,0.7755102040816326,0.7755102040816326,0.7755102040816326,0.7755102040816326,0.7755102040816326,0.7755102040816326,0.7755102040816326,0.7755102040816326,0.7755102040816326,0.7755102040816326,0.7755102040816326,0.7755102040816326,0.7755102040816326,0.7755102040816326,0.7755102040816326,0.7755102040816326,0.7755102040816326,0.7755102040816326,0.7755102040816326,0.7755102040816326,0.7755102040816326,0.782312925170068,0.7891156462585034,0.7993197278911565,0.8027210884353742,0.8129251700680272,0.8197278911564626,0.8197278911564626,0.8197278911564626,0.8197278911564626,0.8197278911564626,0.8197278911564626,0.8197278911564626,0.8197278911564626,0.8197278911564626,0.8197278911564626,0.8197278911564626,0.8197278911564626,0.8197278911564626,0.8197278911564626,0.8197278911564626,0.8197278911564626,0.8197278911564626,0.8197278911564626,0.8197278911564626,0.8197278911564626,0.8197278911564626,0.8197278911564626,0.8197278911564626,0.8197278911564626,0.8197278911564626,0.8197278911564626,0.8197278911564626,0.8197278911564626,0.8197278911564626,0.8197278911564626,0.8197278911564626,0.8197278911564626,0.8197278911564626,0.8197278911564626,0.8197278911564626,0.8197278911564626,0.8197278911564626,0.8197278911564626,0.8197278911564626,0.8197278911564626,0.8197278911564626,0.8197278911564626,0.8197278911564626,0.8197278911564626,0.8197278911564626,0.8197278911564626,0.8197278911564626,0.8197278911564626,0.8197278911564626,0.8197278911564626,0.8197278911564626,0.8197278911564626,0.8197278911564626,0.8197278911564626,0.8197278911564626,0.8197278911564626,0.8197278911564626,0.8197278911564626,0.8197278911564626,0.8197278911564626,0.8197278911564626,0.8197278911564626,0.8197278911564626,0.8197278911564626,0.8197278911564626,0.8197278911564626,0.8197278911564626,0.8197278911564626,0.8197278911564626,0.8197278911564626,0.8197278911564626,0.8197278911564626,0.8197278911564626,0.8197278911564626,0.8197278911564626,0.8197278911564626,0.8197278911564626,0.8197278911564626,0.8197278911564626,0.8197278911564626,0.8197278911564626,0.8197278911564626,0.8197278911564626,0.8197278911564626,0.8197278911564626,0.8197278911564626,0.8197278911564626,0.8197278911564626,0.8197278911564626,0.8197278911564626,0.8197278911564626,0.8197278911564626,0.8197278911564626,0.8197278911564626,0.8197278911564626,0.8197278911564626,0.8197278911564626,0.8197278911564626,0.8197278911564626,0.8197278911564626,0.8197278911564626,0.8197278911564626,0.8197278911564626,0.8197278911564626,0.8197278911564626,0.8197278911564626,0.8197278911564626,0.8197278911564626,0.8197278911564626,0.8197278911564626,0.8197278911564626,0.8197278911564626,0.8197278911564626,0.8197278911564626,0.8197278911564626,0.8197278911564626,0.8299319727891157,0.8469387755102041,0.8571428571428571,0.8571428571428571,0.8571428571428571,0.8571428571428571,0.8571428571428571,0.8571428571428571,0.8571428571428571,0.8571428571428571,0.8571428571428571,0.8809523809523809,0.9251700680272109,0.9489795918367347,0.9659863945578231,0.9659863945578231,0.9727891156462585,0.9761904761904762,0.9931972789115646,1.030612244897959,1.0714285714285714,1.1020408163265305,1.1088435374149659,1.1088435374149659,1.1088435374149659,1.1088435374149659,1.1088435374149659,1.1088435374149659,1.1088435374149659,1.1054421768707483,1.0850340136054422,1.054421768707483,0.9897959183673469,0.9217687074829932,0.8707482993197279,0.8197278911564626,0.8027210884353742,0.7959183673469388,0.7346938775510204,0.6462585034013606,0.54421768707483,0.42517006802721086,0.30952380952380953,0.20408163265306123,0.11564625850340136,0.013605442176870748,-0.03741496598639456,-0.08843537414965986,-0.10884353741496598,-0.10884353741496598,-0.0782312925170068,0.003401360544217687,0.1292517006802721,0.272108843537415,0.4217687074829932,0.5544217687074829,0.6360544217687075,0.6496598639455783,0.6394557823129252,0.5510204081632653,0.3707482993197279,0.19727891156462585,0.07482993197278912,0,-0.05102040816326531,-0.061224489795918366,-0.061224489795918366,-0.061224489795918366,-0.04421768707482993,0.023809523809523808,0.07482993197278912,0.1360544217687075,0.20748299319727892,0.282312925170068,0.32653061224489793,0.32653061224489793,0.32653061224489793,0.3299319727891156,0.3299319727891156,0.3299319727891156,0.3299319727891156,0.32653061224489793,0.32653061224489793,0.32653061224489793,0.32653061224489793,0.32653061224489793,0.32653061224489793,0.32653061224489793,0.32653061224489793,0.32653061224489793,0.32653061224489793,0.32653061224489793,0.32653061224489793,0.32653061224489793,0.32653061224489793,0.32653061224489793,0.32653061224489793,0.32653061224489793,0.32653061224489793,0.32653061224489793,0.32653061224489793,0.32653061224489793,0.32653061224489793,0.32653061224489793,0.32653061224489793,0.32653061224489793,0.32653061224489793,0.32653061224489793,0.32653061224489793,0.32653061224489793,0.32653061224489793,0.32653061224489793,0.32653061224489793,0.32653061224489793,0.32653061224489793,0.32653061224489793,0.32653061224489793,0.32653061224489793,0.32653061224489793,0.32653061224489793,0.3299319727891156,0.3299319727891156,0.32653061224489793,0.3197278911564626,0.3163265306122449,0.30612244897959184,0.30612244897959184,0.30272108843537415,0.29931972789115646,0.29591836734693877,0.2891156462585034,0.272108843537415,0.25170068027210885,0.23129251700680273,0.21768707482993196,0.1870748299319728,0.1564625850340136,0.12585034013605442,0.08843537414965986,0.04081632653061224,-0.034013605442176874,-0.12585034013605442,-0.1564625850340136,-0.1598639455782313,-0.1564625850340136,-0.1360544217687075,-0.07142857142857142,0.047619047619047616,0.19387755102040816,0.3299319727891156,0.43197278911564624,0.4897959183673469,0.5,0.5,0.5,0.5,0.5,0.5034013605442177,0.5034013605442177,0.5068027210884354,0.5170068027210885,0.5306122448979592,0.54421768707483,0.5612244897959183,0.5816326530612245,0.6054421768707483,0.6598639455782312,0.6972789115646258,0.7380952380952381,0.7925170068027211,0.8537414965986394,0.9013605442176871,0.9081632653061225,0.9081632653061225,0.9081632653061225,0.9115646258503401,0.9115646258503401,0.9115646258503401,0.9047619047619048,0.8945578231292517,0.8809523809523809,0.8605442176870748,0.8537414965986394,0.8537414965986394,0.8469387755102041,0.8469387755102041,0.8503401360544217,0.8537414965986394,0.8639455782312925,0.8775510204081632,0.8945578231292517,0.9013605442176871,0.9115646258503401,0.9217687074829932,0.9319727891156463,0.935374149659864,0.9421768707482994,0.9455782312925171,0.9455782312925171,0.9455782312925171,0.9455782312925171,0.9455782312925171,0.9455782312925171,0.9455782312925171,0.9455782312925171,0.9455782312925171,0.9455782312925171,0.9455782312925171,0.9455782312925171,0.9455782312925171,0.9455782312925171,0.9455782312925171,0.9455782312925171,0.9727891156462585,1.0068027210884354,1.034013605442177,1.0408163265306123,1.0408163265306123,1.0408163265306123,1.0408163265306123,1.0408163265306123,1.0408163265306123,1.0408163265306123,1.0408163265306123,1.0408163265306123,1.0408163265306123,1.0408163265306123,1.0408163265306123,1.0408163265306123,1.0408163265306123,1.0408163265306123,1.0408163265306123,1.0408163265306123,1.0408163265306123,1.0408163265306123,1.0408163265306123,1.0408163265306123,1.0408163265306123,1.0408163265306123,1.0408163265306123,1.0408163265306123,1.0408163265306123,1.0408163265306123,1.0408163265306123,1.0408163265306123,1.0408163265306123,1.0408163265306123,1.0408163265306123,1.0408163265306123,1.0408163265306123,1.0408163265306123,1.0408163265306123,1.0408163265306123,1.0408163265306123,1.0408163265306123,1.0408163265306123,1.0408163265306123,1.0408163265306123,1.0408163265306123,1.0408163265306123,1.0408163265306123,1.0408163265306123,1.0408163265306123,1.0408163265306123,1.0408163265306123,1.0408163265306123,1.0408163265306123,1.0408163265306123,1.0408163265306123,1.0408163265306123,1.0408163265306123,1.0408163265306123,1.0408163265306123,1.0408163265306123,1.0408163265306123,1.0408163265306123,1.0408163265306123,1.0408163265306123,1.0408163265306123,1.0408163265306123,1.0408163265306123,1.0408163265306123,1.0408163265306123,1.0408163265306123,1.0408163265306123,1.0408163265306123,1.0408163265306123,1.0408163265306123,1.0408163265306123,1.0408163265306123,1.0408163265306123,1.0408163265306123,1.0408163265306123,1.0408163265306123,1.0408163265306123,1.0408163265306123,1.0408163265306123,1.0408163265306123,1.0408163265306123,1.0408163265306123,1.0408163265306123,1.0408163265306123,1.0408163265306123,1.0408163265306123,1.0408163265306123,1.0408163265306123,1.0408163265306123,1.0408163265306123,1.0408163265306123,1.0408163265306123,1.0408163265306123,1.0408163265306123,1.0408163265306123,1.0408163265306123,1.0408163265306123,1.0408163265306123,1.0408163265306123,1.0408163265306123,1.0408163265306123,1.0408163265306123,1.0408163265306123,1.0408163265306123,1.0408163265306123,1.0408163265306123,1.0408163265306123,1.0408163265306123,1.0408163265306123,1.0408163265306123,1.0408163265306123,1.0408163265306123,1.0408163265306123,1.0408163265306123,1.0408163265306123,1.0408163265306123,1.0408163265306123,1.0408163265306123,1.0408163265306123,1.0408163265306123,1.0408163265306123,1.0408163265306123,1.0408163265306123,1.0408163265306123,1.0408163265306123,1.0408163265306123,1.0408163265306123,1.0408163265306123,1.0408163265306123,1.0408163265306123,1.0408163265306123,1.0408163265306123,1.0408163265306123,1.0408163265306123,1.0408163265306123,1.0408163265306123,1.0408163265306123,1.034013605442177,0.9489795918367347,0.8605442176870748,0.7619047619047619,0.6632653061224489,0.5612244897959183,0.4557823129251701,0.35374149659863946,0.2585034013605442,0.21428571428571427,0.1836734693877551,0.1598639455782313,0.14965986394557823,0.13945578231292516,0.1326530612244898,0.11904761904761904,0.09523809523809523,0.05782312925170068,-0.006802721088435374,-0.04421768707482993,-0.09523809523809523,-0.1326530612244898,-0.14285714285714285,-0.14285714285714285,-0.14285714285714285,-0.14285714285714285,-0.14285714285714285,-0.14285714285714285,-0.14285714285714285,-0.1360544217687075,-0.08163265306122448,0.02040816326530612,0.14965986394557823,0.25510204081632654,0.29931972789115646,0.29931972789115646,0.29931972789115646,0.29931972789115646,0.29591836734693877,0.2755102040816326,0.23469387755102042,0.16326530612244897,0.11224489795918367,0.06802721088435375,0.030612244897959183,0.01020408163265306,0.01020408163265306,0.01020408163265306,0.01020408163265306,0.013605442176870748,0.03741496598639456,0.07142857142857142,0.12585034013605442,0.17346938775510204,0.22448979591836735,0.23129251700680273,0.23129251700680273,0.23129251700680273,0.23129251700680273,0.23129251700680273,0.23129251700680273,0.23129251700680273,0.23129251700680273,0.23129251700680273,0.23129251700680273,0.22789115646258504,0.21428571428571427,0.21428571428571427,0.21428571428571427,0.21428571428571427,0.21428571428571427,0.21428571428571427,0.21428571428571427,0.21428571428571427,0.21428571428571427,0.21428571428571427,0.21428571428571427,0.21428571428571427,0.21428571428571427,0.21428571428571427,0.21428571428571427,0.21428571428571427,0.21428571428571427,0.21428571428571427,0.21428571428571427,0.21428571428571427,0.21428571428571427,0.21428571428571427,0.21428571428571427,0.21428571428571427,0.21428571428571427,0.21428571428571427,0.21428571428571427,0.21428571428571427,0.21428571428571427,0.21428571428571427,0.21428571428571427,0.21428571428571427,0.21428571428571427,0.21428571428571427,0.21428571428571427,0.21428571428571427,0.21428571428571427,0.21428571428571427,0.21428571428571427,0.21428571428571427,0.21428571428571427,0.21428571428571427,0.21428571428571427,0.21428571428571427,0.21428571428571427,0.21428571428571427,0.21428571428571427,0.21428571428571427,0.21428571428571427,0.21428571428571427,0.21428571428571427,0.21428571428571427,0.21428571428571427,0.21428571428571427,0.21428571428571427,0.21428571428571427,0.21428571428571427,0.21428571428571427,0.21428571428571427,0.21428571428571427,0.21428571428571427,0.21428571428571427,0.21428571428571427,0.21428571428571427,0.21428571428571427,0.21428571428571427,0.21428571428571427,0.21428571428571427,0.21428571428571427,0.21428571428571427,0.21428571428571427,0.21428571428571427,0.21428571428571427,0.21428571428571427,0.21428571428571427,0.21428571428571427,0.2108843537414966,0.22448979591836735,0.24489795918367346,0.2653061224489796,0.2891156462585034,0.3163265306122449,0.3469387755102041,0.35374149659863946,0.35714285714285715,0.35714285714285715,0.36394557823129253,0.36394557823129253,0.3673469387755102,0.3843537414965986,0.3945578231292517,0.40476190476190477,0.41836734693877553,0.42857142857142855,0.4387755102040816,0.4557823129251701,0.46938775510204084,0.47619047619047616,0.47619047619047616,0.47619047619047616,0.47619047619047616,0.47619047619047616,0.47619047619047616,0.47959183673469385,0.48639455782312924,0.4965986394557823,0.5408163265306123,0.5816326530612245,0.6190476190476191,0.6496598639455783,0.673469387755102,0.6904761904761905,0.6904761904761905,0.6938775510204082,0.6938775510204082,0.6938775510204082,0.7006802721088435,0.7074829931972789,0.717687074829932,0.7278911564625851,0.7448979591836735,0.7517006802721088,0.7517006802721088,0.7517006802721088,0.7517006802721088,0.7517006802721088,0.7619047619047619,0.7687074829931972,0.7721088435374149,0.7721088435374149,0.7721088435374149,0.7721088435374149,0.7721088435374149,0.7721088435374149,0.782312925170068,0.782312925170068,0.782312925170068,0.7891156462585034,0.8095238095238095,0.8231292517006803,0.8537414965986394,0.8639455782312925,0.8707482993197279,0.8843537414965986,0.8843537414965986,0.8843537414965986,0.8843537414965986,0.8843537414965986,0.8843537414965986,0.8843537414965986,0.8843537414965986,0.8843537414965986,0.8843537414965986,0.8843537414965986,0.8775510204081632,0.8673469387755102,0.8605442176870748,0.8435374149659864,0.8435374149659864,0.8435374149659864,0.8435374149659864,0.8435374149659864,0.8435374149659864,0.8435374149659864,0.8435374149659864,0.8435374149659864,0.8435374149659864,0.8435374149659864,0.8435374149659864,0.8435374149659864,0.8435374149659864,0.8435374149659864,0.8435374149659864,0.8435374149659864,0.8435374149659864,0.8435374149659864,0.8435374149659864,0.8401360544217688,0.8401360544217688,0.8401360544217688,0.8401360544217688,0.8401360544217688,0.8401360544217688,0.8401360544217688,0.8401360544217688,0.8401360544217688,0.8401360544217688,0.8401360544217688,0.8401360544217688,0.8401360544217688,0.8401360544217688,0.8401360544217688,0.8401360544217688,0.8401360544217688,0.8401360544217688,0.8401360544217688,0.8401360544217688,0.8401360544217688,0.8401360544217688,0.8401360544217688,0.8401360544217688,0.8401360544217688,0.8401360544217688,0.8401360544217688,0.8401360544217688,0.8401360544217688,0.8401360544217688,0.8401360544217688,0.8401360544217688,0.8401360544217688,0.8401360544217688,0.8401360544217688,0.8401360544217688,0.8401360544217688,0.8401360544217688,0.8401360544217688,0.8401360544217688,0.8401360544217688,0.8401360544217688,0.8401360544217688,0.8401360544217688,0.8401360544217688,0.8401360544217688,0.8401360544217688,0.8401360544217688,0.8401360544217688,0.8401360544217688,0.8401360544217688,0.8401360544217688,0.8401360544217688,0.8401360544217688,0.8401360544217688,0.8401360544217688,0.8401360544217688,0.8401360544217688,0.8401360544217688,0.8401360544217688,0.8401360544217688,0.8401360544217688,0.8401360544217688,0.8401360544217688,0.8401360544217688,0.8401360544217688,0.8401360544217688,0.8401360544217688,0.8401360544217688,0.8401360544217688,0.8401360544217688,0.8401360544217688,0.8401360544217688,0.8401360544217688,0.8401360544217688,0.8401360544217688,0.8401360544217688,0.8401360544217688,0.8401360544217688,0.8401360544217688,0.8401360544217688,0.8401360544217688,0.8401360544217688,0.8401360544217688,0.8401360544217688,0.8401360544217688,0.8401360544217688,0.8401360544217688,0.8401360544217688,0.8401360544217688,0.8401360544217688,0.8401360544217688,0.8401360544217688,0.8401360544217688,0.8401360544217688,0.8401360544217688,0.8401360544217688,0.8401360544217688,0.8401360544217688,0.8401360544217688,0.8401360544217688,0.8401360544217688,0.8401360544217688,0.8401360544217688,0.8401360544217688,0.8401360544217688,0.8401360544217688,0.8367346938775511,0.7857142857142857,0.7585034013605442,0.6870748299319728,0.6360544217687075,0.5748299319727891,0.5170068027210885,0.46258503401360546,0.41156462585034015,0.35714285714285715,0.30612244897959184,0.272108843537415,0.25510204081632654,0.25510204081632654,0.25170068027210885,0.25170068027210885,0.24489795918367346,0.23809523809523808,0.22448979591836735,0.20748299319727892,0.19387755102040816,0.1870748299319728,0.1836734693877551,0.1836734693877551,0.1836734693877551,0.1836734693877551,0.1836734693877551,0.1836734693877551,0.17006802721088435,0.16326530612244897,0.15306122448979592,0.14285714285714285,0.12585034013605442,0.10884353741496598,0.09523809523809523,0.08163265306122448,0.06802721088435375,0.06802721088435375,0.06802721088435375,0.06802721088435375,0.06802721088435375,0.06802721088435375,0.06802721088435375,0.06802721088435375,0.06802721088435375,0.06802721088435375,0.06802721088435375,0.06802721088435375,0.061224489795918366,0.05782312925170068,0.05102040816326531,0.04081632653061224,0.030612244897959183,0.02040816326530612,0.01020408163265306,0,-0.01020408163265306,-0.01020408163265306,-0.01020408163265306,-0.01020408163265306,-0.01020408163265306,-0.01020408163265306,-0.01020408163265306,-0.01020408163265306,-0.01020408163265306,-0.01020408163265306,-0.01020408163265306,-0.01020408163265306,-0.01020408163265306,-0.01020408163265306,-0.01020408163265306,-0.01020408163265306,-0.01020408163265306,-0.01020408163265306,-0.01020408163265306,-0.01020408163265306,-0.01020408163265306,-0.01020408163265306,-0.01020408163265306,-0.01020408163265306,-0.01020408163265306,-0.01020408163265306,-0.01020408163265306,-0.01020408163265306,-0.01020408163265306,-0.01020408163265306,-0.01020408163265306,-0.01020408163265306,-0.01020408163265306,-0.01020408163265306,-0.01020408163265306,-0.01020408163265306,-0.01020408163265306,-0.01020408163265306,-0.01020408163265306,-0.01020408163265306,-0.01020408163265306,-0.01020408163265306,-0.01020408163265306,-0.01020408163265306,-0.01020408163265306,-0.01020408163265306,-0.01020408163265306,-0.01020408163265306,-0.01020408163265306,-0.01020408163265306,-0.01020408163265306,-0.01020408163265306,-0.01020408163265306,-0.01020408163265306,-0.01020408163265306,-0.01020408163265306,-0.01020408163265306,-0.01020408163265306,-0.01020408163265306,-0.01020408163265306,-0.01020408163265306,-0.01020408163265306,-0.01020408163265306,-0.01020408163265306,-0.01020408163265306,-0.01020408163265306,-0.01020408163265306,-0.01020408163265306,-0.01020408163265306,-0.01020408163265306,-0.01020408163265306,-0.006802721088435374,0.006802721088435374,0.017006802721088437,0.027210884353741496,0.03741496598639456,0.05782312925170068,0.06802721088435375,0.06802721088435375,0.06802721088435375,0.06802721088435375,0.06802721088435375,0.06802721088435375,0.07482993197278912,0.08503401360544217,0.08843537414965986,0.08843537414965986,0.08843537414965986,0.08843537414965986,0.08843537414965986,0.08843537414965986,0.09863945578231292,0.1054421768707483,0.1054421768707483,0.1054421768707483,0.1054421768707483,0.1054421768707483,0.1054421768707483,0.1054421768707483,0.1054421768707483,0.1054421768707483,0.1054421768707483,0.1054421768707483,0.1054421768707483,0.1054421768707483,0.1054421768707483,0.10884353741496598,0.11904761904761904,0.1292517006802721,0.1292517006802721,0.1292517006802721,0.1292517006802721,0.1292517006802721,0.1292517006802721,0.1292517006802721,0.1292517006802721,0.1292517006802721,0.1292517006802721,0.1292517006802721,0.1292517006802721,0.1292517006802721,0.1292517006802721,0.1292517006802721,0.1292517006802721,0.1292517006802721,0.1292517006802721,0.1292517006802721,0.1292517006802721,0.1292517006802721,0.12585034013605442,0.12244897959183673,0.12244897959183673,0.12244897959183673,0.12244897959183673,0.12244897959183673,0.12244897959183673,0.12244897959183673,0.12244897959183673,0.12244897959183673,0.12244897959183673,0.12244897959183673,0.12244897959183673,0.12244897959183673,0.12244897959183673,0.12244897959183673,0.12244897959183673,0.12244897959183673,0.12244897959183673,0.12244897959183673,0.12244897959183673,0.12244897959183673,0.12244897959183673,0.12244897959183673,0.12244897959183673,0.12244897959183673,0.12244897959183673,0.12244897959183673,0.12244897959183673,0.12244897959183673,0.12244897959183673,0.12244897959183673,0.12244897959183673,0.12244897959183673,0.12244897959183673,0.12244897959183673,0.12244897959183673,0.12244897959183673,0.12244897959183673,0.12244897959183673,0.12244897959183673,0.12244897959183673,0.12244897959183673,0.12244897959183673,0.12244897959183673,0.12244897959183673,0.12244897959183673,0.12244897959183673,0.12244897959183673,0.12585034013605442,0.1292517006802721,0.1326530612244898,0.1360544217687075,0.13945578231292516,0.14285714285714285,0.14965986394557823,0.1564625850340136,0.1564625850340136,0.1564625850340136,0.1564625850340136,0.1564625850340136,0.1564625850340136,0.1564625850340136,0.1564625850340136,0.1598639455782313,0.1598639455782313,0.1598639455782313,0.1598639455782313,0.1598639455782313,0.16666666666666666,0.16666666666666666,0.17006802721088435,0.17006802721088435,0.18027210884353742,0.18027210884353742,0.18027210884353742,0.18027210884353742,0.1836734693877551,0.19047619047619047,0.19047619047619047,0.19727891156462585,0.20068027210884354,0.2108843537414966,0.22448979591836735,0.24829931972789115,0.2925170068027211,0.3333333333333333,0.3673469387755102,0.4013605442176871,0.4217687074829932,0.4217687074829932,0.4217687074829932,0.4217687074829932,0.4217687074829932,0.4217687074829932,0.4217687074829932,0.4217687074829932,0.42517006802721086,0.42517006802721086,0.4217687074829932,0.4217687074829932,0.41836734693877553,0.41836734693877553,0.41836734693877553,0.41836734693877553,0.41836734693877553,0.41836734693877553,0.4217687074829932,0.4387755102040816,0.46258503401360546,0.4897959183673469,0.5102040816326531,0.5272108843537415,0.5272108843537415,0.5272108843537415,0.5272108843537415,0.5272108843537415,0.5272108843537415,0.5272108843537415,0.5272108843537415,0.5272108843537415,0.5272108843537415,0.5272108843537415,0.5272108843537415,0.5272108843537415,0.5272108843537415,0.5272108843537415,0.5272108843537415,0.5272108843537415,0.5340136054421769,0.5340136054421769,0.5340136054421769,0.5340136054421769,0.5340136054421769,0.5340136054421769,0.5340136054421769,0.5340136054421769,0.5340136054421769,0.5374149659863946,0.5408163265306123,0.5476190476190477,0.5510204081632653,0.5510204081632653,0.5510204081632653,0.5510204081632653,0.5510204081632653,0.5510204081632653,0.5510204081632653,0.5510204081632653,0.5510204081632653,0.5510204081632653,0.5510204081632653,0.5510204081632653,0.5510204081632653,0.5510204081632653,0.5510204081632653,0.5510204081632653,0.5510204081632653,0.54421768707483,0.5306122448979592,0.5204081632653061,0.5136054421768708,0.5068027210884354,0.4931972789115646,0.47619047619047616,0.45918367346938777,0.4557823129251701,0.4557823129251701,0.4557823129251701,0.4557823129251701,0.4557823129251701,0.4557823129251701,0.4557823129251701,0.4557823129251701,0.4557823129251701,0.4557823129251701,0.4557823129251701,0.4557823129251701,0.4557823129251701,0.4557823129251701,0.4557823129251701,0.4557823129251701,0.4557823129251701,0.4557823129251701,0.4557823129251701,0.4557823129251701,0.4557823129251701,0.4557823129251701,0.4557823129251701,0.4489795918367347,0.4489795918367347,0.445578231292517,0.445578231292517,0.445578231292517,0.445578231292517,0.4387755102040816,0.42857142857142855,0.41836734693877553,0.3945578231292517,0.36054421768707484,0.3299319727891156,0.3129251700680272,0.3129251700680272,0.3129251700680272,0.3129251700680272,0.3129251700680272,0.3129251700680272,0.30952380952380953,0.30952380952380953,0.30952380952380953,0.30952380952380953,0.30952380952380953,0.30952380952380953,0.30952380952380953,0.30952380952380953,0.30952380952380953,0.30952380952380953,0.30952380952380953,0.30952380952380953,0.30952380952380953,0.30952380952380953,0.30952380952380953,0.30952380952380953,0.30952380952380953,0.30952380952380953,0.30952380952380953,0.30952380952380953,0.30952380952380953,0.30952380952380953,0.30952380952380953,0.30952380952380953,0.30952380952380953,0.30952380952380953,0.30952380952380953,0.30952380952380953,0.30952380952380953,0.30952380952380953,0.30952380952380953,0.30952380952380953,0.30952380952380953,0.30952380952380953,0.30952380952380953,0.30952380952380953,0.30952380952380953,0.30952380952380953,0.30612244897959184,0.30272108843537415,0.29591836734693877,0.29591836734693877,0.29591836734693877,0.29591836734693877,0.29591836734693877,0.29591836734693877,0.29591836734693877,0.29591836734693877,0.29591836734693877,0.29591836734693877,0.29591836734693877,0.29591836734693877,0.29591836734693877,0.29591836734693877,0.29591836734693877,0.29591836734693877,0.29591836734693877,0.29591836734693877,0.29591836734693877,0.29591836734693877,0.29591836734693877,0.29591836734693877,0.2891156462585034,0.2891156462585034,0.2891156462585034,0.2891156462585034,0.2891156462585034,0.2891156462585034,0.2891156462585034,0.2891156462585034,0.2891156462585034,0.2891156462585034,0.2891156462585034,0.2891156462585034,0.2891156462585034,0.2891156462585034,0.2891156462585034,0.2891156462585034,0.2891156462585034,0.2891156462585034,0.2891156462585034,0.2891156462585034,0.2891156462585034,0.2891156462585034,0.2891156462585034,0.2891156462585034,0.2891156462585034,0.2891156462585034,0.2891156462585034,0.2891156462585034,0.2891156462585034,0.2891156462585034,0.2891156462585034,0.2891156462585034,0.2891156462585034,0.2891156462585034,0.2891156462585034,0.2891156462585034,0.2891156462585034,0.2891156462585034,0.2891156462585034,0.2891156462585034,0.2857142857142857,0.2857142857142857,0.2857142857142857,0.2857142857142857,0.2857142857142857,0.2857142857142857,0.2857142857142857,0.2857142857142857,0.2857142857142857,0.2857142857142857,0.2857142857142857,0.2857142857142857,0.2857142857142857,0.2857142857142857,0.2857142857142857,0.2857142857142857,0.2857142857142857,0.2857142857142857,0.2857142857142857,0.2857142857142857,0.2857142857142857,0.2857142857142857,0.2857142857142857,0.2857142857142857,0.2857142857142857,0.2857142857142857,0.2857142857142857,0.2857142857142857,0.2857142857142857,0.2857142857142857,0.2857142857142857,0.2857142857142857,0.2857142857142857,0.2857142857142857,0.2857142857142857,0.2857142857142857,0.2857142857142857,0.2857142857142857,0.2857142857142857,0.2857142857142857,0.2857142857142857,0.2857142857142857,0.2857142857142857,0.2857142857142857,0.2857142857142857,0.2857142857142857,0.2857142857142857,0.2857142857142857,0.2857142857142857,0.2857142857142857,0.2857142857142857,0.2857142857142857,0.2857142857142857,0.2857142857142857,0.2857142857142857,0.2857142857142857,0.2857142857142857,0.2857142857142857,0.2857142857142857,0.2857142857142857,0.2857142857142857,0.2857142857142857,0.2857142857142857,0.2857142857142857,0.2857142857142857,0.2857142857142857,0.2857142857142857,0.2857142857142857,0.2857142857142857,0.2857142857142857,0.2857142857142857,0.2857142857142857,0.2857142857142857,0.2857142857142857,0.2857142857142857,0.2857142857142857,0.2857142857142857,0.2857142857142857,0.2857142857142857,0.2857142857142857,0.2857142857142857,0.2857142857142857,0.2857142857142857,0.2857142857142857,0.2857142857142857,0.2857142857142857,0.2857142857142857,0.2857142857142857,0.2857142857142857,0.2857142857142857,0.2857142857142857,0.2857142857142857,0.2857142857142857,0.2857142857142857,0.2857142857142857,0.2857142857142857,0.2857142857142857,0.2857142857142857,0.2857142857142857,0.2857142857142857,0.2857142857142857,0.2857142857142857,0.2857142857142857,0.2857142857142857,0.2857142857142857,0.2857142857142857,0.2857142857142857,0.2857142857142857,0.2857142857142857,0.2925170068027211,0.30272108843537415,0.30612244897959184,0.30952380952380953,0.30952380952380953,0.30952380952380953,0.30952380952380953,0.30952380952380953,0.30952380952380953,0.30952380952380953,0.30952380952380953,0.30952380952380953,0.30952380952380953,0.30952380952380953,0.30952380952380953,0.30952380952380953,0.30952380952380953,0.30952380952380953,0.30952380952380953,0.30952380952380953,0.30952380952380953,0.30952380952380953,0.30952380952380953,0.30952380952380953,0.30952380952380953,0.30952380952380953,0.30952380952380953,0.30952380952380953,0.30952380952380953,0.30952380952380953,0.30952380952380953,0.30952380952380953,0.30952380952380953,0.30952380952380953,0.30952380952380953,0.30952380952380953,0.30952380952380953,0.30952380952380953,0.30952380952380953,0.30952380952380953,0.30952380952380953,0.30952380952380953,0.30952380952380953,0.30952380952380953,0.30952380952380953,0.30952380952380953,0.30952380952380953,0.30952380952380953,0.30952380952380953,0.29591836734693877,0.24489795918367346,0.17346938775510204,0.1054421768707483,0.06802721088435375,0.05102040816326531,0.05102040816326531,0.05782312925170068,0.06802721088435375,0.0782312925170068,0.08163265306122448,0.09863945578231292,0.11224489795918367,0.12244897959183673,0.12244897959183673,0.12244897959183673,0.12244897959183673,0.12244897959183673,0.12244897959183673,0.12244897959183673,0.11904761904761904,0.10884353741496598,0.10884353741496598,0.10884353741496598,0.10884353741496598,0.10884353741496598,0.10884353741496598,0.09863945578231292,0.08843537414965986,0.07142857142857142,0.07142857142857142,0.07142857142857142,0.07142857142857142,0.07142857142857142,0.07142857142857142,0.07142857142857142,0.07142857142857142,0.06802721088435375,0.05442176870748299,0.02040816326530612,-0.01020408163265306,-0.027210884353741496,-0.030612244897959183,-0.030612244897959183,-0.030612244897959183,-0.030612244897959183,-0.030612244897959183,-0.030612244897959183,-0.030612244897959183,-0.030612244897959183,-0.030612244897959183,-0.030612244897959183,-0.030612244897959183,-0.030612244897959183,-0.030612244897959183,-0.030612244897959183,-0.030612244897959183,-0.030612244897959183,-0.030612244897959183,-0.030612244897959183,-0.030612244897959183,-0.030612244897959183,-0.030612244897959183,-0.030612244897959183,-0.030612244897959183,-0.030612244897959183,-0.030612244897959183,-0.030612244897959183,-0.030612244897959183,-0.030612244897959183,-0.030612244897959183,-0.030612244897959183,-0.030612244897959183,-0.030612244897959183,-0.030612244897959183,-0.030612244897959183,-0.030612244897959183,-0.030612244897959183,-0.030612244897959183,-0.030612244897959183,-0.030612244897959183,-0.030612244897959183,-0.030612244897959183,-0.030612244897959183,-0.030612244897959183,-0.030612244897959183,-0.030612244897959183,-0.030612244897959183,-0.030612244897959183,-0.030612244897959183,-0.030612244897959183,-0.030612244897959183,-0.030612244897959183,-0.030612244897959183,-0.030612244897959183,-0.030612244897959183,-0.030612244897959183,-0.030612244897959183,-0.030612244897959183,-0.030612244897959183,-0.030612244897959183,-0.030612244897959183,-0.030612244897959183,-0.030612244897959183,-0.030612244897959183,-0.030612244897959183,-0.030612244897959183,-0.030612244897959183,-0.030612244897959183,-0.030612244897959183,-0.030612244897959183,-0.030612244897959183,-0.030612244897959183,-0.030612244897959183,-0.030612244897959183,-0.030612244897959183,-0.030612244897959183,-0.030612244897959183,-0.027210884353741496,-0.02040816326530612,0.006802721088435374,0.04421768707482993,0.07142857142857142,0.09863945578231292,0.12585034013605442,0.14625850340136054,0.17006802721088435,0.1836734693877551,0.1836734693877551,0.1836734693877551,0.1836734693877551,0.19047619047619047,0.19047619047619047,0.19047619047619047,0.19047619047619047,0.19047619047619047,0.19047619047619047,0.19387755102040816,0.20068027210884354,0.20068027210884354,0.20068027210884354,0.20068027210884354,0.20068027210884354,0.20748299319727892,0.20748299319727892,0.20748299319727892,0.21428571428571427,0.21768707482993196,0.21768707482993196,0.21768707482993196,0.21768707482993196,0.21768707482993196,0.21768707482993196,0.21768707482993196,0.21768707482993196,0.21768707482993196,0.21768707482993196,0.21768707482993196,0.22789115646258504,0.23129251700680273,0.23129251700680273,0.23129251700680273,0.24149659863945577,0.24149659863945577,0.24149659863945577,0.24149659863945577,0.24149659863945577,0.24829931972789115,0.24829931972789115,0.2585034013605442,0.2619047619047619,0.272108843537415,0.282312925170068,0.30952380952380953,0.3401360544217687,0.36054421768707484,0.38095238095238093,0.3877551020408163,0.3877551020408163,0.3877551020408163,0.3877551020408163,0.3877551020408163,0.3877551020408163,0.3877551020408163,0.3877551020408163,0.3877551020408163,0.3877551020408163,0.3877551020408163,0.3877551020408163,0.3877551020408163,0.3877551020408163,0.3877551020408163,0.3877551020408163,0.3877551020408163,0.3877551020408163,0.3877551020408163,0.3877551020408163,0.3877551020408163,0.3877551020408163,0.3877551020408163,0.3877551020408163,0.3877551020408163,0.3877551020408163,0.3877551020408163,0.3877551020408163,0.3877551020408163,0.3877551020408163,0.3877551020408163,0.3877551020408163,0.3877551020408163,0.3877551020408163,0.3877551020408163,0.3877551020408163,0.3877551020408163,0.3877551020408163,0.3877551020408163,0.3877551020408163,0.3877551020408163,0.3877551020408163,0.3877551020408163,0.3877551020408163,0.3877551020408163,0.3877551020408163,0.3877551020408163,0.3877551020408163,0.3877551020408163,0.3877551020408163,0.3877551020408163,0.3877551020408163,0.3877551020408163,0.3877551020408163,0.3877551020408163,0.3877551020408163,0.3877551020408163,0.3877551020408163,0.3877551020408163,0.3877551020408163,0.3877551020408163,0.3877551020408163,0.3877551020408163,0.3877551020408163,0.3877551020408163,0.3877551020408163,0.3877551020408163,0.3877551020408163,0.3877551020408163,0.3843537414965986,0.37755102040816324,0.37755102040816324,0.37755102040816324,0.37755102040816324,0.37755102040816324,0.37755102040816324,0.37755102040816324,0.3707482993197279,0.3469387755102041,0.2925170068027211,0.24149659863945577,0.20408163265306123,0.20408163265306123,0.20408163265306123,0.20408163265306123,0.20408163265306123,0.20408163265306123,0.20408163265306123,0.20408163265306123,0.20408163265306123,0.20408163265306123,0.20408163265306123,0.20408163265306123,0.2108843537414966,0.2108843537414966,0.21768707482993196,0.22108843537414966,0.22789115646258504,0.22789115646258504,0.22789115646258504,0.22789115646258504,0.22789115646258504,0.23469387755102042,0.24149659863945577,0.24149659863945577,0.24149659863945577,0.24149659863945577,0.24149659863945577,0.24149659863945577,0.24149659863945577,0.25170068027210885,0.25510204081632654,0.2687074829931973,0.2891156462585034,0.29591836734693877,0.29591836734693877,0.29591836734693877,0.29591836734693877,0.29591836734693877,0.29591836734693877,0.29591836734693877,0.29591836734693877,0.29591836734693877,0.29591836734693877,0.29591836734693877,0.29591836734693877,0.29591836734693877,0.29591836734693877,0.29591836734693877,0.29591836734693877,0.29591836734693877,0.29591836734693877,0.29591836734693877,0.29591836734693877,0.29591836734693877,0.29591836734693877,0.29591836734693877,0.29591836734693877,0.29591836734693877,0.29591836734693877,0.29591836734693877,0.29591836734693877,0.29591836734693877,0.29591836734693877,0.29591836734693877,0.29591836734693877,0.29591836734693877,0.29591836734693877,0.29591836734693877,0.29591836734693877,0.29931972789115646,0.29931972789115646,0.29931972789115646,0.29931972789115646,0.29931972789115646,0.29931972789115646,0.29931972789115646,0.29931972789115646,0.29931972789115646,0.29931972789115646,0.29931972789115646,0.29931972789115646,0.29931972789115646,0.29931972789115646,0.30272108843537415,0.30272108843537415,0.30272108843537415,0.30272108843537415,0.30272108843537415,0.30272108843537415,0.30272108843537415,0.30272108843537415,0.30272108843537415,0.30272108843537415,0.30272108843537415,0.30272108843537415,0.30272108843537415,0.30272108843537415,0.30272108843537415,0.30272108843537415,0.30272108843537415,0.30272108843537415,0.30272108843537415,0.3129251700680272,0.35034013605442177,0.43537414965986393,0.5476190476190477,0.6700680272108843,0.7857142857142857,0.8061224489795918,0.8061224489795918,0.8061224489795918,0.8061224489795918,0.8061224489795918,0.8061224489795918,0.8061224489795918,0.8061224489795918,0.8061224489795918,0.8061224489795918,0.8061224489795918,0.8095238095238095,0.8095238095238095,0.8095238095238095,0.8095238095238095,0.8095238095238095,0.8095238095238095,0.8129251700680272,0.8163265306122449,0.8231292517006803,0.8333333333333334,0.8435374149659864,0.8469387755102041,0.8469387755102041,0.8503401360544217,0.8571428571428571,0.8707482993197279,0.8877551020408163,0.9013605442176871,0.9149659863945578,0.9183673469387755,0.9183673469387755,0.9183673469387755,0.9217687074829932,0.9217687074829932,0.9217687074829932,0.9217687074829932,0.9251700680272109,0.9251700680272109,0.9319727891156463,0.9319727891156463,0.9319727891156463,0.9319727891156463,0.9319727891156463,0.9319727891156463,0.9319727891156463,0.9285714285714286,0.9183673469387755,0.9183673469387755,0.9183673469387755,0.9183673469387755,0.9081632653061225,0.8979591836734694,0.8775510204081632,0.8673469387755102,0.8605442176870748,0.8571428571428571,0.8571428571428571,0.8571428571428571,0.8571428571428571,0.8571428571428571,0.8571428571428571,0.8571428571428571,0.8571428571428571,0.8571428571428571,0.8571428571428571,0.8571428571428571,0.8571428571428571,0.8571428571428571,0.8571428571428571,0.8571428571428571,0.8571428571428571,0.8571428571428571,0.8571428571428571,0.8571428571428571,0.8571428571428571,0.8571428571428571,0.8571428571428571,0.8571428571428571,0.8571428571428571,0.8571428571428571,0.8571428571428571,0.8537414965986394,0.8435374149659864,0.8367346938775511,0.8299319727891157,0.8299319727891157,0.8299319727891157,0.8299319727891157,0.8299319727891157,0.8299319727891157,0.8299319727891157,0.8299319727891157,0.8299319727891157,0.8299319727891157,0.8299319727891157,0.826530612244898,0.826530612244898,0.826530612244898,0.826530612244898,0.826530612244898,0.826530612244898,0.826530612244898,0.826530612244898,0.826530612244898,0.826530612244898,0.826530612244898,0.826530612244898,0.826530612244898,0.826530612244898,0.826530612244898,0.826530612244898,0.826530612244898,0.826530612244898,0.826530612244898,0.826530612244898,0.826530612244898,0.826530612244898,0.826530612244898,0.826530612244898,0.826530612244898,0.826530612244898,0.826530612244898,0.826530612244898,0.826530612244898,0.826530612244898,0.826530612244898,0.826530612244898,0.826530612244898,0.826530612244898,0.826530612244898,0.826530612244898,0.826530612244898,0.826530612244898,0.826530612244898,0.8299319727891157,0.8299319727891157,0.8299319727891157,0.8299319727891157,0.8299319727891157,0.8299319727891157,0.8299319727891157,0.8197278911564626,0.7857142857142857,0.7517006802721088,0.7312925170068028,0.7142857142857143,0.6904761904761905,0.6394557823129252,0.5850340136054422,0.5340136054421769,0.47278911564625853,0.40816326530612246,0.36394557823129253,0.3435374149659864,0.3435374149659864,0.3435374149659864,0.3435374149659864,0.3299319727891156,0.2891156462585034,0.22448979591836735,0.14965986394557823,0.0782312925170068,0.027210884353741496,0.017006802721088437,0.017006802721088437,0.017006802721088437,0.013605442176870748,0.017006802721088437,0.027210884353741496,0.03741496598639456,0.061224489795918366,0.08163265306122448,0.10884353741496598,0.1360544217687075,0.14625850340136054,0.14625850340136054,0.14625850340136054,0.14625850340136054,0.14625850340136054,0.14625850340136054,0.14625850340136054,0.1326530612244898,0.11564625850340136,0.09523809523809523,0.07482993197278912,0.05782312925170068,0.047619047619047616,0.034013605442176874,0.02040816326530612,0.017006802721088437,0.017006802721088437,0.017006802721088437,0.017006802721088437,0.017006802721088437,0.017006802721088437,0.017006802721088437,0.017006802721088437,0.017006802721088437,0.017006802721088437,0.017006802721088437,0.013605442176870748,0.013605442176870748,0.01020408163265306,0.006802721088435374,0,0,0,-0.003401360544217687,-0.003401360544217687,-0.003401360544217687,-0.003401360544217687,-0.003401360544217687,-0.003401360544217687,-0.003401360544217687,-0.003401360544217687,-0.003401360544217687,-0.003401360544217687,-0.003401360544217687,-0.006802721088435374,-0.006802721088435374,-0.006802721088435374,-0.006802721088435374,-0.006802721088435374,-0.006802721088435374,-0.006802721088435374,-0.006802721088435374,-0.006802721088435374,-0.006802721088435374,-0.006802721088435374,-0.006802721088435374,-0.006802721088435374,-0.006802721088435374,-0.006802721088435374,-0.006802721088435374,-0.006802721088435374,-0.006802721088435374,-0.006802721088435374,-0.006802721088435374,-0.006802721088435374,-0.006802721088435374,-0.006802721088435374,-0.006802721088435374,-0.006802721088435374,-0.006802721088435374,-0.006802721088435374,-0.006802721088435374,-0.006802721088435374,-0.006802721088435374,-0.006802721088435374,-0.006802721088435374,-0.006802721088435374,-0.006802721088435374,-0.006802721088435374,-0.006802721088435374,-0.006802721088435374,-0.006802721088435374,-0.006802721088435374,-0.006802721088435374,-0.006802721088435374,-0.006802721088435374,-0.006802721088435374,-0.006802721088435374,-0.006802721088435374,-0.006802721088435374,-0.006802721088435374,-0.01020408163265306,-0.01020408163265306,-0.01020408163265306,-0.003401360544217687,0.01020408163265306,0.030612244897959183,0.05782312925170068,0.08503401360544217,0.11224489795918367,0.17006802721088435,0.22448979591836735,0.2789115646258503,0.3401360544217687,0.3945578231292517,0.43537414965986393,0.45918367346938777,0.47619047619047616,0.4931972789115646,0.5204081632653061,0.5408163265306123,0.5544217687074829,0.5680272108843537,0.5782312925170068,0.5952380952380952,0.6156462585034014,0.6326530612244898,0.6360544217687075,0.6360544217687075,0.6462585034013606,0.6496598639455783,0.6530612244897959,0.6598639455782312,0.6666666666666666,0.6666666666666666,0.6666666666666666,0.6666666666666666,0.6666666666666666,0.6666666666666666,0.6666666666666666,0.6632653061224489,0.6564625850340136,0.6564625850340136,0.6530612244897959,0.6462585034013606,0.6326530612244898,0.5850340136054422,0.5476190476190477,0.5170068027210885,0.5102040816326531,0.5102040816326531,0.5136054421768708,0.5204081632653061,0.5476190476190477,0.5782312925170068,0.5918367346938775,0.5918367346938775,0.5918367346938775,0.5918367346938775,0.5918367346938775,0.5918367346938775,0.5918367346938775,0.5918367346938775,0.5918367346938775,0.5952380952380952,0.5952380952380952,0.5952380952380952,0.5952380952380952,0.5918367346938775,0.5884353741496599,0.5816326530612245,0.5748299319727891,0.5748299319727891,0.5748299319727891,0.5680272108843537,0.5680272108843537,0.5680272108843537,0.5680272108843537,0.5680272108843537,0.5680272108843537,0.5680272108843537,0.5680272108843537,0.5680272108843537,0.5680272108843537,0.5680272108843537,0.5680272108843537,0.5680272108843537,0.5680272108843537,0.5680272108843537,0.5680272108843537,0.5680272108843537,0.5680272108843537,0.5680272108843537,0.5680272108843537,0.5680272108843537,0.5680272108843537,0.5680272108843537,0.5680272108843537,0.5680272108843537,0.5680272108843537,0.5680272108843537,0.5680272108843537,0.5680272108843537,0.5680272108843537,0.5680272108843537,0.5680272108843537,0.5680272108843537,0.5680272108843537,0.5680272108843537,0.5680272108843537,0.5680272108843537,0.5680272108843537,0.5680272108843537,0.5680272108843537,0.5680272108843537,0.5680272108843537,0.5680272108843537,0.5680272108843537,0.5680272108843537,0.5680272108843537,0.5680272108843537,0.5680272108843537,0.5680272108843537,0.5680272108843537,0.5680272108843537,0.5680272108843537,0.5680272108843537,0.5680272108843537,0.5680272108843537,0.5680272108843537,0.5680272108843537,0.5680272108843537,0.5680272108843537,0.5680272108843537,0.5680272108843537,0.5680272108843537,0.5680272108843537,0.5680272108843537,0.5680272108843537,0.5680272108843537,0.5680272108843537,0.5680272108843537,0.5680272108843537,0.5680272108843537,0.5680272108843537,0.5680272108843537,0.5680272108843537,0.5680272108843537,0.5680272108843537,0.5680272108843537,0.5680272108843537,0.5680272108843537,0.5680272108843537,0.5680272108843537,0.5680272108843537,0.5680272108843537,0.5680272108843537,0.5680272108843537,0.5680272108843537,0.5680272108843537,0.5680272108843537,0.5680272108843537,0.5680272108843537,0.5680272108843537,0.5680272108843537,0.5680272108843537,0.5680272108843537,0.5680272108843537,0.5680272108843537,0.5680272108843537,0.5680272108843537,0.5680272108843537,0.5680272108843537,0.5680272108843537,0.5680272108843537,0.5680272108843537,0.5680272108843537,0.5680272108843537,0.5680272108843537,0.5680272108843537,0.5680272108843537,0.5680272108843537,0.5680272108843537,0.5680272108843537,0.5680272108843537,0.5680272108843537,0.5680272108843537,0.5680272108843537,0.5680272108843537,0.5680272108843537,0.5680272108843537,0.5680272108843537,0.5680272108843537,0.5680272108843537,0.5680272108843537,0.5680272108843537,0.5680272108843537,0.5680272108843537,0.5680272108843537,0.5680272108843537,0.5680272108843537,0.5680272108843537,0.5680272108843537,0.5680272108843537,0.5680272108843537,0.5680272108843537,0.5680272108843537,0.5680272108843537,0.5680272108843537,0.5680272108843537,0.5680272108843537,0.5680272108843537,0.5680272108843537,0.568