[{"success":true,"trial_type":"fullscreen","trial_index":0,"time_elapsed":2252,"internal_node_id":"0.0-0.0","protocol_sum":"","subject_identifier":525,"subject_sum":[158,106,114,85,122,218,21,208,32,1,240,36,244,63,6,237,196,163,20,55,224,225,187,62,234,195,108,162,208,196,253,167],"subject_pair":262,"STUDY_ID":"66a3ed3c5d10d0e7d8a6b9da","PROLIFIC_PID":"630cc9747cb664e8a03c29f0","SESSION_ID":"66a4577dd8add882ff599bc7","practice_instructions":1,"leaderboard_instructions":0,"bonus":2,"reveal_word":true,"self_rating":"3","confidence":"55"},{"view_history":"[{\"page_index\":0,\"viewing_time\":987}]","rt":987,"trial_type":"instructions","trial_index":1,"time_elapsed":3241,"internal_node_id":"0.0-1.0","protocol_sum":"","subject_identifier":525,"subject_sum":[158,106,114,85,122,218,21,208,32,1,240,36,244,63,6,237,196,163,20,55,224,225,187,62,234,195,108,162,208,196,253,167],"subject_pair":262,"STUDY_ID":"66a3ed3c5d10d0e7d8a6b9da","PROLIFIC_PID":"630cc9747cb664e8a03c29f0","SESSION_ID":"66a4577dd8add882ff599bc7","practice_instructions":1,"leaderboard_instructions":0,"bonus":2,"reveal_word":true,"self_rating":"3","confidence":"55"},{"view_history":"[{\"page_index\":0,\"viewing_time\":966}]","rt":966,"trial_type":"instructions","trial_index":2,"time_elapsed":4207,"internal_node_id":"0.0-2.0-0.0","protocol_sum":"","subject_identifier":525,"subject_sum":[158,106,114,85,122,218,21,208,32,1,240,36,244,63,6,237,196,163,20,55,224,225,187,62,234,195,108,162,208,196,253,167],"subject_pair":262,"STUDY_ID":"66a3ed3c5d10d0e7d8a6b9da","PROLIFIC_PID":"630cc9747cb664e8a03c29f0","SESSION_ID":"66a4577dd8add882ff599bc7","practice_instructions":1,"leaderboard_instructions":0,"bonus":2,"reveal_word":true,"self_rating":"3","confidence":"55"},{"rt":1822,"responses":"{\"Q0\":\"... reveal the word with as <b>few letter guesses</b> as possible\"}","question_order":"[0]","trial_type":"survey-multi-choice","trial_index":3,"time_elapsed":6031,"internal_node_id":"0.0-2.0-1.0","protocol_sum":"","subject_identifier":525,"subject_sum":[158,106,114,85,122,218,21,208,32,1,240,36,244,63,6,237,196,163,20,55,224,225,187,62,234,195,108,162,208,196,253,167],"subject_pair":262,"correct":true,"test_part":"multichoice_nonpretend","STUDY_ID":"66a3ed3c5d10d0e7d8a6b9da","PROLIFIC_PID":"630cc9747cb664e8a03c29f0","SESSION_ID":"66a4577dd8add882ff599bc7","practice_instructions":1,"leaderboard_instructions":0,"bonus":2,"reveal_word":true,"self_rating":"3","confidence":"55"},{"view_history":"[{\"page_index\":0,\"viewing_time\":862}]","rt":862,"trial_type":"instructions","trial_index":4,"time_elapsed":6894,"internal_node_id":"0.0-3.0","protocol_sum":"","subject_identifier":525,"subject_sum":[158,106,114,85,122,218,21,208,32,1,240,36,244,63,6,237,196,163,20,55,224,225,187,62,234,195,108,162,208,196,253,167],"subject_pair":262,"STUDY_ID":"66a3ed3c5d10d0e7d8a6b9da","PROLIFIC_PID":"630cc9747cb664e8a03c29f0","SESSION_ID":"66a4577dd8add882ff599bc7","practice_instructions":1,"leaderboard_instructions":0,"bonus":2,"reveal_word":true,"self_rating":"3","confidence":"55"},{"word":"ZEBRA","click_log":{"letter":["","A","E","B","H","I","M","N","P","S","T","C","K","L","W","R","Z"],"t":[0,3616,4762,11333,13912,15569,39654,40630,43057,45659,46359,47395,49957,50919,53055,54191,56679],"hit":[null,1,1,1,0,0,0,0,0,0,0,0,0,0,0,1,1],"asked":["","A","AE","AEB","AEBH","AEBHI","AEBHIM","AEBHIMN","AEBHIMNP","AEBHIMNPS","AEBHIMNPST","AEBHIMNPSTC","AEBHIMNPSTCK","AEBHIMNPSTCKL","AEBHIMNPSTCKLW","AEBHIMNPSTCKLWR","AEBHIMNPSTCKLWRZ"],"word_state":["_____","____A","_E__A","_EB_A","_EB_A","_EB_A","_EB_A","_EB_A","_EB_A","_EB_A","_EB_A","_EB_A","_EB_A","_EB_A","_EB_A","_EBRA","ZEBRA"]},"hover_log":{"letter":["?","?","?","?","?","?","?","?","?","?","?","?","O","?","?","?","?","?","?","?","?","?","?","?","?","?","?","?","?","?","?","?","?","?","?","?","?","?","?","?","?","?","?","?","?","?","?","?","?","?","?","?","?","?","?","?","?","?","?","?","?","?","?","?","?","?","?","?","?","?","?","?","?","?","?","?","?","?","?","?","?","?","?","?","?","?","?","?","?","?","?","?","?","?","?","?","?","?","?","?","?","?","?","?","?","?","?","?","?","?","?","?","?","?","?","?","?","?","?","?","?","?","?","?","?","?","?","?","?","?","?","?","?","?","?","?","?","?","?","?","?","?","?","?","?","?","?","?","?","?","?","?","K","K","K","K","K","?","J","J","?","A","A","A","A","A","A","A","A","A","A","A","A","A","A","A","A","A","A","A","A","A","A","A","A","A","A","A","A","A","A","A","A","A","A","A","A","A","A","A","A","A","A","B","?","?","?","?","?","C","C","C","C","C","C","D","D","D","D","D","E","E","E","E","E","E","E","E","E","E","E","E","E","E","E","E","E","E","E","E","E","E","E","E","E","E","E","E","E","E","E","E","E","E","E","E","E","E","E","E","E","E","E","E","E","E","E","E","E","E","E","E","E","E","E","E","E","E","E","E","E","E","E","E","?","?","?","?","?","?","?","?","?","?","?","?","?","?","?","?","?","?","?","?","?","?","?","?","?","?","?","?","?","?","?","?","?","?","?","?","?","?","?","?","?","?","?","?","?","?","?","?","?","?","?","?","?","?","?","?","?","?","?","?","?","?","?","?","?","?","?","?","?","?","?","?","?","?","?","?","?","?","?","?","?","?","?","?","?","?","?","?","?","?","?","?","?","?","?","?","?","?","?","?","?","?","?","?","?","?","?","?","?","?","?","?","?","?","?","?","?","?","?","?","?","?","?","?","?","?","?","?","?","?","?","?","?","?","?","?","?","?","?","?","?","?","?","?","?","?","?","?","?","?","?","?","?","?","?","?","?","?","?","?","?","?","?","?","?","?","?","?","?","?","?","?","?","?","?","?","?","?","?","?","?","?","?","?","?","?","?","?","?","?","?","?","?","?","?","?","?","?","?","?","?","?","?","?","?","?","?","?","?","?","?","?","?","?","?","?","?","?","?","?","?","?","D","D","D","D","D","?","?","M","M","M","M","M","M","M","M","M","M","M","M","M","M","M","M","M","M","M","M","M","M","M","M","M","M","?","?","?","?","?","?","?","C","C","C","C","C","C","C","C","C","C","?","?","?","?","?","?","?","?","B","B","B","B","B","B","B","B","B","B","B","B","B","B","B","B","B","B","B","B","B","B","B","B","B","B","B","B","B","B","B","B","B","B","B","B","B","B","B","B","B","B","B","B","B","B","B","B","B","B","B","B","B","B","B","B","B","B","B","B","B","B","B","B","B","B","B","B","B","B","B","B","B","B","B","B","B","B","B","B","B","B","B","B","B","B","B","B","B","B","B","B","B","B","B","?","?","?","C","C","?","?","?","?","?","?","?","?","P","?","Q","Q","Q","Q","Q","?","?","?","?","?","?","?","?","?","?","?","H","H","H","H","H","H","H","H","H","H","H","H","H","H","H","H","H","H","H","H","H","H","H","H","H","H","H","H","H","H","H","H","H","H","H","H","H","H","H","H","H","H","H","H","H","H","H","H","?","?","I","I","I","I","I","I","I","I","I","I","I","I","I","I","I","I","I","I","I","I","I","I","I","I","I","I","I","I","I","I","I","I","I","I","I","I","I","I","I","I","I","I","I","I","I","I","I","I","I","I","I","I","I","I","I","I","I","I","I","I","I","I","I","I","I","I","I","I","I","I","I","I","I","I","I","I","I","I","I","I","I","I","I","I","I","?","?","?","?","?","Q","?","?","?","P","P","P","?","O","O","O","O","O","O","O","O","O","O","O","?","?","N","N","N","N","?","?","?","?","?","?","?","?","W","W","W","W","W","W","W","W","W","?","V","V","V","U","?","T","?","S","S","S","?","?","?","?","?","?","?","?","?","?","?","S","S","S","S","S","S","S","S","S","S","S","S","S","S","S","S","S","S","S","S","S","S","S","S","S","S","S","S","S","S","S","S","S","S","S","S","S","S","S","S","S","S","S","S","S","S","S","S","S","S","S","S","S","S","S","S","S","S","S","S","S","S","S","S","S","S","S","S","S","S","S","S","S","S","S","S","S","S","T","T","U","U","V","V","V","V","?","?","?","?","?","?","?","?","?","V","V","V","V","V","V","V","V","V","V","V","V","V","V","V","V","V","V","V","V","V","V","V","V","V","V","V","V","V","V","V","V","V","V","V","V","V","V","V","V","V","V","V","V","V","V","V","V","V","V","V","V","V","V","V","V","V","V","V","V","V","V","V","V","V","V","V","V","V","V","V","V","V","V","V","V","V","V","V","V","V","V","V","V","V","V","V","V","V","V","V","V","V","V","V","V","V","V","V","V","V","V","V","V","V","V","V","V","V","V","V","V","V","V","V","V","V","V","V","V","V","V","V","V","V","V","V","V","V","V","V","V","V","V","V","V","V","V","V","V","V","V","V","V","V","V","V","V","V","V","V","V","V","V","V","V","V","V","V","V","V","V","V","V","V","V","V","V","V","V","V","V","V","V","?","?","?","?","?","?","?","?","P","P","P","P","P","P","P","P","P","P","P","P","P","P","P","P","P","P","P","P","P","P","P","P","P","P","P","P","P","P","P","P","P","P","P","P","P","P","P","P","P","P","P","P","P","P","P","P","P","P","P","P","P","P","P","P","P","P","P","P","P","P","P","P","P","P","P","P","P","P","P","P","P","P","P","P","P","P","P","P","P","P","P","P","P","P","P","P","P","P","P","P","P","P","P","P","P","P","P","P","P","P","P","P","P","P","P","P","P","P","P","P","P","P","P","P","P","P","P","P","P","P","P","P","P","P","P","P","P","P","P","P","P","P","P","P","P","P","P","P","P","P","P","P","P","P","P","P","P","?","R","R","R","R","R","?","?","?","?","?","?","?","?","?","?","?","?","?","?","?","?","?","R","R","R","R","R","R","R","R","R","R","R","R","R","R","R","R","R","R","R","R","R","R","R","R","R","R","R","R","R","R","R","R","R","R","R","R","R","R","R","R","R","R","R","R","R","R","R","R","R","R","R","R","R","R","R","R","R","R","R","R","R","R","R","R","R","R","R","R","R","R","R","R","R","R","R","R","R","R","R","R","R","R","R","R","R","R","R","R","R","R","R","R","R","R","R","R","R","R","R","R","R","R","R","R","R","R","R","R","R","R","R","R","R","R","R","R","R","R","R","R","R","R","R","R","R","R","R","R","R","R","R","R","R","R","R","R","R","R","R","R","R","R","R","R","R","R","R","R","R","R","R","R","R","R","R","R","R","R","R","R","R","R","R","R","R","R","R","R","R","R","R","R","R","R","R","R","R","R","R","R","R","R","R","R","R","R","R","R","R","R","R","R","R","R","R","R","R","R","R","R","R","R","R","R","R","R","R","R","R","R","R","R","R","R","R","R","R","R","R","R","R","R","R","R","R","R","R","R","R","R","R","R","R","R","R","R","R","R","R","R","R","R","R","R","R","R","R","R","R","R","R","R","R","R","R","R","R","R","R","R","R","R","R","R","R","R","R","R","R","R","R","R","R","R","R","R","R","R","R","R","R","R","R","R","R","R","R","R","R","R","R","R","R","R","R","R","R","R","R","R","R","R","R","R","R","R","R","R","R","R","R","R","R","R","R","R","R","R","R","R","R","R","R","R","R","R","R","R","R","R","R","R","R","R","R","R","R","R","R","R","R","R","R","R","R","R","R","R","R","R","R","R","R","R","R","R","R","R","R","R","R","R","R","R","R","R","R","R","R","R","R","R","R","R","R","R","R","R","R","R","R","R","R","R","R","R","R","R","R","R","R","R","R","R","R","R","R","R","R","R","R","R","R","R","R","R","R","R","R","R","R","R","R","R","R","R","R","R","R","R","R","R","R","R","R","R","R","R","R","R","R","R","R","R","R","R","R","R","R","R","R","R","R","R","R","R","R","R","R","R","R","R","R","R","R","R","R","R","R","R","R","R","R","R","R","R","R","R","R","R","R","R","R","R","R","R","R","R","R","R","R","R","R","R","R","R","R","R","R","R","R","R","R","R","R","R","R","R","R","R","R","R","R","R","R","R","R","R","R","R","R","R","R","R","R","R","R","R","R","R","R","R","R","R","R","R","R","R","R","R","R","R","R","R","R","R","R","R","R","R","R","R","R","R","R","R","R","R","R","R","R","R","R","R","R","R","R","R","R","R","R","R","R","R","R","R","R","R","R","R","R","R","R","R","R","R","R","R","R","R","R","R","R","R","R","R","R","R","R","R","R","R","R","R","R","R","R","R","R","R","R","R","R","R","R","R","R","R","R","R","R","R","R","R","R","R","R","R","R","R","R","R","R","R","R","R","R","R","R","R","R","R","R","R","R","R","R","R","R","R","R","R","R","R","R","R","R","R","R","R","R","R","R","R","R","R","R","R","R","R","R","R","R","R","R","R","R","R","R","R","R","R","R","R","R","R","R","R","R","R","R","R","R","R","R","R","R","R","R","R","R","R","R","R","R","R","R","R","R","R","R","R","R","R","R","R","R","R","R","R","R","R","R","R","R","R","R","R","M","M","M","M","?","L","?","?","?","L","L","L","L","L","?","M","M","M","M","M","M","M","M","M","M","M","M","M","M","M","M","M","M","M","M","M","M","M","M","M","M","M","M","?","N","N","N","N","N","N","N","N","N","N","N","N","N","N","N","N","N","N","N","N","N","N","N","N","N","N","N","N","N","N","N","N","N","N","N","N","N","N","N","N","N","N","N","N","N","N","N","N","N","N","N","N","N","?","O","O","O","O","O","O","O","O","O","?","?","?","?","?","?","?","?","?","?","O","O","O","O","O","O","O","O","O","O","O","O","O","O","O","O","O","O","O","O","O","O","O","O","O","O","O","O","O","O","O","O","O","O","O","O","O","O","O","O","O","O","O","O","O","O","O","O","?","?","P","P","P","P","P","P","P","P","P","P","P","P","P","P","P","P","P","P","P","P","P","P","P","P","P","P","P","P","P","P","P","P","P","P","P","P","P","P","P","P","P","P","P","P","P","P","P","P","P","P","P","P","P","P","P","P","P","P","P","P","P","P","P","P","P","P","P","?","Q","Q","Q","Q","Q","?","?","?","?","?","?","?","?","R","R","R","R","R","R","R","R","R","?","?","?","?","?","?","Y","Y","Y","?","X","X","?","?","?","?","?","?","?","?","?","?","?","?","?","?","?","?","?","?","?","?","?","?","?","X","X","X","?","W","W","W","W","W","W","?","V","V","V","V","V","V","V","V","V","V","V","V","V","V","?","U","U","U","U","U","?","T","T","T","T","T","T","S","S","S","S","S","S","S","S","S","S","S","S","S","S","S","S","S","S","S","S","S","S","S","S","S","S","S","S","S","S","S","S","S","?","T","T","T","T","T","T","T","T","T","T","T","T","T","T","T","T","T","T","T","T","T","T","T","T","T","T","T","T","T","T","T","T","T","T","T","T","T","T","T","T","T","T","T","?","?","?","?","U","?","?","?","?","L","L","L","L","?","?","?","C","C","C","C","C","C","C","C","C","C","C","C","C","C","C","C","C","C","C","C","C","C","C","C","C","C","C","C","C","C","C","C","C","C","C","?","?","?","D","D","D","D","D","D","D","D","D","D","D","D","D","D","D","D","D","D","D","D","D","D","D","D","D","D","D","D","D","D","D","D","D","D","D","D","D","D","D","D","D","D","D","D","D","D","D","D","D","D","D","D","D","D","?","?","?","?","L","L","L","L","?","K","K","K","K","K","K","K","K","K","K","K","K","K","K","K","K","K","K","?","?","L","L","L","L","L","L","L","L","L","L","L","L","L","L","L","L","L","L","L","L","?","K","K","K","K","K","K","K","K","K","K","K","K","K","K","K","K","K","K","K","K","K","K","K","K","K","K","K","K","K","K","K","K","K","K","K","?","?","?","L","L","L","L","L","L","L","L","L","L","L","L","L","L","L","L","L","L","L","L","L","L","L","L","L","L","L","L","L","L","L","L","L","L","L","L","L","L","L","L","L","L","L","L","L","L","L","?","U","U","U","?","?","?","?","?","?","?","?","?","?","?","?","?","?","?","?","?","?","?","?","V","V","V","V","V","V","V","V","V","V","V","V","V","V","V","V","V","V","V","V","V","V","V","V","V","?","W","W","W","W","W","W","W","W","W","W","W","W","W","?","?","X","X","X","X","X","X","X","X","X","X","X","X","X","X","X","X","W","W","W","W","W","W","W","W","W","W","W","W","W","W","W","W","W","W","W","W","W","W","W","W","W","W","W","W","W","W","W","W","W","W","W","W","W","W","W","W","W","W","W","?","?","?","X","X","X","X","X","X","X","Y","Y","Y","Y","?","?","Z","Z","Z","Z","?","?","?","?","R","R","R","R","R","R","R","R","R","R","R","R","R","R","R","R","R","R","R","R","R","R","R","R","R","R","?","?","?","?","?","?","?","?","?","?","?","?","?","?","?","?","?","?","?","?","?","?","?","?","R","R","R","R","R","R","R","R","R","R","R","R","R","R","R","R","R","R","R","R","R","R","R","R","R","R","R","R","R","R","R","R","R","R","R","R","R","R","R","R","R","R","R","R","R","R","R","R","R","R","R","R","R","R","R","R","R","R","R","R","R","R","R","R","R","R","R","?","?","?","?","?","?","?","?","?","?","?","?","?","?","?","?","?","?","?","?","?","?","?","?","?","?","Z","Z","Z","Z","Z","Z","Z","Z","Z","Z","Z","Z","Z","Z","Z","Z","?","?","?","?","?","?","?","?","?","?","?","?","?","?","?","?","?","?","?","?","?","?","?","?","?","?","?","?","?","?","?","?","?","?","?","?","?","?","?","?","?","?","?","?","?","?","?","?","?","?","?","?","?","?","?","?","?","?","?","?","?","?","?","?","?","?","?","?","?","?","?","?","?","?","?","?","?","?","?","?","?","?","?","?","?","?","?","?","?","?","?","?","?","?","?","?","?","?","?","?","?","?","?","?","?"],"t":[23,37,166,239,275,293,308,328,355,371,405,419,440,454,472,486,509,521,538,558,571,603,619,636,671,685,707,721,755,769,788,803,837,853,871,886,903,923,937,970,985,1004,1038,1053,1072,1086,1105,1120,1138,1176,1188,1205,1220,1236,1256,1269,1289,1303,1320,1355,1370,1386,1405,1420,1439,1453,1471,1486,1505,1524,1537,1557,1570,1589,1621,1637,1656,1670,1687,1708,1720,1756,1770,1789,1805,1839,1853,1870,1888,1903,1923,1937,1955,1988,2004,2023,2037,2057,2070,2090,2104,2120,2141,2154,2189,2203,2223,2237,2258,2272,2289,2304,2323,2339,2372,2387,2405,2424,2437,2473,2487,2506,2521,2557,2571,2590,2605,2638,2655,2673,2705,2721,2756,2771,2791,2806,2824,2838,2859,2871,2906,2921,2937,2954,2976,2989,3023,3038,3060,3073,3107,3121,3141,3154,3174,3187,3208,3222,3239,3260,3272,3306,3322,3341,3355,3374,3387,3406,3422,3439,3458,3472,3506,3521,3538,3560,3573,3590,3605,3626,3641,3660,3673,3691,3706,3723,3756,3773,3791,3805,3823,3846,3871,3888,3905,3925,3939,3973,3989,4005,4026,4041,4058,4093,4106,4146,4171,4189,4206,4241,4255,4274,4289,4325,4340,4359,4372,4391,4406,4441,4455,4491,4506,4541,4556,4572,4591,4605,4625,4639,4656,4675,4689,4724,4739,4774,4789,4805,4825,4839,4858,4872,4908,4923,4941,4956,4975,4990,5023,5039,5056,5092,5107,5126,5141,5174,5190,5206,5224,5243,5256,5275,5290,5324,5340,5357,5374,5390,5409,5424,5440,5458,5473,5492,5508,5525,5542,5558,5591,5607,5623,5658,5674,5692,5706,5727,5740,5761,5775,5807,5824,5841,5858,5873,5893,5908,5928,5941,5974,5991,6007,6041,6056,6074,6093,6108,6143,6157,6174,6208,6224,6240,6259,6273,6290,6307,6327,6342,6376,6391,6408,6442,6457,6474,6492,6507,6525,6559,6574,6592,6610,6625,6645,6659,6678,6693,6708,6725,6742,6776,6791,6808,6827,6844,6877,6891,6908,6926,6946,6959,6977,6992,7010,7025,7062,7076,7093,7107,7125,7149,7174,7190,7208,7228,7242,7262,7274,7291,7310,7325,7342,7377,7392,7426,7442,7458,7474,7491,7511,7525,7545,7560,7578,7591,7626,7641,7659,7680,7691,7710,7726,7743,7758,7793,7809,7843,7858,7877,7892,7910,7926,7943,7962,7976,8009,8025,8045,8059,8077,8092,8108,8127,8143,8169,8192,8210,8226,8244,8258,8278,8292,8310,8325,8343,8360,8376,8392,8427,8442,8460,8479,8491,8508,8531,8560,8576,8595,8609,8645,8660,8693,8710,8744,8760,8776,8794,8810,8844,8859,8878,8892,8912,8926,8942,8961,8977,8995,9010,9047,9060,9094,9109,9126,9161,9177,9211,9226,9242,9262,9276,9292,9312,9326,9343,9359,9378,9393,9413,9427,9459,9476,9495,9510,9531,9544,9577,9593,9612,9628,9646,9660,9680,9693,9709,9745,9761,9777,9795,9810,9829,9845,9878,9893,9912,9928,9946,9960,9979,9995,10013,10027,10044,10060,10095,10110,10127,10162,10178,10196,10213,10227,10246,10261,10296,10310,10346,10361,10378,10411,10427,10444,10463,10477,10495,10511,10530,10544,10561,10596,10610,10630,10644,10678,10694,10713,10728,10746,10762,10796,10811,10831,10845,10879,10894,10911,10930,10944,10963,10978,10995,11012,11028,11045,11080,11094,11111,11128,11145,11166,11177,11197,11211,11232,11246,11279,11295,11314,11328,11345,11363,11378,11396,11414,11428,11447,11461,11496,11511,11530,11545,11580,11595,11614,11628,11647,11661,11680,11695,11714,11729,11747,11763,11779,11799,11813,11831,11845,11864,11879,11912,11929,11946,11964,11979,11997,12013,12030,12048,12063,12097,12112,12136,12161,12178,12196,12211,12232,12246,12263,12281,12295,12314,12328,12347,12363,12383,12396,12430,12446,12480,12496,12513,12530,12545,12563,12581,12597,12615,12629,12648,12663,12697,12712,12730,12746,12766,12779,12798,12813,12846,12863,12880,12914,12929,12948,12963,12983,12996,13014,13048,13063,13097,13113,13129,13149,13163,13184,13197,13218,13230,13250,13269,13296,13313,13330,13349,13363,13379,13398,13415,13448,13462,13483,13496,13516,13530,13565,13579,13599,13612,13630,13647,13667,13681,13696,13715,13730,13747,13781,13796,13815,13830,13850,13863,13880,13898,13931,13946,13966,13980,13997,14013,14049,14063,14083,14098,14135,14148,14182,14197,14214,14230,14249,14265,14282,14316,14331,14349,14365,14380,14397,14416,14431,14453,14465,14498,14514,14533,14548,14566,14581,14599,14614,14633,14648,14667,14683,14699,14731,14747,14765,14783,14797,14817,14832,14848,14882,14898,14916,14931,14950,14965,14998,15015,15034,15047,15083,15098,15116,15131,15166,15181,15200,15214,15250,15265,15283,15297,15333,15349,15382,15397,15415,15433,15448,15483,15498,15532,15548,15565,15584,15598,15616,15630,15651,15665,15700,15715,15733,15748,15772,15799,15816,15831,15850,15869,15883,15899,15920,15935,15949,15982,15999,16016,16034,16049,16087,16099,16134,16150,16183,16199,16220,16233,16266,16283,16302,16317,16350,16365,16383,16402,16418,16449,16465,16488,16516,16532,16552,16566,16583,16604,16616,16651,16666,16686,16699,16717,16738,16766,16782,16799,16816,16836,16849,16868,16883,16900,16920,16934,16954,16967,17000,17016,17037,17049,17085,17099,17121,17134,17158,17183,17202,17216,17253,17266,17303,17317,17355,17366,17404,17416,17440,17466,17483,17499,17523,17550,17567,17582,17605,17619,17654,17667,17702,17717,17753,17768,17803,17817,17834,17855,17868,17902,17917,17939,17966,17984,18001,18023,18050,18069,18083,18105,18118,18152,18168,18195,18217,18238,18251,18271,18284,18303,18317,18336,18351,18366,18402,18417,18454,18467,18490,18518,18533,18550,18568,18584,18607,18633,18652,18667,18705,18718,18752,18768,18787,18802,18825,18851,18868,18884,18907,18935,18951,18967,18990,19002,19035,19050,19073,19086,19123,19135,19175,19187,19222,19236,19257,19269,19304,19318,19342,19369,19386,19401,19422,19436,19452,19486,19501,19519,19555,19569,19603,19618,19639,19652,19669,19696,19718,19738,19753,19774,19801,19819,19834,19857,19869,19903,19918,19941,19953,19988,20001,20023,20036,20055,20069,20091,20118,20136,20153,20176,20203,20221,20235,20255,20268,20285,20309,20335,20352,20369,20390,20418,20435,20452,20471,20486,20508,20535,20553,20569,20590,20603,20638,20653,20690,20702,20719,20739,20754,20775,20786,20808,20839,20853,20869,20893,20919,20939,20953,20974,20987,21003,21027,21052,21069,21085,21106,21119,21138,21153,21173,21188,21221,21237,21252,21272,21286,21305,21319,21335,21356,21370,21404,21420,21436,21454,21469,21489,21503,21519,21538,21554,21570,21587,21620,21636,21653,21672,21687,21706,21720,21739,21752,21771,21789,21803,21838,21854,21873,21886,21903,21923,21936,21955,21970,21987,22006,22020,22038,22054,22073,22087,22122,22136,22155,22171,22190,22203,22223,22237,22257,22270,22287,22305,22319,22339,22354,22370,22388,22421,22437,22456,22470,22487,22503,22523,22536,22555,22571,22589,22603,22623,22637,22655,22671,22687,22723,22737,22754,22775,22789,22823,22837,22858,22871,22905,22920,22941,22954,22973,22987,23024,23038,23074,23089,23124,23138,23156,23170,23189,23208,23221,23255,23271,23290,23305,23323,23338,23354,23374,23387,23406,23420,23440,23455,23470,23490,23504,23522,23540,23554,23574,23588,23607,23621,23637,23656,23671,23691,23705,23723,23738,23757,23771,23790,23805,23827,23839,23859,23872,23891,23905,23921,23942,23955,23972,23991,24005,24025,24039,24075,24088,24109,24122,24140,24155,24173,24188,24208,24223,24242,24255,24272,24290,24305,24324,24338,24357,24372,24391,24406,24425,24439,24457,24472,24488,24505,24524,24539,24572,24589,24608,24622,24641,24656,24676,24690,24723,24738,24755,24774,24788,24808,24822,24839,24873,24889,24906,24924,24939,24974,24989,25009,25023,25042,25056,25075,25090,25106,25128,25139,25158,25175,25189,25209,25223,25240,25274,25289,25308,25323,25340,25360,25373,25391,25406,25442,25456,25475,25489,25509,25523,25541,25556,25575,25590,25610,25623,25641,25656,25675,25690,25709,25724,25757,25772,25790,25806,25825,25840,25875,25889,25907,25925,25940,25960,25973,25993,26007,26025,26041,26060,26074,26093,26107,26126,26140,26160,26173,26193,26206,26226,26240,26262,26290,26307,26323,26342,26357,26375,26390,26408,26423,26443,26457,26474,26508,26523,26540,26560,26574,26591,26607,26627,26641,26659,26673,26708,26723,26759,26773,26790,26809,26824,26845,26858,26881,26909,26924,26960,26974,26993,27007,27023,27043,27058,27074,27095,27109,27129,27141,27166,27191,27208,27224,27240,27260,27276,27296,27325,27341,27358,27375,27408,27424,27442,27458,27475,27495,27527,27542,27560,27575,27609,27625,27641,27663,27675,27710,27725,27742,27776,27792,27810,27825,27844,27858,27876,27891,27909,27929,27942,27963,27975,27993,28009,28042,28059,28078,28092,28109,28127,28142,28163,28175,28195,28208,28227,28241,28260,28276,28294,28309,28330,28342,28362,28377,28396,28409,28427,28442,28461,28476,28494,28508,28529,28542,28561,28575,28594,28609,28627,28643,28659,28677,28692,28709,28726,28745,28759,28775,28792,28809,28826,28843,28863,28877,28894,28911,28946,28959,28976,28996,29010,29029,29042,29061,29077,29093,29114,29127,29148,29176,29193,29209,29228,29242,29262,29277,29295,29309,29326,29344,29362,29395,29410,29428,29443,29462,29476,29494,29528,29543,29560,29579,29593,29610,29644,29660,29694,29710,29730,29743,29762,29776,29796,29810,29828,29842,29861,29876,29911,29927,29943,29962,29976,29995,30011,30029,30043,30061,30077,30096,30109,30128,30143,30162,30177,30195,30210,30228,30243,30262,30277,30296,30310,30326,30343,30362,30380,30393,30412,30428,30444,30463,30477,30494,30512,30527,30544,30562,30577,30594,30613,30627,30644,30663,30677,30697,30712,30728,30761,30777,30793,30810,30827,30847,30862,30879,30893,30913,30929,30946,30979,30994,31013,31028,31061,31077,31096,31111,31131,31145,31179,31194,31214,31228,31245,31263,31277,31297,31311,31345,31361,31379,31395,31412,31428,31447,31461,31477,31495,31515,31528,31544,31561,31580,31595,31614,31628,31663,31678,31697,31711,31728,31762,31779,31794,31812,31846,31862,31880,31895,31912,31928,31946,31979,31995,32012,32033,32045,32062,32080,32094,32113,32130,32145,32180,32195,32232,32245,32265,32278,32297,32312,32334,32345,32380,32395,32413,32428,32463,32478,32497,32513,32533,32545,32564,32579,32595,32613,32647,32663,32680,32695,32714,32747,32763,32781,32796,32813,32832,32846,32865,32878,32896,32912,32932,32946,32965,32997,33012,33032,33046,33063,33081,33096,33131,33146,33180,33196,33216,33230,33245,33266,33297,33313,33332,33346,33380,33395,33415,33430,33464,33480,33498,33513,33530,33564,33580,33596,33614,33632,33646,33663,33679,33699,33713,33730,33747,33783,33797,33815,33829,33846,33881,33896,33913,33930,33949,33963,33983,33998,34017,34030,34047,34064,34084,34116,34130,34153,34180,34198,34214,34248,34264,34282,34296,34316,34330,34347,34366,34380,34397,34416,34431,34447,34466,34480,34497,34516,34530,34549,34563,34580,34597,34613,34632,34647,34666,34680,34700,34714,34733,34747,34766,34780,34797,34815,34831,34851,34864,34882,34897,34915,34931,34947,34982,34998,35015,35032,35047,35066,35080,35099,35114,35134,35148,35170,35181,35199,35217,35231,35250,35264,35280,35298,35314,35337,35364,35381,35397,35416,35431,35449,35465,35481,35499,35514,35534,35548,35566,35581,35600,35614,35633,35648,35667,35681,35700,35715,35735,35748,35765,35784,35798,35816,35832,35852,35865,35883,35898,35917,35932,35949,35966,35984,35999,36018,36032,36048,36066,36082,36101,36115,36133,36148,36167,36182,36202,36215,36251,36265,36284,36298,36315,36334,36348,36367,36382,36399,36415,36434,36448,36468,36482,36501,36515,36534,36548,36568,36582,36598,36615,36635,36648,36665,36685,36699,36717,36750,36765,36784,36799,36816,36836,36849,36883,36898,36916,36934,36948,36968,36983,37001,37020,37033,37067,37082,37102,37116,37135,37148,37168,37182,37204,37216,37250,37266,37285,37299,37319,37333,37351,37365,37383,37402,37415,37435,37449,37469,37483,37517,37532,37552,37565,37583,37603,37616,37652,37667,37687,37699,37721,37733,37752,37766,37787,37800,37834,37849,37869,37884,37902,37916,37936,37950,37968,37983,38002,38017,38034,38052,38066,38103,38117,38136,38150,38167,38186,38201,38217,38251,38266,38283,38302,38317,38337,38349,38369,38384,38418,38434,38450,38469,38483,38503,38517,38538,38550,38568,38584,38603,38617,38634,38651,38669,38684,38704,38717,38734,38771,38783,38804,38818,38835,38856,38889,38917,38934,38950,38972,38984,39000,39020,39034,39051,39089,39101,39123,39137,39174,39219,39234,39274,39286,39321,39336,39357,39387,39401,39417,39439,39453,39473,39504,39517,39537,39570,39585,39605,39617,39640,39653,39689,39701,39724,39751,39769,39785,39821,39836,39870,39885,39919,39935,39957,39968,39985,40022,40034,40073,40087,40126,40152,40169,40185,40208,40235,40252,40269,40286,40323,40337,40355,40369,40388,40402,40423,40436,40451,40475,40502,40520,40535,40556,40568,40606,40619,40637,40652,40671,40686,40709,40735,40753,40769,40789,40802,40821,40835,40855,40868,40891,40903,40920,40942,40969,40986,41003,41019,41038,41052,41073,41088,41121,41136,41155,41171,41188,41202,41222,41235,41255,41270,41288,41302,41337,41353,41371,41386,41402,41422,41435,41456,41469,41489,41504,41520,41537,41554,41574,41588,41606,41619,41638,41652,41670,41686,41704,41738,41753,41770,41789,41804,41821,41836,41853,41870,41888,41905,41920,41938,41954,41970,41986,42003,42024,42036,42054,42070,42088,42108,42120,42139,42154,42189,42203,42223,42237,42256,42271,42304,42320,42341,42354,42370,42405,42421,42438,42453,42473,42488,42504,42520,42539,42571,42587,42603,42639,42654,42672,42687,42704,42725,42754,42771,42787,42806,42820,42837,42856,42871,42890,42905,42926,42938,42972,42987,43022,43037,43054,43073,43087,43104,43125,43142,43173,43188,43206,43220,43237,43257,43272,43290,43324,43337,43354,43371,43405,43421,43439,43454,43470,43488,43507,43522,43540,43554,43574,43589,43622,43638,43654,43673,43688,43709,43723,43743,43755,43774,43789,43823,43839,43856,43871,43891,43906,43928,43955,43971,43989,44005,44023,44056,44072,44091,44106,44123,44144,44171,44189,44205,44225,44239,44257,44272,44291,44305,44340,44355,44374,44388,44406,44424,44438,44455,44472,44489,44507,44521,44539,44556,44575,44606,44621,44642,44655,44671,44690,44707,44739,44756,44775,44788,44808,44824,44856,44872,44889,44908,44922,44944,44972,44988,45005,45025,45039,45056,45072,45092,45106,45144,45156,45176,45190,45211,45223,45257,45273,45290,45312,45339,45356,45373,45391,45407,45439,45455,45472,45491,45507,45524,45539,45560,45573,45590,45606,45625,45640,45658,45673,45690,45706,45727,45740,45774,45789,45806,45822,45842,45857,45876,45889,45909,45924,45942,45956,45976,45990,46009,46024,46058,46074,46090,46110,46123,46141,46157,46175,46193,46206,46227,46241,46260,46273,46293,46308,46326,46342,46375,46389,46410,46424,46440,46459,46473,46492,46507,46541,46557,46576,46590,46609,46624,46640,46659,46674,46690,46708,46742,46757,46776,46790,46810,46824,46843,46857,46876,46890,46911,46926,46958,46974,46991,47010,47024,47058,47074,47091,47111,47125,47147,47158,47176,47190,47211,47226,47258,47274,47291,47308,47343,47357,47373,47392,47409,47424,47440,47459,47474,47493,47509,47541,47557,47575,47592,47611,47625,47643,47657,47676,47691,47711,47725,47743,47758,47777,47791,47810,47825,47844,47858,47877,47891,47909,47925,47946,47959,47992,48008,48028,48042,48059,48076,48091,48110,48125,48147,48159,48180,48208,48224,48242,48261,48275,48296,48308,48327,48343,48361,48376,48397,48409,48428,48443,48462,48475,48509,48525,48542,48559,48576,48594,48608,48630,48643,48676,48692,48710,48729,48742,48765,48791,48810,48825,48846,48860,48877,48893,48911,48925,48944,48959,48977,49010,49025,49042,49061,49076,49095,49109,49127,49142,49162,49178,49210,49225,49246,49260,49279,49293,49312,49326,49346,49360,49377,49411,49426,49444,49459,49478,49493,49509,49527,49543,49560,49595,49609,49628,49643,49662,49677,49696,49711,49729,49742,49762,49777,49811,49827,49846,49860,49895,49909,49928,49943,49960,49977,50012,50026,50045,50060,50079,50093,50110,50128,50143,50163,50177,50193,50213,50227,50243,50261,50296,50311,50345,50359,50376,50412,50427,50446,50460,50495,50511,50529,50543,50563,50578,50595,50611,50630,50644,50679,50694,50712,50727,50746,50760,50780,50793,50812,50827,50847,50860,50879,50895,50913,50928,50946,50960,50977,50997,51013,51046,51060,51081,51095,51113,51127,51149,51177,51193,51210,51227,51262,51277,51295,51316,51328,51362,51377,51395,51413,51428,51449,51461,51480,51496,51529,51544,51562,51580,51594,51611,51630,51645,51663,51677,51698,51711,51732,51745,51764,51777,51794,51813,51828,51845,51861,51880,51895,51911,51928,51947,51961,51978,51997,52011,52034,52061,52078,52095,52114,52129,52163,52178,52197,52213,52233,52245,52264,52278,52299,52311,52330,52345,52364,52377,52397,52412,52429,52447,52461,52478,52497,52512,52530,52546,52564,52578,52595,52616,52628,52647,52662,52681,52695,52713,52730,52745,52765,52779,52798,52813,52846,52862,52878,52899,52913,52933,52946,52965,52979,52998,53012,53034,53046,53081,53095,53114,53128,53146,53165,53179,53197,53212,53232,53247,53263,53281,53295,53315,53330,53347,53362,53381,53396,53415,53431,53447,53480,53496,53516,53530,53548,53564,53582,53595,53616,53630,53665,53680,53714,53730,53748,53763,53782,53796,53813,53832,53848,53881,53896,53932,53946,53965,53981,53999,54012,54030,54048,54081,54097,54114,54136,54162,54180,54196,54215,54230,54266,54280,54315,54330,54350,54364,54379,54398,54415,54429,54452,54464,54499,54513,54533,54547,54583,54597,54615,54629,54649,54664,54681,54700,54714,54730,54750,54764,54781,54815,54830,54850,54863,54883,54897,54916,54930,54949,54964,54983,54997,55015,55031,55050,55064,55099,55114,55130,55150,55164,55184,55197,55216,55231,55250,55265,55300,55315,55349,55363,55383,55397,55414,55434,55447,55464,55481,55499,55513,55533,55547,55567,55581,55597,55615,55630,55648,55666,55682,55699,55715,55731,55750,55765,55784,55797,55814,55834,55848,55866,55881,55901,55914,55931,55951,55965,55984,55998,56017,56032,56048,56065,56083,56116,56132,56154,56182,56198,56215,56235,56249,56269,56282,56301,56315,56332,56350,56365,56384,56398,56417,56432,56450,56467,56481,56501,56516,56551,56566,56584,56598,56617,56633,56650,56665,56702,56715,56735,56749,56765,56784,56799,56817,56831,56852,56867,56901,56916,56935,56950,56968,56982,57001,57016,57032,57053,57067,57083,57102,57116,57135,57149,57171,57199,57215,57232,57251,57266,57284,57299,57317,57332,57348,57368,57382,57401,57416,57434,57451,57465,57484,57499,57516,57535,57549,57566,57583,57601,57616,57634,57649,57669,57683,57699,57734,57749,57769,57783,57799,57817,57832,57852,57867,57883,57900,57917,57936,57951,57983,58000,58018,58032,58050,58069,58084,58101,58118,58136,58150,58168,58183,58202,58216,58235,58250,58286,58300,58335,58350,58368,58383,58400,58416,58435,58450,58484,58500,58520,58534,58553,58566,58601,58617,58633,58655,58667,58686],"hit":[null],"x":[-10.312925170068027,-10.312925170068027,-10.312925170068027,-10.312925170068027,-10.312925170068027,-10.312925170068027,0.04421768707482993,0.0782312925170068,0.16326530612244897,0.18027210884353742,0.3673469387755102,0.5204081632653061,0.7244897959183674,0.8435374149659864,1.2006802721088434,1.2619047619047619,1.3197278911564625,1.3197278911564625,1.3197278911564625,1.3197278911564625,1.3197278911564625,1.3639455782312926,1.3979591836734695,1.3979591836734695,1.3979591836734695,1.3979591836734695,1.3979591836734695,1.3979591836734695,1.3979591836734695,1.3979591836734695,1.3979591836734695,1.3979591836734695,1.3979591836734695,1.3979591836734695,1.3979591836734695,1.3979591836734695,1.3979591836734695,1.3979591836734695,1.3979591836734695,1.3979591836734695,1.3979591836734695,1.3979591836734695,1.3979591836734695,1.3979591836734695,1.3979591836734695,1.3979591836734695,1.3979591836734695,1.3979591836734695,1.3979591836734695,1.3979591836734695,1.3979591836734695,1.3979591836734695,1.3979591836734695,1.3979591836734695,1.3979591836734695,1.3979591836734695,1.3979591836734695,1.3979591836734695,1.3979591836734695,1.3979591836734695,1.3979591836734695,1.3979591836734695,1.3979591836734695,1.3979591836734695,1.3979591836734695,1.3979591836734695,1.3979591836734695,1.3979591836734695,1.3979591836734695,1.3979591836734695,1.3979591836734695,1.3979591836734695,1.3979591836734695,1.3979591836734695,1.3979591836734695,1.3979591836734695,1.3979591836734695,1.3979591836734695,1.3979591836734695,1.3979591836734695,1.3979591836734695,1.3979591836734695,1.3979591836734695,1.3979591836734695,1.3979591836734695,1.3979591836734695,1.3979591836734695,1.3979591836734695,1.3979591836734695,1.3979591836734695,1.3979591836734695,1.3979591836734695,1.3979591836734695,1.3979591836734695,1.3979591836734695,1.3979591836734695,1.3979591836734695,1.3979591836734695,1.3979591836734695,1.3979591836734695,1.3979591836734695,1.3979591836734695,1.3979591836734695,1.3979591836734695,1.3979591836734695,1.3979591836734695,1.3979591836734695,1.3979591836734695,1.3979591836734695,1.3979591836734695,1.3979591836734695,1.3979591836734695,1.3979591836734695,1.3979591836734695,1.3979591836734695,1.4047619047619047,1.4047619047619047,1.4047619047619047,1.4047619047619047,1.4047619047619047,1.4047619047619047,1.4047619047619047,1.4047619047619047,1.4047619047619047,1.4047619047619047,1.4047619047619047,1.4047619047619047,1.4047619047619047,1.4047619047619047,1.4047619047619047,1.4047619047619047,1.4149659863945578,1.4149659863945578,1.4217687074829932,1.4217687074829932,1.4217687074829932,1.4217687074829932,1.4217687074829932,1.4217687074829932,1.4217687074829932,1.4217687074829932,1.4217687074829932,1.4217687074829932,1.4217687074829932,1.3979591836734695,1.2619047619047619,0.8027210884353742,0.7244897959183674,0.5816326530612245,0.48639455782312924,0.2585034013605442,0.19047619047619047,0.1564625850340136,0.12244897959183673,0.09523809523809523,0.09523809523809523,0.08843537414965986,0.061224489795918366,0.04421768707482993,0.03741496598639456,0.027210884353741496,0.01020408163265306,-0.006802721088435374,-0.006802721088435374,-0.006802721088435374,-0.006802721088435374,-0.006802721088435374,-0.006802721088435374,-0.006802721088435374,-0.006802721088435374,-0.006802721088435374,-0.006802721088435374,-0.006802721088435374,-0.006802721088435374,-0.006802721088435374,-0.006802721088435374,-0.006802721088435374,-0.006802721088435374,-0.006802721088435374,-0.006802721088435374,-0.006802721088435374,-0.006802721088435374,-0.006802721088435374,-0.006802721088435374,-0.006802721088435374,-0.006802721088435374,-0.006802721088435374,-0.006802721088435374,-0.006802721088435374,-0.006802721088435374,-0.006802721088435374,-0.006802721088435374,-0.006802721088435374,-0.006802721088435374,-0.006802721088435374,-0.006802721088435374,-0.006802721088435374,-0.006802721088435374,-0.006802721088435374,0.003401360544217687,0.01020408163265306,0.027210884353741496,0.05442176870748299,0.11224489795918367,0.1564625850340136,0.20748299319727892,0.21428571428571427,0.22448979591836735,0.22448979591836735,0.2755102040816326,0.30952380952380953,0.32653061224489793,0.32653061224489793,0.32653061224489793,0.3435374149659864,0.41156462585034015,0.42857142857142855,0.4523809523809524,0.4523809523809524,0.47959183673469385,0.5204081632653061,0.5884353741496599,0.5884353741496599,0.5884353741496599,0.5884353741496599,0.5884353741496599,0.5884353741496599,0.5884353741496599,0.5884353741496599,0.5884353741496599,0.5884353741496599,0.5884353741496599,0.5884353741496599,0.5884353741496599,0.5884353741496599,0.5884353741496599,0.5884353741496599,0.5884353741496599,0.5884353741496599,0.5884353741496599,0.5884353741496599,0.5884353741496599,0.5884353741496599,0.5884353741496599,0.5884353741496599,0.5884353741496599,0.5884353741496599,0.5884353741496599,0.5884353741496599,0.5884353741496599,0.5884353741496599,0.5884353741496599,0.5884353741496599,0.5884353741496599,0.5884353741496599,0.5884353741496599,0.5884353741496599,0.5884353741496599,0.5884353741496599,0.5884353741496599,0.5884353741496599,0.5884353741496599,0.5884353741496599,0.5884353741496599,0.5884353741496599,0.5884353741496599,0.5884353741496599,0.5884353741496599,0.5884353741496599,0.5884353741496599,0.5884353741496599,0.5884353741496599,0.5884353741496599,0.5884353741496599,0.5884353741496599,0.5884353741496599,0.5884353741496599,0.5884353741496599,0.5884353741496599,0.5884353741496599,0.5884353741496599,0.5884353741496599,0.5884353741496599,0.6054421768707483,0.6326530612244898,0.7585034013605442,0.8435374149659864,0.9047619047619048,0.9625850340136054,1.1666666666666667,1.3639455782312926,1.5748299319727892,1.7448979591836735,1.772108843537415,1.772108843537415,1.772108843537415,1.772108843537415,1.772108843537415,1.772108843537415,1.772108843537415,1.772108843537415,1.772108843537415,1.772108843537415,1.772108843537415,1.772108843537415,1.772108843537415,1.7959183673469388,1.8129251700680271,1.8231292517006803,1.846938775510204,1.8741496598639455,1.8911564625850341,1.9251700680272108,1.9319727891156462,1.9319727891156462,1.9319727891156462,1.9319727891156462,1.9319727891156462,1.9319727891156462,1.9319727891156462,1.9319727891156462,1.9319727891156462,1.9319727891156462,1.9319727891156462,1.9319727891156462,1.9319727891156462,1.9319727891156462,1.9319727891156462,1.9319727891156462,1.9319727891156462,1.9319727891156462,1.9319727891156462,1.9319727891156462,1.9319727891156462,1.9319727891156462,1.9319727891156462,1.9319727891156462,1.9319727891156462,1.9319727891156462,1.9319727891156462,1.9319727891156462,1.9319727891156462,1.9319727891156462,1.9319727891156462,1.9319727891156462,1.9319727891156462,1.9319727891156462,1.9319727891156462,1.9319727891156462,1.9319727891156462,1.6598639455782314,1.6598639455782314,1.6598639455782314,1.6598639455782314,1.6598639455782314,1.6598639455782314,1.6598639455782314,1.6598639455782314,1.6598639455782314,1.4784579114849066,1.4784579114849066,1.4784579114849066,1.4784579114849066,1.4784579114849066,1.4784579114849066,1.4784579114849066,1.4784579114849066,1.4784579114849066,1.4784579114849066,1.4784579114849066,1.4784579114849066,1.4784579114849066,1.4784579114849066,1.4784579114849066,1.4784579114849066,1.4784579114849066,1.4784579114849066,1.4784579114849066,1.4784579114849066,1.4784579114849066,1.4784579114849066,1.4784579114849066,1.4784579114849066,1.4784579114849066,1.4784579114849066,1.4784579114849066,1.4784579114849066,1.4784579114849066,1.4784579114849066,1.4784579114849066,1.4784579114849066,1.4784579114849066,1.4784579114849066,1.4784579114849066,1.4784579114849066,1.4784579114849066,1.4784579114849066,1.4784579114849066,1.4784579114849066,1.4784579114849066,1.4784579114849066,1.4784579114849066,1.4784579114849066,1.4784579114849066,1.4784579114849066,1.4784579114849066,1.4784579114849066,1.4784579114849066,1.4784579114849066,1.4784579114849066,1.4784579114849066,1.4784579114849066,1.4784579114849066,1.4784579114849066,1.4784579114849066,1.4784579114849066,1.4784579114849066,1.4784579114849066,1.4784579114849066,1.4784579114849066,1.4784579114849066,1.4784579114849066,1.4784579114849066,1.4784579114849066,1.4784579114849066,1.4784579114849066,1.4784579114849066,1.4784579114849066,1.4784579114849066,1.4784579114849066,1.4784579114849066,1.4784579114849066,1.351474061304209,1.351474061304209,1.3276645374946854,1.2936509320525085,1.2290250817123725,1.2154196395355017,1.167800591916454,1.1609978708280186,1.137188347018495,1.1269842653858417,1.1235829048416242,1.1235829048416242,1.1235829048416242,1.1235829048416242,1.1235829048416242,1.1235829048416242,1.1235829048416242,1.1235829048416242,1.1235829048416242,1.1235829048416242,1.1235829048416242,1.1235829048416242,1.1235829048416242,1.1235829048416242,1.1235829048416242,1.1235829048416242,1.1235829048416242,1.1235829048416242,1.1235829048416242,1.1235829048416242,1.1235829048416242,1.1235829048416242,1.1235829048416242,1.1235829048416242,1.1235829048416242,1.1235829048416242,1.1235829048416242,1.1235829048416242,1.1235829048416242,1.1235829048416242,1.1235829048416242,1.1235829048416242,1.1235829048416242,1.1235829048416242,1.1235829048416242,1.1235829048416242,1.1235829048416242,1.1235829048416242,1.1235829048416242,1.1269842653858417,1.1507937891953657,1.157596510283801,1.157596510283801,1.157596510283801,1.1473924286511479,1.1133788232089712,1.0793652177667943,1.0283448096035288,1.004535285794005,0.9807257619844812,0.9365080749096514,0.9092971905559099,0.7528346055218963,0.6950114762701955,0.6405897075627126,0.5861679388552296,0.5861679388552296,0.5623584150457058,0.5487529728688351,0.4739230408960459,0.46031759871917516,0.4501135170865221,0.43990943545386907,0.429705353821216,0.4263039932769983,0.41609991164434523,0.41609991164434523,0.41609991164434523,0.41609991164434523,0.41609991164434523,0.41609991164434523,0.4263039932769983,0.429705353821216,0.429705353821216,0.43990943545386907,0.43990943545386907,0.44331079599808676,0.44331079599808676,0.44331079599808676,0.44331079599808676,0.44331079599808676,0.44331079599808676,0.44331079599808676,0.44331079599808676,0.43990943545386907,0.4263039932769983,0.41609991164434523,0.41609991164434523,0.41609991164434523,0.40929719055590985,0.40589583001169216,0.39229038783482145,0.38548766674638607,0.3820863062021684,0.3820863062021684,0.3820863062021684,0.3820863062021684,0.3650795034810799,0.34126997967155615,0.34126997967155615,0.34126997967155615,0.33786861912733845,0.3310658980389031,0.3174604558620323,0.29705229259672616,0.29024957150829084,0.29024957150829084,0.29024957150829084,0.29024957150829084,0.28344685041985546,0.2596373266103316,0.24943324497767858,0.24603188443346088,0.2392291633450255,0.22902508171237246,0.21882100007971939,0.212018278991284,0.20181419735863096,0.19501147627019558,0.19501147627019558,0.19501147627019558,0.19501147627019558,0.19501147627019558,0.1916101157259779,0.1916101157259779,0.1916101157259779,0.1916101157259779,0.1916101157259779,0.1848073946375425,0.1848073946375425,0.18140603409332484,0.18140603409332484,0.18140603409332484,0.18140603409332484,0.18140603409332484,0.17800467354910715,0.16780059191645408,0.15759651028380103,0.15759651028380103,0.15759651028380103,0.15759651028380103,0.15759651028380103,0.15759651028380103,0.15759651028380103,0.15759651028380103,0.1609978708280187,0.16780059191645408,0.16780059191645408,0.17800467354910715,0.18140603409332484,0.18140603409332484,0.18140603409332484,0.1848073946375425,0.1848073946375425,0.1848073946375425,0.1848073946375425,0.1848073946375425,0.1848073946375425,0.1848073946375425,0.1848073946375425,0.1848073946375425,0.1848073946375425,0.1848073946375425,0.1848073946375425,0.1848073946375425,0.1848073946375425,0.1848073946375425,0.1848073946375425,0.1848073946375425,0.1848073946375425,0.1848073946375425,0.1848073946375425,0.1848073946375425,0.1848073946375425,0.1848073946375425,0.1848073946375425,0.1848073946375425,0.1848073946375425,0.1848073946375425,0.1848073946375425,0.1848073946375425,0.1848073946375425,0.1848073946375425,0.1848073946375425,0.1848073946375425,0.1848073946375425,0.1848073946375425,0.1848073946375425,0.1848073946375425,0.1848073946375425,0.1848073946375425,0.1848073946375425,0.1848073946375425,0.1848073946375425,0.1848073946375425,0.1848073946375425,0.1848073946375425,0.1848073946375425,0.1848073946375425,0.1848073946375425,0.1848073946375425,0.1848073946375425,0.1848073946375425,0.1848073946375425,0.1848073946375425,0.1848073946375425,0.1848073946375425,0.1848073946375425,0.1848073946375425,0.1848073946375425,0.1848073946375425,0.1848073946375425,0.1848073946375425,0.1848073946375425,0.1916101157259779,0.19501147627019558,0.19501147627019558,0.20521555790284865,0.212018278991284,0.21882100007971939,0.2630386871545493,0.29024957150829084,0.3276645374946854,0.35147406130420916,0.43990943545386907,0.47052168035182823,0.5215420885150935,0.6780046735491071,0.6950114762701955,0.8038550136851615,0.8684808640252977,0.9160999116443452,0.9671203198076106,0.9807257619844812,1.0011339252497875,1.0249434490593112,1.0453516123246174,1.0555556939572703,1.0555556939572703,1.0555556939572703,1.0555556939572703,1.0555556939572703,1.0351475306919642,1.0215420885150934,1.0113380068824405,1.0113380068824405,1.0113380068824405,1.004535285794005,1.004535285794005,1.004535285794005,1.004535285794005,1.004535285794005,1.004535285794005,1.004535285794005,1.004535285794005,1.004535285794005,1.004535285794005,1.004535285794005,1.004535285794005,1.004535285794005,1.004535285794005,1.004535285794005,1.004535285794005,1.004535285794005,1.004535285794005,1.004535285794005,1.004535285794005,1.004535285794005,1.004535285794005,1.004535285794005,1.004535285794005,1.004535285794005,1.004535285794005,1.004535285794005,1.004535285794005,1.004535285794005,1.004535285794005,1.004535285794005,1.004535285794005,1.004535285794005,1.004535285794005,1.004535285794005,1.004535285794005,1.004535285794005,1.004535285794005,1.004535285794005,1.004535285794005,1.004535285794005,1.004535285794005,1.004535285794005,1.004535285794005,1.004535285794005,1.004535285794005,1.0113380068824405,1.0249434490593112,1.0453516123246174,1.0589570545014881,1.069161136134141,1.0895692993994472,1.103174741576318,1.1065761021205358,1.1065761021205358,1.1065761021205358,1.1065761021205358,1.1167801837531888,1.1167801837531888,1.1167801837531888,1.1167801837531888,1.1167801837531888,1.1167801837531888,1.1167801837531888,1.1167801837531888,1.1167801837531888,1.1167801837531888,1.1269842653858417,1.1405897075627125,1.157596510283801,1.157596510283801,1.157596510283801,1.157596510283801,1.157596510283801,1.1405897075627125,1.137188347018495,1.1337869864742771,1.1337869864742771,1.1337869864742771,1.1337869864742771,1.1337869864742771,1.1337869864742771,1.1337869864742771,1.1337869864742771,1.1337869864742771,1.1337869864742771,1.1337869864742771,1.137188347018495,1.1405897075627125,1.1405897075627125,1.1405897075627125,1.1405897075627125,1.1405897075627125,1.1405897075627125,1.1405897075627125,1.1507937891953657,1.1507937891953657,1.1507937891953657,1.1507937891953657,1.157596510283801,1.157596510283801,1.157596510283801,1.157596510283801,1.157596510283801,1.157596510283801,1.157596510283801,1.157596510283801,1.157596510283801,1.157596510283801,1.157596510283801,1.157596510283801,1.157596510283801,1.157596510283801,1.157596510283801,1.157596510283801,1.157596510283801,1.157596510283801,1.157596510283801,1.157596510283801,1.157596510283801,1.157596510283801,1.157596510283801,1.157596510283801,1.157596510283801,1.157596510283801,1.157596510283801,1.157596510283801,1.157596510283801,1.157596510283801,1.157596510283801,1.157596510283801,1.157596510283801,1.157596510283801,1.157596510283801,1.1405897075627125,1.1337869864742771,1.1235829048416242,1.103174741576318,1.0963720204878826,1.069161136134141,1.048752972868835,0.9909298436171343,0.9569162381749575,0.9467121565423045,0.9331067143654337,0.8922903878348214,0.86507950348108,0.8344672585831208,0.7902495715082908,0.7528346055218963,0.7528346055218963,0.7460318844334609,0.7460318844334609,0.7426305238892432,0.7324264422565901,0.7222223606239371,0.6984128368144132,0.6848073946375425,0.6746033130048894,0.6746033130048894,0.6575965102838011,0.6337869864742772,0.6065761021205357,0.5725624966783588,0.5623584150457058,0.5623584150457058,0.5623584150457058,0.5555556939572704,0.5521543334130528,0.5317461701477466,0.5317461701477466,0.5317461701477466,0.5317461701477466,0.5317461701477466,0.5317461701477466,0.5317461701477466,0.5317461701477466,0.5317461701477466,0.5317461701477466,0.5317461701477466,0.5317461701477466,0.5317461701477466,0.5317461701477466,0.5113380068824405,0.46031759871917516,0.40929719055590985,0.39229038783482145,0.3174604558620323,0.22562372116815477,0.14399106810693027,0.07936521776679421,0.024943449059311226,-0.04308376182504252,-0.05668920400191327,-0.07709736726721939,-0.08730144889987244,-0.08730144889987244,-0.08730144889987244,-0.08730144889987244,-0.08730144889987244,-0.08730144889987244,-0.08730144889987244,-0.08730144889987244,-0.08730144889987244,-0.06349192509034864,-0.03287968019238945,-0.019274238015518707,-0.012471516927083334,0.001133925249787415,0.011338006882440476,0.011338006882440476,0.014739367426658163,0.014739367426658163,0.014739367426658163,0.014739367426658163,0.014739367426658163,0.014739367426658163,0.014739367426658163,0.014739367426658163,0.014739367426658163,0.014739367426658163,0.014739367426658163,0.014739367426658163,0.014739367426658163,0.014739367426658163,0.014739367426658163,0.014739367426658163,0.014739367426658163,0.014739367426658163,0.014739367426658163,0.014739367426658163,0.014739367426658163,0.014739367426658163,0.014739367426658163,0.014739367426658163,0.014739367426658163,0.014739367426658163,0.014739367426658163,0.014739367426658163,0.014739367426658163,0.014739367426658163,0.014739367426658163,0.014739367426658163,0.014739367426658163,0.014739367426658163,0.014739367426658163,0.014739367426658163,0.014739367426658163,0.014739367426658163,0.014739367426658163,0.014739367426658163,0.014739367426658163,0.014739367426658163,0.014739367426658163,0.014739367426658163,0.014739367426658163,0.014739367426658163,0.014739367426658163,0.014739367426658163,0.014739367426658163,0.014739367426658163,0.014739367426658163,0.014739367426658163,0.014739367426658163,0.014739367426658163,0.014739367426658163,0.014739367426658163,0.014739367426658163,0.014739367426658163,0.014739367426658163,0.014739367426658163,0.014739367426658163,0.014739367426658163,0.014739367426658163,0.014739367426658163,0.014739367426658163,0.014739367426658163,0.014739367426658163,0.014739367426658163,0.014739367426658163,0.014739367426658163,0.014739367426658163,0.014739367426658163,0.10317474157631802,0.17120195246067177,0.29024957150829084,0.30725637422937924,0.39229038783482145,0.40249446946747447,0.4263039932769983,0.4501135170865221,0.47052168035182823,0.47052168035182823,0.47052168035182823,0.47052168035182823,0.47052168035182823,0.47052168035182823,0.47052168035182823,0.47052168035182823,0.47052168035182823,0.47052168035182823,0.47052168035182823,0.47052168035182823,0.47052168035182823,0.47052168035182823,0.47052168035182823,0.47052168035182823,0.47052168035182823,0.47052168035182823,0.47052168035182823,0.47052168035182823,0.47052168035182823,0.47052168035182823,0.47052168035182823,0.47052168035182823,0.47052168035182823,0.47052168035182823,0.47052168035182823,0.47052168035182823,0.47052168035182823,0.47052168035182823,0.47052168035182823,0.47052168035182823,0.47052168035182823,0.47052168035182823,0.47052168035182823,0.47052168035182823,0.47052168035182823,0.47052168035182823,0.47052168035182823,0.46031759871917516,0.4535148776307398,0.4535148776307398,0.4535148776307398,0.4501135170865221,0.44331079599808676,0.44331079599808676,0.44331079599808676,0.44331079599808676,0.44331079599808676,0.44331079599808676,0.44331079599808676,0.44331079599808676,0.44331079599808676,0.44331079599808676,0.44331079599808676,0.44331079599808676,0.44331079599808676,0.44331079599808676,0.44331079599808676,0.44331079599808676,0.44331079599808676,0.44331079599808676,0.44331079599808676,0.44331079599808676,0.44331079599808676,0.44331079599808676,0.44331079599808676,0.44331079599808676,0.44331079599808676,0.44331079599808676,0.44331079599808676,0.44331079599808676,0.44331079599808676,0.44331079599808676,0.44331079599808676,0.44331079599808676,0.44331079599808676,0.44331079599808676,0.44331079599808676,0.44331079599808676,0.44331079599808676,0.44331079599808676,0.44331079599808676,0.44331079599808676,0.44331079599808676,0.44331079599808676,0.44331079599808676,0.44331079599808676,0.44331079599808676,0.44331079599808676,0.44331079599808676,0.44331079599808676,0.44331079599808676,0.44331079599808676,0.44331079599808676,0.44331079599808676,0.44331079599808676,0.44331079599808676,0.44331079599808676,0.44331079599808676,0.44331079599808676,0.44331079599808676,0.44331079599808676,0.44331079599808676,0.44331079599808676,0.44331079599808676,0.44331079599808676,0.44331079599808676,0.44331079599808676,0.44331079599808676,0.44331079599808676,0.44331079599808676,0.44331079599808676,0.44331079599808676,0.44331079599808676,0.44331079599808676,0.44331079599808676,0.44331079599808676,0.44331079599808676,0.44331079599808676,0.44331079599808676,0.44331079599808676,0.44331079599808676,0.44331079599808676,0.44331079599808676,0.44331079599808676,0.44331079599808676,0.44331079599808676,0.44331079599808676,0.44331079599808676,0.44331079599808676,0.44331079599808676,0.44331079599808676,0.44331079599808676,0.44331079599808676,0.44331079599808676,0.44331079599808676,0.44331079599808676,0.44331079599808676,0.44331079599808676,0.44331079599808676,0.44331079599808676,0.44331079599808676,0.44331079599808676,0.44331079599808676,0.44331079599808676,0.44331079599808676,0.44331079599808676,0.44331079599808676,0.44331079599808676,0.44331079599808676,0.44331079599808676,0.44331079599808676,0.44331079599808676,0.44331079599808676,0.44331079599808676,0.44331079599808676,0.44331079599808676,0.44331079599808676,0.44331079599808676,0.44331079599808676,0.44331079599808676,0.44331079599808676,0.44331079599808676,0.44331079599808676,0.44331079599808676,0.44331079599808676,0.44331079599808676,0.44331079599808676,0.44331079599808676,0.44331079599808676,0.44331079599808676,0.44331079599808676,0.44331079599808676,0.44331079599808676,0.44331079599808676,0.44331079599808676,0.44331079599808676,0.44331079599808676,0.44331079599808676,0.44331079599808676,0.44331079599808676,0.44331079599808676,0.6235829048416242,0.6507937891953657,0.712018278991284,0.7324264422565901,0.756235966066114,0.7868482109640731,0.8412699796715561,0.8446713402157738,0.8480727007599915,0.8548754218484269,0.8752835851137329,0.8786849456579506,0.8888890272906037,0.8888890272906037,0.8786849456579506,0.86507950348108,0.8344672585831208,0.8344672585831208,0.8344672585831208,0.8344672585831208,0.8344672585831208,0.8344672585831208,0.8344672585831208,0.8344672585831208,0.8344672585831208,0.8344672585831208,0.8310658980389031,0.8242631769504677,0.8242631769504677,0.8242631769504677,0.8242631769504677,0.8242631769504677,0.8242631769504677,0.8242631769504677,0.8242631769504677,0.8242631769504677,0.8242631769504677,0.8242631769504677,0.8242631769504677,0.8242631769504677,0.8242631769504677,0.8242631769504677,0.8242631769504677,0.8242631769504677,0.8242631769504677,0.8242631769504677,0.8242631769504677,0.8242631769504677,0.8242631769504677,0.8242631769504677,0.8242631769504677,0.8242631769504677,0.8242631769504677,0.8242631769504677,0.8242631769504677,0.8242631769504677,0.8242631769504677,0.8242631769504677,0.8242631769504677,0.8242631769504677,0.8242631769504677,0.8242631769504677,0.8242631769504677,0.8242631769504677,0.8242631769504677,0.8242631769504677,0.8242631769504677,0.8242631769504677,0.8242631769504677,0.8242631769504677,0.8242631769504677,0.8242631769504677,0.8242631769504677,0.8242631769504677,0.8242631769504677,0.8242631769504677,0.8242631769504677,0.8242631769504677,0.8242631769504677,0.8242631769504677,0.8242631769504677,0.8242631769504677,0.8242631769504677,0.8242631769504677,0.8242631769504677,0.8242631769504677,0.8242631769504677,0.8242631769504677,0.8242631769504677,0.8242631769504677,0.8242631769504677,0.8242631769504677,0.8242631769504677,0.8242631769504677,0.8242631769504677,0.8242631769504677,0.8242631769504677,0.8242631769504677,0.8242631769504677,0.8242631769504677,0.8242631769504677,0.8242631769504677,0.8242631769504677,0.8242631769504677,0.8242631769504677,0.8242631769504677,0.8242631769504677,0.8242631769504677,0.8242631769504677,0.8242631769504677,0.8242631769504677,0.8242631769504677,0.8242631769504677,0.8242631769504677,0.8242631769504677,0.8242631769504677,0.8242631769504677,0.8242631769504677,0.8242631769504677,0.8242631769504677,0.8242631769504677,0.8242631769504677,0.8242631769504677,0.8242631769504677,0.8242631769504677,0.8242631769504677,0.8242631769504677,0.8242631769504677,0.8242631769504677,0.8242631769504677,0.8242631769504677,0.8242631769504677,0.8242631769504677,0.8242631769504677,0.8242631769504677,0.8242631769504677,0.8242631769504677,0.8242631769504677,0.8242631769504677,0.8242631769504677,0.8242631769504677,0.8242631769504677,0.8242631769504677,0.8242631769504677,0.8242631769504677,0.8242631769504677,0.8242631769504677,0.8242631769504677,0.8242631769504677,0.8242631769504677,0.8242631769504677,0.8242631769504677,0.8242631769504677,0.8242631769504677,0.8242631769504677,0.8242631769504677,0.8242631769504677,1.0827665783110119,1.1065761021205358,1.137188347018495,1.157596510283801,1.1609978708280186,1.1746033130048894,1.201814197358631,1.2086169184470663,1.2188210000797195,1.2188210000797195,1.2188210000797195,1.2188210000797195,1.2188210000797195,1.2188210000797195,1.2188210000797195,1.2188210000797195,1.2188210000797195,1.2188210000797195,1.2188210000797195,1.2188210000797195,1.2154196395355017,1.2086169184470663,1.2052155579028487,1.1950114762701955,1.1950114762701955,1.191610115725978,1.1848073946375426,1.1814060340933248,1.1746033130048894,1.1746033130048894,1.1712019524606718,1.1712019524606718,1.1712019524606718,1.1712019524606718,1.1712019524606718,1.1712019524606718,1.1712019524606718,1.1712019524606718,1.1712019524606718,1.1712019524606718,1.1712019524606718,1.1712019524606718,1.1712019524606718,1.1712019524606718,1.1712019524606718,1.1712019524606718,1.1712019524606718,1.1712019524606718,1.1712019524606718,1.1712019524606718,1.1712019524606718,1.1712019524606718,1.1712019524606718,1.1712019524606718,1.1712019524606718,1.1712019524606718,1.1712019524606718,1.1712019524606718,1.1712019524606718,1.1712019524606718,1.1712019524606718,1.1712019524606718,1.1712019524606718,1.1712019524606718,1.1712019524606718,1.1712019524606718,1.1712019524606718,1.1712019524606718,1.1712019524606718,1.1712019524606718,1.1712019524606718,1.1712019524606718,1.1712019524606718,1.1712019524606718,1.1712019524606718,1.1712019524606718,1.1712019524606718,1.1712019524606718,1.1712019524606718,1.1712019524606718,1.1712019524606718,1.1712019524606718,1.1712019524606718,1.1712019524606718,1.1712019524606718,1.1712019524606718,1.1712019524606718,1.1712019524606718,1.1712019524606718,1.1712019524606718,1.1712019524606718,1.1712019524606718,1.1712019524606718,1.1712019524606718,1.1712019524606718,1.1712019524606718,1.1712019524606718,1.1712019524606718,1.1712019524606718,1.1712019524606718,1.1712019524606718,1.1712019524606718,1.1712019524606718,1.1712019524606718,1.1712019524606718,1.1712019524606718,1.1712019524606718,1.1712019524606718,1.1712019524606718,1.1712019524606718,1.1712019524606718,1.1712019524606718,1.1712019524606718,1.1712019524606718,1.1712019524606718,1.1712019524606718,1.1712019524606718,1.1712019524606718,1.1712019524606718,1.1712019524606718,1.1712019524606718,1.1712019524606718,1.1712019524606718,1.1712019524606718,1.1712019524606718,1.1712019524606718,1.1712019524606718,1.1712019524606718,1.1712019524606718,1.1712019524606718,1.1712019524606718,1.1712019524606718,1.1712019524606718,1.1712019524606718,1.1712019524606718,1.1712019524606718,1.1712019524606718,1.1712019524606718,1.1712019524606718,1.1712019524606718,1.1712019524606718,1.1712019524606718,1.1712019524606718,1.1712019524606718,1.1712019524606718,1.1712019524606718,1.1712019524606718,1.1712019524606718,1.1712019524606718,1.1712019524606718,1.1712019524606718,1.1712019524606718,1.1712019524606718,1.1712019524606718,1.1712019524606718,1.1712019524606718,1.1712019524606718,1.1712019524606718,1.1712019524606718,1.1712019524606718,1.1712019524606718,1.1712019524606718,1.1712019524606718,1.1712019524606718,1.1712019524606718,1.1712019524606718,1.1712019524606718,1.1712019524606718,1.1712019524606718,1.1712019524606718,1.1712019524606718,1.1712019524606718,1.1712019524606718,1.1712019524606718,1.1712019524606718,1.1712019524606718,1.1712019524606718,1.1712019524606718,1.1712019524606718,1.1712019524606718,1.1712019524606718,1.1712019524606718,1.1712019524606718,1.1712019524606718,1.1712019524606718,1.1712019524606718,1.1712019524606718,1.1712019524606718,1.1712019524606718,1.1712019524606718,1.1712019524606718,1.1712019524606718,1.1712019524606718,1.1712019524606718,1.1712019524606718,1.1712019524606718,1.1712019524606718,1.1712019524606718,1.1712019524606718,1.1712019524606718,1.1712019524606718,1.1712019524606718,1.1712019524606718,1.1712019524606718,1.1712019524606718,1.1712019524606718,1.1712019524606718,1.1712019524606718,1.1712019524606718,1.1712019524606718,1.1712019524606718,1.1712019524606718,1.1712019524606718,1.1712019524606718,1.1712019524606718,1.1712019524606718,1.1712019524606718,1.1712019524606718,1.1712019524606718,1.1712019524606718,1.1712019524606718,1.1712019524606718,1.1712019524606718,1.1712019524606718,1.1712019524606718,1.1712019524606718,1.1712019524606718,1.1712019524606718,1.1712019524606718,1.1712019524606718,1.1712019524606718,1.1712019524606718,1.1712019524606718,1.1712019524606718,1.1712019524606718,1.1712019524606718,1.1712019524606718,1.1712019524606718,1.1712019524606718,1.1712019524606718,1.1712019524606718,1.1712019524606718,1.1712019524606718,1.1712019524606718,1.1712019524606718,1.1712019524606718,1.1712019524606718,1.1712019524606718,1.1712019524606718,1.1712019524606718,1.1712019524606718,1.1712019524606718,1.1712019524606718,1.1712019524606718,1.1712019524606718,1.1712019524606718,1.1712019524606718,1.1712019524606718,1.1712019524606718,1.1712019524606718,1.1712019524606718,1.1712019524606718,1.1712019524606718,1.1712019524606718,1.1712019524606718,1.1712019524606718,1.1712019524606718,1.1712019524606718,1.1712019524606718,1.1712019524606718,1.1712019524606718,1.1712019524606718,1.1712019524606718,1.1712019524606718,1.1712019524606718,1.1712019524606718,1.1712019524606718,1.1712019524606718,1.1712019524606718,1.1712019524606718,1.1712019524606718,1.1712019524606718,1.1712019524606718,1.1712019524606718,1.1712019524606718,1.1712019524606718,1.1712019524606718,1.1712019524606718,1.1712019524606718,1.1712019524606718,1.1712019524606718,1.1712019524606718,1.1712019524606718,1.1712019524606718,1.1712019524606718,1.1712019524606718,1.1712019524606718,1.1712019524606718,1.1712019524606718,1.1712019524606718,1.1712019524606718,1.1712019524606718,1.1712019524606718,1.1712019524606718,1.1712019524606718,1.1712019524606718,1.1712019524606718,1.1712019524606718,1.1712019524606718,1.1712019524606718,1.1712019524606718,1.1712019524606718,1.1712019524606718,1.1712019524606718,1.1712019524606718,1.1712019524606718,1.1712019524606718,1.1712019524606718,1.1712019524606718,1.1712019524606718,1.1712019524606718,1.1712019524606718,1.1712019524606718,1.1712019524606718,1.1712019524606718,1.1712019524606718,1.1712019524606718,1.1712019524606718,1.1712019524606718,1.1712019524606718,1.1712019524606718,1.1712019524606718,1.1712019524606718,1.1712019524606718,1.1712019524606718,1.1712019524606718,1.1712019524606718,1.1712019524606718,1.1712019524606718,1.1712019524606718,1.1712019524606718,1.1712019524606718,1.1712019524606718,1.1712019524606718,1.1712019524606718,1.1712019524606718,1.1712019524606718,1.1712019524606718,1.1712019524606718,1.1712019524606718,1.1712019524606718,1.1712019524606718,1.1712019524606718,1.1712019524606718,1.1712019524606718,1.1712019524606718,1.1712019524606718,1.1712019524606718,1.1712019524606718,1.1712019524606718,1.1712019524606718,1.1712019524606718,1.1712019524606718,1.1712019524606718,1.1712019524606718,1.1712019524606718,1.1712019524606718,1.1712019524606718,1.1712019524606718,1.1712019524606718,1.1712019524606718,1.1712019524606718,1.1712019524606718,1.1712019524606718,1.1712019524606718,1.1712019524606718,1.1712019524606718,1.1712019524606718,1.1712019524606718,1.1712019524606718,1.1712019524606718,1.1712019524606718,1.1712019524606718,1.1712019524606718,1.1712019524606718,1.1712019524606718,1.1712019524606718,1.1712019524606718,1.1712019524606718,1.1712019524606718,1.1712019524606718,1.1712019524606718,1.1712019524606718,1.1712019524606718,1.1712019524606718,1.1712019524606718,1.1712019524606718,1.1712019524606718,1.1712019524606718,1.1712019524606718,1.1712019524606718,1.1712019524606718,1.1712019524606718,1.1712019524606718,1.1712019524606718,1.1712019524606718,1.1712019524606718,1.1712019524606718,1.1712019524606718,1.1712019524606718,1.1712019524606718,1.1712019524606718,1.1712019524606718,1.1712019524606718,1.1712019524606718,1.1712019524606718,1.1712019524606718,1.1712019524606718,1.1712019524606718,1.1712019524606718,1.1712019524606718,1.1712019524606718,1.1712019524606718,1.1712019524606718,1.1712019524606718,1.1712019524606718,1.1712019524606718,1.1712019524606718,1.1712019524606718,1.1712019524606718,1.1712019524606718,1.1712019524606718,1.1712019524606718,1.1712019524606718,1.1712019524606718,1.1712019524606718,1.1712019524606718,1.1712019524606718,1.1712019524606718,1.1712019524606718,1.1712019524606718,1.1712019524606718,1.1712019524606718,1.1712019524606718,1.1712019524606718,1.1712019524606718,1.1712019524606718,1.1712019524606718,1.1712019524606718,1.1712019524606718,1.1712019524606718,1.1712019524606718,1.1712019524606718,1.1712019524606718,1.1712019524606718,1.1712019524606718,1.1712019524606718,1.1712019524606718,1.1712019524606718,1.1712019524606718,1.1712019524606718,1.1712019524606718,1.1712019524606718,1.1712019524606718,1.1712019524606718,1.1712019524606718,1.1712019524606718,1.1712019524606718,1.1712019524606718,1.1712019524606718,1.1712019524606718,1.1712019524606718,1.1712019524606718,1.1712019524606718,1.1712019524606718,1.1712019524606718,1.1712019524606718,1.1712019524606718,1.1712019524606718,1.1712019524606718,1.1712019524606718,1.1712019524606718,1.1712019524606718,1.1712019524606718,1.1712019524606718,1.1712019524606718,1.1712019524606718,1.1712019524606718,1.1712019524606718,1.1712019524606718,1.1712019524606718,1.1712019524606718,1.1712019524606718,1.1712019524606718,1.1712019524606718,1.1712019524606718,1.1712019524606718,1.1712019524606718,1.1712019524606718,1.1712019524606718,1.1712019524606718,1.1712019524606718,1.1712019524606718,1.1712019524606718,1.1712019524606718,1.1712019524606718,1.1712019524606718,1.1712019524606718,1.1712019524606718,1.1712019524606718,1.1712019524606718,1.1712019524606718,1.1712019524606718,1.1712019524606718,1.1712019524606718,1.1712019524606718,1.1712019524606718,1.1712019524606718,1.1712019524606718,1.1712019524606718,1.1712019524606718,1.1712019524606718,1.1712019524606718,1.1712019524606718,1.1712019524606718,1.1712019524606718,1.1712019524606718,1.1712019524606718,1.1712019524606718,1.1712019524606718,1.1712019524606718,1.1712019524606718,1.1712019524606718,1.1712019524606718,1.1712019524606718,1.1712019524606718,1.1712019524606718,1.1712019524606718,1.1712019524606718,1.1712019524606718,1.1712019524606718,1.1712019524606718,1.1712019524606718,1.1712019524606718,1.1712019524606718,1.1712019524606718,1.1712019524606718,1.1712019524606718,1.1712019524606718,1.1712019524606718,1.1712019524606718,1.1712019524606718,1.1712019524606718,1.1712019524606718,1.1712019524606718,1.1712019524606718,1.1712019524606718,1.1712019524606718,1.1712019524606718,1.1712019524606718,1.1712019524606718,1.1712019524606718,1.1712019524606718,1.1712019524606718,1.1712019524606718,1.1712019524606718,1.1712019524606718,1.1712019524606718,1.1712019524606718,1.1712019524606718,1.1712019524606718,1.1712019524606718,1.1712019524606718,1.1712019524606718,1.1712019524606718,1.1712019524606718,1.1712019524606718,1.1712019524606718,1.1712019524606718,1.1712019524606718,1.1712019524606718,1.1712019524606718,1.1712019524606718,1.1712019524606718,1.1712019524606718,1.1712019524606718,1.1712019524606718,1.1712019524606718,1.1712019524606718,1.1712019524606718,1.1712019524606718,1.1712019524606718,1.1712019524606718,1.1712019524606718,1.1712019524606718,1.1712019524606718,1.1712019524606718,1.1712019524606718,1.1712019524606718,1.1712019524606718,1.1712019524606718,1.1712019524606718,1.1712019524606718,1.1712019524606718,1.1712019524606718,1.1712019524606718,1.1712019524606718,1.1712019524606718,1.1712019524606718,1.1712019524606718,1.1712019524606718,1.1712019524606718,1.1712019524606718,1.1712019524606718,1.1712019524606718,1.1712019524606718,1.1712019524606718,1.1712019524606718,1.1712019524606718,1.1712019524606718,1.1712019524606718,1.1712019524606718,1.1712019524606718,1.1712019524606718,1.1712019524606718,1.1712019524606718,1.1712019524606718,1.1712019524606718,1.1712019524606718,1.1712019524606718,1.1712019524606718,1.1712019524606718,1.1712019524606718,1.1712019524606718,1.1712019524606718,1.1712019524606718,1.1712019524606718,1.1712019524606718,1.1712019524606718,1.1712019524606718,1.1712019524606718,1.1712019524606718,1.1712019524606718,1.1712019524606718,1.1712019524606718,1.1712019524606718,1.1712019524606718,1.1712019524606718,1.1712019524606718,1.1712019524606718,1.1712019524606718,1.1712019524606718,1.1712019524606718,1.1712019524606718,1.1712019524606718,1.1712019524606718,1.1712019524606718,1.1712019524606718,1.1712019524606718,1.1712019524606718,1.1712019524606718,1.1712019524606718,1.1712019524606718,1.1712019524606718,1.1712019524606718,1.1712019524606718,1.1712019524606718,1.1712019524606718,1.1712019524606718,1.1712019524606718,1.1712019524606718,1.1712019524606718,1.1712019524606718,1.1712019524606718,1.1712019524606718,1.1712019524606718,1.1712019524606718,1.1712019524606718,1.1712019524606718,1.1712019524606718,1.1712019524606718,1.1712019524606718,1.1712019524606718,1.1712019524606718,1.1712019524606718,1.1712019524606718,1.1712019524606718,1.1712019524606718,1.1712019524606718,1.1712019524606718,1.1712019524606718,1.1712019524606718,1.1712019524606718,1.1712019524606718,1.1712019524606718,1.1712019524606718,1.1712019524606718,1.1712019524606718,1.1712019524606718,1.1712019524606718,1.1712019524606718,1.1712019524606718,1.1712019524606718,1.1712019524606718,1.1712019524606718,1.1712019524606718,1.1712019524606718,1.1712019524606718,1.1712019524606718,1.1712019524606718,1.1712019524606718,1.1712019524606718,1.1712019524606718,1.1712019524606718,1.1712019524606718,1.1712019524606718,1.1712019524606718,1.1712019524606718,1.1712019524606718,1.1712019524606718,1.1712019524606718,1.1712019524606718,1.1712019524606718,1.1712019524606718,1.1712019524606718,1.1712019524606718,1.1712019524606718,1.1712019524606718,1.1712019524606718,1.1712019524606718,1.1712019524606718,1.1712019524606718,1.1712019524606718,1.1712019524606718,1.1712019524606718,1.1712019524606718,1.1712019524606718,1.1712019524606718,1.1712019524606718,1.1712019524606718,1.1712019524606718,0.47052168035182823,0.44331079599808676,0.4195012721885629,0.40929719055590985,0.34807270075999147,0.29705229259672616,0.28004548987563777,0.22902508171237246,0.22562372116815477,0.2392291633450255,0.24943324497767858,0.2732427687872024,0.29365093205250853,0.3140590953178146,0.34807270075999147,0.38548766674638607,0.40589583001169216,0.4263039932769983,0.43990943545386907,0.4501135170865221,0.4535148776307398,0.4535148776307398,0.4535148776307398,0.4535148776307398,0.4535148776307398,0.4535148776307398,0.4535148776307398,0.4535148776307398,0.4535148776307398,0.4535148776307398,0.4535148776307398,0.4535148776307398,0.4535148776307398,0.4535148776307398,0.4535148776307398,0.4535148776307398,0.4535148776307398,0.46031759871917516,0.46031759871917516,0.46371895926339285,0.47052168035182823,0.4739230408960459,0.4875284830729167,0.49433120416135207,0.5283448096035289,0.5317461701477466,0.5521543334130528,0.5555556939572704,0.5623584150457058,0.5623584150457058,0.5657597755899235,0.5725624966783588,0.5725624966783588,0.5725624966783588,0.5725624966783588,0.5725624966783588,0.5725624966783588,0.5725624966783588,0.5725624966783588,0.5725624966783588,0.5725624966783588,0.5725624966783588,0.5725624966783588,0.5725624966783588,0.5725624966783588,0.5725624966783588,0.5725624966783588,0.5725624966783588,0.5725624966783588,0.5725624966783588,0.5725624966783588,0.5725624966783588,0.5725624966783588,0.5725624966783588,0.5725624966783588,0.5725624966783588,0.5725624966783588,0.5725624966783588,0.5725624966783588,0.5725624966783588,0.5725624966783588,0.5725624966783588,0.5725624966783588,0.5725624966783588,0.5725624966783588,0.5725624966783588,0.5725624966783588,0.5725624966783588,0.5725624966783588,0.5725624966783588,0.5725624966783588,0.5725624966783588,0.5827665783110119,0.5997733810321003,0.6099774626647534,0.6167801837531888,0.6235829048416242,0.6405897075627126,0.6746033130048894,0.6848073946375425,0.6848073946375425,0.6950114762701955,0.7018141973586309,0.7188210000797194,0.7528346055218963,0.7664400476987671,0.7698414082429847,0.77664412933142,0.77664412933142,0.77664412933142,0.77664412933142,0.77664412933142,0.77664412933142,0.77664412933142,0.77664412933142,0.77664412933142,0.77664412933142,0.7664400476987671,0.7630386871545494,0.756235966066114,0.7528346055218963,0.7460318844334609,0.7426305238892432,0.7426305238892432,0.7358278028008078,0.7358278028008078,0.7358278028008078,0.7358278028008078,0.7358278028008078,0.7358278028008078,0.7358278028008078,0.7358278028008078,0.7358278028008078,0.7358278028008078,0.7358278028008078,0.7358278028008078,0.7358278028008078,0.7358278028008078,0.7358278028008078,0.7358278028008078,0.7358278028008078,0.7358278028008078,0.7358278028008078,0.7358278028008078,0.7358278028008078,0.7358278028008078,0.7358278028008078,0.7358278028008078,0.7358278028008078,0.7358278028008078,0.7358278028008078,0.7358278028008078,0.7358278028008078,0.7358278028008078,0.7358278028008078,0.7358278028008078,0.7358278028008078,0.7358278028008078,0.7358278028008078,0.7358278028008078,0.7358278028008078,0.7358278028008078,0.7358278028008078,0.7358278028008078,0.7426305238892432,0.7800454898756377,0.7902495715082908,0.8038550136851615,0.8106577347735969,0.82086181640625,0.8412699796715561,0.8446713402157738,0.8446713402157738,0.8446713402157738,0.8480727007599915,0.8480727007599915,0.8548754218484269,0.8548754218484269,0.8582767823926446,0.8582767823926446,0.8582767823926446,0.8582767823926446,0.8582767823926446,0.8582767823926446,0.8582767823926446,0.8582767823926446,0.8582767823926446,0.8582767823926446,0.8582767823926446,0.8582767823926446,0.8582767823926446,0.8582767823926446,0.8582767823926446,0.8582767823926446,0.8582767823926446,0.8582767823926446,0.8582767823926446,0.8582767823926446,0.8582767823926446,0.8582767823926446,0.8582767823926446,0.8582767823926446,0.8582767823926446,0.8582767823926446,0.8582767823926446,0.8582767823926446,0.8582767823926446,0.8582767823926446,0.8582767823926446,0.8582767823926446,0.8582767823926446,0.8582767823926446,0.8582767823926446,0.8582767823926446,0.8582767823926446,0.8582767823926446,0.8582767823926446,0.8582767823926446,0.8582767823926446,0.8582767823926446,0.8582767823926446,0.8582767823926446,0.8582767823926446,0.8582767823926446,0.8582767823926446,0.8582767823926446,0.8582767823926446,0.8582767823926446,0.8582767823926446,0.8582767823926446,0.8582767823926446,0.8582767823926446,0.8752835851137329,0.8922903878348214,0.9331067143654337,0.9569162381749575,0.9705216803518283,1.0147393674266583,1.0351475306919642,1.048752972868835,1.0589570545014881,1.069161136134141,1.069161136134141,1.069161136134141,1.0793652177667943,1.0793652177667943,1.0793652177667943,1.0827665783110119,1.0895692993994472,1.0963720204878826,1.103174741576318,1.1065761021205358,1.1065761021205358,1.1065761021205358,1.1065761021205358,1.1065761021205358,1.1065761021205358,1.072562496678359,1.0351475306919642,1.0147393674266583,0.9807257619844812,0.9671203198076106,0.9433107959980868,0.8990931089232568,0.8582767823926446,0.8140590953178146,0.77664412933142,0.7358278028008078,0.7086169184470663,0.6678005919164541,0.6643992313722364,0.6643992313722364,0.6643992313722364,0.6643992313722364,0.6643992313722364,0.6643992313722364,0.6643992313722364,0.6643992313722364,0.6643992313722364,0.6643992313722364,0.6643992313722364,0.6643992313722364,0.6643992313722364,0.6643992313722364,0.6643992313722364,0.6643992313722364,0.6643992313722364,0.6643992313722364,0.6643992313722364,0.6643992313722364,0.6643992313722364,0.6643992313722364,0.6643992313722364,0.6643992313722364,0.6643992313722364,0.6439910681069303,0.5997733810321003,0.5759638572225765,0.5623584150457058,0.5623584150457058,0.5555556939572704,0.5419502517803997,0.5113380068824405,0.484127122528699,0.46031759871917516,0.43990943545386907,0.4365080749096514,0.429705353821216,0.429705353821216,0.429705353821216,0.429705353821216,0.429705353821216,0.429705353821216,0.429705353821216,0.429705353821216,0.39229038783482145,0.375283585113733,0.36167814293686223,0.34126997967155615,0.3140590953178146,0.29705229259672616,0.25623596606611393,0.2358278028008078,0.22562372116815477,0.1848073946375425,0.14399106810693027,0.1337869864742772,0.1337869864742772,0.12698426538584184,0.09977338103210034,0.0317461701477466,0.014739367426658163,0.001133925249787415,-0.009070156382865647,-0.019274238015518707,-0.03287968019238945,-0.03287968019238945,-0.03287968019238945,-0.03287968019238945,-0.02947831964817177,-0.02947831964817177,-0.02947831964817177,-0.02947831964817177,-0.02947831964817177,-0.02947831964817177,-0.02947831964817177,-0.02947831964817177,-0.02947831964817177,-0.02947831964817177,-0.02947831964817177,-0.022675598559736394,-0.022675598559736394,-0.022675598559736394,-0.019274238015518707,-0.019274238015518707,-0.012471516927083334,-0.009070156382865647,-0.009070156382865647,-0.009070156382865647,-0.002267435294430272,0.004535285794005102,0.024943449059311226,0.04875297286883504,0.0827665783110119,0.1099774626647534,0.1133788232089711,0.11678018375318877,0.11678018375318877,0.12698426538584184,0.12698426538584184,0.12698426538584184,0.1337869864742772,0.1371883470184949,0.14739242865114796,0.14739242865114796,0.14739242865114796,0.14739242865114796,0.14739242865114796,0.14739242865114796,0.14739242865114796,0.14739242865114796,0.14739242865114796,0.14739242865114796,0.14739242865114796,0.14739242865114796,0.14739242865114796,0.14739242865114796,0.14739242865114796,0.14739242865114796,0.14739242865114796,0.14739242865114796,0.14739242865114796,0.14739242865114796,0.14739242865114796,0.14739242865114796,0.14739242865114796,0.14739242865114796,0.14739242865114796,0.14739242865114796,0.14739242865114796,0.14739242865114796,0.14739242865114796,0.15079378919536565,0.16780059191645408,0.17120195246067177,0.18140603409332484,0.1848073946375425,0.20181419735863096,0.212018278991284,0.2154196395355017,0.21882100007971939,0.22902508171237246,0.2358278028008078,0.2392291633450255,0.24603188443346088,0.2596373266103316,0.2596373266103316,0.2596373266103316,0.2630386871545493,0.2630386871545493,0.2630386871545493,0.2630386871545493,0.2698414082429847,0.2698414082429847,0.2698414082429847,0.2732427687872024,0.28004548987563777,0.28004548987563777,0.28004548987563777,0.28004548987563777,0.28004548987563777,0.28004548987563777,0.28004548987563777,0.28004548987563777,0.28004548987563777,0.28004548987563777,0.28004548987563777,0.28004548987563777,0.28004548987563777,0.28004548987563777,0.28004548987563777,0.28004548987563777,0.28004548987563777,0.28004548987563777,0.28004548987563777,0.28004548987563777,0.28004548987563777,0.28004548987563777,0.28004548987563777,0.28004548987563777,0.28344685041985546,0.28344685041985546,0.29024957150829084,0.29365093205250853,0.29705229259672616,0.30385501368516155,0.30385501368516155,0.30725637422937924,0.3242631769504677,0.34126997967155615,0.375283585113733,0.40589583001169216,0.4195012721885629,0.429705353821216,0.43990943545386907,0.43990943545386907,0.43990943545386907,0.43990943545386907,0.43990943545386907,0.43990943545386907,0.43990943545386907,0.43990943545386907,0.43990943545386907,0.43990943545386907,0.43990943545386907,0.43990943545386907,0.43990943545386907,0.43990943545386907,0.43990943545386907,0.43990943545386907,0.43990943545386907,0.43990943545386907,0.43990943545386907,0.43990943545386907,0.43990943545386907,0.43990943545386907,0.43990943545386907,0.43990943545386907,0.43990943545386907,0.43990943545386907,0.43990943545386907,0.43990943545386907,0.43990943545386907,0.43990943545386907,0.43990943545386907,0.43990943545386907,0.43990943545386907,0.43990943545386907,0.43990943545386907,0.43990943545386907,0.43990943545386907,0.43990943545386907,0.43990943545386907,0.43990943545386907,0.43990943545386907,0.43990943545386907,0.43990943545386907,0.43990943545386907,0.43990943545386907,0.43990943545386907,0.43990943545386907,0.43990943545386907,0.43990943545386907,0.4365080749096514,0.429705353821216,0.4195012721885629,0.375283585113733,0.3310658980389031,0.3140590953178146,0.29705229259672616,0.28344685041985546,0.25623596606611393,0.2392291633450255,0.2154196395355017,0.20181419735863096,0.1916101157259779,0.1916101157259779,0.1848073946375425,0.1848073946375425,0.1848073946375425,0.1848073946375425,0.1848073946375425,0.1848073946375425,0.1848073946375425,0.1848073946375425,0.1848073946375425,0.1848073946375425,0.1848073946375425,0.1848073946375425,0.1848073946375425,0.1848073946375425,0.1916101157259779,0.20181419735863096,0.22562372116815477,0.22902508171237246,0.24943324497767858,0.25623596606611393,0.2596373266103316,0.2630386871545493,0.2732427687872024,0.29024957150829084,0.29024957150829084,0.29024957150829084,0.29024957150829084,0.29024957150829084,0.29024957150829084,0.29024957150829084,0.29024957150829084,0.29024957150829084,0.29024957150829084,0.2698414082429847,0.2596373266103316,0.24603188443346088,0.2392291633450255,0.2154196395355017,0.19501147627019558,0.16780059191645408,0.15759651028380103,0.15759651028380103,0.15759651028380103,0.15759651028380103,0.15759651028380103,0.15759651028380103,0.15759651028380103,0.15759651028380103,0.15759651028380103,0.15759651028380103,0.15759651028380103,0.15759651028380103,0.15759651028380103,0.15759651028380103,0.15759651028380103,0.15759651028380103,0.15759651028380103,0.15759651028380103,0.15759651028380103,0.15759651028380103,0.15759651028380103,0.15759651028380103,0.15759651028380103,0.15759651028380103,0.15759651028380103,0.15759651028380103,0.15759651028380103,0.15759651028380103,0.15759651028380103,0.15759651028380103,0.15759651028380103,0.17120195246067177,0.18140603409332484,0.20521555790284865,0.2154196395355017,0.21882100007971939,0.2392291633450255,0.24943324497767858,0.25623596606611393,0.2596373266103316,0.2596373266103316,0.2596373266103316,0.2596373266103316,0.2630386871545493,0.2630386871545493,0.2630386871545493,0.2630386871545493,0.2698414082429847,0.2698414082429847,0.2698414082429847,0.28004548987563777,0.28344685041985546,0.28344685041985546,0.28344685041985546,0.28344685041985546,0.28344685041985546,0.28344685041985546,0.28344685041985546,0.28344685041985546,0.28344685041985546,0.28344685041985546,0.28344685041985546,0.28344685041985546,0.28344685041985546,0.28344685041985546,0.28344685041985546,0.28344685041985546,0.28344685041985546,0.28344685041985546,0.28344685041985546,0.28344685041985546,0.28344685041985546,0.28344685041985546,0.28344685041985546,0.28344685041985546,0.28344685041985546,0.28344685041985546,0.28344685041985546,0.28344685041985546,0.28344685041985546,0.28344685041985546,0.28344685041985546,0.28344685041985546,0.28344685041985546,0.29024957150829084,0.3242631769504677,0.3276645374946854,0.34807270075999147,0.35827678239264454,0.375283585113733,0.40249446946747447,0.40589583001169216,0.4263039932769983,0.429705353821216,0.44331079599808676,0.4535148776307398,0.46371895926339285,0.46371895926339285,0.46371895926339285,0.46371895926339285,0.46371895926339285,0.46371895926339285,0.46371895926339285,0.46371895926339285,0.46371895926339285,0.46371895926339285,0.46371895926339285,0.46371895926339285,0.46371895926339285,0.46371895926339285,0.46371895926339285,0.46371895926339285,0.46371895926339285,0.46371895926339285,0.46371895926339285,0.46371895926339285,0.46371895926339285,0.46371895926339285,0.46371895926339285,0.46371895926339285,0.46371895926339285,0.46371895926339285,0.46371895926339285,0.46371895926339285,0.46371895926339285,0.46371895926339285,0.46371895926339285,0.46371895926339285,0.46371895926339285,0.46371895926339285,0.4739230408960459,0.4773244014402636,0.4977325647055697,0.5181407279708758,0.538548891236182,0.5555556939572704,0.5759638572225765,0.5861679388552296,0.5895692993994472,0.5895692993994472,0.5895692993994472,0.5963720204878826,0.5997733810321003,0.6099774626647534,0.6201815442974065,0.6303856259300595,0.6405897075627126,0.6541951497395834,0.6678005919164541,0.6882087551817602,0.712018278991284,0.7324264422565901,0.7426305238892432,0.7426305238892432,0.7426305238892432,0.7426305238892432,0.7426305238892432,0.7426305238892432,0.7426305238892432,0.7426305238892432,0.7426305238892432,0.7426305238892432,0.7358278028008078,0.6575965102838011,0.6235829048416242,0.6167801837531888,0.6167801837531888,0.6099774626647534,0.5963720204878826,0.5827665783110119,0.5725624966783588,0.5725624966783588,0.5725624966783588,0.5725624966783588,0.5725624966783588,0.5725624966783588,0.5725624966783588,0.5725624966783588,0.5725624966783588,0.5725624966783588,0.5725624966783588,0.5725624966783588,0.5725624966783588,0.5725624966783588,0.5725624966783588,0.5725624966783588,0.5725624966783588,0.5725624966783588,0.5725624966783588,0.5725624966783588,0.5725624966783588,0.5725624966783588,0.5725624966783588,0.5725624966783588,0.5725624966783588,0.5725624966783588,0.5725624966783588,0.5725624966783588,0.5725624966783588,0.5725624966783588,0.5725624966783588,0.5725624966783588,0.5725624966783588,0.5725624966783588,0.5861679388552296,0.5997733810321003,0.6099774626647534,0.6337869864742772,0.6439910681069303,0.6541951497395834,0.6848073946375425,0.6984128368144132,0.7290250817123725,0.7460318844334609,0.756235966066114,0.7630386871545494,0.7698414082429847,0.8004536531409439,0.8548754218484269,0.86507950348108,0.8922903878348214,0.9229026327327806,0.9331067143654337,0.9569162381749575,0.9773244014402636,0.994331204161352,1.0011339252497875,1.0147393674266583,1.038548891236182,1.092970659943665,1.103174741576318,1.1133788232089712,1.1235829048416242,1.1269842653858417,1.137188347018495,1.1405897075627125,1.1405897075627125,1.1405897075627125,1.1405897075627125,1.1405897075627125,1.1405897075627125,1.1405897075627125,1.1405897075627125,1.1405897075627125,1.1405897075627125,1.1405897075627125,1.1405897075627125,1.1405897075627125,1.1405897075627125,1.1405897075627125,1.1405897075627125,1.1405897075627125,1.1405897075627125,1.1405897075627125,1.1405897075627125,1.1405897075627125,1.1405897075627125,1.1405897075627125,1.1405897075627125,1.1405897075627125,1.1405897075627125,1.1405897075627125,1.1405897075627125,1.1405897075627125,1.1405897075627125,1.1405897075627125,1.1405897075627125,1.1405897075627125,1.1405897075627125,1.1405897075627125,1.1405897075627125,1.1405897075627125,1.1405897075627125,1.1405897075627125,1.1405897075627125,1.1405897075627125,1.1405897075627125,1.1405897075627125,1.1405897075627125,1.1405897075627125,1.1405897075627125,1.1473924286511479,1.1473924286511479,1.1473924286511479,1.1473924286511479,1.1473924286511479,1.1473924286511479,1.1473924286511479,1.1473924286511479,1.1473924286511479,1.1473924286511479,1.1473924286511479,1.1473924286511479,1.1473924286511479,1.1473924286511479,1.1473924286511479,1.1473924286511479,1.1473924286511479,1.1473924286511479,1.1473924286511479,1.1473924286511479,1.1473924286511479,1.1473924286511479,1.1473924286511479,1.1473924286511479,1.1473924286511479,1.1473924286511479,1.1473924286511479,1.1473924286511479,1.1473924286511479,1.1473924286511479,1.1473924286511479,1.1473924286511479,1.1473924286511479,1.1473924286511479,1.1473924286511479,1.1473924286511479,1.1473924286511479,1.1473924286511479,1.1473924286511479,1.1473924286511479,1.1473924286511479,1.1473924286511479,1.1473924286511479,1.1473924286511479,1.1473924286511479,1.1473924286511479,1.1473924286511479,1.1473924286511479,1.1473924286511479,1.1473924286511479,1.1473924286511479,1.1473924286511479,1.1473924286511479,1.1473924286511479,1.1473924286511479,1.1473924286511479,1.1473924286511479,1.1473924286511479,1.1473924286511479,1.1473924286511479,1.1473924286511479,1.1473924286511479,1.1473924286511479,1.1473924286511479,1.1473924286511479,1.1473924286511479,1.1473924286511479,1.201814197358631,1.2358278028008078,1.2358278028008078,1.1337869864742771,1.1269842653858417,1.1133788232089712,1.103174741576318,1.0963720204878826,1.092970659943665,1.092970659943665,1.092970659943665,1.0895692993994472,1.0895692993994472,1.0963720204878826,1.103174741576318,1.103174741576318,1.103174741576318,1.103174741576318,1.103174741576318,1.092970659943665,1.072562496678359,1.0589570545014881,1.048752972868835,1.038548891236182,1.038548891236182,1.0351475306919642,1.0215420885150934,1.0011339252497875,0.994331204161352,0.994331204161352,0.994331204161352,0.994331204161352,0.994331204161352,0.994331204161352,0.994331204161352,0.994331204161352,0.994331204161352,0.994331204161352,0.994331204161352,0.994331204161352,0.994331204161352,1.0283448096035288,1.1167801837531888,1.2256237211681547,1.40929719055591,1.5453516123246174,1.722222360623937,1.8344672585831208,1.9263039932769983,1.9467121565423045,1.9569162381749574,1.9569162381749574,1.9569162381749574,1.9569162381749574,1.9569162381749574,1.9569162381749574,1.9569162381749574,1.9569162381749574,1.9569162381749574,1.9569162381749574,1.9569162381749574,1.9569162381749574,1.9569162381749574,1.9569162381749574,1.9569162381749574,1.9569162381749574,1.9569162381749574,1.9569162381749574,1.9569162381749574,1.9569162381749574,1.9569162381749574,1.9569162381749574,1.9569162381749574,1.9569162381749574,1.9569162381749574,1.9569162381749574,1.9569162381749574,1.9569162381749574,1.9569162381749574,1.9569162381749574,1.9569162381749574,1.9569162381749574,1.9569162381749574,1.9569162381749574,1.9569162381749574,1.9569162381749574,1.9569162381749574,1.9569162381749574,1.9569162381749574,1.9569162381749574,1.9569162381749574,1.9569162381749574,1.9569162381749574,1.9569162381749574,1.9569162381749574,1.9569162381749574,1.9569162381749574,1.9569162381749574,1.9569162381749574,1.9569162381749574,1.9569162381749574,1.9569162381749574,1.9569162381749574,1.9569162381749574,1.9569162381749574,1.9569162381749574,1.9569162381749574,1.9569162381749574,1.9569162381749574,1.9569162381749574,1.9569162381749574,1.9569162381749574,1.9569162381749574,1.9569162381749574,1.9569162381749574,1.9569162381749574,1.9569162381749574,1.9569162381749574,1.9569162381749574,1.9569162381749574,1.9569162381749574,1.9569162381749574,1.9569162381749574,1.9569162381749574,1.9569162381749574,1.9569162381749574,1.9569162381749574,1.9569162381749574,1.9569162381749574,1.9569162381749574,1.9569162381749574,1.9569162381749574,1.9569162381749574,1.9569162381749574,1.9569162381749574,1.9569162381749574,1.9569162381749574,1.9569162381749574,1.9569162381749574,1.9569162381749574,1.9569162381749574,1.9569162381749574,1.9569162381749574,1.9569162381749574,1.9569162381749574,1.9569162381749574,1.9569162381749574],"y":[-14.285714285714286,-14.285714285714286,-14.285714285714286,-14.285714285714286,-14.285714285714286,-14.285714285714286,1.938095238095238,1.938095238095238,1.8714285714285714,1.8428571428571427,1.5380952380952382,1.223809523809524,0.6523809523809524,0.3,-1.1571428571428573,-1.4619047619047618,-1.8904761904761904,-1.9190476190476191,-1.9190476190476191,-1.9190476190476191,-1.8904761904761904,-1.7,-1.6047619047619048,-1.6047619047619048,-1.6047619047619048,-1.6047619047619048,-1.6047619047619048,-1.6047619047619048,-1.6047619047619048,-1.6047619047619048,-1.6047619047619048,-1.6047619047619048,-1.6047619047619048,-1.6047619047619048,-1.6047619047619048,-1.6047619047619048,-1.6047619047619048,-1.6047619047619048,-1.6047619047619048,-1.6047619047619048,-1.6047619047619048,-1.6047619047619048,-1.6047619047619048,-1.6047619047619048,-1.6047619047619048,-1.6047619047619048,-1.6047619047619048,-1.6047619047619048,-1.6047619047619048,-1.6047619047619048,-1.6047619047619048,-1.6047619047619048,-1.6047619047619048,-1.6047619047619048,-1.6047619047619048,-1.6047619047619048,-1.6047619047619048,-1.6047619047619048,-1.6047619047619048,-1.6047619047619048,-1.6047619047619048,-1.6047619047619048,-1.6047619047619048,-1.6047619047619048,-1.6047619047619048,-1.6047619047619048,-1.6047619047619048,-1.6047619047619048,-1.6047619047619048,-1.6047619047619048,-1.6047619047619048,-1.6047619047619048,-1.6047619047619048,-1.6047619047619048,-1.6047619047619048,-1.6047619047619048,-1.6047619047619048,-1.6047619047619048,-1.6047619047619048,-1.6047619047619048,-1.6047619047619048,-1.6047619047619048,-1.6047619047619048,-1.6047619047619048,-1.6047619047619048,-1.6047619047619048,-1.6047619047619048,-1.6047619047619048,-1.6047619047619048,-1.6047619047619048,-1.6047619047619048,-1.6047619047619048,-1.6047619047619048,-1.6047619047619048,-1.6047619047619048,-1.6047619047619048,-1.6047619047619048,-1.6047619047619048,-1.6047619047619048,-1.6047619047619048,-1.6047619047619048,-1.6047619047619048,-1.6047619047619048,-1.6047619047619048,-1.6047619047619048,-1.6047619047619048,-1.6047619047619048,-1.6047619047619048,-1.6047619047619048,-1.6047619047619048,-1.6047619047619048,-1.6047619047619048,-1.6047619047619048,-1.5857142857142856,-1.5857142857142856,-1.5857142857142856,-1.6047619047619048,-1.6047619047619048,-1.6047619047619048,-1.6047619047619048,-1.6047619047619048,-1.6047619047619048,-1.6047619047619048,-1.6047619047619048,-1.6047619047619048,-1.6047619047619048,-1.6047619047619048,-1.6047619047619048,-1.6047619047619048,-1.6047619047619048,-1.6047619047619048,-1.6047619047619048,-1.6047619047619048,-1.6047619047619048,-1.5857142857142856,-1.5857142857142856,-1.5857142857142856,-1.5857142857142856,-1.5857142857142856,-1.5857142857142856,-1.5857142857142856,-1.5857142857142856,-1.5857142857142856,-1.5857142857142856,-1.3666666666666667,-0.9857142857142858,-0.3,-0.1761904761904762,0.1761904761904762,0.3952380952380952,0.680952380952381,0.680952380952381,0.6333333333333333,0.5571428571428572,0.5095238095238095,0.5095238095238095,0.5095238095238095,0.5095238095238095,0.49047619047619045,0.44285714285714284,0.3476190476190476,0.15714285714285714,0.10952380952380952,0.08095238095238096,0.08095238095238096,0.08095238095238096,0.08095238095238096,0.08095238095238096,0.08095238095238096,0.06190476190476191,0.06190476190476191,0.06190476190476191,0.06190476190476191,0.06190476190476191,0.06190476190476191,0.06190476190476191,0.06190476190476191,0.06190476190476191,0.06190476190476191,0.06190476190476191,0.06190476190476191,0.06190476190476191,0.06190476190476191,0.06190476190476191,0.06190476190476191,0.06190476190476191,0.06190476190476191,0.06190476190476191,0.06190476190476191,0.06190476190476191,0.06190476190476191,0.06190476190476191,0.06190476190476191,0.06190476190476191,0.06190476190476191,0.06190476190476191,0.06190476190476191,0.06190476190476191,0.06190476190476191,0.08095238095238096,0.08095238095238096,0.08095238095238096,0.03333333333333333,-0.10952380952380952,-0.1761904761904762,-0.1761904761904762,-0.15714285714285714,-0.12857142857142856,-0.12857142857142856,-0.06190476190476191,-0.03333333333333333,-0.014285714285714285,-0.014285714285714285,-0.014285714285714285,-0.014285714285714285,0.08095238095238096,0.10952380952380952,0.10952380952380952,0.10952380952380952,0.03333333333333333,0.014285714285714285,0.014285714285714285,0.014285714285714285,0.014285714285714285,0.014285714285714285,0.014285714285714285,0.014285714285714285,0.014285714285714285,0.014285714285714285,0.014285714285714285,0.014285714285714285,0.014285714285714285,0.014285714285714285,0.014285714285714285,0.014285714285714285,0.014285714285714285,0.014285714285714285,0.014285714285714285,0.014285714285714285,0.014285714285714285,0.014285714285714285,0.014285714285714285,0.014285714285714285,0.014285714285714285,0.014285714285714285,0.014285714285714285,0.014285714285714285,0.014285714285714285,0.014285714285714285,0.014285714285714285,0.014285714285714285,0.014285714285714285,0.014285714285714285,0.06190476190476191,0.06190476190476191,0.06190476190476191,0.06190476190476191,0.03333333333333333,0.03333333333333333,0.03333333333333333,0.03333333333333333,0.03333333333333333,0.03333333333333333,0.03333333333333333,0.03333333333333333,0.03333333333333333,0.03333333333333333,0.03333333333333333,0.03333333333333333,0.03333333333333333,0.03333333333333333,0.03333333333333333,0.03333333333333333,0.03333333333333333,0.03333333333333333,0.03333333333333333,0.03333333333333333,0.03333