success,trial_type,trial_index,time_elapsed,internal_node_id,protocol_sum,subject_identifier,subject_sum,subject_pair,STUDY_ID,PROLIFIC_PID,SESSION_ID,practice_instructions,leaderboard_instructions,bonus,reveal_word,self_rating,confidence,view_history,rt,responses,question_order,correct,test_part,word,click_log,final_keyboard_state,num_clicks,points,cheat,response,position_RT,position,player,i_game,true_position,distance,last_word,stimulus,confidence_slider_self_response
1.0,fullscreen,0,2383,0.0-0.0,,133,"[58, 218, 146, 242, 139, 76, 237, 163, 133, 98, 235, 240, 71, 198, 255, 5, 64, 13, 76, 87, 35, 82, 161, 20, 46, 237, 254, 246, 125, 33, 230, 98]",66,669a702db1122fc5150a13ce,63d1650b103325686e22e3b7,669e8b2a275eb98ee6be581b,1,0,0,True,3,78,,,,,,,,,,,,,,,,,,,,,,
,instructions,1,6242,0.0-1.0,,133,"[58, 218, 146, 242, 139, 76, 237, 163, 133, 98, 235, 240, 71, 198, 255, 5, 64, 13, 76, 87, 35, 82, 161, 20, 46, 237, 254, 246, 125, 33, 230, 98]",66,669a702db1122fc5150a13ce,63d1650b103325686e22e3b7,669e8b2a275eb98ee6be581b,1,0,0,True,3,78,"[{""page_index"":0,""viewing_time"":3855.0999999940395}]",3855.7999999970198,,,,,,,,,,,,,,,,,,,,
,instructions,2,30524,0.0-2.0-0.0,,133,"[58, 218, 146, 242, 139, 76, 237, 163, 133, 98, 235, 240, 71, 198, 255, 5, 64, 13, 76, 87, 35, 82, 161, 20, 46, 237, 254, 246, 125, 33, 230, 98]",66,669a702db1122fc5150a13ce,63d1650b103325686e22e3b7,669e8b2a275eb98ee6be581b,1,0,0,True,3,78,"[{""page_index"":0,""viewing_time"":24277.79999999702}]",24278.79999999702,,,,,,,,,,,,,,,,,,,,
,survey-multi-choice,3,35856,0.0-2.0-1.0,,133,"[58, 218, 146, 242, 139, 76, 237, 163, 133, 98, 235, 240, 71, 198, 255, 5, 64, 13, 76, 87, 35, 82, 161, 20, 46, 237, 254, 246, 125, 33, 230, 98]",66,669a702db1122fc5150a13ce,63d1650b103325686e22e3b7,669e8b2a275eb98ee6be581b,1,0,0,True,3,78,,5323.0,"{""Q0"":""... reveal the word with as <b>few letter guesses</b> as possible""}",[0],1.0,multichoice_nonpretend,,,,,,,,,,,,,,,,
,instructions,4,36901,0.0-3.0,,133,"[58, 218, 146, 242, 139, 76, 237, 163, 133, 98, 235, 240, 71, 198, 255, 5, 64, 13, 76, 87, 35, 82, 161, 20, 46, 237, 254, 246, 125, 33, 230, 98]",66,669a702db1122fc5150a13ce,63d1650b103325686e22e3b7,669e8b2a275eb98ee6be581b,1,0,0,True,3,78,"[{""page_index"":0,""viewing_time"":1039.9000000059605}]",1040.7000000029802,,,,,,,,,,,,,,,,,,,,
,Hangman,5,74209,0.0-4.0,,133,"[58, 218, 146, 242, 139, 76, 237, 163, 133, 98, 235, 240, 71, 198, 255, 5, 64, 13, 76, 87, 35, 82, 161, 20, 46, 237, 254, 246, 125, 33, 230, 98]",66,669a702db1122fc5150a13ce,63d1650b103325686e22e3b7,669e8b2a275eb98ee6be581b,1,0,0,True,3,78,,,,,,,ZEBRA,"{'letter': ['', 'T', 'S', 'E', 'B', 'L', 'M', 'O', 'P', 'R', 'D', 'C', 'A', 'Z'], 't': [0, 4713, 5875.70000000298, 7891.600000008941, 11798.5, 18077.90000000596, 21065.70000000298, 22052.29999999702, 22947.40000000596, 24568.40000000596, 30016, 31282.40000000596, 32646.90000000596, 35263.29999999702], 'hit': [None, 0, 0, 1, 1, 0, 0, 0, 0, 1, 0, 0, 1, 1], 'asked': ['', 'T', 'TS', 'TSE', 'TSEB', 'TSEBL', 'TSEBLM', 'TSEBLMO', 'TSEBLMOP', 'TSEBLMOPR', 'TSEBLMOPRD', 'TSEBLMOPRDC', 'TSEBLMOPRDCA', 'TSEBLMOPRDCAZ'], 'word_state': ['_____', '_____', '_____', '_E___', '_EB__', '_EB__', '_EB__', '_EB__', '_EB__', '_EBR_', '_EBR_', '_EBR_', '_EBRA', 'ZEBRA']}","['T', 'S', 'E', 'B', 'L', 'M', 'O', 'P', 'R', 'D', 'C', 'A', 'Z']",13.0,7.0,0.0,,,,,,,,,,
,instructions,6,88915,0.0-5.0,,133,"[58, 218, 146, 242, 139, 76, 237, 163, 133, 98, 235, 240, 71, 198, 255, 5, 64, 13, 76, 87, 35, 82, 161, 20, 46, 237, 254, 246, 125, 33, 230, 98]",66,669a702db1122fc5150a13ce,63d1650b103325686e22e3b7,669e8b2a275eb98ee6be581b,1,0,0,True,3,78,"[{""page_index"":0,""viewing_time"":1819.7999999970198},{""page_index"":1,""viewing_time"":12879.40000000596}]",14702.29999999702,,,,,,,,,,,,,,,,,,,,
,survey-multi-choice,7,97284,0.0-6.0,,133,"[58, 218, 146, 242, 139, 76, 237, 163, 133, 98, 235, 240, 71, 198, 255, 5, 64, 13, 76, 87, 35, 82, 161, 20, 46, 237, 254, 246, 125, 33, 230, 98]",66,669a702db1122fc5150a13ce,63d1650b103325686e22e3b7,669e8b2a275eb98ee6be581b,1,0,0,True,3,78,,8360.90000000596,"{""Q0"":""...from <b>a previous session</b> that is part of the upcoming tournament.""}",[0],0.0,multichoice_leaderboard,,,,,,,,,,,,,,,,
,instructions,8,100125,0.0-7.0-0.0,,133,"[58, 218, 146, 242, 139, 76, 237, 163, 133, 98, 235, 240, 71, 198, 255, 5, 64, 13, 76, 87, 35, 82, 161, 20, 46, 237, 254, 246, 125, 33, 230, 98]",66,669a702db1122fc5150a13ce,63d1650b103325686e22e3b7,669e8b2a275eb98ee6be581b,1,0,0,True,3,78,"[{""page_index"":0,""viewing_time"":2834.5999999940395}]",2836.8999999910593,,,,,,,,,,,,,,,,,,,,
,survey-multi-choice,9,105337,0.0-7.0-1.0,,133,"[58, 218, 146, 242, 139, 76, 237, 163, 133, 98, 235, 240, 71, 198, 255, 5, 64, 13, 76, 87, 35, 82, 161, 20, 46, 237, 254, 246, 125, 33, 230, 98]",66,669a702db1122fc5150a13ce,63d1650b103325686e22e3b7,669e8b2a275eb98ee6be581b,1,0,0,True,3,78,,5205.70000000298,"{""Q0"":""...from <b>a previous session</b> that is part of the upcoming tournament.""}",[0],0.0,multichoice_leaderboard,,,,,,,,,,,,,,,,
,instructions,10,106712,0.0-7.1-0.1,,133,"[58, 218, 146, 242, 139, 76, 237, 163, 133, 98, 235, 240, 71, 198, 255, 5, 64, 13, 76, 87, 35, 82, 161, 20, 46, 237, 254, 246, 125, 33, 230, 98]",66,669a702db1122fc5150a13ce,63d1650b103325686e22e3b7,669e8b2a275eb98ee6be581b,1,0,0,True,3,78,"[{""page_index"":0,""viewing_time"":1367.1000000089407}]",1367.9000000059605,,,,,,,,,,,,,,,,,,,,
,survey-multi-choice,11,109573,0.0-7.1-1.1,,133,"[58, 218, 146, 242, 139, 76, 237, 163, 133, 98, 235, 240, 71, 198, 255, 5, 64, 13, 76, 87, 35, 82, 161, 20, 46, 237, 254, 246, 125, 33, 230, 98]",66,669a702db1122fc5150a13ce,63d1650b103325686e22e3b7,669e8b2a275eb98ee6be581b,1,0,0,True,3,78,,2856.1000000089407,"{""Q0"":""...from <b>a previous session</b> that is not part of the upcoming tournament.""}",[0],1.0,multichoice_leaderboard,,,,,,,,,,,,,,,,
,instructions,12,113655,0.0-8.0,,133,"[58, 218, 146, 242, 139, 76, 237, 163, 133, 98, 235, 240, 71, 198, 255, 5, 64, 13, 76, 87, 35, 82, 161, 20, 46, 237, 254, 246, 125, 33, 230, 98]",66,669a702db1122fc5150a13ce,63d1650b103325686e22e3b7,669e8b2a275eb98ee6be581b,1,0,0,True,3,78,"[{""page_index"":0,""viewing_time"":4080.2000000029802}]",4080.7000000029802,,,,,,,,,,,,,,,,,,,,
,survey-multi-choice,13,122512,0.0-9.0,,133,"[58, 218, 146, 242, 139, 76, 237, 163, 133, 98, 235, 240, 71, 198, 255, 5, 64, 13, 76, 87, 35, 82, 161, 20, 46, 237, 254, 246, 125, 33, 230, 98]",66,669a702db1122fc5150a13ce,63d1650b103325686e22e3b7,669e8b2a275eb98ee6be581b,1,0,0,True,3,78,,8853.90000000596,"{""Q0"":""...players' leaderboard position (in terms of <b>points</b>) in an <b>upcoming tournament.</b>""}",[0],1.0,multichoice_tournament,,,,,,,,,,,,,,,,
,instructions,14,126775,0.0-11.0,,133,"[58, 218, 146, 242, 139, 76, 237, 163, 133, 98, 235, 240, 71, 198, 255, 5, 64, 13, 76, 87, 35, 82, 161, 20, 46, 237, 254, 246, 125, 33, 230, 98]",66,669a702db1122fc5150a13ce,63d1650b103325686e22e3b7,669e8b2a275eb98ee6be581b,1,0,0,True,3,78,"[{""page_index"":0,""viewing_time"":4258.5}]",4259.5999999940395,,,,,,,,,,,,,,,,,,,,
,instructions,15,131928,0.0-12.0-0.0,,133,"[58, 218, 146, 242, 139, 76, 237, 163, 133, 98, 235, 240, 71, 198, 255, 5, 64, 13, 76, 87, 35, 82, 161, 20, 46, 237, 254, 246, 125, 33, 230, 98]",66,669a702db1122fc5150a13ce,63d1650b103325686e22e3b7,669e8b2a275eb98ee6be581b,1,0,0,True,3,78,"[{""page_index"":0,""viewing_time"":5149.4000000059605}]",5150.0,,,,,,,,,,,,,,,,,,,,
,type-this,16,139710,0.0-12.0-1.0,,133,"[58, 218, 146, 242, 139, 76, 237, 163, 133, 98, 235, 240, 71, 198, 255, 5, 64, 13, 76, 87, 35, 82, 161, 20, 46, 237, 254, 246, 125, 33, 230, 98]",66,669a702db1122fc5150a13ce,63d1650b103325686e22e3b7,669e8b2a275eb98ee6be581b,1,0,0,True,3,78,,7271.70000000298,['WRIST'],,,,,,,,,,WRIST,,,,,,,,,
,Hangman_replay,17,195756,0.0-12.0-2.0,,133,"[58, 218, 146, 242, 139, 76, 237, 163, 133, 98, 235, 240, 71, 198, 255, 5, 64, 13, 76, 87, 35, 82, 161, 20, 46, 237, 254, 246, 125, 33, 230, 98]",66,669a702db1122fc5150a13ce,63d1650b103325686e22e3b7,669e8b2a275eb98ee6be581b,1,0,0,True,3,78,,,,,,,WRIST,"{'letter': ['', 'T', 'O', 'A', 'E', 'S', 'I', 'W', 'R'], 't': [0, 8017.70000000298, 25866.40000000596, 28613.20000000298, 35189.90000000596, 38819, 44780.20000000298, 51377.70000000298, 54006.60000000894], 'hit': [None, 1, 0, 0, 0, 1, 1, 1, 1], 'asked': ['', 'T', 'TO', 'TOA', 'TOAE', 'TOAES', 'TOAESI', 'TOAESIW', 'TOAESIWR'], 'word_state': ['_____', '____T', '____T', '____T', '____T', '___ST', '__IST', 'W_IST', 'WRIST']}","['T', 'O', 'A', 'E', 'S', 'I', 'W', 'R']",8.0,12.0,0.0,,,,,,,,,,
,instructions,18,199555,0.0-12.0-3.0,,133,"[58, 218, 146, 242, 139, 76, 237, 163, 133, 98, 235, 240, 71, 198, 255, 5, 64, 13, 76, 87, 35, 82, 161, 20, 46, 237, 254, 246, 125, 33, 230, 98]",66,669a702db1122fc5150a13ce,63d1650b103325686e22e3b7,669e8b2a275eb98ee6be581b,1,0,0,True,3,78,"[{""page_index"":0,""viewing_time"":3795}]",3797.300000011921,,,,,,,,,,,,,,,,,,,,
,Guess_leaderboard,19,203679,0.0-12.0-4.0,,133,"[58, 218, 146, 242, 139, 76, 237, 163, 133, 98, 235, 240, 71, 198, 255, 5, 64, 13, 76, 87, 35, 82, 161, 20, 46, 237, 254, 246, 125, 33, 230, 98]",66,669a702db1122fc5150a13ce,63d1650b103325686e22e3b7,669e8b2a275eb98ee6be581b,1,0,0,True,3,78,,,,,,,WRIST,,,,,,,3343.5,22.0,36.0,0.0,87.0,65.0,,,
,instructions,20,205068,0.0-12.0-0.1,,133,"[58, 218, 146, 242, 139, 76, 237, 163, 133, 98, 235, 240, 71, 198, 255, 5, 64, 13, 76, 87, 35, 82, 161, 20, 46, 237, 254, 246, 125, 33, 230, 98]",66,669a702db1122fc5150a13ce,63d1650b103325686e22e3b7,669e8b2a275eb98ee6be581b,1,0,0,True,3,78,"[{""page_index"":0,""viewing_time"":1380.199999988079}]",1383.2999999970198,,,,,,,,,,,,,,,,,,,,
,type-this,21,211686,0.0-12.0-1.1,,133,"[58, 218, 146, 242, 139, 76, 237, 163, 133, 98, 235, 240, 71, 198, 255, 5, 64, 13, 76, 87, 35, 82, 161, 20, 46, 237, 254, 246, 125, 33, 230, 98]",66,669a702db1122fc5150a13ce,63d1650b103325686e22e3b7,669e8b2a275eb98ee6be581b,1,0,0,True,3,78,,6106.20000000298,['HAWAII'],,,,,,,,,,HAWAII,,,,,,,,,
,Hangman_replay,22,278477,0.0-12.0-2.1,,133,"[58, 218, 146, 242, 139, 76, 237, 163, 133, 98, 235, 240, 71, 198, 255, 5, 64, 13, 76, 87, 35, 82, 161, 20, 46, 237, 254, 246, 125, 33, 230, 98]",66,669a702db1122fc5150a13ce,63d1650b103325686e22e3b7,669e8b2a275eb98ee6be581b,1,0,0,True,3,78,,,,,,,HAWAII,"{'letter': ['', 'A', 'M', 'E', 'O', 'R', 'T', 'S', 'C', 'I', 'H', 'W'], 't': [0, 7149, 12826.20000000298, 26546.59999999404, 36354.59999999404, 38602.70000000298, 46544.09999999404, 48008.09999999404, 53952.89999999106, 61013.29999999702, 63545.39999999106, 64759.09999999404], 'hit': [None, 2, 0, 0, 0, 0, 0, 0, 0, 2, 1, 1], 'asked': ['', 'A', 'AM', 'AME', 'AMEO', 'AMEOR', 'AMEORT', 'AMEORTS', 'AMEORTSC', 'AMEORTSCI', 'AMEORTSCIH', 'AMEORTSCIHW'], 'word_state': ['______', '_A_A__', '_A_A__', '_A_A__', '_A_A__', '_A_A__', '_A_A__', '_A_A__', '_A_A__', '_A_AII', 'HA_AII', 'HAWAII']}","['A', 'M', 'E', 'O', 'R', 'T', 'S', 'C', 'I', 'H', 'W']",11.0,8.0,0.0,,,,,,,,,,
,instructions,23,280310,0.0-12.0-3.1,,133,"[58, 218, 146, 242, 139, 76, 237, 163, 133, 98, 235, 240, 71, 198, 255, 5, 64, 13, 76, 87, 35, 82, 161, 20, 46, 237, 254, 246, 125, 33, 230, 98]",66,669a702db1122fc5150a13ce,63d1650b103325686e22e3b7,669e8b2a275eb98ee6be581b,1,0,0,True,3,78,"[{""page_index"":0,""viewing_time"":1830.7000000029802}]",1832.2000000029802,,,,,,,,,,,,,,,,,,,,
,Guess_leaderboard,24,283666,0.0-12.0-4.1,,133,"[58, 218, 146, 242, 139, 76, 237, 163, 133, 98, 235, 240, 71, 198, 255, 5, 64, 13, 76, 87, 35, 82, 161, 20, 46, 237, 254, 246, 125, 33, 230, 98]",66,669a702db1122fc5150a13ce,63d1650b103325686e22e3b7,669e8b2a275eb98ee6be581b,1,0,0,True,3,78,,,,,,,HAWAII,,,,,,,2587.2999999970198,52.0,56.0,1.0,48.0,4.0,,,
,instructions,25,286929,0.0-12.0-0.2,,133,"[58, 218, 146, 242, 139, 76, 237, 163, 133, 98, 235, 240, 71, 198, 255, 5, 64, 13, 76, 87, 35, 82, 161, 20, 46, 237, 254, 246, 125, 33, 230, 98]",66,669a702db1122fc5150a13ce,63d1650b103325686e22e3b7,669e8b2a275eb98ee6be581b,1,0,0,True,3,78,"[{""page_index"":0,""viewing_time"":3257.7999999970198}]",3258.699999988079,,,,,,,,,,,,,,,,,,,,
,type-this,26,315322,0.0-12.0-1.2,,133,"[58, 218, 146, 242, 139, 76, 237, 163, 133, 98, 235, 240, 71, 198, 255, 5, 64, 13, 76, 87, 35, 82, 161, 20, 46, 237, 254, 246, 125, 33, 230, 98]",66,669a702db1122fc5150a13ce,63d1650b103325686e22e3b7,669e8b2a275eb98ee6be581b,1,0,0,True,3,78,,27878.90000000596,"['THIRTY', 'THIRTY FOUR']",,,,,,,,,,THIRTY FOUR,,,,,,,,,
,Hangman_replay,27,346310,0.0-12.0-2.2,,133,"[58, 218, 146, 242, 139, 76, 237, 163, 133, 98, 235, 240, 71, 198, 255, 5, 64, 13, 76, 87, 35, 82, 161, 20, 46, 237, 254, 246, 125, 33, 230, 98]",66,669a702db1122fc5150a13ce,63d1650b103325686e22e3b7,669e8b2a275eb98ee6be581b,1,0,0,True,3,78,,,,,,,THIRTY FOUR,"{'letter': ['', 'S', 'E', 'V', 'N', 'I', 'B', 'A', 'L', 'M', 'O', 'R', 'U', 'F', 'T', 'H', 'Y'], 't': [0, 5945.899999991059, 6544.79999999702, 7410.0999999940395, 8659.09999999404, 9492, 12190.79999999702, 12960.79999999702, 14037.699999988079, 14538.29999999702, 15436.199999988079, 19500, 22895, 23627.59999999404, 26757.89999999106, 28140.89999999106, 28955.39999999106], 'hit': [None, 0, 0, 0, 0, 1, 0, 0, 0, 0, 1, 2, 1, 1, 2, 1, 1], 'asked': ['', 'S', 'SE', 'SEV', 'SEVN', 'SEVNI', 'SEVNIB', 'SEVNIBA', 'SEVNIBAL', 'SEVNIBALM', 'SEVNIBALMO', 'SEVNIBALMOR', 'SEVNIBALMORU', 'SEVNIBALMORUF', 'SEVNIBALMORUFT', 'SEVNIBALMORUFTH', 'SEVNIBALMORUFTHY'], 'word_state': ['______ ____', '______ ____', '______ ____', '______ ____', '______ ____', '__I___ ____', '__I___ ____', '__I___ ____', '__I___ ____', '__I___ ____', '__I___ _O__', '__IR__ _O_R', '__IR__ _OUR', '__IR__ FOUR', 'T_IRT_ FOUR', 'THIRT_ FOUR', 'THIRTY FOUR']}","['S', 'E', 'V', 'N', 'I', 'B', 'A', 'L', 'M', 'O', 'R', 'U', 'F', 'T', 'H', 'Y']",16.0,7.0,0.0,,,,,,,,,,
,instructions,28,348450,0.0-12.0-3.2,,133,"[58, 218, 146, 242, 139, 76, 237, 163, 133, 98, 235, 240, 71, 198, 255, 5, 64, 13, 76, 87, 35, 82, 161, 20, 46, 237, 254, 246, 125, 33, 230, 98]",66,669a702db1122fc5150a13ce,63d1650b103325686e22e3b7,669e8b2a275eb98ee6be581b,1,0,0,True,3,78,"[{""page_index"":0,""viewing_time"":2137.2999999970198}]",2138.0,,,,,,,,,,,,,,,,,,,,
,Guess_leaderboard,29,351900,0.0-12.0-4.2,,133,"[58, 218, 146, 242, 139, 76, 237, 163, 133, 98, 235, 240, 71, 198, 255, 5, 64, 13, 76, 87, 35, 82, 161, 20, 46, 237, 254, 246, 125, 33, 230, 98]",66,669a702db1122fc5150a13ce,63d1650b103325686e22e3b7,669e8b2a275eb98ee6be581b,1,0,0,True,3,78,,,,,,,THIRTY FOUR,,,,,,,2679.2000000029802,13.0,91.0,2.0,89.0,76.0,,,
,instructions,30,353106,0.0-12.0-0.3,,133,"[58, 218, 146, 242, 139, 76, 237, 163, 133, 98, 235, 240, 71, 198, 255, 5, 64, 13, 76, 87, 35, 82, 161, 20, 46, 237, 254, 246, 125, 33, 230, 98]",66,669a702db1122fc5150a13ce,63d1650b103325686e22e3b7,669e8b2a275eb98ee6be581b,1,0,0,True,3,78,"[{""page_index"":0,""viewing_time"":1200}]",1201.5999999940395,,,,,,,,,,,,,,,,,,,,
,type-this,31,360823,0.0-12.0-1.3,,133,"[58, 218, 146, 242, 139, 76, 237, 163, 133, 98, 235, 240, 71, 198, 255, 5, 64, 13, 76, 87, 35, 82, 161, 20, 46, 237, 254, 246, 125, 33, 230, 98]",66,669a702db1122fc5150a13ce,63d1650b103325686e22e3b7,669e8b2a275eb98ee6be581b,1,0,0,True,3,78,,7205.79999999702,['USAIN BOLT'],,,,,,,,,,USAIN BOLT,,,,,,,,,
,Hangman_replay,32,382291,0.0-12.0-2.3,,133,"[58, 218, 146, 242, 139, 76, 237, 163, 133, 98, 235, 240, 71, 198, 255, 5, 64, 13, 76, 87, 35, 82, 161, 20, 46, 237, 254, 246, 125, 33, 230, 98]",66,669a702db1122fc5150a13ce,63d1650b103325686e22e3b7,669e8b2a275eb98ee6be581b,1,0,0,True,3,78,,,,,,,USAIN BOLT,"{'letter': ['', 'T', 'L', 'O', 'B', 'U', 'A', 'S', 'I', 'N'], 't': [0, 8501.79999999702, 9384.5, 10317.90000000596, 11365.59999999404, 13297, 14545.79999999702, 15511.70000000298, 17809.59999999404, 19441.09999999404], 'hit': [None, 1, 1, 1, 1, 1, 1, 1, 1, 1], 'asked': ['', 'T', 'TL', 'TLO', 'TLOB', 'TLOBU', 'TLOBUA', 'TLOBUAS', 'TLOBUASI', 'TLOBUASIN'], 'word_state': ['_____ ____', '_____ ___T', '_____ __LT', '_____ _OLT', '_____ BOLT', 'U____ BOLT', 'U_A__ BOLT', 'USA__ BOLT', 'USAI_ BOLT', 'USAIN BOLT']}","['T', 'L', 'O', 'B', 'U', 'A', 'S', 'I', 'N']",9.0,15.0,0.0,,,,,,,,,,
,instructions,33,383476,0.0-12.0-3.3,,133,"[58, 218, 146, 242, 139, 76, 237, 163, 133, 98, 235, 240, 71, 198, 255, 5, 64, 13, 76, 87, 35, 82, 161, 20, 46, 237, 254, 246, 125, 33, 230, 98]",66,669a702db1122fc5150a13ce,63d1650b103325686e22e3b7,669e8b2a275eb98ee6be581b,1,0,0,True,3,78,"[{""page_index"":0,""viewing_time"":1182.7999999970198}]",1183.9000000059605,,,,,,,,,,,,,,,,,,,,
,Guess_leaderboard,34,388231,0.0-12.0-4.3,,133,"[58, 218, 146, 242, 139, 76, 237, 163, 133, 98, 235, 240, 71, 198, 255, 5, 64, 13, 76, 87, 35, 82, 161, 20, 46, 237, 254, 246, 125, 33, 230, 98]",66,669a702db1122fc5150a13ce,63d1650b103325686e22e3b7,669e8b2a275eb98ee6be581b,1,0,0,True,3,78,,,,,,,USAIN BOLT,,,,,,,3984.4000000059605,4.0,93.0,3.0,1.0,3.0,,,
,instructions,35,389805,0.0-12.0-0.4,,133,"[58, 218, 146, 242, 139, 76, 237, 163, 133, 98, 235, 240, 71, 198, 255, 5, 64, 13, 76, 87, 35, 82, 161, 20, 46, 237, 254, 246, 125, 33, 230, 98]",66,669a702db1122fc5150a13ce,63d1650b103325686e22e3b7,669e8b2a275eb98ee6be581b,1,0,0,True,3,78,"[{""page_index"":0,""viewing_time"":1569.9000000059605}]",1570.7000000029802,,,,,,,,,,,,,,,,,,,,
,type-this,36,394532,0.0-12.0-1.4,,133,"[58, 218, 146, 242, 139, 76, 237, 163, 133, 98, 235, 240, 71, 198, 255, 5, 64, 13, 76, 87, 35, 82, 161, 20, 46, 237, 254, 246, 125, 33, 230, 98]",66,669a702db1122fc5150a13ce,63d1650b103325686e22e3b7,669e8b2a275eb98ee6be581b,1,0,0,True,3,78,,4218.4000000059605,['FIG'],,,,,,,,,,FIG,,,,,,,,,
,Hangman_replay,37,414627,0.0-12.0-2.4,,133,"[58, 218, 146, 242, 139, 76, 237, 163, 133, 98, 235, 240, 71, 198, 255, 5, 64, 13, 76, 87, 35, 82, 161, 20, 46, 237, 254, 246, 125, 33, 230, 98]",66,669a702db1122fc5150a13ce,63d1650b103325686e22e3b7,669e8b2a275eb98ee6be581b,1,0,0,True,3,78,,,,,,,FIG,"{'letter': ['', 'E', 'B', 'I', 'P', 'V', 'U', 'T', 'S', 'A', 'Y', 'X', 'G', 'F'], 't': [0, 4940.899999991059, 5906.70000000298, 7438.399999991059, 9986.39999999106, 11069.29999999702, 11651, 12534.29999999702, 13182.70000000298, 14067.39999999106, 14981.39999999106, 15484.89999999106, 16463.29999999702, 18062.39999999106], 'hit': [None, 0, 0, 1, 0, 0, 0, 0, 0, 0, 0, 0, 1, 1], 'asked': ['', 'E', 'EB', 'EBI', 'EBIP', 'EBIPV', 'EBIPVU', 'EBIPVUT', 'EBIPVUTS', 'EBIPVUTSA', 'EBIPVUTSAY', 'EBIPVUTSAYX', 'EBIPVUTSAYXG', 'EBIPVUTSAYXGF'], 'word_state': ['___', '___', '___', '_I_', '_I_', '_I_', '_I_', '_I_', '_I_', '_I_', '_I_', '_I_', '_IG', 'FIG']}","['E', 'B', 'I', 'P', 'V', 'U', 'T', 'S', 'A', 'Y', 'X', 'G', 'F']",13.0,5.0,0.0,,,,,,,,,,
,instructions,38,415721,0.0-12.0-3.4,,133,"[58, 218, 146, 242, 139, 76, 237, 163, 133, 98, 235, 240, 71, 198, 255, 5, 64, 13, 76, 87, 35, 82, 161, 20, 46, 237, 254, 246, 125, 33, 230, 98]",66,669a702db1122fc5150a13ce,63d1650b103325686e22e3b7,669e8b2a275eb98ee6be581b,1,0,0,True,3,78,"[{""page_index"":0,""viewing_time"":1091.0999999940395}]",1093.2999999970198,,,,,,,,,,,,,,,,,,,,
,Guess_leaderboard,39,417336,0.0-12.0-4.4,,133,"[58, 218, 146, 242, 139, 76, 237, 163, 133, 98, 235, 240, 71, 198, 255, 5, 64, 13, 76, 87, 35, 82, 161, 20, 46, 237, 254, 246, 125, 33, 230, 98]",66,669a702db1122fc5150a13ce,63d1650b103325686e22e3b7,669e8b2a275eb98ee6be581b,1,0,0,True,3,78,,,,,,,FIG,,,,,,,836.6000000089407,64.0,32.0,4.0,89.0,25.0,,,
,survey-text,40,423935,0.0-13.0,,133,"[58, 218, 146, 242, 139, 76, 237, 163, 133, 98, 235, 240, 71, 198, 255, 5, 64, 13, 76, 87, 35, 82, 161, 20, 46, 237, 254, 246, 125, 33, 230, 98]",66,669a702db1122fc5150a13ce,63d1650b103325686e22e3b7,669e8b2a275eb98ee6be581b,1,0,0,True,3,78,,6589.5999999940395,"{""Q0"":""FIG""}",,,,,,,,,,,,,,,,,fig,,
,survey-multi-choice,41,429028,0.0-14.0,,133,"[58, 218, 146, 242, 139, 76, 237, 163, 133, 98, 235, 240, 71, 198, 255, 5, 64, 13, 76, 87, 35, 82, 161, 20, 46, 237, 254, 246, 125, 33, 230, 98]",66,669a702db1122fc5150a13ce,63d1650b103325686e22e3b7,669e8b2a275eb98ee6be581b,1,0,0,True,3,78,,5085.600000008941,"{""Q0"":""3. I would be <b>third</b> out of the six of us.""}",[0],,self-rating,,,,,,,,,3.0,,,,,,,
,html-slider-response,42,431483,0.0-15.0,,133,"[58, 218, 146, 242, 139, 76, 237, 163, 133, 98, 235, 240, 71, 198, 255, 5, 64, 13, 76, 87, 35, 82, 161, 20, 46, 237, 254, 246, 125, 33, 230, 98]",66,669a702db1122fc5150a13ce,63d1650b103325686e22e3b7,669e8b2a275eb98ee6be581b,1,0,0,True,3,78,,2445.2000000029802,,,,,,,,,,,78,,,,,,,,"<p>Overall, how confident were you in your answer to this last question?</p>",78.0
,survey-text,43,463903,0.0-16.0,,133,"[58, 218, 146, 242, 139, 76, 237, 163, 133, 98, 235, 240, 71, 198, 255, 5, 64, 13, 76, 87, 35, 82, 161, 20, 46, 237, 254, 246, 125, 33, 230, 98]",66,669a702db1122fc5150a13ce,63d1650b103325686e22e3b7,669e8b2a275eb98ee6be581b,1,0,0,True,3,78,,32408.20000000298,"{""Q0"":""How well people judge others based off speed or accuracy?""}",,,,,,,,,,,,,,,,,,,
,survey-text,44,468021,0.0-17.0,,133,"[58, 218, 146, 242, 139, 76, 237, 163, 133, 98, 235, 240, 71, 198, 255, 5, 64, 13, 76, 87, 35, 82, 161, 20, 46, 237, 254, 246, 125, 33, 230, 98]",66,669a702db1122fc5150a13ce,63d1650b103325686e22e3b7,669e8b2a275eb98ee6be581b,1,0,0,True,3,78,,4110.0,"{""Q0"":""no""}",,,,,,,,,,,,,,,,,,,
,instructions,45,471477,0.0-18.0,,133,"[58, 218, 146, 242, 139, 76, 237, 163, 133, 98, 235, 240, 71, 198, 255, 5, 64, 13, 76, 87, 35, 82, 161, 20, 46, 237, 254, 246, 125, 33, 230, 98]",66,669a702db1122fc5150a13ce,63d1650b103325686e22e3b7,669e8b2a275eb98ee6be581b,1,0,0,True,3,78,"[{""page_index"":0,""viewing_time"":3452}]",3454.0,,,,,,,,,,,,,,,,,,,,
