[{"success":true,"trial_type":"fullscreen","trial_index":0,"time_elapsed":4625,"internal_node_id":"0.0-0.0","protocol_sum":"","subject_identifier":223,"subject_sum":[246,224,161,226,172,65,148,90,154,167,255,138,138,170,12,235,193,42,59,204,152,26,146,154,213,207,129,10,9,14,17,174],"subject_pair":111,"STUDY_ID":"669eec2e4270c76bc184a38e","PROLIFIC_PID":"65772daa307b28b9a9ec187f","SESSION_ID":"669fd415e9fb573a9a872b85","practice_instructions":1,"leaderboard_instructions":0,"bonus":0,"reveal_word":true,"self_rating":"4","confidence":"84"},{"view_history":"[{\"page_index\":0,\"viewing_time\":2188.300000011921}]","rt":2188.400000035763,"trial_type":"instructions","trial_index":1,"time_elapsed":6814,"internal_node_id":"0.0-1.0","protocol_sum":"","subject_identifier":223,"subject_sum":[246,224,161,226,172,65,148,90,154,167,255,138,138,170,12,235,193,42,59,204,152,26,146,154,213,207,129,10,9,14,17,174],"subject_pair":111,"STUDY_ID":"669eec2e4270c76bc184a38e","PROLIFIC_PID":"65772daa307b28b9a9ec187f","SESSION_ID":"669fd415e9fb573a9a872b85","practice_instructions":1,"leaderboard_instructions":0,"bonus":0,"reveal_word":true,"self_rating":"4","confidence":"84"},{"view_history":"[{\"page_index\":0,\"viewing_time\":9274.600000023842}]","rt":9274.699999988079,"trial_type":"instructions","trial_index":2,"time_elapsed":16089,"internal_node_id":"0.0-2.0-0.0","protocol_sum":"","subject_identifier":223,"subject_sum":[246,224,161,226,172,65,148,90,154,167,255,138,138,170,12,235,193,42,59,204,152,26,146,154,213,207,129,10,9,14,17,174],"subject_pair":111,"STUDY_ID":"669eec2e4270c76bc184a38e","PROLIFIC_PID":"65772daa307b28b9a9ec187f","SESSION_ID":"669fd415e9fb573a9a872b85","practice_instructions":1,"leaderboard_instructions":0,"bonus":0,"reveal_word":true,"self_rating":"4","confidence":"84"},{"rt":4988.300000011921,"responses":"{\"Q0\":\"... reveal the word with as <b>few letter guesses</b> as possible\"}","question_order":"[0]","trial_type":"survey-multi-choice","trial_index":3,"time_elapsed":21079,"internal_node_id":"0.0-2.0-1.0","protocol_sum":"","subject_identifier":223,"subject_sum":[246,224,161,226,172,65,148,90,154,167,255,138,138,170,12,235,193,42,59,204,152,26,146,154,213,207,129,10,9,14,17,174],"subject_pair":111,"correct":true,"test_part":"multichoice_nonpretend","STUDY_ID":"669eec2e4270c76bc184a38e","PROLIFIC_PID":"65772daa307b28b9a9ec187f","SESSION_ID":"669fd415e9fb573a9a872b85","practice_instructions":1,"leaderboard_instructions":0,"bonus":0,"reveal_word":true,"self_rating":"4","confidence":"84"},{"view_history":"[{\"page_index\":0,\"viewing_time\":1171.199999988079}]","rt":1171.300000011921,"trial_type":"instructions","trial_index":4,"time_elapsed":22250,"internal_node_id":"0.0-3.0","protocol_sum":"","subject_identifier":223,"subject_sum":[246,224,161,226,172,65,148,90,154,167,255,138,138,170,12,235,193,42,59,204,152,26,146,154,213,207,129,10,9,14,17,174],"subject_pair":111,"STUDY_ID":"669eec2e4270c76bc184a38e","PROLIFIC_PID":"65772daa307b28b9a9ec187f","SESSION_ID":"669fd415e9fb573a9a872b85","practice_instructions":1,"leaderboard_instructions":0,"bonus":0,"reveal_word":true,"self_rating":"4","confidence":"84"},{"word":"ZEBRA","click_log":{"letter":["","S","R","E","A","Z","B"],"t":[0,3636.300000011921,7677,11331.5,15811,19648,20923],"hit":[null,0,1,1,1,1,1],"asked":["","S","SR","SRE","SREA","SREAZ","SREAZB"],"word_state":["_____","_____","___R_","_E_R_","_E_RA","ZE_RA","ZEBRA"]},"hover_log":{"letter":["?","?","?","?","?","?","?","?","?","?","?","?","?","?","?","?","?","?","?","?","?","?","?","?","?","?","?","?","?","?","?","?","?","?","?","?","?","?","?","?","?","?","?","?","?","?","?","?","?","?","?","?","?","?","?","?","?","?","?","?","?","?","?","?","?","?","?","?","?","?","?","?","?","?","?","?","?","?","K","K","K","K","?","?","?","C","?","?","?","?","?","?","?","?","?","?","?","?","?","?","?","?","?","?","?","?","?","?","?","?","?","?","?","?","?","?","?","?","?","?","?","?","?","?","?","?","?","?","?","?","?","?","?","?","?","?","?","?","?","?","D","D","D","D","D","D","?","?","?","?","?","?","?","?","?","?","?","?","?","?","?","?","E","E","E","E","E","E","E","E","E","E","E","E","E","E","E","E","E","E","E","E","E","E","E","E","E","E","?","?","?","M","M","M","M","M","M","?","?","?","?","?","?","?","?","?","?","?","?","?","?","?","?","?","T","T","T","T","T","T","T","T","T","T","T","T","T","T","T","T","T","T","T","T","T","T","T","T","T","T","?","S","S","S","S","S","S","S","S","S","S","S","S","S","S","S","S","S","S","S","S","S","S","S","S","S","S","S","S","S","S","S","S","S","S","S","S","?","?","?","T","T","T","?","?","?","?","?","?","?","L","L","L","L","L","L","L","?","M","M","M","?","?","?","?","?","?","?","?","?","?","?","?","?","?","?","?","?","?","?","?","?","?","?","E","E","E","E","E","E","E","E","E","E","E","E","E","E","E","E","E","E","E","E","E","E","E","E","E","E","E","E","E","E","E","E","E","E","E","E","E","E","E","E","E","E","E","E","E","E","E","E","E","E","E","E","E","E","E","E","E","E","E","E","E","E","E","E","E","E","E","E","E","E","E","E","E","E","E","E","E","E","E","E","E","E","E","E","E","E","E","E","E","E","E","E","E","E","E","E","E","E","E","E","E","E","E","E","E","E","E","E","E","E","E","E","E","E","E","E","E","E","E","E","E","E","E","E","E","E","E","E","E","E","E","E","E","E","E","E","E","E","E","E","E","E","E","E","E","E","E","E","E","E","?","?","?","?","F","F","F","F","F","F","?","G","G","G","G","G","G","G","G","?","?","?","Q","Q","Q","?","R","R","R","?","?","?","?","?","?","?","?","?","?","?","?","?","?","?","?","?","?","?","?","?","?","?","?","?","R","R","R","R","R","R","R","R","R","R","R","R","R","R","R","R","R","R","R","R","R","R","R","R","R","R","R","R","R","R","R","R","R","R","R","R","R","R","R","R","R","R","R","R","R","R","R","R","R","R","R","R","R","R","R","R","R","R","R","R","R","R","R","R","R","R","R","R","R","R","R","R","R","R","R","R","R","R","R","R","R","R","R","R","R","R","R","R","R","R","R","R","R","R","R","R","R","R","R","R","R","R","R","R","R","R","R","R","R","R","R","R","R","R","R","R","R","R","R","R","R","R","R","R","R","R","R","R","R","R","R","R","R","R","R","R","R","R","R","R","R","R","R","R","R","R","R","R","R","R","R","R","R","R","R","R","R","R","R","R","R","R","R","R","R","R","R","?","?","?","?","?","?","?","?","?","?","?","?","?","?","?","?","?","?","?","?","?","?","?","?","Q","Q","Q","?","?","?","?","?","?","?","?","?","?","?","?","?","?","?","?","?","?","?","?","?","?","?","?","?","?","O","O","O","O","O","O","O","O","O","O","O","O","O","O","O","?","?","?","N","N","N","N","N","N","N","N","N","N","N","N","N","?","?","E","E","E","E","E","E","E","E","E","E","E","E","E","E","E","E","E","E","E","E","E","E","E","E","E","E","E","E","E","E","E","E","E","E","E","E","E","E","E","E","E","E","E","E","E","E","E","E","E","E","E","E","E","E","E","E","E","E","E","E","E","E","E","E","E","E","E","E","E","E","E","E","E","E","E","E","E","E","E","E","E","E","E","E","E","E","E","E","E","E","E","E","E","E","E","E","E","E","E","E","E","E","E","E","E","E","E","E","E","E","E","E","E","E","E","E","E","E","E","E","E","E","E","E","E","E","E","E","E","E","E","E","E","E","E","E","E","E","E","E","E","E","E","E","E","E","E","E","E","E","E","E","E","E","E","E","E","E","E","E","E","E","E","E","E","E","E","E","E","E","E","E","E","E","E","E","E","E","E","E","E","E","E","E","E","E","E","E","E","E","E","E","E","E","E","E","E","E","E","E","E","E","E","E","E","E","E","E","E","E","E","E","E","E","E","E","E","E","E","E","E","E","E","E","E","E","E","E","E","E","E","E","E","E","E","E","E","E","E","E","E","E","E","E","E","E","E","E","E","E","E","E","E","E","E","E","E","E","E","E","E","E","E","E","E","E","E","E","E","E","E","E","E","E","E","E","E","E","E","E","E","E","E","E","E","E","E","E","E","E","E","E","E","E","E","E","E","E","E","E","E","E","?","D","D","D","D","?","?","?","C","C","C","C","?","B","B","B","B","A","A","A","A","A","A","A","A","A","A","A","A","A","A","A","A","A","A","A","A","A","A","A","A","A","A","A","A","A","A","A","A","A","A","A","A","A","A","A","A","A","A","A","A","A","A","A","A","A","A","A","A","A","A","A","A","A","A","A","A","A","A","A","A","A","A","A","A","A","A","A","A","A","A","A","A","A","A","A","A","A","A","A","A","A","A","A","A","A","A","A","A","A","A","A","A","A","A","A","A","A","?","?","?","?","?","?","?","?","?","?","?","?","?","?","?","?","?","?","?","?","?","?","?","?","?","?","?","?","?","?","?","?","?","?","?","?","?","?","?","?","?","?","?","?","?","?","?","?","?","?","?","?","?","?","?","?","?","?","?","?","?","?","?","?","?","?","?","?","?","?","?","?","?","?","?","?","?","?","?","?","?","?","?","?","?","?","?","?","?","?","?","?","?","?","?","?","?","?","?","?","?","?","?","?","?","?","?","?","?","?","?","?","?","?","?","?","?","?","?","?","?","?","K","K","K","K","K","K","K","K","K","K","K","K","K","?","?","?","?","?","?","?","?","?","?","?","?","?","?","?","?","?","Y","Y","Y","Y","Y","Y","Y","Y","Y","Y","?","?","Z","Z","Z","Z","Z","Z","Z","Z","Z","Z","Z","Z","Z","Z","Z","Z","Z","Z","Z","Z","Z","Z","Z","Z","Z","Z","Z","Z","Z","Z","Z","Z","Z","Z","Z","Z","Z","Z","Z","Z","Z","Z","Z","Z","Z","Z","Z","Z","Z","Z","Z","Z","Z","Y","Y","X","?","W","W","?","?","?","?","?","?","L","L","L","L","L","L","L","L","L","L","?","?","?","?","?","?","?","?","?","?","?","?","?","?","?","?","?","?","?","?","?","?","?","?","?","?","?","?","?","?","?","?","?","?","?","?","?","?","C","C","C","C","C","C","?","?","?","?","?","B","B","B","B","B","B","B","B","B","B","B","B","B","B","B","B","B","B","B","B","B","B","B","B","B","B","B","B","B","B","B","B","B","B","B","B","B","B","B","B","B","B","B","B","B","B","B","B","B","B","B","B","B","B","B","B","B","?","?","?","?","L","L","L","M","M","?","?","?","?","?","?","?","?","?","?","X","X","X","X","X","X","X","X","X","X","X","X","X","X","X","X","X","X","X","X","X","X","X","X","X","X","X","X","X","X","X","X","X","X","X","X","X","X","X","X","X","X","X","X","X","X","X","X","X","X","X","X","X","X","X","X","W","U","?","?","?","?","?","?","?","?","?","?","?","?","?","?","?","?","?","?","?","?","?","?","?","?","?","?"],"t":[20,29,43,56,70,84,98,112,126,140,154,168,181,195,209,223,237,251,265,279,293,306,321,334,348,362,376,390,404,418,432,445,459,473,487,501,515,529,543,557,571,584,598,612,626,640,654,668,682,696,710,724,737,751,765,779,793,807,821,835,849,863,876,890,904,918,932,946,960,974,988,1002,1015,1029,1043,1058,1071,1085,1100,1113,1127,1141,1155,1168,1182,1196,1210,1224,1238,1252,1266,1280,1294,1308,1321,1335,1349,1363,1377,1391,1405,1419,1433,1447,1460,1474,1488,1503,1516,1530,1544,1558,1572,1586,1599,1613,1627,1641,1655,1669,1683,1697,1711,1725,1738,1752,1766,1780,1794,1808,1822,1836,1850,1864,1878,1891,1905,1919,1933,1947,1961,1975,1989,2003,2017,2030,2044,2058,2072,2086,2100,2114,2128,2142,2156,2169,2183,2197,2211,2225,2239,2253,2267,2281,2295,2309,2322,2336,2350,2364,2378,2392,2406,2420,2434,2447,2461,2475,2489,2503,2517,2531,2545,2559,2573,2587,2600,2614,2628,2642,2656,2670,2684,2698,2712,2726,2739,2753,2767,2781,2795,2809,2823,2837,2851,2864,2878,2892,2906,2920,2934,2948,2962,2976,2990,3004,3017,3031,3045,3059,3073,3087,3101,3115,3129,3143,3156,3170,3184,3198,3212,3226,3240,3254,3268,3282,3296,3309,3323,3337,3351,3365,3379,3393,3407,3421,3434,3448,3462,3476,3490,3504,3518,3532,3546,3560,3574,3588,3601,3615,3629,3643,3657,3671,3685,3699,3713,3727,3741,3754,3768,3782,3796,3810,3824,3838,3852,3866,3880,3893,3907,3921,3935,3949,3963,3977,3991,4005,4019,4032,4047,4060,4074,4088,4102,4116,4130,4144,4158,4171,4185,4199,4213,4227,4241,4255,4269,4283,4297,4311,4324,4338,4352,4366,4380,4394,4408,4422,4436,4450,4463,4477,4491,4505,4519,4533,4547,4561,4575,4588,4602,4616,4630,4644,4659,4672,4686,4700,4714,4728,4741,4755,4769,4783,4797,4811,4825,4839,4853,4867,4880,4894,4908,4922,4936,4950,4964,4978,4992,5006,5019,5034,5047,5061,5075,5089,5103,5117,5131,5145,5161,5172,5186,5200,5214,5228,5242,5256,5270,5284,5297,5311,5325,5339,5353,5367,5381,5395,5409,5423,5437,5450,5464,5478,5492,5506,5520,5534,5548,5562,5576,5590,5603,5617,5631,5645,5659,5673,5687,5701,5715,5729,5742,5756,5770,5784,5798,5812,5826,5840,5854,5867,5881,5895,5909,5923,5937,5951,5965,5979,5993,6006,6020,6034,6048,6062,6076,6090,6104,6118,6132,6146,6159,6173,6187,6201,6215,6229,6243,6257,6271,6285,6298,6312,6326,6340,6354,6368,6382,6396,6410,6424,6438,6451,6465,6479,6493,6507,6521,6535,6549,6563,6577,6590,6604,6618,6632,6646,6660,6674,6688,6702,6716,6729,6743,6758,6771,6785,6799,6813,6827,6841,6855,6869,6882,6896,6910,6924,6938,6952,6966,6980,6994,7008,7021,7035,7049,7063,7077,7091,7105,7119,7133,7147,7160,7174,7188,7202,7216,7230,7244,7258,7272,7286,7300,7313,7327,7341,7355,7369,7383,7397,7411,7425,7439,7452,7466,7480,7494,7508,7523,7536,7550,7564,7578,7591,7605,7619,7633,7647,7661,7675,7689,7703,7717,7730,7744,7758,7772,7786,7800,7814,7828,7842,7856,7870,7883,7897,7911,7925,7939,7953,7967,7981,7995,8009,8023,8036,8050,8064,8078,8092,8106,8120,8134,8148,8161,8175,8189,8203,8217,8231,8245,8259,8273,8287,8300,8315,8328,8342,8356,8370,8384,8398,8412,8426,8440,8453,8467,8481,8495,8509,8523,8537,8551,8565,8579,8592,8606,8620,8634,8648,8662,8676,8690,8704,8718,8732,8745,8759,8773,8787,8801,8815,8829,8843,8857,8870,8884,8898,8912,8926,8940,8954,8968,8982,8996,9010,9023,9037,9051,9065,9079,9093,9107,9121,9135,9149,9162,9176,9190,9204,9218,9232,9246,9260,9274,9288,9301,9315,9329,9343,9357,9371,9385,9399,9413,9427,9441,9454,9468,9482,9496,9510,9524,9538,9552,9566,9580,9593,9607,9621,9635,9649,9663,9677,9691,9705,9719,9732,9746,9760,9774,9788,9802,9816,9830,9844,9858,9872,9885,9899,9913,9927,9941,9955,9969,9983,9997,10011,10024,10038,10052,10066,10080,10094,10108,10122,10136,10150,10163,10177,10193,10205,10219,10233,10247,10261,10275,10289,10303,10316,10330,10344,10358,10372,10386,10400,10414,10428,10442,10455,10469,10483,10497,10511,10525,10539,10553,10567,10581,10594,10608,10622,10636,10650,10664,10678,10692,10706,10720,10734,10747,10761,10775,10789,10803,10817,10831,10845,10859,10872,10886,10900,10914,10928,10942,10956,10970,10984,10998,11012,11025,11039,11053,11067,11081,11095,11109,11123,11137,11151,11164,11178,11192,11206,11220,11234,11248,11262,11276,11290,11304,11317,11331,11345,11359,11373,11387,11401,11415,11429,11443,11456,11470,11484,11498,11512,11526,11540,11554,11568,11581,11596,11609,11623,11637,11651,11665,11679,11693,11707,11721,11734,11748,11762,11776,11790,11804,11818,11832,11846,11860,11874,11887,11901,11915,11929,11943,11957,11971,11985,11999,12013,12026,12040,12054,12068,12082,12096,12110,12124,12138,12152,12165,12179,12193,12207,12221,12235,12249,12263,12277,12291,12304,12318,12332,12346,12360,12374,12388,12402,12416,12430,12443,12457,12471,12485,12499,12513,12527,12541,12555,12569,12583,12597,12610,12624,12638,12652,12666,12680,12694,12708,12722,12735,12749,12763,12777,12791,12805,12819,12833,12847,12861,12875,12888,12902,12917,12930,12944,12958,12972,12986,13000,13014,13027,13041,13055,13069,13083,13097,13111,13125,13139,13153,13166,13180,13194,13210,13222,13236,13250,13264,13278,13292,13306,13319,13333,13347,13361,13375,13389,13403,13417,13431,13445,13459,13472,13486,13500,13514,13528,13542,13556,13570,13584,13597,13611,13625,13639,13653,13667,13681,13695,13709,13723,13737,13750,13764,13778,13792,13806,13820,13834,13848,13862,13876,13889,13903,13917,13931,13945,13959,13973,13987,14001,14015,14028,14042,14056,14070,14084,14098,14112,14126,14140,14154,14168,14181,14195,14209,14223,14237,14251,14265,14279,14293,14307,14320,14334,14348,14362,14376,14390,14404,14418,14432,14446,14459,14473,14487,14501,14515,14529,14543,14557,14571,14585,14598,14612,14626,14640,14654,14668,14682,14696,14710,14724,14737,14751,14765,14779,14793,14807,14821,14835,14849,14863,14877,14891,14904,14918,14932,14946,14960,14974,14988,15002,15016,15029,15043,15057,15071,15085,15099,15113,15127,15141,15155,15169,15182,15196,15210,15224,15238,15252,15266,15280,15294,15308,15321,15335,15349,15363,15377,15391,15405,15419,15433,15446,15460,15474,15488,15502,15516,15530,15544,15558,15572,15586,15599,15613,15627,15641,15655,15669,15683,15697,15711,15725,15739,15752,15766,15780,15794,15808,15822,15836,15850,15864,15878,15891,15905,15921,15933,15947,15961,15975,15989,16003,16017,16030,16044,16058,16072,16086,16100,16114,16128,16142,16156,16169,16183,16197,16211,16225,16239,16253,16267,16281,16295,16309,16322,16336,16350,16364,16378,16392,16406,16420,16434,16448,16461,16475,16489,16503,16517,16531,16545,16559,16573,16587,16601,16614,16628,16642,16656,16670,16684,16698,16712,16726,16740,16753,16767,16781,16795,16809,16823,16837,16851,16865,16879,16892,16906,16920,16934,16948,16962,16976,16990,17004,17018,17031,17045,17059,17073,17087,17101,17115,17129,17143,17157,17171,17184,17198,17212,17226,17240,17255,17268,17282,17296,17310,17323,17337,17351,17365,17379,17393,17407,17421,17435,17449,17462,17476,17490,17504,17518,17532,17546,17560,17574,17588,17602,17615,17629,17643,17657,17671,17685,17699,17713,17727,17741,17754,17768,17782,17796,17810,17824,17838,17852,17866,17880,17893,17907,17921,17935,17949,17963,17977,17991,18005,18019,18032,18046,18060,18074,18088,18102,18116,18130,18144,18158,18171,18185,18199,18213,18227,18242,18255,18269,18283,18297,18311,18324,18338,18352,18366,18380,18394,18408,18422,18436,18450,18463,18477,18491,18505,18519,18533,18547,18561,18575,18589,18603,18616,18630,18644,18658,18672,18686,18700,18714,18728,18742,18755,18769,18783,18797,18811,18825,18839,18853,18867,18881,18894,18908,18922,18936,18950,18964,18978,18992,19006,19020,19034,19047,19061,19075,19089,19103,19117,19131,19145,19159,19172,19186,19200,19214,19228,19242,19256,19270,19284,19298,19311,19325,19339,19353,19367,19381,19395,19409,19423,19437,19451,19464,19478,19492,19506,19520,19534,19548,19562,19576,19590,19603,19617,19631,19645,19659,19673,19687,19701,19715,19729,19742,19756,19770,19784,19798,19812,19826,19840,19854,19868,19881,19895,19909,19923,19937,19951,19965,19979,19993,20007,20021,20035,20048,20062,20076,20090,20104,20118,20132,20146,20160,20174,20188,20201,20215,20229,20243,20257,20271,20285,20299,20313,20327,20340,20354,20368,20382,20396,20410,20424,20438,20452,20466,20479,20493,20507,20521,20535,20549,20563,20577,20591,20605,20618,20632,20646,20660,20674,20688,20702,20716,20730,20743,20757,20771,20785,20799,20813,20827,20841,20855,20869,20883,20897,20910,20924,20938,20952,20966,20980,20994,21008,21022,21035,21049,21063,21077,21091,21105,21119,21133,21147,21160,21175,21188,21202,21216,21230,21244,21258,21272,21286,21300,21314,21328,21341,21355,21369,21383,21397,21411,21425,21439,21453,21467,21480,21494,21508,21522,21536,21550,21564,21578,21592,21605,21619,21633,21647,21661,21675,21689,21703,21717,21731,21745,21758,21772,21786,21800,21814,21828,21842,21856,21870,21884,21897,21911,21925,21939,21953,21967,21981,21995,22009,22023,22036,22050,22064,22078,22092,22106,22120,22134,22148,22162,22176,22189,22203,22217,22231,22245,22259,22273,22287,22301,22315,22329,22342,22356,22370,22384,22398,22412,22426,22440,22454,22467,22481,22495,22509,22523,22537,22551,22565,22579,22593,22606,22620,22634,22648,22662,22676,22690,22704,22718,22732,22745,22759,22773,22787,22801,22815,22829,22843,22857,22871,22885,22898,22912,22927],"hit":[null],"x":[-3.7823129251700682,-3.7823129251700682,-3.7823129251700682,-3.7823129251700682,-3.7823129251700682,-3.7823129251700682,-3.7823129251700682,-3.7823129251700682,-3.7823129251700682,-3.7823129251700682,-3.7823129251700682,-3.7823129251700682,-3.7823129251700682,-3.7823129251700682,-3.7823129251700682,-3.7823129251700682,-3.7823129251700682,-3.7823129251700682,-3.7823129251700682,-3.7823129251700682,-3.7823129251700682,-3.7823129251700682,-3.7823129251700682,-3.7823129251700682,-3.7823129251700682,-3.7823129251700682,-3.7823129251700682,-3.7823129251700682,-3.7823129251700682,-3.7823129251700682,-3.7823129251700682,-3.7823129251700682,-3.7823129251700682,-3.7823129251700682,-3.7823129251700682,-3.7823129251700682,-3.7823129251700682,-3.7823129251700682,-3.7823129251700682,-3.7823129251700682,-3.7823129251700682,-3.7823129251700682,-3.7823129251700682,-3.7823129251700682,-3.7823129251700682,-3.7823129251700682,-3.7823129251700682,-3.7823129251700682,-3.7823129251700682,-3.7823129251700682,-3.7823129251700682,-3.7823129251700682,-3.7823129251700682,-3.7823129251700682,-3.7823129251700682,-3.7823129251700682,-3.7823129251700682,-3.7823129251700682,-3.7823129251700682,-3.7823129251700682,-3.7823129251700682,-3.7823129251700682,-3.7823129251700682,-3.7823129251700682,-3.7823129251700682,-3.7823129251700682,-3.7823129251700682,-3.7823129251700682,-3.7823129251700682,-3.7823129251700682,-3.7823129251700682,-3.7823129251700682,-3.7823129251700682,-3.7823129251700682,-3.7823129251700682,0.03741496598639456,0.061224489795918366,0.10204081632653061,0.12585034013605442,0.1598639455782313,0.17687074829931973,0.1870748299319728,0.19047619047619047,0.20068027210884354,0.22448979591836735,0.25170068027210885,0.2857142857142857,0.30952380952380953,0.32653061224489793,0.336734693877551,0.3469387755102041,0.35374149659863946,0.36054421768707484,0.3673469387755102,0.3707482993197279,0.3741496598639456,0.3741496598639456,0.3741496598639456,0.3741496598639456,0.3741496598639456,0.3741496598639456,0.3741496598639456,0.3741496598639456,0.3741496598639456,0.3707482993197279,0.35714285714285715,0.35034013605442177,0.3469387755102041,0.336734693877551,0.32653061224489793,0.30612244897959184,0.2925170068027211,0.282312925170068,0.2789115646258503,0.2789115646258503,0.2789115646258503,0.2789115646258503,0.2789115646258503,0.2789115646258503,0.2789115646258503,0.2789115646258503,0.2789115646258503,0.2789115646258503,0.2789115646258503,0.2789115646258503,0.2789115646258503,0.2789115646258503,0.2857142857142857,0.29591836734693877,0.30952380952380953,0.3197278911564626,0.3333333333333333,0.3435374149659864,0.35034013605442177,0.35374149659863946,0.35714285714285715,0.36054421768707484,0.3741496598639456,0.4013605442176871,0.4217687074829932,0.4387755102040816,0.445578231292517,0.4523809523809524,0.4523809523809524,0.4557823129251701,0.47959183673469385,0.5102040816326531,0.5238095238095238,0.5340136054421769,0.5374149659863946,0.5374149659863946,0.5374149659863946,0.5374149659863946,0.5374149659863946,0.5374149659863946,0.5374149659863946,0.5374149659863946,0.5374149659863946,0.5374149659863946,0.5374149659863946,0.5374149659863946,0.5408163265306123,0.5510204081632653,0.5612244897959183,0.5714285714285714,0.5782312925170068,0.5782312925170068,0.5782312925170068,0.5782312925170068,0.5782312925170068,0.5782312925170068,0.5782312925170068,0.5782312925170068,0.5782312925170068,0.5782312925170068,0.5782312925170068,0.5782312925170068,0.5782312925170068,0.5782312925170068,0.5782312925170068,0.5782312925170068,0.5782312925170068,0.5782312925170068,0.5782312925170068,0.5680272108843537,0.5612244897959183,0.5544217687074829,0.54421768707483,0.5306122448979592,0.5136054421768708,0.48299319727891155,0.46258503401360546,0.445578231292517,0.43537414965986393,0.42517006802721086,0.41836734693877553,0.3945578231292517,0.37755102040816324,0.36394557823129253,0.35034013605442177,0.336734693877551,0.3231292517006803,0.2925170068027211,0.25170068027210885,0.22789115646258504,0.21768707482993196,0.20748299319727892,0.19727891156462585,0.1836734693877551,0.17346938775510204,0.16666666666666666,0.15306122448979592,0.14625850340136054,0.12585034013605442,0.11224489795918367,0.1054421768707483,0.1054421768707483,0.1054421768707483,0.1054421768707483,0.10204081632653061,0.10204081632653061,0.10204081632653061,0.10204081632653061,0.10204081632653061,0.10884353741496598,0.10884353741496598,0.10884353741496598,0.10884353741496598,0.10884353741496598,0.10884353741496598,0.10884353741496598,0.10884353741496598,0.10884353741496598,0.10884353741496598,0.10884353741496598,0.10884353741496598,0.10884353741496598,0.10884353741496598,0.10884353741496598,0.09183673469387756,0.07142857142857142,0.05442176870748299,0.047619047619047616,0.04081632653061224,0.03741496598639456,0.034013605442176874,0.030612244897959183,0.027210884353741496,0.027210884353741496,0.027210884353741496,0.027210884353741496,0.027210884353741496,0.027210884353741496,0.027210884353741496,0.027210884353741496,0.027210884353741496,0.027210884353741496,0.027210884353741496,0.027210884353741496,0.027210884353741496,0.027210884353741496,0.027210884353741496,0.027210884353741496,0.027210884353741496,0.027210884353741496,0.027210884353741496,0.030612244897959183,0.030612244897959183,0.034013605442176874,0.03741496598639456,0.03741496598639456,0.03741496598639456,0.03741496598639456,0.03741496598639456,0.03741496598639456,0.04421768707482993,0.047619047619047616,0.05782312925170068,0.06462585034013606,0.08163265306122448,0.10204081632653061,0.12585034013605442,0.14965986394557823,0.17687074829931973,0.20408163265306123,0.22108843537414966,0.22789115646258504,0.23129251700680273,0.23809523809523808,0.24489795918367346,0.2619047619047619,0.2755102040816326,0.29591836734693877,0.3163265306122449,0.3299319727891156,0.336734693877551,0.3435374149659864,0.35714285714285715,0.37755102040816324,0.4013605442176871,0.4217687074829932,0.4387755102040816,0.445578231292517,0.4489795918367347,0.4489795918367347,0.4523809523809524,0.45918367346938777,0.46258503401360546,0.46598639455782315,0.46938775510204084,0.47278911564625853,0.47619047619047616,0.47619047619047616,0.47619047619047616,0.47619047619047616,0.47619047619047616,0.47959183673469385,0.48639455782312924,0.4931972789115646,0.5034013605442177,0.5034013605442177,0.5068027210884354,0.5068027210884354,0.5102040816326531,0.5306122448979592,0.5510204081632653,0.5612244897959183,0.564625850340136,0.564625850340136,0.564625850340136,0.564625850340136,0.564625850340136,0.564625850340136,0.564625850340136,0.564625850340136,0.564625850340136,0.564625850340136,0.564625850340136,0.564625850340136,0.564625850340136,0.564625850340136,0.564625850340136,0.564625850340136,0.564625850340136,0.564625850340136,0.564625850340136,0.564625850340136,0.564625850340136,0.564625850340136,0.564625850340136,0.564625850340136,0.564625850340136,0.564625850340136,0.564625850340136,0.564625850340136,0.564625850340136,0.564625850340136,0.564625850340136,0.564625850340136,0.564625850340136,0.564625850340136,0.564625850340136,0.564625850340136,0.564625850340136,0.564625850340136,0.564625850340136,0.564625850340136,0.564625850340136,0.564625850340136,0.564625850340136,0.564625850340136,0.564625850340136,0.564625850340136,0.564625850340136,0.564625850340136,0.564625850340136,0.564625850340136,0.564625850340136,0.564625850340136,0.564625850340136,0.564625850340136,0.564625850340136,0.564625850340136,0.564625850340136,0.564625850340136,0.564625850340136,0.564625850340136,0.564625850340136,0.564625850340136,0.564625850340136,0.564625850340136,0.564625850340136,0.564625850340136,0.564625850340136,0.564625850340136,0.564625850340136,0.564625850340136,0.564625850340136,0.564625850340136,0.564625850340136,0.564625850340136,0.564625850340136,0.564625850340136,0.564625850340136,0.564625850340136,0.564625850340136,0.564625850340136,0.564625850340136,0.564625850340136,0.564625850340136,0.564625850340136,0.564625850340136,0.564625850340136,0.564625850340136,0.564625850340136,0.564625850340136,0.564625850340136,0.564625850340136,0.564625850340136,0.564625850340136,0.564625850340136,0.564625850340136,0.564625850340136,0.564625850340136,0.564625850340136,0.564625850340136,0.564625850340136,0.564625850340136,0.564625850340136,0.564625850340136,0.564625850340136,0.564625850340136,0.564625850340136,0.564625850340136,0.564625850340136,0.564625850340136,0.564625850340136,0.564625850340136,0.564625850340136,0.564625850340136,0.564625850340136,0.564625850340136,0.564625850340136,0.564625850340136,0.564625850340136,0.564625850340136,0.5680272108843537,0.5714285714285714,0.5850340136054422,0.5884353741496599,0.5884353741496599,0.5884353741496599,0.5884353741496599,0.5884353741496599,0.5884353741496599,0.5884353741496599,0.5884353741496599,0.5884353741496599,0.5884353741496599,0.5884353741496599,0.5884353741496599,0.5884353741496599,0.5918367346938775,0.5918367346938775,0.5918367346938775,0.5918367346938775,0.5918367346938775,0.5918367346938775,0.5918367346938775,0.5918367346938775,0.5918367346938775,0.5918367346938775,0.5952380952380952,0.6292517006802721,0.6394557823129252,0.6496598639455783,0.6530612244897959,0.6530612244897959,0.6666666666666666,0.6836734693877551,0.6938775510204082,0.7142857142857143,0.7312925170068028,0.7585034013605442,0.782312925170068,0.8027210884353742,0.8163265306122449,0.8197278911564626,0.8299319727891157,0.8333333333333334,0.8333333333333334,0.8333333333333334,0.8503401360544217,0.8877551020408163,0.9217687074829932,0.9591836734693877,0.9863945578231292,1.0170068027210883,1.0408163265306123,1.0680272108843538,1.098639455782313,1.1394557823129252,1.183673469387755,1.2074829931972788,1.2210884353741496,1.2210884353741496,1.2210884353741496,1.2210884353741496,1.2210884353741496,1.2210884353741496,1.2210884353741496,1.2210884353741496,1.2210884353741496,1.2210884353741496,1.2210884353741496,1.2210884353741496,1.2210884353741496,1.2210884353741496,1.2210884353741496,1.2210884353741496,1.2210884353741496,1.2210884353741496,1.2210884353741496,1.2142857142857142,1.2108843537414966,1.2108843537414966,1.2074829931972788,1.2040816326530612,1.1972789115646258,1.1904761904761905,1.1904761904761905,1.1870748299319729,1.1870748299319729,1.1870748299319729,1.1870748299319729,1.1870748299319729,1.1870748299319729,1.1870748299319729,1.1870748299319729,1.1870748299319729,1.1870748299319729,1.1870748299319729,1.183673469387755,1.1768707482993197,1.1700680272108843,1.1700680272108843,1.1666666666666667,1.1666666666666667,1.1666666666666667,1.1666666666666667,1.1666666666666667,1.1666666666666667,1.1666666666666667,1.1666666666666667,1.1666666666666667,1.1666666666666667,1.1666666666666667,1.1666666666666667,1.1666666666666667,1.1666666666666667,1.1666666666666667,1.1666666666666667,1.1666666666666667,1.1666666666666667,1.1666666666666667,1.1666666666666667,1.1666666666666667,1.1666666666666667,1.1666666666666667,1.1666666666666667,1.1666666666666667,1.1666666666666667,1.1666666666666667,1.1666666666666667,1.1666666666666667,1.1666666666666667,1.1666666666666667,1.1666666666666667,1.1666666666666667,1.1666666666666667,1.1666666666666667,1.1666666666666667,1.1666666666666667,1.1666666666666667,1.1666666666666667,1.1666666666666667,1.1666666666666667,1.1666666666666667,1.1666666666666667,1.1666666666666667,1.1666666666666667,1.1666666666666667,1.1666666666666667,1.1666666666666667,1.1666666666666667,1.1666666666666667,1.1666666666666667,1.1666666666666667,1.1666666666666667,1.1666666666666667,1.1666666666666667,1.1666666666666667,1.1666666666666667,1.1666666666666667,1.1666666666666667,1.1666666666666667,1.1666666666666667,1.1666666666666667,1.1666666666666667,1.1666666666666667,1.1666666666666667,1.1666666666666667,1.1666666666666667,1.1666666666666667,1.1666666666666667,1.1666666666666667,1.1666666666666667,1.1666666666666667,1.1666666666666667,1.1666666666666667,1.1666666666666667,1.1666666666666667,1.1666666666666667,1.1666666666666667,1.1666666666666667,1.1666666666666667,1.1666666666666667,1.1666666666666667,1.1666666666666667,1.1666666666666667,1.1666666666666667,1.1666666666666667,1.1666666666666667,1.1666666666666667,1.1666666666666667,1.1666666666666667,1.1666666666666667,1.1666666666666667,1.1666666666666667,1.1666666666666667,1.1666666666666667,1.1666666666666667,1.1666666666666667,1.1666666666666667,1.1666666666666667,1.1666666666666667,1.1666666666666667,1.1666666666666667,1.1666666666666667,1.1666666666666667,1.1666666666666667,1.1666666666666667,1.1666666666666667,1.1666666666666667,1.1666666666666667,1.1666666666666667,1.1666666666666667,1.1666666666666667,1.1666666666666667,1.163265306122449,1.163265306122449,1.1496598639455782,1.1394557823129252,1.1394557823129252,1.1394557823129252,1.1394557823129252,1.1394557823129252,1.1394557823129252,1.1394557823129252,1.1394557823129252,1.1394557823129252,1.1394557823129252,1.1394557823129252,1.1394557823129252,1.1394557823129252,1.1394557823129252,1.1394557823129252,1.1394557823129252,1.1360544217687074,1.1156462585034013,1.1054421768707483,1.1054421768707483,1.1054421768707483,1.1054421768707483,1.1054421768707483,1.1054421768707483,1.1054421768707483,1.1054421768707483,1.1054421768707483,1.1054421768707483,1.1054421768707483,1.1054421768707483,1.1054421768707483,1.1020408163265305,1.0918367346938775,1.0816326530612246,1.0782312925170068,1.0748299319727892,1.0714285714285714,1.0714285714285714,1.0714285714285714,1.0714285714285714,1.0714285714285714,1.0714285714285714,1.0680272108843538,1.0578231292517006,1.054421768707483,1.0510204081632653,1.0510204081632653,1.0510204081632653,1.0510204081632653,1.0510204081632653,1.0510204081632653,1.0510204081632653,1.0510204081632653,1.0510204081632653,1.0510204081632653,1.0510204081632653,1.0510204081632653,1.0408163265306123,1.010204081632653,0.9931972789115646,0.9795918367346939,0.9761904761904762,0.9761904761904762,0.9761904761904762,0.9761904761904762,0.9727891156462585,0.9659863945578231,0.9421768707482994,0.9217687074829932,0.9149659863945578,0.9115646258503401,0.9115646258503401,0.9013605442176871,0.8775510204081632,0.8537414965986394,0.8401360544217688,0.8299319727891157,0.8197278911564626,0.7925170068027211,0.7755102040816326,0.7721088435374149,0.7721088435374149,0.7721088435374149,0.7721088435374149,0.7687074829931972,0.7653061224489796,0.7585034013605442,0.7585034013605442,0.7585034013605442,0.7585034013605442,0.7585034013605442,0.7448979591836735,0.7210884353741497,0.7108843537414966,0.6972789115646258,0.6904761904761905,0.6836734693877551,0.6802721088435374,0.6802721088435374,0.6768707482993197,0.6632653061224489,0.6496598639455783,0.6394557823129252,0.6326530612244898,0.6224489795918368,0.6156462585034014,0.5986394557823129,0.5850340136054422,0.5714285714285714,0.5680272108843537,0.5680272108843537,0.564625850340136,0.564625850340136,0.564625850340136,0.564625850340136,0.5612244897959183,0.5612244897959183,0.5680272108843537,0.5816326530612245,0.5884353741496599,0.5918367346938775,0.5918367346938775,0.5918367346938775,0.5918367346938775,0.5918367346938775,0.5918367346938775,0.5918367346938775,0.5918367346938775,0.5884353741496599,0.5816326530612245,0.5782312925170068,0.5782312925170068,0.5782312925170068,0.5782312925170068,0.5782312925170068,0.5782312925170068,0.5782312925170068,0.5782312925170068,0.5782312925170068,0.5782312925170068,0.5782312925170068,0.5782312925170068,0.5782312925170068,0.5782312925170068,0.5782312925170068,0.5782312925170068,0.5782312925170068,0.5782312925170068,0.5782312925170068,0.5782312925170068,0.5782312925170068,0.5782312925170068,0.5782312925170068,0.5782312925170068,0.5782312925170068,0.5782312925170068,0.5782312925170068,0.5782312925170068,0.5782312925170068,0.5782312925170068,0.5782312925170068,0.5782312925170068,0.5782312925170068,0.5782312925170068,0.5782312925170068,0.5782312925170068,0.5782312925170068,0.5782312925170068,0.5782312925170068,0.5782312925170068,0.5782312925170068,0.5782312925170068,0.5782312925170068,0.5782312925170068,0.5782312925170068,0.5782312925170068,0.5782312925170068,0.5782312925170068,0.5782312925170068,0.5782312925170068,0.5782312925170068,0.5782312925170068,0.5782312925170068,0.5782312925170068,0.5782312925170068,0.5782312925170068,0.5782312925170068,0.5782312925170068,0.5782312925170068,0.5782312925170068,0.5782312925170068,0.5782312925170068,0.5782312925170068,0.5782312925170068,0.5782312925170068,0.5782312925170068,0.5782312925170068,0.5782312925170068,0.5782312925170068,0.5782312925170068,0.5782312925170068,0.5782312925170068,0.5782312925170068,0.5782312925170068,0.5782312925170068,0.5782312925170068,0.5782312925170068,0.5782312925170068,0.5782312925170068,0.5782312925170068,0.5782312925170068,0.5782312925170068,0.5782312925170068,0.5782312925170068,0.5782312925170068,0.5782312925170068,0.5782312925170068,0.5782312925170068,0.5782312925170068,0.5782312925170068,0.5782312925170068,0.5782312925170068,0.5782312925170068,0.5782312925170068,0.5782312925170068,0.5782312925170068,0.5782312925170068,0.5782312925170068,0.5782312925170068,0.5782312925170068,0.5782312925170068,0.5782312925170068,0.5782312925170068,0.5782312925170068,0.5782312925170068,0.5782312925170068,0.5782312925170068,0.5782312925170068,0.5782312925170068,0.5782312925170068,0.5782312925170068,0.5782312925170068,0.5782312925170068,0.5782312925170068,0.5782312925170068,0.5782312925170068,0.5782312925170068,0.5782312925170068,0.5782312925170068,0.5782312925170068,0.5782312925170068,0.5782312925170068,0.5782312925170068,0.5782312925170068,0.5782312925170068,0.5782312925170068,0.5782312925170068,0.5782312925170068,0.5782312925170068,0.5782312925170068,0.5782312925170068,0.5782312925170068,0.5782312925170068,0.5782312925170068,0.5782312925170068,0.5782312925170068,0.5782312925170068,0.5782312925170068,0.5782312925170068,0.5782312925170068,0.5782312925170068,0.5782312925170068,0.5782312925170068,0.5782312925170068,0.5782312925170068,0.5782312925170068,0.5782312925170068,0.5782312925170068,0.5782312925170068,0.5782312925170068,0.5782312925170068,0.5782312925170068,0.5782312925170068,0.5782312925170068,0.5782312925170068,0.5782312925170068,0.5782312925170068,0.5782312925170068,0.5782312925170068,0.5782312925170068,0.5782312925170068,0.5782312925170068,0.5782312925170068,0.5782312925170068,0.5782312925170068,0.5782312925170068,0.5782312925170068,0.5782312925170068,0.5782312925170068,0.5782312925170068,0.5782312925170068,0.5782312925170068,0.5782312925170068,0.5782312925170068,0.5782312925170068,0.5782312925170068,0.5782312925170068,0.5782312925170068,0.5782312925170068,0.5782312925170068,0.5782312925170068,0.5782312925170068,0.5782312925170068,0.5782312925170068,0.5782312925170068,0.5782312925170068,0.5782312925170068,0.5782312925170068,0.5782312925170068,0.5782312925170068,0.5782312925170068,0.5782312925170068,0.5782312925170068,0.5782312925170068,0.5782312925170068,0.5782312925170068,0.5782312925170068,0.5782312925170068,0.5782312925170068,0.5782312925170068,0.5782312925170068,0.5782312925170068,0.5782312925170068,0.5782312925170068,0.5782312925170068,0.5782312925170068,0.5782312925170068,0.5782312925170068,0.5782312925170068,0.5782312925170068,0.5782312925170068,0.5782312925170068,0.5782312925170068,0.5782312925170068,0.5782312925170068,0.5782312925170068,0.5782312925170068,0.5782312925170068,0.5782312925170068,0.5782312925170068,0.5782312925170068,0.5782312925170068,0.5782312925170068,0.5782312925170068,0.5782312925170068,0.5782312925170068,0.5782312925170068,0.5782312925170068,0.5782312925170068,0.5782312925170068,0.5782312925170068,0.5782312925170068,0.5782312925170068,0.5782312925170068,0.5782312925170068,0.5782312925170068,0.5782312925170068,0.5782312925170068,0.5782312925170068,0.5782312925170068,0.5782312925170068,0.5782312925170068,0.5782312925170068,0.5782312925170068,0.5782312925170068,0.5782312925170068,0.5782312925170068,0.5782312925170068,0.5782312925170068,0.5782312925170068,0.5782312925170068,0.5782312925170068,0.5782312925170068,0.5782312925170068,0.5782312925170068,0.5782312925170068,0.5782312925170068,0.5782312925170068,0.5782312925170068,0.5782312925170068,0.5782312925170068,0.5782312925170068,0.5782312925170068,0.5782312925170068,0.5782312925170068,0.5782312925170068,0.5782312925170068,0.5782312925170068,0.5782312925170068,0.5782312925170068,0.5782312925170068,0.5782312925170068,0.5782312925170068,0.5782312925170068,0.5782312925170068,0.5782312925170068,0.5782312925170068,0.5782312925170068,0.5782312925170068,0.5782312925170068,0.5782312925170068,0.5782312925170068,0.5782312925170068,0.5782312925170068,0.5782312925170068,0.5782312925170068,0.5782312925170068,0.5782312925170068,0.5782312925170068,0.5782312925170068,0.5510204081632653,0.5034013605442177,0.46938775510204084,0.4387755102040816,0.40476190476190477,0.3707482993197279,0.36054421768707484,0.35714285714285715,0.35034013605442177,0.336734693877551,0.3163265306122449,0.2755102040816326,0.23809523809523808,0.21428571428571427,0.1870748299319728,0.1564625850340136,0.12244897959183673,0.08843537414965986,0.05442176870748299,0.013605442176870748,-0.006802721088435374,-0.017006802721088437,-0.02040816326530612,-0.02040816326530612,-0.02040816326530612,-0.02040816326530612,-0.02040816326530612,-0.02040816326530612,-0.02040816326530612,-0.02040816326530612,-0.02040816326530612,-0.02040816326530612,-0.017006802721088437,-0.013605442176870748,-0.01020408163265306,-0.01020408163265306,-0.006802721088435374,-0.003401360544217687,-0.003401360544217687,-0.003401360544217687,-0.003401360544217687,-0.003401360544217687,-0.003401360544217687,-0.003401360544217687,-0.003401360544217687,-0.003401360544217687,-0.003401360544217687,-0.003401360544217687,-0.003401360544217687,-0.003401360544217687,-0.003401360544217687,-0.003401360544217687,-0.003401360544217687,-0.003401360544217687,-0.003401360544217687,-0.003401360544217687,-0.003401360544217687,-0.003401360544217687,-0.003401360544217687,-0.003401360544217687,-0.003401360544217687,-0.003401360544217687,-0.003401360544217687,-0.003401360544217687,-0.003401360544217687,-0.003401360544217687,-0.003401360544217687,-0.003401360544217687,-0.003401360544217687,-0.003401360544217687,-0.003401360544217687,-0.003401360544217687,-0.003401360544217687,-0.003401360544217687,0,0.003401360544217687,0.01020408163265306,0.01020408163265306,0.013605442176870748,0.017006802721088437,0.017006802721088437,0.017006802721088437,0.02040816326530612,0.023809523809523808,0.023809523809523808,0.027210884353741496,0.030612244897959183,0.030612244897959183,0.034013605442176874,0.03741496598639456,0.03741496598639456,0.03741496598639456,0.04081632653061224,0.04081632653061224,0.04081632653061224,0.04081632653061224,0.04081632653061224,0.04421768707482993,0.04421768707482993,0.04421768707482993,0.04421768707482993,0.04421768707482993,0.04421768707482993,0.04421768707482993,0.04421768707482993,0.04421768707482993,0.04421768707482993,0.04421768707482993,0.047619047619047616,0.047619047619047616,0.05102040816326531,0.05102040816326531,0.05102040816326531,0.05102040816326531,0.05442176870748299,0.05442176870748299,0.05442176870748299,0.05782312925170068,0.05782312925170068,0.06462585034013606,0.06462585034013606,0.06802721088435375,0.06802721088435375,0.07142857142857142,0.07142857142857142,0.07142857142857142,0.07142857142857142,0.07142857142857142,0.07142857142857142,0.07142857142857142,0.07142857142857142,0.07142857142857142,0.07482993197278912,0.0782312925170068,0.0782312925170068,0.0782312925170068,0.0782312925170068,0.08163265306122448,0.08163265306122448,0.08163265306122448,0.08163265306122448,0.08503401360544217,0.08503401360544217,0.08503401360544217,0.08503401360544217,0.08503401360544217,0.08503401360544217,0.08503401360544217,0.08843537414965986,0.08843537414965986,0.08843537414965986,0.08843537414965986,0.08843537414965986,0.08843537414965986,0.08843537414965986,0.08843537414965986,0.09183673469387756,0.09183673469387756,0.09183673469387756,0.09183673469387756,0.09183673469387756,0.09183673469387756,0.09183673469387756,0.09183673469387756,0.09183673469387756,0.09523809523809523,0.09523809523809523,0.09523809523809523,0.09523809523809523,0.09523809523809523,0.09523809523809523,0.09523809523809523,0.09523809523809523,0.09863945578231292,0.09863945578231292,0.09863945578231292,0.09863945578231292,0.09863945578231292,0.09863945578231292,0.09863945578231292,0.10204081632653061,0.10204081632653061,0.1054421768707483,0.1054421768707483,0.10884353741496598,0.10884353741496598,0.10884353741496598,0.10884353741496598,0.10884353741496598,0.11224489795918367,0.11224489795918367,0.11224489795918367,0.11224489795918367,0.11224489795918367,0.11224489795918367,0.11224489795918367,0.11564625850340136,0.11564625850340136,0.11564625850340136,0.11564625850340136,0.11564625850340136,0.11564625850340136,0.11564625850340136,0.11904761904761904,0.11904761904761904,0.12244897959183673,0.12244897959183673,0.12244897959183673,0.12244897959183673,0.12244897959183673,0.12244897959183673,0.12244897959183673,0.12244897959183673,0.12244897959183673,0.12244897959183673,0.12244897959183673,0.12244897959183673,0.12244897959183673,0.12244897959183673,0.12244897959183673,0.12244897959183673,0.12244897959183673,0.12244897959183673,0.12244897959183673,0.12585034013605442,0.12585034013605442,0.12585034013605442,0.12585034013605442,0.1292517006802721,0.1292517006802721,0.1326530612244898,0.1360544217687075,0.1360544217687075,0.1360544217687075,0.13945578231292516,0.13945578231292516,0.14285714285714285,0.14625850340136054,0.14965986394557823,0.15306122448979592,0.15306122448979592,0.15306122448979592,0.15306122448979592,0.15306122448979592,0.15306122448979592,0.15306122448979592,0.14965986394557823,0.14625850340136054,0.14285714285714285,0.13945578231292516,0.1360544217687075,0.1360544217687075,0.1360544217687075,0.1564625850340136,0.18027210884353742,0.21428571428571427,0.23809523809523808,0.2653061224489796,0.3197278911564626,0.38095238095238093,0.4421768707482993,0.5,0.5408163265306123,0.5884353741496599,0.6360544217687075,0.6700680272108843,0.6972789115646258,0.7108843537414966,0.7312925170068028,0.7687074829931972,0.8027210884353742,0.8333333333333334,0.8571428571428571,0.8741496598639455,0.891156462585034,0.8945578231292517,0.8945578231292517,0.8945578231292517,0.8945578231292517,0.8945578231292517,0.8945578231292517,0.9183673469387755,0.9319727891156463,0.9455782312925171,0.9455782312925171,0.9455782312925171,0.9455782312925171,0.9455782312925171,0.9455782312925171,0.9455782312925171,0.9455782312925171,0.9455782312925171,0.9455782312925171,0.9455782312925171,0.9455782312925171,0.9455782312925171,0.9489795918367347,0.9625850340136054,0.9659863945578231,0.9659863945578231,0.9659863945578231,0.9659863945578231,0.9659863945578231,0.9659863945578231,0.9659863945578231,0.9659863945578231,0.9659863945578231,0.9659863945578231,0.9659863945578231,0.9659863945578231,0.9659863945578231,0.9659863945578231,0.9659863945578231,0.9659863945578231,0.9659863945578231,0.9659863945578231,0.9659863945578231,0.9659863945578231,0.9659863945578231,0.9659863945578231,0.9659863945578231,0.9659863945578231,0.9659863945578231,0.9659863945578231,0.9659863945578231,0.9659863945578231,0.9659863945578231,0.9659863945578231,0.9659863945578231,0.9659863945578231,0.9659863945578231,0.9659863945578231,0.9659863945578231,0.9727891156462585,0.9761904761904762,0.9761904761904762,0.9081632653061225,0.8095238095238095,0.7040816326530612,0.6292517006802721,0.5816326530612245,0.5544217687074829,0.5136054421768708,0.45918367346938777,0.41496598639455784,0.3877551020408163,0.3707482993197279,0.3469387755102041,0.3231292517006803,0.29931972789115646,0.282312925170068,0.2755102040816326,0.2755102040816326,0.2755102040816326,0.2755102040816326,0.2755102040816326,0.272108843537415,0.2619047619047619,0.25510204081632654,0.25510204081632654,0.25510204081632654,0.25510204081632654,0.25510204081632654,0.25510204081632654,0.25510204081632654,0.25510204081632654,0.25510204081632654,0.25510204081632654,0.25510204081632654,0.25510204081632654,0.2619047619047619,0.282312925170068,0.30272108843537415,0.3231292517006803,0.3333333333333333,0.336734693877551,0.3435374149659864,0.35714285714285715,0.3673469387755102,0.3741496598639456,0.3877551020408163,0.4013605442176871,0.40816326530612246,0.41496598639455784,0.41836734693877553,0.41836734693877553,0.41836734693877553,0.41836734693877553,0.41836734693877553,0.41836734693877553,0.41836734693877553,0.41836734693877553,0.41836734693877553,0.3877551020408163,0.36054421768707484,0.3333333333333333,0.30612244897959184,0.282312925170068,0.2619047619047619,0.24829931972789115,0.23809523809523808,0.23469387755102042,0.22448979591836735,0.21768707482993196,0.2108843537414966,0.2108843537414966,0.20408163265306123,0.19727891156462585,0.19047619047619047,0.17687074829931973,0.17006802721088435,0.1598639455782313,0.14965986394557823,0.14625850340136054,0.14285714285714285,0.1360544217687075,0.1292517006802721,0.12585034013605442,0.12585034013605442,0.12585034013605442,0.12585034013605442,0.12585034013605442,0.12585034013605442,0.12585034013605442,0.12585034013605442,0.12585034013605442,0.12585034013605442,0.12585034013605442,0.12585034013605442,0.12585034013605442,0.12585034013605442,0.12585034013605442,0.12585034013605442,0.12585034013605442,0.1292517006802721,0.1292517006802721,0.1326530612244898,0.1326530612244898,0.1326530612244898,0.1326530612244898,0.1326530612244898,0.1326530612244898,0.1326530612244898,0.1326530612244898,0.1326530612244898,0.1326530612244898,0.1326530612244898,0.1326530612244898,0.1360544217687075,0.1360544217687075,0.13945578231292516,0.13945578231292516,0.14285714285714285,0.14285714285714285,0.14625850340136054,0.14625850340136054,0.14965986394557823,0.15306122448979592,0.1598639455782313,0.16326530612244897,0.16666666666666666,0.16666666666666666,0.16666666666666666,0.17346938775510204,0.19387755102040816,0.20748299319727892,0.22448979591836735,0.24489795918367346,0.2653061224489796,0.282312925170068,0.3231292517006803,0.3741496598639456,0.43537414965986393,0.48299319727891155,0.5102040816326531,0.5238095238095238,0.54421768707483,0.5612244897959183,0.5816326530612245,0.6054421768707483,0.6292517006802721,0.6496598639455783,0.6632653061224489,0.6768707482993197,0.6768707482993197,0.6802721088435374,0.6836734693877551,0.6836734693877551,0.6870748299319728,0.6938775510204082,0.6972789115646258,0.7006802721088435,0.7040816326530612,0.7040816326530612,0.7040816326530612,0.7074829931972789,0.7108843537414966,0.7108843537414966,0.7108843537414966,0.7108843537414966,0.7108843537414966,0.7108843537414966,0.7108843537414966,0.7108843537414966,0.7108843537414966,0.7108843537414966,0.7108843537414966,0.7108843537414966,0.7108843537414966,0.7108843537414966,0.7108843537414966,0.7142857142857143,0.7244897959183674,0.7278911564625851,0.7278911564625851,0.7278911564625851,0.7278911564625851,0.7278911564625851,0.7278911564625851,0.7278911564625851,0.7278911564625851,0.7278911564625851,0.7278911564625851,0.7278911564625851,0.7278911564625851,0.7278911564625851,0.7278911564625851,0.7278911564625851,0.7278911564625851,0.7278911564625851,0.7278911564625851,0.7278911564625851,0.7278911564625851,0.7278911564625851,0.7278911564625851,0.7278911564625851,0.7278911564625851,0.7278911564625851,0.7040816326530612,0.5374149659863946,0.2925170068027211,0.08163265306122448,-0.09863945578231292,-0.2891156462585034,-0.4965986394557823,-0.6564625850340136,-0.7687074829931972,-0.8027210884353742,-0.8061224489795918,-0.8061224489795918,-0.8061224489795918,-0.8061224489795918,-0.8061224489795918,-0.8027210884353742,-0.7925170068027211,-0.7857142857142857,-0.7721088435374149,-0.7551020408163265,-0.7346938775510204,-0.7108843537414966,-0.6904761904761905,-0.673469387755102,-0.6598639455782312,-0.6496598639455783,-0.6394557823129252,-0.6292517006802721,-0.6224489795918368],"y":[-5.714285714285714,-5.714285714285714,-5.714285714285714,-5.714285714285714,-5.714285714285714,-5.714285714285714,-5.714285714285714,-5.714285714285714,-5.714285714285714,-5.714285714285714,-5.714285714285714,-5.714285714285714,-5.714285714285714,-5.714285714285714,-5.714285714285714,-5.714285714285714,-5.714285714285714,-5.714285714285714,-5.714285714285714,-5.714285714285714,-5.714285714285714,-5.714285714285714,-5.714285714285714,-5.714285714285714,-5.714285714285714,-5.714285714285714,-5.714285714285714,-5.714285714285714,-5.714285714285714,-5.714285714285714,-5.714285714285714,-5.714285714285714,-5.714285714285714,-5.714285714285714,-5.714285714285714,-5.714285714285714,-5.714285714285714,-5.714285714285714,-5.714285714285714,-5.714285714285714,-5.714285714285714,-5.714285714285714,-5.714285714285714,-5.714285714285714,-5.714285714285714,-5.714285714285714,-5.714285714285714,-5.714285714285714,-5.714285714285714,-5.714285714285714,-5.714285714285714,-5.714285714285714,-5.714285714285714,-5.714285714285714,-5.714285714285714,-5.714285714285714,-5.714285714285714,-5.714285714285714,-5.714285714285714,-5.714285714285714,-5.714285714285714,-5.714285714285714,-5.714285714285714,-5.714285714285714,-5.714285714285714,-5.714285714285714,-5.714285714285714,-5.714285714285714,-5.714285714285714,-5.714285714285714,-5.714285714285714,-5.714285714285714,-5.714285714285714,-5.714285714285714,-5.714285714285714,0.8428571428571429,0.7666666666666667,0.6714285714285714,0.5952380952380952,0.48095238095238096,0.4142857142857143,0.3952380952380952,0.3761904761904762,0.3,0.15714285714285714,-0.03333333333333333,-0.28095238095238095,-0.5571428571428572,-0.8333333333333334,-1.0904761904761904,-1.3,-1.4714285714285715,-1.5952380952380953,-1.6904761904761905,-1.7476190476190476,-1.7952380952380953,-1.8142857142857143,-1.8142857142857143,-1.8238095238095238,-1.8333333333333333,-1.8333333333333333,-1.8333333333333333,-1.8333333333333333,-1.8333333333333333,-1.8523809523809525,-1.9,-1.9285714285714286,-1.957142857142857,-2.0047619047619047,-2.0904761904761906,-2.204761904761905,-2.280952380952381,-2.3380952380952382,-2.357142857142857,-2.3666666666666667,-2.3666666666666667,-2.3666666666666667,-2.3666666666666667,-2.3666666666666667,-2.3666666666666667,-2.3666666666666667,-2.3666666666666667,-2.3666666666666667,-2.3666666666666667,-2.3666666666666667,-2.3666666666666667,-2.3285714285714287,-2.204761904761905,-2.0238095238095237,-1.8047619047619048,-1.5666666666666667,-1.3476190476190477,-1.1761904761904762,-1.0809523809523809,-1.0238095238095237,-0.9380952380952381,-0.8428571428571429,-0.6523809523809524,-0.36666666666666664,-0.16666666666666666,-0.08095238095238096,-0.03333333333333333,-0.014285714285714285,-0.014285714285714285,-0.004761904761904762,0.05238095238095238,0.11904761904761904,0.15714285714285714,0.18571428571428572,0.18571428571428572,0.18571428571428572,0.18571428571428572,0.18571428571428572,0.18571428571428572,0.18571428571428572,0.18571428571428572,0.18571428571428572,0.18571428571428572,0.18571428571428572,0.18571428571428572,0.18571428571428572,0.16666666666666666,0.11904761904761904,0.07142857142857142,0.023809523809523808,-0.004761904761904762,-0.014285714285714285,-0.014285714285714285,-0.014285714285714285,-0.014285714285714285,-0.023809523809523808,-0.023809523809523808,-0.023809523809523808,-0.023809523809523808,-0.023809523809523808,-0.023809523809523808,-0.023809523809523808,-0.023809523809523808,-0.023809523809523808,-0.023809523809523808,-0.023809523809523808,-0.023809523809523808,-0.014285714285714285,0.023809523809523808,0.06190476190476191,0.08095238095238096,0.10952380952380952,0.14761904761904762,0.19523809523809524,0.2523809523809524,0.3476190476190476,0.4238095238095238,0.48095238095238096,0.5285714285714286,0.5476190476190477,0.5571428571428572,0.6142857142857143,0.6619047619047619,0.6904761904761905,0.7095238095238096,0.7285714285714285,0.7380952380952381,0.7476190476190476,0.7476190476190476,0.7571428571428571,0.7571428571428571,0.7571428571428571,0.7571428571428571,0.7571428571428571,0.7666666666666667,0.7666666666666667,0.7761904761904762,0.7952380952380952,0.8333333333333334,0.8904761904761904,0.8904761904761904,0.8904761904761904,0.8904761904761904,0.8904761904761904,0.9095238095238095,0.9095238095238095,0.9285714285714286,0.9476190476190476,0.9571428571428572,0.9666666666666667,0.9666666666666667,0.9666666666666667,0.9666666666666667,0.9761904761904762,0.9761904761904762,0.9761904761904762,0.9761904761904762,0.9761904761904762,0.9761904761904762,0.9761904761904762,0.9761904761904762,0.9761904761904762,0.9761904761904762,0.9761904761904762,0.9666666666666667,0.9571428571428572,0.9571428571428572,0.9476190476190476,0.9476190476190476,0.9476190476190476,0.9476190476190476,0.9380952380952381,0.9380952380952381,0.9380952380952381,0.9380952380952381,0.9380952380952381,0.9380952380952381,0.9380952380952381,0.9380952380952381,0.9380952380952381,0.9380952380952381,0.9380952380952381,0.9380952380952381,0.9380952380952381,0.9380952380952381,0.9380952380952381,0.9380952380952381,0.9380952380952381,0.9380952380952381,0.9380952380952381,0.9380952380952381,0.9380952380952381,0.9380952380952381,0.9380952380952381,0.9380952380952381,0.9380952380952381,0.9380952380952381,0.9380952380952381,0.9380952380952381,0.9380952380952381,0.9476190476190476,0.9476190476190476,0.9476190476190476,0.9476190476190476,0.9476190476190476,0.919047619047619,0.9,0.8428571428571429,0.7857142857142857,0.7285714285714285,0.6904761904761905,0.6714285714285714,0.6619047619047619,0.6523809523809524,0.6333333333333333,0.6238095238095238,0.6142857142857143,0.5857142857142857,0.5571428571428572,0.5380952380952381,0.5285714285714286,0.5095238095238095,0.49047619047619045,0.46190476190476193,0.40476190476190477,0.35714285714285715,0.319047619047619,0.3,0.2904761904761905,0.28095238095238095,0.2714285714285714,0.2523809523809524,0.24285714285714285,0.21428571428571427,0.20476190476190476,0.19523809523809524,0.1761904761904762,0.16666666666666666,0.16666666666666666,0.16666666666666666,0.16666666666666666,0.14761904761904762,0.11904761904761904,0.09047619047619047,0.08095238095238096,0.06190476190476191,0.06190476190476191,0.06190476190476191,0.05238095238095238,0.03333333333333333,-0.004761904761904762,-0.014285714285714285,-0.014285714285714285,-0.014285714285714285,-0.014285714285714285,-0.014285714285714285,-0.014285714285714285,-0.014285714285714285,-0.014285714285714285,-0.014285714285714285,-0.014285714285714285,-0.014285714285714285,-0.014285714285714285,-0.014285714285714285,-0.014285714285714285,-0.014285714285714285,-0.014285714285714285,-0.014285714285714285,-0.014285714285714285,-0.014285714285714285,-0.014285714285714285,-0.014285714285714285,-0.014285714285714285,-0.014285714285714285,-0.014285714285714285,-0.014285714285714285,-0.014285714285714285,-0.014285714285714285,-0.014285714285714285,-0.014285714285714285,-0.014285714285714285,-0.014285714285714285,-0.014285714285714285,-0.014285714285714285,-0.014285714285714285,-0.014285714285714285,-0.014285714285714285,-0.014285714285714285,-0.014285714285714285,-0.014285714285714285,-0.014285714285714285,-0.014285714285714285,-0.014285714285714285,-0.014285714285714285,-0.014285714285714285,-0.014285714285714285,-0.014285714285714285,-0.014285714285714285,-0.014285714285714285,-0.014285714285714285,-0.014285714285714285,-0.014285714285714285,-0.014285714285714285,-0.014285714285714285,-0.014285714285714285,-0.014285714285714285,-0.014285714285714285,-0.014285714285714285,-0.014285714285714285,-0.014285714285714285,-0.014285714285714285,-0.014285714285714285,-0.014285714285714285,-0.014285714285714285,-0.014285714285714285,-0.014285714285714285,-0.014285714285714285,-0.014285714285714285,-0.014285714285714285,-0.014285714285714285,-0.014285714285714285,-0.014285714285714285,-0.014285714285714285,-0.014285714285714285,-0.014285714285714285,-0.014285714285714285,-0.014285714285714285,-0.014285714285714285,-0.014285714285714285,-0.014285714285714285,-0.014285714285714285,-0.014285714285714285,-0.014285714285714285,-0.014285714285714285,-0.014285714285714285,-0.014285714285714285,-0.014285714285714285,-0.014285714285714285,-0.014285714285714285,-0.014285714285714285,-0.014285714285714285,-0.014285714285714285,-0.014285714285714285,-0.014285714285714285,-0.014285714285714285,-0.014285714285714285,-0.014285714285714285,-0.014285714285714285,-0.014285714285714285,-0.014285714285714285,-0.014285714285714285,-0.014285714285714285,-0.014285714285714285,-0.014285714285714285,-0.014285714285714285,-0.014285714285714285,-0.014285714285714285,-0.014285714285714285,-0.014285714285714285,-0.014285714285714285,-0.014285714285714285,-0.014285714285714285,-0.014285714285714285,-0.014285714285714285,-0.014285714285714285,-0.014285714285714285,-0.014285714285714285,-0.014285714285714285,-0.014285714285714285,-0.014285714285714285,-0.014285714285714285,-0.014285714285714285,-0.014285714285714285,-0.014285714285714285,-0.014285714285714285,-0.014285714285714285,-0.014285714285714285,-0.014285714285714285,-0.014285714285714285,-0.014285714285714285,-0.014285714285714285,-0.014285714285714285,-0.014285714285714285,-0.014285714285714285,-0.014285714285714285,-0.014285714285714285,-0.014285714285714285,-0.014285714285714285,-0.014285714285714285,-0.014285714285714285,-0.014285714285714285,-0.014285714285714285,-0.014285714285714285,-0.014285714285714285,-0.014285714285714285,-0.014285714285714285,-0.014285714285714285,-0.014285714285714285,-0.014285714285714285,-0.014285714285714285,-0.014285714285714285,-0.014285714285714285,-0.014285714285714285,-0.014285714285714285,-0.014285714285714285,-0.014285714285714285,-0.014285714285714285,-0.004761904761904762,0.004761904761904762,0.03333333333333333,0.05238095238095238,0.06190476190476191,0.07142857142857142,0.09047619047619047,0.09047619047619047,0.09047619047619047,0.09047619047619047,0.11904761904761904,0.19523809523809524,0.24285714285714285,0.30952380952380953,0.3476190476190476,0.38571428571428573,0.4142857142857143,0.43333333333333335,0.46190476190476193,0.5,0.5380952380952381,0.5476190476190477,0.5571428571428572,0.5571428571428572,0.5571428571428572,0.5571428571428572,0.5571428571428572,0.5571428571428572,0.5571428571428572,0.5571428571428572,0.5571428571428572,0.5571428571428572,0.5571428571428572,0.5571428571428572,0.5571428571428572,0.5571428571428572,0.5571428571428572,0.5571428571428572,0.5571428571428572,0.5571428571428572,0.5571428571428572,0.5476190476190477,0.5380952380952381,0.5380952380952381,0.5380952380952381,0.5285714285714286,0.5285714285714286,0.5190476190476191,0.5190476190476191,0.5190476190476191,0.5190476190476191,0.5190476190476191,0.5190476190476191,0.5190476190476191,0.5190476190476191,0.5190476190476191,0.5190476190476191,0.5190476190476191,0.5190476190476191,0.5190476190476191,0.5190476190476191,0.5190476190476191,0.5190476190476191,0.5190476190476191,0.5190476190476191,0.5190476190476191,0.5190476190476191,0.5190476190476191,0.5190476190476191,0.5190476190476191,0.5190476190476191,0.5285714285714286,0.5476190476190477,0.5476190476190477,0.5476190476190477,0.5476190476190477,0.5476190476190477,0.5476190476190477,0.5476190476190477,0.5476190476190477,0.5476190476190477,0.5476190476190477,0.5476190476190477,0.5476190476190477,0.5476190476190477,0.5476190476190477,0.5476190476190477,0.5476190476190477,0.5476190476190477,0.5476190476190477,0.5476190476190477,0.5476190476190477,0.5476190476190477,0.5476190476190477,0.5476190476190477,0.5476190476190477,0.5476190476190477,0.5476190476190477,0.5476190476190477,0.5476190476190477,0.5476190476190477,0.5476190476190477,0.5476190476190477,0.5476190476190477,0.5476190476190477,0.5476190476190477,0.5476190476190477,0.5476190476190477,0.5476190476190477,0.5476190476190477,0.5476190476190477,0.5476190476190477,0.5476190476190477,0.5476190476190477,0.5476190476190477,0.5476190476190477,0.5476190476190477,0.5476190476190477,0.5476190476190477,0.5476190476190477,0.5476190476190477,0.5476190476190477,0.5476190476190477,0.5476190476190477,0.5476190476190477,0.5476190476190477,0.5476190476190477,0.5476190476190477,0.5476190476190477,0.5476190476190477,0.5476190476190477,0.5476190476190477,0.5476190476190477,0.5476190476190477,0.5476190476190477,0.5476190476190477,0.5476190476190477,0.5476190476190477,0.5476190476190477,0.5476190476190477,0.5476190476190477,0.5476190476190477,0.5476190476190477,0.5476190476190477,0.5476190476190477,0.5476190476190477,0.5476190476190477,0.5476190476190477,0.5476190476190477,0.5476190476190477,0.5476190476190477,0.5476190476190477,0.5476190476190477,0.5476190476190477,0.5476190476190477,0.5476190476190477,0.5476190476190477,0.5476190476190477,0.5476190476190477,0.5476190476190477,0.5476190476190477,0.5476190476190477,0.5476190476190477,0.5476190476190477,0.5476190476190477,0.5476190476190477,0.5476190476190477,0.5476190476190477,0.5476190476190477,0.5476190476190477,0.5476190476190477,0.5476190476190477,0.5476190476190477,0.5476190476190477,0.5476190476190477,0.5476190476190477,0.5476190476190477,0.5476190476190477,0.5476190476190477,0.5476190476190477,0.5380952380952381,0.5380952380952381,0.5380952380952381,0.5380952380952381,0.5380952380952381,0.5380952380952381,0.5380952380952381,0.5380952380952381,0.5380952380952381,0.5380952380952381,0.5380952380952381,0.5380952380952381,0.5380952380952381,0.5380952380952381,0.5380952380952381,0.5380952380952381,0.5380952380952381,0.5380952380952381,0.5380952380952381,0.5380952380952381,0.5380952380952381,0.5380952380952381,0.5380952380952381,0.5380952380952381,0.5380952380952381,0.5380952380952381,0.5380952380952381,0.5380952380952381,0.5380952380952381,0.5380952380952381,0.5380952380952381,0.5380952380952381,0.5571428571428572,0.5666666666666667,0.5666666666666667,0.5666666666666667,0.5666666666666667,0.5666666666666667,0.5666666666666667,0.5666666666666667,0.5666666666666667,0.5761904761904761,0.5857142857142857,0.5952380952380952,0.6047619047619047,0.6047619047619047,0.6047619047619047,0.6047619047619047,0.6047619047619047,0.6047619047619047,0.6047619047619047,0.6047619047619047,0.6047619047619047,0.6047619047619047,0.6047619047619047,0.6047619047619047,0.6047619047619047,0.6142857142857143,0.6333333333333333,0.6523809523809524,0.6619047619047619,0.6619047619047619,0.6619047619047619,0.6619047619047619,0.6619047619047619,0.6619047619047619,0.6714285714285714,0.680952380952381,0.680952380952381,0.680952380952381,0.6904761904761905,0.6904761904761905,0.6904761904761905,0.6904761904761905,0.6904761904761905,0.6904761904761905,0.6904761904761905,0.6904761904761905,0.680952380952381,0.6619047619047619,0.6619047619047619,0.6619047619047619,0.6619047619047619,0.6619047619047619,0.6523809523809524,0.6333333333333333,0.6047619047619047,0.6047619047619047,0.6047619047619047,0.6047619047619047,0.6047619047619047,0.5857142857142857,0.5666666666666667,0.5571428571428572,0.5476190476190477,0.5380952380952381,0.5380952380952381,0.5380952380952381,0.5380952380952381,0.5380952380952381,0.5380952380952381,0.5476190476190477,0.5571428571428572,0.5571428571428572,0.5666666666666667,0.5666666666666667,0.5666666666666667,0.5666666666666667,0.5666666666666667,0.5666666666666667,0.5666666666666667,0.5666666666666667,0.5666666666666667,0.5666666666666667,0.5476190476190477,0.4714285714285714,0.40476190476190477,0.3,0.20476190476190476,0.14761904761904762,0.12857142857142856,0.12857142857142856,0.12857142857142856,0.12857142857142856,0.12857142857142856,0.12857142857142856,0.12857142857142856,0.12857142857142856,0.11904761904761904,0.09047619047619047,0.08095238095238096,0.08095238095238096,0.08095238095238096,0.08095238095238096,0.08095238095238096,0.08095238095238096,0.08095238095238096,0.08095238095238096,0.08095238095238096,0.08095238095238096,0.08095238095238096,0.08095238095238096,0.08095238095238096,0.08095238095238096,0.08095238095238096,0.08095238095238096,0.08095238095238096,0.08095238095238096,0.08095238095238096,0.08095238095238096,0.08095238095238096,0.08095238095238096,0.08095238095238096,0.08095238095238096,0.08095238095238096,0.08095238095238096,0.08095238095238096,0.08095238095238096,0.08095238095238096,0.08095238095238096,0.08095238095238096,0.08095238095238096,0.08095238095238096,0.08095238095238096,0.08095238095238096,0.08095238095238096,0.08095238095238096,0.08095238095238096,0.08095238095238096,0.08095238095238096,0.08095238095238096,0.08095238095238096,0.08095238095238096,0.08095238095238096,0.08095238095238096,0.08095238095238096,0.08095238095238096,0.08095238095238096,0.08095238095238096,0.08095238095238096,0.08095238095238096,0.08095238095238096,0.08095238095238096,0.08095238095238096,0.08095238095238096,0.08095238095238096,0.08095238095238096,0.08095238095238096,0.08095238095238096,0.08095238095238096,0.08095238095238096,0.08095238095238096,0.08095238095238096,0.08095238095238096,0.08095238095238096,0.08095238095238096,0.08095238095238096,0.08095238095238096,0.08095238095238096,0.08095238095238096,0.08095238095238096,0.08095238095238096,0.08095238095238096,0.08095238095238096,0.08095238095238096,0.08095238095238096,0.08095238095238096,0.08095238095238096,0.08095238095238096,0.08095238095238096,0.08095238095238096,0.08095238095238096,0.08095238095238096,0.08095238095238096,0.08095238095238096,0.08095238095238096,0.08095238095238096,0.08095238095238096,0.08095238095238096,0.08095238095238096,0.08095238095238096,0.08095238095238096,0.08095238095238096,0.08095238095238096,0.08095238095238096,0.08095238095238096,0.08095238095238096,0.08095238095238096,0.08095238095238096,0.08095238095238096,0.08095238095238096,0.08095238095238096,0.08095238095238096,0.08095238095238096,0.08095238095238096,0.08095238095238096,0.08095238095238096,0.08095238095238096,0.08095238095238096,0.08095238095238096,0.08095238095238096,0.08095238095238096,0.08095238095238096,0.08095238095238096,0.08095238095238096,0.08095238095238096,0.08095238095238096,0.08095238095238096,0.08095238095238096,0.08095238095238096,0.08095238095238096,0.08095238095238096,0.08095238095238096,0.08095238095238096,0.08095238095238096,0.08095238095238096,0.08095238095238096,0.08095238095238096,0.08095238095238096,0.08095238095238096,0.08095238095238096,0.08095238095238096,0.08095238095238096,0.08095238095238096,0.08095238095238096,0.08095238095238096,0.08095238095238096,0.08095238095238096,0.08095238095238096,0.08095238095238096,0.08095238095238096,0.08095238095238096,0.08095238095238096,0.08095238095238096,0.08095238095238096,0.08095238095238096,0.08095238095238096,0.08095238095238096,0.08095238095238096,0.08095238095238096,0.08095238095238096,0.08095238095238096,0.08095238095238096,0.08095238095238096,0.08095238095238096,0.08095238095238096,0.08095238095238096,0.08095238095238096,0.08095238095238096,0.08095238095238096,0.08095238095238096,0.08095238095238096,0.08095238095238096,0.08095238095238096,0.08095238095238096,0.08095238095238096,0.08095238095238096,0.08095238095238096,0.08095238095238096,0.08095238095238096,0.08095238095238096,0.08095238095238096,0.08095238095238096,0.08095238095238096,0.08095238095238096,0.08095238095238096,0.08095238095238096,0.08095238095238096,0.08095238095238096,0.08095238095238096,0.08095238095238096,0.08095238095238096,0.08095238095238096,0.08095238095238096,0.08095238095238096,0.08095238095238096,0.08095238095238096,0.08095238095238096,0.08095238095238096,0.08095238095238096,0.08095238095238096,0.08095238095238096,0.08095238095238096,0.08095238095238096,0.08095238095238096,0.08095238095238096,0.08095238095238096,0.08095238095238096,0.08095238095238096,0.08095238095238096,0.08095238095238096,0.08095238095238096,0.08095238095238096,0.08095238095238096,0.08095238095238096,0.08095238095238096,0.08095238095238096,0.08095238095238096,0.08095238095238096,0.08095238095238096,0.08095238095238096,0.08095238095238096,0.08095238095238096,0.08095238095238096,0.08095238095238096,0.08095238095238096,0.08095238095238096,0.08095238095238096,0.08095238095238096,0.08095238095238096,0.08095238095238096,0.08095238095238096,0.08095238095238096,0.08095238095238096,0.08095238095238096,0.08095238095238096,0.08095238095238096,0.08095238095238096,0.08095238095238096,0.08095238095238096,0.08095238095238096,0.08095238095238096,0.08095238095238096,0.08095238095238096,0.08095238095238096,0.08095238095238096,0.08095238095238096,0.08095238095238096,0.08095238095238096,0.08095238095238096,0.08095238095238096,0.08095238095238096,0.08095238095238096,0.08095238095238096,0.08095238095238096,0.08095238095238096,0.08095238095238096,0.08095238095238096,0.08095238095238096,0.08095238095238096,0.08095238095238096,0.08095238095238096,0.08095238095238096,0.08095238095238096,0.08095238095238096,0.08095238095238096,0.08095238095238096,0.08095238095238096,0.08095238095238096,0.08095238095238096,0.08095238095238096,0.08095238095238096,0.08095238095238096,0.08095238095238096,0.08095238095238096,0.08095238095238096,0.08095238095238096,0.08095238095238096,0.08095238095238096,0.08095238095238096,0.08095238095238096,0.08095238095238096,0.08095238095238096,0.08095238095238096,0.08095238095238096,0.08095238095238096,0.08095238095238096,0.08095238095238096,0.08095238095238096,0.08095238095238096,0.08095238095238096,0.08095238095238096,0.08095238095238096,0.08095238095238096,0.08095238095238096,0.08095238095238096,0.08095238095238096,0.08095238095238096,0.08095238095238096,0.08095238095238096,0.07142857142857142,0.06190476190476191,0.05238095238095238,0.03333333333333333,0.023809523809523808,0.023809523809523808,0.023809523809523808,0.014285714285714285,0.014285714285714285,0.014285714285714285,-0.004761904761904762,-0.014285714285714285,-0.023809523809523808,-0.03333333333333333,-0.03333333333333333,-0.03333333333333333,-0.04285714285714286,-0.04285714285714286,-0.04285714285714286,-0.04285714285714286,-0.04285714285714286,-0.04285714285714286,-0.04285714285714286,-0.04285714285714286,-0.04285714285714286,-0.04285714285714286,-0.04285714285714286,-0.04285714285714286,-0.04285714285714286,-0.05238095238095238,-0.05238095238095238,-0.05238095238095238,-0.05238095238095238,-0.05238095238095238,-0.05238095238095238,-0.05238095238095238,-0.05238095238095238,-0.05238095238095238,-0.05238095238095238,-0.05238095238095238,-0.05238095238095238,-0.05238095238095238,-0.05238095238095238,-0.05238095238095238,-0.05238095238095238,-0.05238095238095238,-0.05238095238095238,-0.05238095238095238,-0.05238095238095238,-0.05238095238095238,-0.05238095238095238,-0.05238095238095238,-0.05238095238095238,-0.05238095238095238,-0.05238095238095238,-0.05238095238095238,-0.05238095238095238,-0.05238095238095238,-0.05238095238095238,-0.05238095238095238,-0.05238095238095238,-0.05238095238095238,-0.05238095238095238,-0.05238095238095238,-0.05238095238095238,-0.05238095238095238,-0.05238095238095238,-0.05238095238095238,-0.05238095238095238,-0.05238095238095238,-0.05238095238095238,-0.05238095238095238,-0.05238095238095238,-0.05238095238095238,-0.04285714285714286,-0.04285714285714286,-0.04285714285714286,-0.04285714285714286,-0.04285714285714286,-0.04285714285714286,-0.04285714285714286,-0.04285714285714286,-0.03333333333333333,-0.03333333333333333,-0.03333333333333333,-0.03333333333333333,-0.03333333333333333,-0.03333333333333333,-0.03333333333333333,-0.03333333333333333,-0.03333333333333333,-0.03333333333333333,-0.03333333333333333,-0.03333333333333333,-0.023809523809523808,-0.023809523809523808,-0.023809523809523808,-0.014285714285714285,-0.014285714285714285,-0.014285714285714285,-0.014285714285714285,-0.014285714285714285,-0.014285714285714285,-0.014285714285714285,-0.014285714285714285,-0.004761904761904762,-0.004761904761904762,-0.004761904761904762,-0.004761904761904762,-0.004761904761904762,-0.004761904761904762,-0.004761904761904762,0.004761904761904762,0.004761904761904762,0.004761904761904762,0.004761904761904762,0.004761904761904762,0.004761904761904762,0.014285714285714285,0.023809523809523808,0.023809523809523808,0.03333333333333333,0.03333333333333333,0.04285714285714286,0.04285714285714286,0.04285714285714286,0.05238095238095238,0.05238095238095238,0.05238095238095238,0.06190476190476191,0.06190476190476191,0.06190476190476191,0.07142857142857142,0.07142857142857142,0.08095238095238096,0.08095238095238096,0.08095238095238096,0.09047619047619047,0.09047619047619047,0.09047619047619047,0.1,0.1,0.1,0.1,0.1,0.10952380952380952,0.10952380952380952,0.10952380952380952,0.11904761904761904,0.11904761904761904,0.11904761904761904,0.11904761904761904,0.12857142857142856,0.12857142857142856,0.12857142857142856,0.12857142857142856,0.1380952380952381,0.1380952380952381,0.1380952380952381,0.14761904761904762,0.14761904761904762,0.14761904761904762,0.14761904761904762,0.14761904761904762,0.14761904761904762,0.14761904761904762,0.15714285714285714,0.16666666666666666,0.16666666666666666,0.1761904761904762,0.1761904761904762,0.1761904761904762,0.1761904761904762,0.18571428571428572,0.19523809523809524,0.20476190476190476,0.20476190476190476,0.21428571428571427,0.21428571428571427,0.21428571428571427,0.22380952380952382,0.22380952380952382,0.22380952380952382,0.23333333333333334,0.24285714285714285,0.24285714285714285,0.24285714285714285,0.24285714285714285,0.24285714285714285,0.24285714285714285,0.24285714285714285,0.24285714285714285,0.24285714285714285,0.24285714285714285,0.24285714285714285,0.24285714285714285,0.2523809523809524,0.2523809523809524,0.2523809523809524,0.2523809523809524,0.2523809523809524,0.2619047619047619,0.2619047619047619,0.2619047619047619,0.2619047619047619,0.2619047619047619,0.2619047619047619,0.2619047619047619,0.2619047619047619,0.2619047619047619,0.2619047619047619,0.2619047619047619,0.2619047619047619,0.2619047619047619,0.2619047619047619,0.2619047619047619,0.2619047619047619,0.2619047619047619,0.2619047619047619,0.2619047619047619,0.2619047619047619,0.2619047619047619,0.2619047619047619,0.2619047619047619,0.2619047619047619,0.2714285714285714,0.2714285714285714,0.2714285714285714,0.2714285714285714,0.2714285714285714,0.2714285714285714,0.2714285714285714,0.2714285714285714,0.2714285714285714,0.2714285714285714,0.2714285714285714,0.28095238095238095,0.28095238095238095,0.28095238095238095,0.2904761904761905,0.30952380952380953,0.3380952380952381,0.3761904761904762,0.4238095238095238,0.43333333333333335,0.4523809523809524,0.46190476190476193,0.5,0.5380952380952381,0.5857142857142857,0.6142857142857143,0.6142857142857143,0.6238095238095238,0.6523809523809524,0.680952380952381,0.7095238095238096,0.719047619047619,0.7285714285714285,0.7380952380952381,0.7571428571428571,0.7571428571428571,0.7571428571428571,0.7571428571428571,0.7666666666666667,0.7857142857142857,0.8047619047619048,0.8142857142857143,0.8238095238095238,0.8333333333333334,0.8428571428571429,0.8523809523809524,0.8809523809523809,0.9,0.9095238095238095,0.919047619047619,0.919047619047619,0.919047619047619,0.919047619047619,0.919047619047619,0.919047619047619,0.919047619047619,0.9380952380952381,0.9571428571428572,0.9571428571428572,0.9666666666666667,0.9666666666666667,0.9666666666666667,0.9666666666666667,0.9666666666666667,0.9666666666666667,0.9666666666666667,0.9666666666666667,0.9666666666666667,0.9666666666666667,0.9666666666666667,0.9666666666666667,0.9666666666666667,0.9666666666666667,0.9666666666666667,0.9666666666666667,0.9666666666666667,0.9666666666666667,0.9666666666666667,0.9666666666666667,0.9666666666666667,0.9666666666666667,0.9666666666666667,0.9666666666666667,0.9666666666666667,0.9666666666666667,0.9666666666666667,0.9666666666666667,0.9666666666666667,0.9666666666666667,0.9666666666666667,0.9666666666666667,0.9666666666666667,0.9666666666666667,0.9666666666666667,0.9666666666666667,0.9666666666666667,0.9666666666666667,0.9666666666666667,0.9666666666666667,0.9666666666666667,0.9666666666666667,0.9666666666666667,0.9666666666666667,0.9666666666666667,0.9666666666666667,0.9666666666666667,0.9666666666666667,0.9761904761904762,1.0047619047619047,1.0238095238095237,1.0333333333333334,1.0238095238095237,1.0047619047619047,0.9761904761904762,0.9380952380952381,0.9095238095238095,0.8904761904761904,0.8333333333333334,0.7571428571428571,0.7,0.6714285714285714,0.6333333333333333,0.6047619047619047,0.5666666666666667,0.5380952380952381,0.5,0.49047619047619045,0.48095238095238096,0.48095238095238096,0.48095238095238096,0.48095238095238096,0.4714285714285714,0.40476190476190477,0.3476190476190476,0.3380952380952381,0.3380952380952381,0.3380952380952381,0.3380952380952381,0.3380952380952381,0.3380952380952381,0.3380952380952381,0.3380952380952381,0.3380952380952381,0.3380952380952381,0.32857142857142857,0.30952380952380953,0.28095238095238095,0.24285714285714285,0.22380952380952382,0.20476190476190476,0.19523809523809524,0.19523809523809524,0.18571428571428572,0.18571428571428572,0.18571428571428572,0.18571428571428572,0.18571428571428572,0.18571428571428572,0.18571428571428572,0.1761904761904762,0.1761904761904762,0.1761904761904762,0.1761904761904762,0.1761904761904762,0.1761904761904762,0.1761904761904762,0.1761904761904762,0.1761904761904762,0.14761904761904762,0.1380952380952381,0.11904761904761904,0.08095238095238096,0.06190476190476191,0.04285714285714286,0.023809523809523808,0.014285714285714285,0.004761904761904762,0.004761904761904762,0.004761904761904762,0.004761904761904762,0.004761904761904762,0.004761904761904762,0.004761904761904762,0.004761904761904762,0.004761904761904762,-0.004761904761904762,-0.004761904761904762,-0.014285714285714285,-0.014285714285714285,-0.023809523809523808,-0.023809523809523808,-0.023809523809523808,-0.023809523809523808,-0.023809523809523808,-0.023809523809523808,-0.023809523809523808,-0.023809523809523808,-0.023809523809523808,-0.023809523809523808,-0.023809523809523808,-0.023809523809523808,-0.023809523809523808,-0.023809523809523808,-0.023809523809523808,-0.023809523809523808,-0.023809523809523808,-0.023809523809523808,-0.023809523809523808,-0.023809523809523808,-0.023809523809523808,-0.023809523809523808,-0.023809523809523808,-0.023809523809523808,-0.023809523809523808,-0.023809523809523808,-0.023809523809523808,-0.023809523809523808,-0.023809523809523808,-0.023809523809523808,-0.023809523809523808,-0.023809523809523808,-0.023809523809523808,-0.023809523809523808,-0.023809523809523808,-0.014285714285714285,-0.014285714285714285,-0.014285714285714285,-0.004761904761904762,-0.004761904761904762,-0.004761904761904762,-0.004761904761904762,-0.004761904761904762,0.004761904761904762,0.023809523809523808,0.04285714285714286,0.06190476190476191,0.06190476190476191,0.06190476190476191,0.07142857142857142,0.12857142857142856,0.18571428571428572,0.24285714285714285,0.30952380952380953,0.35714285714285715,0.3952380952380952,0.46190476190476193,0.5285714285714286,0.6142857142857143,0.6714285714285714,0.7095238095238096,0.7380952380952381,0.7666666666666667,0.7857142857142857,0.8142857142857143,0.8428571428571429,0.8714285714285714,0.8904761904761904,0.9,0.9,0.9095238095238095,0.919047619047619,0.919047619047619,0.9285714285714286,0.9285714285714286,0.9476190476190476,0.9476190476190476,0.9476190476190476,0.9571428571428572,0.9666666666666667,0.9666666666666667,0.9666666666666667,0.9666666666666667,0.9666666666666667,0.9666666666666667,0.9666666666666667,0.9666666666666667,0.9666666666666667,0.9666666666666667,0.9666666666666667,0.9666666666666667,0.9666666666666667,0.9666666666666667,0.9666666666666667,0.9666666666666667,0.9666666666666667,0.9666666666666667,0.9666666666666667,0.9666666666666667,0.9666666666666667,0.9666666666666667,0.9666666666666667,0.9666666666666667,0.9666666666666667,0.9666666666666667,0.9666666666666667,0.9666666666666667,0.9666666666666667,0.9666666666666667,0.9666666666666667,0.9666666666666667,0.9666666666666667,0.9666666666666667,0.9666666666666667,0.9666666666666667,0.9666666666666667,0.9666666666666667,0.9666666666666667,0.9666666666666667,0.9666666666666667,0.9666666666666667,0.9666666666666667,0.9666666666666667,0.9666666666666667,0.9666666666666667,0.9666666666666667,0.9952380952380953,1.0142857142857142,1.061904761904762,1.1285714285714286,1.2142857142857142,1.2333333333333334,1.2523809523809524,1.2523809523809524,1.2523809523809524,1.2523809523809524,1.2523809523809524,1.2523809523809524,1.2523809523809524,1.2619047619047619,1.2714285714285714,1.2714285714285714,1.2809523809523808,1.2904761904761906,1.2904761904761906,1.2809523809523808,1.2714285714285714,1.2619047619047619,1.2428571428571429,1.2333333333333334,1.223809523809524,1.2047619047619047,1.1857142857142857]},"final_keyboard_state":["S","R","E","A","Z","B"],"num_clicks":6,"points":14,"cheat":false,"trial_type":"Hangman","trial_index":5,"time_elapsed":45178,"internal_node_id":"0.0-4.0","protocol_sum":"","subject_identifier":223,"subject_sum":[246,224,161,226,172,65,148,90,154,167,255,138,138,170,12,235,193,42,59,204,152,26,146,154,213,207,129,10,9,14,17,174],"subject_pair":111,"STUDY_ID":"669eec2e4270c76bc184a38e","PROLIFIC_PID":"65772daa307b28b9a9ec187f","SESSION_ID":"669fd415e9fb573a9a872b85","practice_instructions":1,"leaderboard_instructions":0,"bonus":0,"reveal_word":true,"self_rating":"4","confidence":"84"},{"view_history":"[{\"page_index\":0,\"viewing_time\":2491.400000035763},{\"page_index\":1,\"viewing_time\":11694.099999964237}]","rt":14185.900000035763,"trial_type":"instructions","trial_index":6,"time_elapsed":59364,"internal_node_id":"0.0-5.0","protocol_sum":"","subject_identifier":223,"subject_sum":[246,224,161,226,172,65,148,90,154,167,255,138,138,170,12,235,193,42,59,204,152,26,146,154,213,207,129,10,9,14,17,174],"subject_pair":111,"STUDY_ID":"669eec2e4270c76bc184a38e","PROLIFIC_PID":"65772daa307b28b9a9ec187f","SESSION_ID":"669fd415e9fb573a9a872b85","practice_instructions":1,"leaderboard_instructions":0,"bonus":0,"reveal_word":true,"self_rating":"4","confidence":"84"},{"rt":5485.900000035763,"responses":"{\"Q0\":\"...from <b>a previous session</b> that is part of the upcoming tournament.\"}","question_order":"[0]","trial_type":"survey-multi-choice","trial_index":7,"time_elapsed":64851,"internal_node_id":"0.0-6.0","protocol_sum":"","subject_identifier":223,"subject_sum":[246,224,161,226,172,65,148,90,154,167,255,138,138,170,12,235,193,42,59,204,152,26,146,154,213,207,129,10,9,14,17,174],"subject_pair":111,"correct":false,"test_part":"multichoice_leaderboard","STUDY_ID":"669eec2e4270c76bc184a38e","PROLIFIC_PID":"65772daa307b28b9a9ec187f","SESSION_ID":"669fd415e9fb573a9a872b85","practice_instructions":1,"leaderboard_instructions":0,"bonus":0,"reveal_word":true,"self_rating":"4","confidence":"84"},{"view_history":"[{\"page_index\":0,\"viewing_time\":1239.3999999761581}]","rt":1239.3999999761581,"trial_type":"instructions","trial_index":8,"time_elapsed":66090,"internal_node_id":"0.0-7.0-0.0","protocol_sum":"","subject_identifier":223,"subject_sum":[246,224,161,226,172,65,148,90,154,167,255,138,138,170,12,235,193,42,59,204,152,26,146,154,213,207,129,10,9,14,17,174],"subject_pair":111,"STUDY_ID":"669eec2e4270c76bc184a38e","PROLIFIC_PID":"65772daa307b28b9a9ec187f","SESSION_ID":"669fd415e9fb573a9a872b85","practice_instructions":1,"leaderboard_instructions":0,"bonus":0,"reveal_word":true,"self_rating":"4","confidence":"84"},{"rt":5609.800000011921,"responses":"{\"Q0\":\"...from the <b>upcoming tournament</b>.\"}","question_order":"[0]","trial_type":"survey-multi-choice","trial_index":9,"time_elapsed":71701,"internal_node_id":"0.0-7.0-1.0","protocol_sum":"","subject_identifier":223,"subject_sum":[246,224,161,226,172,65,148,90,154,167,255,138,138,170,12,235,193,42,59,204,152,26,146,154,213,207,129,10,9,14,17,174],"subject_pair":111,"correct":false,"test_part":"multichoice_leaderboard","STUDY_ID":"669eec2e4270c76bc184a38e","PROLIFIC_PID":"65772daa307b28b9a9ec187f","SESSION_ID":"669fd415e9fb573a9a872b85","practice_instructions":1,"leaderboard_instructions":0,"bonus":0,"reveal_word":true,"self_rating":"4","confidence":"84"},{"view_history":"[{\"page_index\":0,\"viewing_time\":1012}]","rt":1012,"trial_type":"instructions","trial_index":10,"time_elapsed":72714,"internal_node_id":"0.0-7.1-0.1","protocol_sum":"","subject_identifier":223,"subject_sum":[246,224,161,226,172,65,148,90,154,167,255,138,138,170,12,235,193,42,59,204,152,26,146,154,213,207,129,10,9,14,17,174],"subject_pair":111,"STUDY_ID":"669eec2e4270c76bc184a38e","PROLIFIC_PID":"65772daa307b28b9a9ec187f","SESSION_ID":"669fd415e9fb573a9a872b85","practice_instructions":1,"leaderboard_instructions":0,"bonus":0,"reveal_word":true,"self_rating":"4","confidence":"84"},{"rt":3391.600000023842,"responses":"{\"Q0\":\"...from <b>a previous session</b> that is not part of the upcoming tournament.\"}","question_order":"[0]","trial_type":"survey-multi-choice","trial_index":11,"time_elapsed":76106,"internal_node_id":"0.0-7.1-1.1","protocol_sum":"","subject_identifier":223,"subject_sum":[246,224,161,226,172,65,148,90,154,167,255,138,138,170,12,235,193,42,59,204,152,26,146,154,213,207,129,10,9,14,17,174],"subject_pair":111,"correct":true,"test_part":"multichoice_leaderboard","STUDY_ID":"669eec2e4270c76bc184a38e","PROLIFIC_PID":"65772daa307b28b9a9ec187f","SESSION_ID":"669fd415e9fb573a9a872b85","practice_instructions":1,"leaderboard_instructions":0,"bonus":0,"reveal_word":true,"self_rating":"4","confidence":"84"},{"view_history":"[{\"page_index\":0,\"viewing_time\":5075.699999988079}]","rt":5075.800000011921,"trial_type":"instructions","trial_index":12,"time_elapsed":81182,"internal_node_id":"0.0-8.0","protocol_sum":"","subject_identifier":223,"subject_sum":[246,224,161,226,172,65,148,90,154,167,255,138,138,170,12,235,193,42,59,204,152,26,146,154,213,207,129,10,9,14,17,174],"subject_pair":111,"STUDY_ID":"669eec2e4270c76bc184a38e","PROLIFIC_PID":"65772daa307b28b9a9ec187f","SESSION_ID":"669fd415e9fb573a9a872b85","practice_instructions":1,"leaderboard_instructions":0,"bonus":0,"reveal_word":true,"self_rating":"4","confidence":"84"},{"rt":3234.400000035763,"responses":"{\"Q0\":\"...players' leaderboard position (in terms of <b>points</b>) in an <b>upcoming tournament.</b>\"}","question_order":"[0]","trial_type":"survey-multi-choice","trial_index":13,"time_elapsed":84417,"internal_node_id":"0.0-9.0","protocol_sum":"","subject_identifier":223,"subject_sum":[246,224,161,226,172,65,148,90,154,167,255,138,138,170,12,235,193,42,59,204,152,26,146,154,213,207,129,10,9,14,17,174],"subject_pair":111,"correct":true,"test_part":"multichoice_tournament","STUDY_ID":"669eec2e4270c76bc184a38e","PROLIFIC_PID":"65772daa307b28b9a9ec187f","SESSION_ID":"669fd415e9fb573a9a872b85","practice_instructions":1,"leaderboard_instructions":0,"bonus":0,"reveal_word":true,"self_rating":"4","confidence":"84"},{"view_history":"[{\"page_index\":0,\"viewing_time\":11428.5}]","rt":11428.600000023842,"trial_type":"instructions","trial_index":14,"time_elapsed":95846,"internal_node_id":"0.0-11.0","protocol_sum":"","subject_identifier":223,"subject_sum":[246,224,161,226,172,65,148,90,154,167,255,138,138,170,12,235,193,42,59,204,152,26,146,154,213,207,129,10,9,14,17,174],"subject_pair":111,"STUDY_ID":"669eec2e4270c76bc184a38e","PROLIFIC_PID":"65772daa307b28b9a9ec187f","SESSION_ID":"669fd415e9fb573a9a872b85","practice_instructions":1,"leaderboard_instructions":0,"bonus":0,"reveal_word":true,"self_rating":"4","confidence":"84"},{"view_history":"[{\"page_index\":0,\"viewing_time\":16763.600000023842}]","rt":16763.700000047684,"trial_type":"instructions","trial_index":15,"time_elapsed":112610,"internal_node_id":"0.0-12.0-0.0","protocol_sum":"","subject_identifier":223,"subject_sum":[246,224,161,226,172,65,148,90,154,167,255,138,138,170,12,235,193,42,59,204,152,26,146,154,213,207,129,10,9,14,17,174],"subject_pair":111,"STUDY_ID":"669eec2e4270c76bc184a38e","PROLIFIC_PID":"65772daa307b28b9a9ec187f","SESSION_ID":"669fd415e9fb573a9a872b85","practice_instructions":1,"leaderboard_instructions":0,"bonus":0,"reveal_word":true,"self_rating":"4","confidence":"84"},{"rt":5968.199999988079,"response":"THIRTY FOUR","responses":["THIRTY FOUR"],"trial_type":"type-this","trial_index":16,"time_elapsed":119080,"internal_node_id":"0.0-12.0-1.0","protocol_sum":"","subject_identifier":223,"subject_sum":[246,224,161,226,172,65,148,90,154,167,255,138,138,170,12,235,193,42,59,204,152,26,146,154,213,207,129,10,9,14,17,174],"subject_pair":111,"STUDY_ID":"669eec2e4270c76bc184a38e","PROLIFIC_PID":"65772daa307b28b9a9ec187f","SESSION_ID":"669fd415e9fb573a9a872b85","practice_instructions":1,"leaderboard_instructions":0,"bonus":0,"reveal_word":true,"self_rating":"4","confidence":"84"},{"word":"THIRTY FOUR","click_log":{"letter":["","A","I","O","E","N","U","R","F","T","Y","H"],"t":[0,6940.399999976158,7982.899999976158,9387.100000023842,16853,18020.600000023842,19661.19999998808,22205.399999976158,24568.899999976158,29560,31325.600000023842,32465.69999998808],"hit":[null,0,1,1,0,0,1,2,1,2,1,1],"asked":["","A","AI","AIO","AIOE","AIOEN","AIOENU","AIOENUR","AIOENURF","AIOENURFT","AIOENURFTY","AIOENURFTYH"],"word_state":["______ ____","______ ____","__I___ ____","__I___ _O__","__I___ _O__","__I___ _O__","__I___ _OU_","__IR__ _OUR","__IR__ FOUR","T_IRT_ FOUR","T_IRTY FOUR","THIRTY FOUR"]},"hover_log":{"letter":["?","?","?","?","?","?","?","?","?","?","?","?","?","?","?","?","?","?","?","?","?","?","?","?","?","?","?","?","?","?","?","?","?","?","?","?","?","?","?","?","?","?","?","?","?","?","?","?","?","?","?","?","?","?","?","?","?","?","?","?","?","?","?","?","?","?","?","?","?","?","?","?","?","?","?","?","?","?","?","?","?","?","?","?","?","?","?","?","?","?","?","?","?","?","?","?","?","?","?","?","?","?","?","?","?","?","?","?","?","?","?","?","?","?","?","?","?","?","?","?","?","?","?","?","?","?","?","?","?","?","?","?","?","?","?","?","?","?","?","?","?","?","?","?","?","?","?","?","?","?","?","?","?","?","?","?","?","?","?","?","?","?","?","?","?","?","?","?","?","?","?","?","?","?","?","?","?","?","?","?","?","?","?","?","?","?","?","?","?","?","?","?","?","?","?","?","?","?","?","?","?","?","?","?","?","?","?","?","?","?","?","?","?","?","?","?","?","?","?","?","?","?","?","?","?","?","?","?","?","?","?","?","?","?","?","?","?","?","?","?","?","?","?","?","?","?","?","?","?","?","?","?","?","?","?","?","?","?","?","?","?","?","?","?","?","?","?","?","?","?","?","?","?","?","?","?","?","?","?","?","?","?","?","?","?","?","?","?","?","?","?","?","?","?","?","?","?","?","?","?","?","?","?","?","?","?","?","?","?","?","?","?","?","?","?","?","?","?","?","?","?","?","?","?","?","?","?","?","?","?","?","?","?","?","?","?","?","?","?","?","?","?","?","?","?","?","?","?","?","?","?","?","?","?","?","?","?","?","?","?","?","?","?","?","?","?","?","?","?","?","?","?","?","?","?","?","?","?","?","?","?","?","?","?","?","?","?","?","?","?","?","?","?","?","?","?","?","?","?","?","?","?","?","?","?","?","?","?","?","?","?","?","?","?","?","?","?","?","?","?","?","?","?","?","?","?","?","?","?","?","?","?","?","?","?","?","?","?","?","?","?","?","?","?","?","?","?","?","?","?","?","?","?","?","?","?","?","?","?","?","S","?","?","?","?","?","?","?","?","?","?","?","?","?","?","?","?","?","?","?","?","?","?","?","?","?","?","?","?","?","?","?","?","?","?","?","?","?","?","?","?","?","?","?","?","?","M","?","?","?","?","?","?","?","?","?","?","?","?","?","?","?","?","?","?","?","?","?","?","?","?","?","?","?","O","?","?","?","?","?","?","?","?","?","?","?","?","?","?","?","?","?","?","?","?","?","?","?","?","?","?","P","?","?","?","?","?","?","?","?","?","?","?","?","?","?","?","?","?","?","?","?","?","?","?","?","?","P","?","?","?","?","?","?","?","?","?","?","?","?","?","?","?","?","?","?","?","?","?","?","?","?","?","?","Q","?","?","?","?","?","?","?","?","?","?","?","?","?","?","?","?","?","?","?","?","?","?","?","?","?","Q","?","?","?","?","?","?","?","?","?","?","?","?","?","?","?","?","?","?","?","?","?","?","?","?","?","Q","?","?","?","?","?","?","?","?","?","?","?","?","?","?","?","?","?","?","?","?","?","?","?","?","?","Q","?","?","?","?","?","?","?","?","?","?","?","?","?","?","?","?","?","?","?","?","?","?","?","?","?","Q","?","?","?","?","?","?","?","?","?","?","?","?","?","?","?","?","?","?","?","?","?","?","?","?","?","Q","?","?","?","?","?","?","?","?","?","?","?","?","?","?","?","?","?","?","?","?","?","?","?","?","?","Q","?","?","?","?","?","?","?","?","?","?","?","?","?","?","?","?","?","?","?","?","?","?","?","?","?","?","?","?","?","?","?","?","?","?","?","?","?","?","?","?","?","?","?","?","?","?","?","?","?","?","?","?","?","?","?","?","?","?","?","?","?","?","?","?","?","?","?","?","?","?","?","?","?","?","?","?","?","?","?","?","?","?","?","?","?","?","?","?","?","?","?","?","?","?","?","?","?","?","?","?","?","?","?","?","?","?","?","?","?","?","?","?","?","?","?","?","?","?","?","?","?","?","?","?","?","?","?","?","?","?","?","?","?","?","?","?","?","?","?","?","?","?","?","?","?","?","?","?","?","?","?","?","?","?","?","?","?","?","?","?","?","?","?","?","?","?","?","?","?","?","?","?","?","?","?","?","?","?","?","?","?","?","?","?","?","?","?","?","?","?","?","?","?","?","?","?","?","?","?","?","?","?","?","?","?","?","?","?","?","?","?","?","?","?","?","?","?","?","?","?","?","?","?","?","?","?","?","?","?","?","?","?","?","?","?","?","?","?","?","?","?","?","?","?","?","?","?","?","?","?","?","?","?","?","?","?","?","?","?","?","?","?","?","?","?","?","?","?","?","?","?","?","?","?","?","?","?","?","?","?","?","?","?","?","?","?","?","?","?","?","?","?","?","?","?","?","?","?","?","?","?","?","?","?","?","?","?","?","?","?","?","?","?","?","?","?","?","?","?","?","?","?","?","?","?","?","?","?","?","?","?","?","?","?","?","?","?","?","?","?","?","?","?","?","?","?","?","?","?","?","?","?","?","?","?","?","?","?","?","?","?","?","?","?","?","?","?","?","?","?","?","?","?","?","?","?","?","?","?","?","?","?","?","?","?","?","?","?","?","?","?","?","?","?","?","?","?","?","?","?","?","?","?","?","?","?","?","?","?","?","?","?","?","?","?","?","?","?","?","?","?","?","?","?","?","?","?","?","?","?","?","?","?","?","?","?","?","?","?","?","?","?","?","?","?","?","?","?","?","?","?","?","?","?","?","?","?","?","?","?","?","?","?","?","?","?","?","?","?","?","?","?","?","?","?","?","?","?","?","?","?","?","?","?","?","?","?","?","?","?","?","?","?","?","?","?","?","?","?","?","?","?","?","?","?","?","?","?","?","?","?","?","?","?","?","?","?","?","?","?","?","?","?","?","?","?","?","?","?","?","?","?","?","?","?","?","?","?","?","?","?","?","?","?","?","?","?","?","?","?","?","?","?","?","?","?","?","?","?","?","?","?","?","?","?","?","?","?","?","?","?","?","?","?","?","?","?","?","?","?","?","?","?","?","?","?","?","?","?","?","?","?","?","?","?","?","?","?","?","?","?","?","?","?","?","?","?","?","?","?","?","?","?","?","?","?","?","?","?","?","?","?","?","?","?","?","?","?","?","?","?","?","?","?","?","?","?","?","?","?","?","?","?","?","?","?","?","?","?","?","?","?","?","?","?","?","?","?","?","?","?","?","?","?","?","?","?","?","?","?","?","?","?","?","?","?","?","?","?","?","?","?","?","?","?","?","?","?","?","?","?","?","?","?","?","?","?","?","?","?","?","?","?","?","?","?","?","?","?","?","?","?","?","?","?","?","?","?","?","?","?","?","?","?","?","?","?","?","?","?","?","?","?","?","?","?","?","?","?","?","?","?","?","?","?","?","?","?","?","?","?","?","?","?","?","?","?","?","?","?","?","?","?","?","?","?","?","?","?","?","?","?","?","?","?","?","?","?","?","?","?","?","?","?","?","?","?","?","?","?","?","?","?","?","?","?","?","?","?","?","?","?","?","?","?","?","?","?","?","?","?","?","?","?","?","?","?","?","?","?","?","?","?","?","?","?","?","?","?","?","?","?","?","?","?","?","?","?","?","?","?","?","?","?","?","?","?","?","?","?","?","?","?","?","?","?","?","?","?","?","?","?","?","?","?","?","?","?","?","?","?","?","?","?","?","?","?","?","?","?","?","?","?","?","?","?","?","?","?","?","?","?","?","?","?","?","?","?","?","?","?","?","?","?","?","?","?","?","?","?","?","?","?","?","?","?","?","?","?","?","?","?","?","?","?","?","?","?","?","?","?","?","?","?","?","?","?","?","?","?","?","?","?","?","?","?","?","?","?","?","?","?","?","?","?","?","?","?","?","?","?","?","?","?","?","?","?","?","?","?","?","?","?","?","?","?","?","?","?","?","?","?","?","?","?","?","?","?","?","?","?","?","?","?","?","?","?","?","?","?","?","?","?","?","?","?","?","?","?","?","?","?","?","?","?","?","?","?","?","?","?","?","?","?","?","?","?","?","?","?","?","?","?","?","?","?","?","?","?","?","?","?","?","?","?","?","?","?","?","?","?","?","?","?","?","?","?","?","?","?","?","?","?","?","?","?","?","?","?","?","?","?","?","?","?","?","?","?","?","?","?","?","?","?","?","?","?","?","?","?","?","?","?","?","?","?","?","?","?","?","?","?","?","?","?","?","?","?","?","?","?","?","?","?","?","?","?","?","?","?","?","?","?","?","?","?","?","?","?","?","?","?","?","?","?","?","?","?","?","?","?","?","?","?","?","?","?","?","?","?","?","?","?","?","?","?","?","?","?","?","?","?","?","?","?","?","?","?","?","?","?","?","?","?","?","?","?","?","?","?","?","?","?","?","?","?",