[{"success":true,"trial_type":"fullscreen","trial_index":0,"time_elapsed":3362,"internal_node_id":"0.0-0.0","protocol_sum":"","subject_identifier":520,"subject_sum":[57,187,136,244,13,58,162,178,254,157,234,103,190,39,199,71,101,219,14,187,63,243,207,143,183,121,175,99,25,250,32,69],"subject_pair":260,"STUDY_ID":"66a3ed3c5d10d0e7d8a6b9da","PROLIFIC_PID":"60f4a2d142c69dc1121b6dbf","SESSION_ID":"66a442ee20cfeabd54f43b95","practice_instructions":1,"leaderboard_instructions":1,"bonus":0,"reveal_word":false,"self_rating":"5","confidence":"61"},{"view_history":"[{\"page_index\":0,\"viewing_time\":4854.60000000149}]","rt":4854.800000000745,"trial_type":"instructions","trial_index":1,"time_elapsed":8217,"internal_node_id":"0.0-1.0","protocol_sum":"","subject_identifier":520,"subject_sum":[57,187,136,244,13,58,162,178,254,157,234,103,190,39,199,71,101,219,14,187,63,243,207,143,183,121,175,99,25,250,32,69],"subject_pair":260,"STUDY_ID":"66a3ed3c5d10d0e7d8a6b9da","PROLIFIC_PID":"60f4a2d142c69dc1121b6dbf","SESSION_ID":"66a442ee20cfeabd54f43b95","practice_instructions":1,"leaderboard_instructions":1,"bonus":0,"reveal_word":false,"self_rating":"5","confidence":"61"},{"view_history":"[{\"page_index\":0,\"viewing_time\":18135.60000000149}]","rt":18135.699999999255,"trial_type":"instructions","trial_index":2,"time_elapsed":26353,"internal_node_id":"0.0-2.0-0.0","protocol_sum":"","subject_identifier":520,"subject_sum":[57,187,136,244,13,58,162,178,254,157,234,103,190,39,199,71,101,219,14,187,63,243,207,143,183,121,175,99,25,250,32,69],"subject_pair":260,"STUDY_ID":"66a3ed3c5d10d0e7d8a6b9da","PROLIFIC_PID":"60f4a2d142c69dc1121b6dbf","SESSION_ID":"66a442ee20cfeabd54f43b95","practice_instructions":1,"leaderboard_instructions":1,"bonus":0,"reveal_word":false,"self_rating":"5","confidence":"61"},{"rt":10103.39999999851,"responses":"{\"Q0\":\"... reveal the word with as <b>few letter guesses</b> as possible\"}","question_order":"[0]","trial_type":"survey-multi-choice","trial_index":3,"time_elapsed":36457,"internal_node_id":"0.0-2.0-1.0","protocol_sum":"","subject_identifier":520,"subject_sum":[57,187,136,244,13,58,162,178,254,157,234,103,190,39,199,71,101,219,14,187,63,243,207,143,183,121,175,99,25,250,32,69],"subject_pair":260,"correct":true,"test_part":"multichoice_nonpretend","STUDY_ID":"66a3ed3c5d10d0e7d8a6b9da","PROLIFIC_PID":"60f4a2d142c69dc1121b6dbf","SESSION_ID":"66a442ee20cfeabd54f43b95","practice_instructions":1,"leaderboard_instructions":1,"bonus":0,"reveal_word":false,"self_rating":"5","confidence":"61"},{"view_history":"[{\"page_index\":0,\"viewing_time\":1352.3999999985099}]","rt":1352.5,"trial_type":"instructions","trial_index":4,"time_elapsed":37810,"internal_node_id":"0.0-3.0","protocol_sum":"","subject_identifier":520,"subject_sum":[57,187,136,244,13,58,162,178,254,157,234,103,190,39,199,71,101,219,14,187,63,243,207,143,183,121,175,99,25,250,32,69],"subject_pair":260,"STUDY_ID":"66a3ed3c5d10d0e7d8a6b9da","PROLIFIC_PID":"60f4a2d142c69dc1121b6dbf","SESSION_ID":"66a442ee20cfeabd54f43b95","practice_instructions":1,"leaderboard_instructions":1,"bonus":0,"reveal_word":false,"self_rating":"5","confidence":"61"},{"word":"ZEBRA","click_log":{"letter":["","E","R","T","O","L","M","A","Z","B"],"t":[0,3340.10000000149,9868.39999999851,11803.89999999851,13804,15316.29999999702,16155.89999999851,16947.89999999851,22916.20000000298,24731.89999999851],"hit":[null,1,1,0,0,0,0,1,1,1],"asked":["","E","ER","ERT","ERTO","ERTOL","ERTOLM","ERTOLMA","ERTOLMAZ","ERTOLMAZB"],"word_state":["_____","_E___","_E_R_","_E_R_","_E_R_","_E_R_","_E_R_","_E_RA","ZE_RA","ZEBRA"]},"hover_log":{"letter":["?","?","?","?","?","?","?","?","?","?","?","?","?","?","?","?","?","?","?","?","?","?","?","?","?","?","?","?","?","?","?","T","T","?","?","C","C","?","?","?","?","?","?","?","?","?","?","?","?","?","?","?","?","?","?","?","?","?","?","?","?","?","?","?","?","?","?","?","?","?","?","?","?","?","?","?","?","?","?","?","?","?","?","?","?","?","?","?","?","?","?","?","?","?","?","?","?","?","?","?","?","?","?","?","?","?","?","?","?","?","?","?","?","?","?","?","?","?","?","?","?","?","?","?","?","?","?","?","?","?","?","?","?","E","E","E","E","E","E","E","?","?","?","?","?","?","?","?","?","D","D","D","D","D","D","D","D","D","D","D","D","D","D","D","D","D","D","D","?","?","?","C","C","C","C","C","C","C","C","C","?","?","?","B","B","B","B","B","B","?","?","?","?","?","?","?","?","B","?","C","C","?","?","?","?","D","D","D","D","?","?","?","?","?","?","E","E","E","E","E","E","E","E","E","E","E","E","E","E","E","E","E","E","E","E","E","E","E","E","E","E","E","E","E","E","E","E","E","E","E","E","E","E","E","E","E","E","E","E","E","E","E","E","E","E","E","E","E","E","E","E","E","E","E","E","E","E","E","E","E","E","E","E","E","E","E","E","E","E","E","E","E","E","E","E","E","E","?","?","?","?","?","?","?","?","?","?","?","?","?","?","?","?","?","?","?","?","?","?","?","E","E","E","E","E","E","E","E","E","E","E","E","E","E","E","E","E","E","E","E","E","E","E","E","E","E","E","E","E","E","E","E","E","E","E","E","E","E","E","E","E","E","E","E","E","E","E","?","D","D","D","D","D","D","D","D","D","?","?","?","?","?","?","?","?","?","?","?","?","?","?","?","?","?","?","?","?","?","?","?","?","?","?","?","?","?","?","?","?","?","?","?","?","?","?","?","?","?","?","?","?","?","?","?","?","?","?","?","?","?","?","?","?","?","?","?","?","?","?","?","?","?","?","?","?","?","?","?","?","?","?","?","?","?","?","?","?","?","?","?","?","?","A","?","J","J","?","?","?","?","?","?","?","?","?","?","?","?","?","?","?","?","?","K","?","?","?","M","M","M","M","M","M","M","M","M","M","M","M","M","M","M","M","M","M","M","M","?","?","?","N","N","N","N","N","N","N","N","N","N","N","N","N","N","N","N","N","N","N","N","N","N","N","N","N","N","N","N","N","N","N","N","N","N","N","N","N","N","N","N","N","N","N","N","N","N","N","N","N","N","N","N","N","N","N","N","N","N","N","N","N","?","?","?","?","?","O","O","O","O","O","O","O","O","O","O","O","O","O","O","O","O","O","O","O","O","O","O","O","O","O","O","O","O","O","O","O","O","O","O","O","O","O","O","O","O","O","O","O","O","O","O","O","O","O","O","O","O","O","O","O","O","O","O","O","O","O","O","O","O","O","O","O","O","O","O","?","?","P","P","P","P","P","P","P","P","Q","Q","Q","Q","?","R","R","R","R","R","R","R","R","R","R","R","R","R","R","R","R","R","R","R","R","R","R","R","R","R","R","R","R","R","R","R","R","R","R","R","R","R","R","R","R","R","R","R","R","R","R","R","R","R","R","R","R","R","R","R","R","R","R","R","R","R","R","R","R","R","R","R","R","R","R","R","R","R","R","R","R","R","R","R","R","R","R","R","R","R","R","R","R","R","R","R","R","R","R","R","R","R","R","R","R","R","R","R","R","R","R","R","R","R","R","R","R","R","R","R","R","R","?","Q","Q","P","P","?","O","N","N","?","M","M","M","M","M","?","L","L","L","L","L","?","?","?","?","?","?","?","T","T","T","T","T","T","T","T","T","T","T","T","T","T","T","T","T","T","T","T","T","T","T","T","T","T","T","T","T","T","T","T","T","T","T","T","T","T","T","T","T","T","T","T","T","T","T","T","T","T","T","T","T","T","T","T","T","T","T","T","T","T","T","T","T","T","T","T","T","T","T","T","T","T","T","T","T","T","T","T","T","T","T","T","T","T","T","T","T","T","T","T","T","T","T","T","T","T","T","T","T","T","T","T","T","T","T","T","T","T","T","T","T","T","T","T","?","U","V","?","X","Y","Y","?","?","?","?","?","?","?","?","?","?","?","?","?","?","?","?","?","?","O","O","O","N","N","N","N","N","N","N","N","N","N","N","N","N","N","N","?","?","?","O","O","O","O","O","O","O","O","O","O","O","O","O","O","O","O","O","O","O","O","O","O","O","O","O","O","O","O","O","O","O","O","O","O","O","O","O","O","O","O","O","O","O","O","O","O","O","O","O","O","O","O","O","O","O","O","O","O","O","O","O","O","O","O","O","N","N","M","M","M","M","?","?","?","?","?","?","?","?","?","?","?","?","?","?","?","?","?","L","L","L","L","L","L","L","L","L","L","L","L","L","L","L","L","L","L","L","L","L","L","L","L","L","L","L","L","L","L","L","L","L","L","L","L","L","L","L","L","L","L","L","L","L","L","L","L","L","L","L","L","L","L","L","L","L","L","L","L","L","L","L","L","L","L","L","L","L","L","L","L","L","L","L","L","?","M","M","M","M","M","M","M","M","M","M","M","M","M","M","M","M","M","M","M","M","M","M","M","M","M","M","M","M","M","M","M","M","M","M","M","M","M","M","M","M","M","M","M","M","M","M","M","M","M","M","M","M","M","M","M","M","?","?","?","?","?","?","A","A","A","A","A","A","A","A","A","A","A","A","A","A","A","A","A","A","A","A","A","A","A","A","A","A","A","A","A","A","A","A","A","A","A","A","A","A","A","A","A","A","A","A","A","A","A","A","A","A","A","A","A","A","A","A","A","A","?","?","?","?","?","?","?","?","?","?","?","?","?","?","?","?","?","?","?","?","?","?","?","?","?","?","?","?","?","?","?","?","?","?","?","?","?","?","?","?","?","?","?","?","?","?","?","B","B","B","B","B","B","B","B","B","B","B","B","B","B","B","?","?","?","?","?","?","?","?","?","?","?","?","?","?","?","?","?","?","?","?","?","?","?","?","?","?","?","?","?","?","?","?","?","?","?","?","?","?","?","?","?","?","?","?","?","?","?","?","?","?","?","?","?","?","?","?","?","?","?","?","?","?","?","?","?","?","?","?","?","?","?","?","?","?","?","?","?","?","?","?","?","?","?","?","?","?","?","?","?","?","?","?","?","?","?","?","?","?","?","?","?","?","?","?","?","?","?","?","?","?","?","?","?","?","?","?","?","?","?","?","?","?","?","?","?","?","?","?","?","?","?","?","?","?","?","?","?","?","?","?","?","?","?","?","?","?","?","?","?","?","?","?","?","?","?","?","?","?","?","?","?","?","?","?","?","?","?","?","?","?","?","?","?","?","?","?","?","?","?","?","?","?","?","?","?","?","?","?","?","?","?","?","?","?","?","?","?","?","?","?","?","?","?","?","?","?","?","?","?","?","?","?","?","?","?","?","?","?","?","?","?","?","?","?","?","?","?","B","B","B","B","B","?","?","?","K","K","K","K","K","K","K","?","?","?","?","?","?","?","?","?","U","U","U","U","U","U","U","U","?","V","?","W","W","W","W","?","?","?","?","X","X","X","X","X","X","X","X","X","?","?","?","?","?","?","X","X","X","X","X","X","?","?","?","?","?","?","?","?","?","?","?","?","?","?","?","?","?","?","?","?","?","?","Z","Z","Z","Z","Z","Z","Z","Z","Z","Z","Z","Z","Z","Z","Z","Z","Z","Z","Z","Z","Z","Z","Z","Z","Z","Z","Z","Z","?","?","P","O","N","N","?","?","?","?","?","?","?","?","?","?","?","?","?","?","?","?","?","?","?","?","?","?","?","?","?","?","?","?","?","?","?","?","?","?","?","?","?","?","?","?","?","?","?","?","?","?","?","?","?","?","?","?","?","?","?","?","?","?","?","?","?","?","?","?","?","?","?","?","?","?","?","M","M","M","M","M","M","?","?","L","L","L","?","?","?","?","?","?","B","B","B","B","B","B","B","B","B","B","B","B","B","B","B","B","B","B","B","B","B","B","B","B","B","B","B","B","B","B","B","B","B","B","B","B","B","B","B","B","B","B","B","B","B","B","B","B","B","B","B","B","B","B","B","B","B","B","B","B","B","B","B","B","B","B","B","B","B","B","B","B","B","B","B","B","B","?","?","?","?","?","?","?","C","C","C","C","C","C","?","?","L","?","?","?","?","?","?","?","?","?","?","?","?","?","?","?","?","?","?","?","?","?","?","?","?","?","?","?","?","?","?","?","?","?","?","?","?","?","?","?","?","?","?","?","?","?","?","?","?","?","?","?","?","?","?","?","?","?","?","?","?","?","?","?","?","?","?","?","?","?","?","?","?","?","?","?","V","V","V","?","?","?","?"],"t":[21,31,44,57,71,85,99,113,127,141,155,168,182,196,210,224,238,252,266,280,294,307,321,335,349,363,377,391,405,419,433,447,460,474,488,502,516,530,544,557,571,585,599,613,627,641,655,668,682,697,710,724,738,752,766,780,793,807,821,835,849,863,878,891,905,918,932,946,960,974,988,1002,1016,1030,1043,1057,1071,1085,1099,1113,1127,1141,1155,1168,1182,1197,1210,1224,1238,1252,1266,1279,1293,1307,1321,1335,1349,1363,1377,1391,1405,1419,1432,1447,1460,1474,1488,1502,1516,1530,1543,1557,1572,1585,1599,1613,1627,1641,1654,1669,1682,1696,1710,1724,1738,1752,1766,1780,1793,1807,1821,1835,1849,1863,1877,1891,1905,1918,1932,1946,1960,1974,1988,2002,2016,2030,2043,2057,2071,2086,2099,2113,2127,2141,2155,2168,2182,2196,2210,2224,2238,2252,2266,2279,2293,2307,2321,2335,2349,2363,2377,2391,2405,2418,2432,2446,2460,2474,2488,2502,2516,2530,2543,2557,2571,2585,2599,2613,2627,2641,2655,2668,2682,2696,2710,2724,2738,2752,2766,2780,2793,2807,2821,2835,2849,2863,2877,2891,2905,2919,2932,2946,2960,2974,2988,3002,3016,3030,3044,3057,3071,3085,3099,3113,3127,3141,3155,3168,3182,3196,3211,3224,3238,3252,3266,3280,3294,3307,3321,3336,3349,3363,3377,3391,3405,3422,3439,3453,3467,3481,3495,3509,3523,3537,3550,3564,3578,3592,3606,3620,3634,3648,3662,3676,3689,3703,3717,3731,3745,3759,3773,3787,3800,3814,3828,3842,3856,3870,3884,3898,3912,3926,3939,3953,3967,3981,3995,4009,4023,4037,4050,4064,4078,4092,4106,4120,4134,4148,4162,4175,4189,4203,4217,4231,4245,4259,4273,4287,4300,4314,4328,4342,4356,4370,4384,4398,4411,4425,4440,4454,4467,4481,4495,4509,4523,4537,4550,4564,4578,4592,4606,4620,4634,4648,4662,4675,4689,4703,4717,4731,4745,4759,4773,4787,4801,4815,4828,4842,4856,4870,4884,4898,4912,4925,4939,4953,4967,4981,4995,5009,5023,5037,5050,5064,5078,5092,5106,5120,5134,5148,5162,5175,5189,5203,5217,5231,5245,5259,5273,5286,5300,5314,5328,5342,5356,5370,5384,5398,5412,5425,5439,5453,5467,5481,5495,5509,5523,5537,5550,5564,5578,5592,5606,5620,5634,5648,5662,5675,5689,5704,5717,5731,5745,5759,5773,5786,5800,5815,5828,5842,5856,5870,5884,5898,5912,5925,5939,5953,5967,5981,5995,6009,6023,6037,6050,6064,6078,6092,6106,6120,6134,6148,6162,6176,6190,6203,6217,6231,6245,6259,6273,6287,6301,6314,6328,6342,6356,6370,6384,6398,6412,6425,6440,6453,6467,6481,6495,6509,6523,6537,6550,6564,6578,6592,6606,6620,6634,6648,6662,6675,6689,6704,6717,6731,6745,6759,6773,6787,6801,6814,6828,6842,6856,6870,6884,6898,6912,6925,6939,6953,6967,6981,6995,7009,7023,7038,7050,7064,7078,7092,7106,7120,7134,7148,7162,7176,7189,7203,7217,7231,7245,7259,7273,7287,7300,7314,7328,7342,7356,7370,7384,7398,7412,7425,7439,7453,7467,7481,7495,7510,7523,7537,7550,7564,7578,7592,7606,7620,7634,7648,7662,7676,7689,7703,7717,7731,7745,7759,7773,7787,7801,7814,7828,7842,7856,7870,7884,7898,7912,7925,7939,7953,7967,7981,7995,8009,8023,8036,8050,8064,8078,8092,8106,8120,8134,8148,8162,8175,8189,8203,8217,8231,8245,8259,8273,8287,8300,8314,8328,8342,8356,8370,8384,8398,8412,8426,8440,8453,8467,8481,8495,8509,8523,8537,8550,8564,8578,8592,8606,8620,8634,8648,8662,8675,8689,8703,8717,8731,8745,8759,8773,8787,8801,8814,8828,8842,8856,8870,8884,8898,8912,8926,8939,8953,8967,8981,8995,9009,9023,9036,9050,9064,9078,9092,9106,9120,9134,9148,9162,9175,9189,9203,9217,9231,9245,9259,9273,9287,9301,9314,9328,9342,9356,9370,9384,9398,9412,9425,9439,9453,9467,9481,9495,9509,9523,9537,9551,9564,9578,9592,9606,9620,9634,9648,9662,9676,9689,9703,9717,9731,9745,9759,9773,9787,9800,9814,9828,9842,9856,9870,9884,9898,9912,9926,9939,9953,9967,9981,9995,10009,10023,10037,10051,10064,10078,10092,10106,10120,10134,10148,10162,10176,10190,10203,10217,10231,10245,10259,10273,10287,10301,10315,10328,10342,10356,10370,10384,10398,10412,10426,10439,10453,10467,10481,10495,10509,10523,10537,10551,10564,10578,10592,10606,10620,10634,10648,10662,10676,10690,10704,10717,10731,10745,10759,10773,10787,10801,10814,10829,10842,10856,10870,10884,10898,10912,10926,10939,10953,10967,10981,10995,11009,11023,11037,11051,11064,11078,11092,11106,11120,11134,11148,11162,11175,11189,11203,11217,11231,11245,11259,11273,11287,11301,11314,11328,11342,11356,11370,11384,11398,11412,11426,11439,11453,11468,11481,11495,11509,11523,11537,11551,11565,11578,11592,11606,11620,11634,11648,11662,11676,11690,11703,11717,11731,11745,11759,11773,11787,11801,11815,11828,11842,11856,11870,11884,11898,11912,11926,11940,11953,11967,11981,11995,12009,12023,12037,12051,12064,12078,12092,12106,12120,12134,12148,12162,12176,12189,12203,12217,12231,12245,12259,12273,12288,12300,12314,12328,12342,12356,12371,12384,12398,12412,12426,12440,12453,12467,12481,12495,12509,12523,12537,12551,12564,12578,12592,12606,12620,12634,12648,12662,12676,12690,12703,12717,12731,12745,12759,12773,12787,12801,12814,12828,12842,12856,12870,12884,12898,12912,12926,12939,12953,12967,12981,12995,13009,13023,13037,13050,13064,13078,13093,13106,13120,13134,13148,13162,13176,13189,13203,13217,13231,13245,13259,13273,13287,13301,13314,13328,13342,13356,13370,13384,13398,13412,13425,13439,13453,13467,13481,13495,13509,13523,13537,13551,13564,13578,13592,13606,13620,13634,13648,13662,13675,13689,13703,13717,13731,13745,13759,13773,13787,13801,13815,13828,13842,13856,13870,13884,13898,13912,13926,13940,13953,13967,13981,13995,14009,14023,14037,14051,14064,14078,14092,14106,14120,14134,14148,14162,14175,14189,14204,14217,14231,14245,14260,14273,14287,14300,14314,14328,14342,14356,14370,14384,14398,14412,14426,14439,14453,14467,14481,14495,14509,14523,14537,14551,14564,14578,14592,14606,14620,14634,14648,14662,14676,14689,14704,14717,14731,14745,14759,14773,14787,14801,14814,14828,14842,14856,14870,14884,14898,14912,14926,14939,14953,14967,14981,14995,15009,15023,15037,15050,15064,15078,15092,15106,15120,15134,15148,15161,15176,15189,15203,15217,15231,15245,15259,15273,15287,15300,15314,15328,15342,15356,15370,15384,15398,15412,15426,15439,15453,15467,15481,15495,15509,15523,15537,15551,15564,15578,15592,15606,15620,15634,15649,15662,15676,15689,15703,15717,15731,15745,15759,15773,15787,15801,15814,15828,15842,15856,15870,15884,15898,15912,15926,15939,15953,15967,15981,15995,16009,16023,16037,16051,16064,16078,16092,16106,16120,16134,16148,16162,16176,16189,16203,16217,16231,16245,16259,16273,16287,16301,16315,16328,16342,16356,16370,16384,16398,16412,16426,16440,16454,16467,16481,16495,16509,16523,16537,16551,16564,16578,16592,16606,16620,16634,16648,16662,16676,16690,16704,16717,16731,16745,16759,16773,16787,16801,16814,16828,16842,16856,16870,16884,16898,16912,16926,16939,16953,16967,16981,16995,17009,17023,17037,17051,17064,17078,17092,17106,17120,17134,17148,17162,17176,17190,17204,17217,17231,17245,17259,17273,17287,17300,17315,17329,17342,17356,17370,17384,17398,17412,17426,17440,17453,17467,17481,17495,17509,17523,17537,17551,17564,17578,17592,17607,17620,17634,17648,17662,17676,17690,17703,17717,17731,17745,17759,17773,17787,17801,17815,17828,17842,17856,17870,17884,17898,17912,17925,17940,17953,17967,17981,17995,18009,18023,18037,18050,18064,18078,18092,18106,18120,18134,18148,18162,18176,18189,18203,18217,18231,18245,18259,18273,18287,18300,18314,18328,18342,18356,18370,18384,18398,18412,18426,18439,18453,18467,18481,18495,18509,18523,18537,18551,18565,18578,18592,18606,18620,18634,18648,18662,18675,18689,18704,18717,18731,18745,18759,18773,18787,18801,18814,18828,18842,18856,18870,18884,18898,18912,18926,18939,18953,18967,18981,18995,19009,19023,19037,19050,19064,19078,19092,19106,19120,19134,19148,19162,19176,19189,19203,19217,19231,19245,19259,19273,19287,19301,19314,19328,19342,19356,19370,19384,19398,19412,19425,19439,19453,19467,19481,19495,19509,19523,19537,19551,19564,19578,19592,19606,19620,19634,19648,19662,19676,19689,19703,19717,19731,19745,19759,19773,19787,19801,19814,19828,19842,19856,19870,19884,19899,19912,19926,19939,19953,19967,19981,19995,20009,20023,20037,20051,20065,20078,20092,20106,20120,20134,20148,20162,20176,20189,20203,20217,20231,20245,20259,20273,20287,20301,20314,20328,20342,20356,20370,20384,20398,20412,20426,20439,20453,20467,20481,20495,20509,20523,20537,20551,20564,20578,20592,20606,20620,20634,20648,20662,20676,20689,20704,20717,20731,20745,20759,20773,20787,20800,20814,20828,20842,20856,20870,20884,20898,20912,20925,20939,20953,20967,20981,20995,21009,21023,21037,21051,21065,21080,21092,21106,21120,21134,21148,21162,21176,21189,21203,21217,21231,21245,21259,21273,21287,21301,21314,21328,21342,21356,21370,21384,21398,21412,21426,21439,21453,21467,21481,21495,21509,21523,21537,21551,21564,21578,21592,21606,21620,21634,21648,21662,21676,21689,21703,21717,21731,21745,21759,21773,21787,21801,21814,21828,21842,21856,21870,21884,21898,21912,21926,21939,21953,21967,21981,21995,22009,22023,22037,22051,22065,22078,22092,22106,22120,22134,22148,22162,22175,22189,22203,22217,22231,22245,22259,22273,22287,22300,22314,22328,22342,22356,22370,22384,22398,22412,22426,22439,22453,22467,22481,22495,22509,22523,22537,22551,22565,22578,22592,22606,22620,22634,22648,22662,22675,22690,22704,22717,22731,22745,22759,22773,22787,22801,22814,22828,22842,22856,22870,22884,22898,22912,22926,22940,22953,22967,22981,22995,23009,23023,23037,23051,23065,23078,23092,23106,23120,23134,23148,23162,23176,23189,23204,23217,23231,23245,23259,23273,23287,23301,23314,23328,23342,23356,23370,23384,23398,23412,23426,23439,23453,23467,23481,23495,23509,23523,23537,23550,23564,23578,23592,23606,23620,23634,23648,23662,23676,23690,23703,23717,23731,23745,23759,23773,23787,23801,23815,23828,23842,23856,23870,23884,23898,23912,23926,23939,23953,23967,23981,23995,24009,24023,24037,24051,24064,24078,24092,24106,24120,24134,24148,24162,24176,24189,24203,24217,24231,24245,24259,24273,24287,24301,24315,24328,24342,24356,24370,24384,24398,24412,24425,24440,24453,24467,24481,24495,24509,24523,24537,24551,24565,24578,24592,24606,24620,24634,24648,24662,24675,24690,24703,24717,24731,24747,24759,24773,24787,24801,24815,24828,24842,24856,24870,24884,24898,24912,24926,24939,24953,24967,24981,24995,25009,25023,25038,25051,25064,25078,25092,25106,25120,25134,25148,25162,25176,25190,25203,25217,25231,25245,25259,25273,25287,25301,25315,25328,25342,25356,25370,25384,25398,25412,25426,25440,25453,25467,25481,25495,25509,25523,25537,25551,25565,25578,25592,25606,25620,25634,25648,25662,25676,25690,25704,25717,25731,25745,25759,25773,25787,25801,25815,25828,25842,25856,25870,25884,25898,25912,25925,25939,25953,25967,25981,25995,26009,26023,26037,26051,26065,26079,26092,26106,26120,26134,26148,26162,26176,26190,26203,26217,26231,26245,26259,26273,26287,26301,26315,26328,26342,26356,26370,26384,26398,26412,26426,26440,26454,26467,26481,26495,26509,26523,26537,26551,26564,26578,26592,26606,26620,26634,26648,26662,26676,26690,26704,26717,26731,26746],"hit":[null],"x":[0.034013605442176874,0.034013605442176874,0.034013605442176874,0.034013605442176874,0.034013605442176874,0.034013605442176874,0.034013605442176874,0.034013605442176874,0.034013605442176874,0.034013605442176874,0.034013605442176874,0.034013605442176874,0.034013605442176874,0.034013605442176874,0.034013605442176874,0.034013605442176874,0.034013605442176874,0.034013605442176874,0.034013605442176874,0.034013605442176874,0.034013605442176874,0.034013605442176874,0.04081632653061224,0.04421768707482993,0.04421768707482993,0.04421768707482993,0.04421768707482993,0.04421768707482993,0.047619047619047616,0.06462585034013606,0.09523809523809523,0.14625850340136054,0.16666666666666666,0.22108843537414966,0.2687074829931973,0.2925170068027211,0.30272108843537415,0.3231292517006803,0.336734693877551,0.36054421768707484,0.38095238095238093,0.40816326530612246,0.45918367346938777,0.47619047619047616,0.47619047619047616,0.47959183673469385,0.47959183673469385,0.47959183673469385,0.47959183673469385,0.47959183673469385,0.48299319727891155,0.48639455782312924,0.4897959183673469,0.4931972789115646,0.4931972789115646,0.4931972789115646,0.4931972789115646,0.4931972789115646,0.4931972789115646,0.4931972789115646,0.4931972789115646,0.4931972789115646,0.4931972789115646,0.5102040816326531,0.5102040816326531,0.5204081632653061,0.5272108843537415,0.5374149659863946,0.5544217687074829,0.5578231292517006,0.5578231292517006,0.5578231292517006,0.54421768707483,0.5306122448979592,0.5306122448979592,0.5306122448979592,0.5340136054421769,0.5340136054421769,0.5340136054421769,0.5408163265306123,0.5408163265306123,0.5408163265306123,0.5340136054421769,0.5306122448979592,0.5272108843537415,0.5272108843537415,0.5272108843537415,0.5374149659863946,0.5408163265306123,0.5408163265306123,0.54421768707483,0.54421768707483,0.54421768707483,0.54421768707483,0.54421768707483,0.54421768707483,0.54421768707483,0.54421768707483,0.54421768707483,0.54421768707483,0.54421768707483,0.54421768707483,0.54421768707483,0.54421768707483,0.54421768707483,0.54421768707483,0.54421768707483,0.54421768707483,0.54421768707483,0.5408163265306123,0.5340136054421769,0.5340136054421769,0.5340136054421769,0.5340136054421769,0.5306122448979592,0.5306122448979592,0.5306122448979592,0.5306122448979592,0.5306122448979592,0.5306122448979592,0.5408163265306123,0.54421768707483,0.5578231292517006,0.564625850340136,0.5816326530612245,0.5816326530612245,0.5816326530612245,0.5816326530612245,0.5816326530612245,0.5816326530612245,0.5816326530612245,0.5782312925170068,0.5680272108843537,0.5510204081632653,0.5340136054421769,0.5272108843537415,0.5170068027210885,0.5136054421768708,0.5136054421768708,0.5136054421768708,0.5102040816326531,0.5102040816326531,0.5102040816326531,0.5102040816326531,0.5102040816326531,0.5102040816326531,0.5068027210884354,0.5034013605442177,0.4897959183673469,0.48299319727891155,0.48299319727891155,0.47619047619047616,0.47278911564625853,0.46938775510204084,0.46938775510204084,0.46598639455782315,0.4557823129251701,0.4523809523809524,0.445578231292517,0.4387755102040816,0.43197278911564624,0.43197278911564624,0.42517006802721086,0.41836734693877553,0.4013605442176871,0.3979591836734694,0.37755102040816324,0.3707482993197279,0.35714285714285715,0.35714285714285715,0.35374149659863946,0.3435374149659864,0.336734693877551,0.32653061224489793,0.30952380952380953,0.29931972789115646,0.2857142857142857,0.25170068027210885,0.23809523809523808,0.22789115646258504,0.22108843537414966,0.21768707482993196,0.20748299319727892,0.19387755102040816,0.18027210884353742,0.1564625850340136,0.11904761904761904,0.09863945578231292,0.08843537414965986,0.08163265306122448,0.08163265306122448,0.08163265306122448,0.08163265306122448,0.08163265306122448,0.08163265306122448,0.08163265306122448,0.08163265306122448,0.1292517006802721,0.21768707482993196,0.2653061224489796,0.3231292517006803,0.36054421768707484,0.37755102040816324,0.37755102040816324,0.37755102040816324,0.391156462585034,0.41156462585034015,0.42857142857142855,0.46258503401360546,0.48299319727891155,0.48639455782312924,0.4897959183673469,0.4965986394557823,0.5034013605442177,0.5102040816326531,0.5306122448979592,0.5408163265306123,0.5476190476190477,0.5510204081632653,0.5510204081632653,0.5510204081632653,0.5510204081632653,0.5510204081632653,0.5510204081632653,0.5544217687074829,0.5544217687074829,0.5578231292517006,0.5578231292517006,0.5578231292517006,0.5578231292517006,0.5578231292517006,0.5578231292517006,0.5578231292517006,0.5578231292517006,0.5578231292517006,0.5578231292517006,0.5578231292517006,0.5578231292517006,0.5578231292517006,0.5578231292517006,0.5578231292517006,0.5578231292517006,0.5578231292517006,0.5578231292517006,0.5578231292517006,0.5578231292517006,0.5578231292517006,0.5578231292517006,0.5578231292517006,0.5578231292517006,0.5578231292517006,0.5578231292517006,0.5578231292517006,0.5578231292517006,0.5578231292517006,0.5578231292517006,0.5578231292517006,0.5578231292517006,0.5578231292517006,0.5578231292517006,0.5578231292517006,0.5578231292517006,0.5578231292517006,0.5578231292517006,0.5578231292517006,0.5578231292517006,0.5510204081632653,0.5476190476190477,0.5476190476190477,0.5476190476190477,0.5476190476190477,0.5476190476190477,0.5476190476190477,0.5476190476190477,0.5476190476190477,0.5476190476190477,0.5476190476190477,0.5476190476190477,0.5476190476190477,0.5476190476190477,0.5476190476190477,0.5476190476190477,0.5476190476190477,0.5476190476190477,0.5476190476190477,0.5476190476190477,0.5476190476190477,0.5476190476190477,0.5476190476190477,0.5476190476190477,0.5476190476190477,0.5476190476190477,0.54421768707483,0.5408163265306123,0.5272108843537415,0.5272108843537415,0.5204081632653061,0.5136054421768708,0.5068027210884354,0.5068027210884354,0.5068027210884354,0.5068027210884354,0.5068027210884354,0.5068027210884354,0.5068027210884354,0.5068027210884354,0.5068027210884354,0.5068027210884354,0.5068027210884354,0.5136054421768708,0.5136054421768708,0.5136054421768708,0.5136054421768708,0.5136054421768708,0.5136054421768708,0.5136054421768708,0.5136054421768708,0.5136054421768708,0.5136054421768708,0.5136054421768708,0.5170068027210885,0.5170068027210885,0.5170068027210885,0.5170068027210885,0.5170068027210885,0.5170068027210885,0.5170068027210885,0.5170068027210885,0.5170068027210885,0.5170068027210885,0.5238095238095238,0.5238095238095238,0.5238095238095238,0.5238095238095238,0.5238095238095238,0.5238095238095238,0.5238095238095238,0.5238095238095238,0.5238095238095238,0.5238095238095238,0.5238095238095238,0.5238095238095238,0.5238095238095238,0.5238095238095238,0.5238095238095238,0.5238095238095238,0.5238095238095238,0.5238095238095238,0.5238095238095238,0.5238095238095238,0.5238095238095238,0.5238095238095238,0.5238095238095238,0.5238095238095238,0.5238095238095238,0.5238095238095238,0.5238095238095238,0.5238095238095238,0.5238095238095238,0.5238095238095238,0.5238095238095238,0.5238095238095238,0.5238095238095238,0.5238095238095238,0.5238095238095238,0.5238095238095238,0.5136054421768708,0.4965986394557823,0.47619047619047616,0.46598639455782315,0.4557823129251701,0.4387755102040816,0.4217687074829932,0.41496598639455784,0.4013605442176871,0.4013605442176871,0.3843537414965986,0.3741496598639456,0.35714285714285715,0.35034013605442177,0.35034013605442177,0.35034013605442177,0.36394557823129253,0.3741496598639456,0.3843537414965986,0.3843537414965986,0.3877551020408163,0.3877551020408163,0.3877551020408163,0.3843537414965986,0.3843537414965986,0.37755102040816324,0.37755102040816324,0.3741496598639456,0.35714285714285715,0.336734693877551,0.3197278911564626,0.2857142857142857,0.2687074829931973,0.2619047619047619,0.2585034013605442,0.2585034013605442,0.2585034013605442,0.2585034013605442,0.2585034013605442,0.2619047619047619,0.2619047619047619,0.2653061224489796,0.2653061224489796,0.2653061224489796,0.2653061224489796,0.2653061224489796,0.2653061224489796,0.2653061224489796,0.2653061224489796,0.2653061224489796,0.2653061224489796,0.2653061224489796,0.2653061224489796,0.2653061224489796,0.2653061224489796,0.2653061224489796,0.2653061224489796,0.2653061224489796,0.2653061224489796,0.2653061224489796,0.2653061224489796,0.2653061224489796,0.2653061224489796,0.2653061224489796,0.2653061224489796,0.2653061224489796,0.2653061224489796,0.2653061224489796,0.2653061224489796,0.2653061224489796,0.2653061224489796,0.2653061224489796,0.2653061224489796,0.2619047619047619,0.2619047619047619,0.2619047619047619,0.2619047619047619,0.2619047619047619,0.2619047619047619,0.2585034013605442,0.2585034013605442,0.2585034013605442,0.2585034013605442,0.2585034013605442,0.2585034013605442,0.2585034013605442,0.25510204081632654,0.25170068027210885,0.23469387755102042,0.21768707482993196,0.2108843537414966,0.19727891156462585,0.16326530612244897,0.11904761904761904,0.1054421768707483,0.05102040816326531,0.006802721088435374,-0.013605442176870748,-0.034013605442176874,-0.05442176870748299,-0.0782312925170068,-0.09183673469387756,-0.1054421768707483,-0.1326530612244898,-0.16666666666666666,-0.18027210884353742,-0.20408163265306123,-0.21768707482993196,-0.22108843537414966,-0.22108843537414966,-0.22108843537414966,-0.22108843537414966,-0.22108843537414966,-0.20068027210884354,-0.11564625850340136,-0.006802721088435374,0.1054421768707483,0.16326530612244897,0.2585034013605442,0.3299319727891156,0.3707482993197279,0.391156462585034,0.41156462585034015,0.42517006802721086,0.42517006802721086,0.43197278911564624,0.43537414965986393,0.43537414965986393,0.43537414965986393,0.4387755102040816,0.4387755102040816,0.4387755102040816,0.4387755102040816,0.4387755102040816,0.4489795918367347,0.4523809523809524,0.4557823129251701,0.46598639455782315,0.47278911564625853,0.47278911564625853,0.48299319727891155,0.5,0.5102040816326531,0.5136054421768708,0.5238095238095238,0.5306122448979592,0.5306122448979592,0.5306122448979592,0.5306122448979592,0.5408163265306123,0.5408163265306123,0.5408163265306123,0.5408163265306123,0.5408163265306123,0.5408163265306123,0.5408163265306123,0.54421768707483,0.5476190476190477,0.5510204081632653,0.5544217687074829,0.5612244897959183,0.5748299319727891,0.5748299319727891,0.5816326530612245,0.5884353741496599,0.5884353741496599,0.5884353741496599,0.5918367346938775,0.5918367346938775,0.5918367346938775,0.5918367346938775,0.5918367346938775,0.5918367346938775,0.5918367346938775,0.5952380952380952,0.5952380952380952,0.5952380952380952,0.5884353741496599,0.5850340136054422,0.5748299319727891,0.5748299319727891,0.5748299319727891,0.5748299319727891,0.5748299319727891,0.5748299319727891,0.5748299319727891,0.5748299319727891,0.5748299319727891,0.5748299319727891,0.5748299319727891,0.5748299319727891,0.5748299319727891,0.5748299319727891,0.5748299319727891,0.564625850340136,0.5306122448979592,0.5272108843537415,0.5272108843537415,0.5272108843537415,0.5272108843537415,0.5272108843537415,0.5340136054421769,0.5476190476190477,0.5850340136054422,0.6054421768707483,0.6292517006802721,0.6428571428571429,0.6530612244897959,0.6530612244897959,0.6564625850340136,0.6666666666666666,0.6700680272108843,0.6700680272108843,0.673469387755102,0.6802721088435374,0.6802721088435374,0.6836734693877551,0.6836734693877551,0.6836734693877551,0.6836734693877551,0.6904761904761905,0.6972789115646258,0.6972789115646258,0.6972789115646258,0.7006802721088435,0.7006802721088435,0.7006802721088435,0.7006802721088435,0.7006802721088435,0.7006802721088435,0.7006802721088435,0.7006802721088435,0.7006802721088435,0.7006802721088435,0.7006802721088435,0.7006802721088435,0.7006802721088435,0.7006802721088435,0.7006802721088435,0.7006802721088435,0.7006802721088435,0.7006802721088435,0.7006802721088435,0.7006802721088435,0.7006802721088435,0.7006802721088435,0.7006802721088435,0.7006802721088435,0.7006802721088435,0.7006802721088435,0.7006802721088435,0.7006802721088435,0.7006802721088435,0.7006802721088435,0.7006802721088435,0.7006802721088435,0.7006802721088435,0.7006802721088435,0.7006802721088435,0.7006802721088435,0.7006802721088435,0.7006802721088435,0.7006802721088435,0.7006802721088435,0.7006802721088435,0.7006802721088435,0.7006802721088435,0.7006802721088435,0.7006802721088435,0.7006802721088435,0.7006802721088435,0.7006802721088435,0.7006802721088435,0.7074829931972789,0.7108843537414966,0.717687074829932,0.7210884353741497,0.7278911564625851,0.7414965986394558,0.7585034013605442,0.7687074829931972,0.7857142857142857,0.8061224489795918,0.8095238095238095,0.8231292517006803,0.8367346938775511,0.8571428571428571,0.8673469387755102,0.8877551020408163,0.9115646258503401,0.9455782312925171,0.9625850340136054,1.010204081632653,1.0476190476190477,1.0816326530612246,1.0918367346938775,1.1088435374149659,1.1088435374149659,1.1122448979591837,1.1122448979591837,1.1156462585034013,1.1258503401360545,1.129251700680272,1.1394557823129252,1.1428571428571428,1.1462585034013606,1.1496598639455782,1.1496598639455782,1.1496598639455782,1.1496598639455782,1.1496598639455782,1.1496598639455782,1.1496598639455782,1.1496598639455782,1.1496598639455782,1.1496598639455782,1.1496598639455782,1.1496598639455782,1.1496598639455782,1.1496598639455782,1.1496598639455782,1.1496598639455782,1.1496598639455782,1.1496598639455782,1.1496598639455782,1.1496598639455782,1.1496598639455782,1.1496598639455782,1.1496598639455782,1.1496598639455782,1.1496598639455782,1.1496598639455782,1.1496598639455782,1.1496598639455782,1.1496598639455782,1.1496598639455782,1.1496598639455782,1.1496598639455782,1.1496598639455782,1.1496598639455782,1.1496598639455782,1.1496598639455782,1.1496598639455782,1.1496598639455782,1.1496598639455782,1.1496598639455782,1.1496598639455782,1.1496598639455782,1.1496598639455782,1.1496598639455782,1.1496598639455782,1.1496598639455782,1.1496598639455782,1.1496598639455782,1.1496598639455782,1.1496598639455782,1.1496598639455782,1.1496598639455782,1.1496598639455782,1.1496598639455782,1.1496598639455782,1.1496598639455782,1.1496598639455782,1.1496598639455782,1.1496598639455782,1.1496598639455782,1.1496598639455782,1.1496598639455782,1.1496598639455782,1.1496598639455782,1.1496598639455782,1.1496598639455782,1.1496598639455782,1.1496598639455782,1.1496598639455782,1.1496598639455782,1.1496598639455782,1.1496598639455782,1.1496598639455782,1.1496598639455782,1.1496598639455782,1.1496598639455782,1.1496598639455782,1.1496598639455782,1.1496598639455782,1.1496598639455782,1.1496598639455782,1.1496598639455782,1.1496598639455782,1.1496598639455782,1.1496598639455782,1.1496598639455782,1.1496598639455782,1.1496598639455782,1.1496598639455782,1.1496598639455782,1.1496598639455782,1.1496598639455782,1.1496598639455782,1.1496598639455782,1.1496598639455782,1.1496598639455782,1.1496598639455782,1.1496598639455782,1.1496598639455782,1.1496598639455782,1.1496598639455782,1.1462585034013606,1.1394557823129252,1.1360544217687074,1.1224489795918366,1.098639455782313,1.0680272108843538,1.0374149659863945,0.9863945578231292,0.9149659863945578,0.8707482993197279,0.782312925170068,0.6972789115646258,0.6020408163265306,0.564625850340136,0.5068027210884354,0.46598639455782315,0.43197278911564624,0.4217687074829932,0.3945578231292517,0.3741496598639456,0.35374149659863946,0.336734693877551,0.29931972789115646,0.2789115646258503,0.2653061224489796,0.24829931972789115,0.22789115646258504,0.22448979591836735,0.22108843537414966,0.21428571428571427,0.20748299319727892,0.19727891156462585,0.19387755102040816,0.1836734693877551,0.17687074829931973,0.17687074829931973,0.17346938775510204,0.17006802721088435,0.16666666666666666,0.16666666666666666,0.16326530612244897,0.16326530612244897,0.16326530612244897,0.1598639455782313,0.1598639455782313,0.1598639455782313,0.1598639455782313,0.1598639455782313,0.1598639455782313,0.1598639455782313,0.1598639455782313,0.1598639455782313,0.1598639455782313,0.1598639455782313,0.1598639455782313,0.1598639455782313,0.1598639455782313,0.1598639455782313,0.1598639455782313,0.1598639455782313,0.1598639455782313,0.1598639455782313,0.1598639455782313,0.1598639455782313,0.1598639455782313,0.1598639455782313,0.1598639455782313,0.1598639455782313,0.1598639455782313,0.1598639455782313,0.1598639455782313,0.1598639455782313,0.1598639455782313,0.1598639455782313,0.1598639455782313,0.1598639455782313,0.1598639455782313,0.1598639455782313,0.1598639455782313,0.1598639455782313,0.1598639455782313,0.1598639455782313,0.1598639455782313,0.1598639455782313,0.1598639455782313,0.1598639455782313,0.1598639455782313,0.1598639455782313,0.1598639455782313,0.1598639455782313,0.1598639455782313,0.1598639455782313,0.1598639455782313,0.1598639455782313,0.1598639455782313,0.1598639455782313,0.1598639455782313,0.1598639455782313,0.1598639455782313,0.1598639455782313,0.1598639455782313,0.1598639455782313,0.1598639455782313,0.1598639455782313,0.1598639455782313,0.1598639455782313,0.1598639455782313,0.1598639455782313,0.1598639455782313,0.1598639455782313,0.1598639455782313,0.1598639455782313,0.1598639455782313,0.1598639455782313,0.1598639455782313,0.1598639455782313,0.16326530612244897,0.16326530612244897,0.16326530612244897,0.16326530612244897,0.16666666666666666,0.16666666666666666,0.16666666666666666,0.16666666666666666,0.16666666666666666,0.16666666666666666,0.16666666666666666,0.16666666666666666,0.16666666666666666,0.16666666666666666,0.16666666666666666,0.16666666666666666,0.16666666666666666,0.17006802721088435,0.17006802721088435,0.17006802721088435,0.17006802721088435,0.17006802721088435,0.17006802721088435,0.17006802721088435,0.17006802721088435,0.17006802721088435,0.17006802721088435,0.17006802721088435,0.17006802721088435,0.17006802721088435,0.17006802721088435,0.17006802721088435,0.1836734693877551,0.21768707482993196,0.32653061224489793,0.46938775510204084,0.6360544217687075,0.7142857142857143,0.826530612244898,0.891156462585034,0.9081632653061225,0.9081632653061225,0.9081632653061225,0.9081632653061225,0.9081632653061225,0.9081632653061225,0.9081632653061225,0.9081632653061225,0.9081632653061225,0.9081632653061225,0.9081632653061225,0.9115646258503401,0.9115646258503401,0.9115646258503401,0.9115646258503401,0.8979591836734694,0.8843537414965986,0.826530612244898,0.7517006802721088,0.6972789115646258,0.6598639455782312,0.5986394557823129,0.5578231292517006,0.5476190476190477,0.5476190476190477,0.5476190476190477,0.5476190476190477,0.5476190476190477,0.5476190476190477,0.5476190476190477,0.5510204081632653,0.5612244897959183,0.5782312925170068,0.5986394557823129,0.6224489795918368,0.6292517006802721,0.6326530612244898,0.6462585034013606,0.6564625850340136,0.6632653061224489,0.6802721088435374,0.6904761904761905,0.6904761904761905,0.6938775510204082,0.7006802721088435,0.7040816326530612,0.7040816326530612,0.7074829931972789,0.7074829931972789,0.7074829931972789,0.717687074829932,0.717687074829932,0.7210884353741497,0.7210884353741497,0.7210884353741497,0.7210884353741497,0.7210884353741497,0.7210884353741497,0.7210884353741497,0.7210884353741497,0.7210884353741497,0.7210884353741497,0.7210884353741497,0.7210884353741497,0.7210884353741497,0.7210884353741497,0.7210884353741497,0.7210884353741497,0.7210884353741497,0.7210884353741497,0.7210884353741497,0.7210884353741497,0.7210884353741497,0.7210884353741497,0.7210884353741497,0.7210884353741497,0.7210884353741497,0.7210884353741497,0.7210884353741497,0.7210884353741497,0.7210884353741497,0.7210884353741497,0.7210884353741497,0.7210884353741497,0.7210884353741497,0.7210884353741497,0.7210884353741497,0.7210884353741497,0.7210884353741497,0.7210884353741497,0.7210884353741497,0.7210884353741497,0.7210884353741497,0.7142857142857143,0.7142857142857143,0.7142857142857143,0.7074829931972789,0.7006802721088435,0.6938775510204082,0.6938775510204082,0.6938775510204082,0.6938775510204082,0.6870748299319728,0.673469387755102,0.6190476190476191,0.5238095238095238,0.43197278911564624,0.41496598639455784,0.3945578231292517,0.38095238095238093,0.36394557823129253,0.36394557823129253,0.36394557823129253,0.36394557823129253,0.36394557823129253,0.36394557823129253,0.36394557823129253,0.36054421768707484,0.36054421768707484,0.36054421768707484,0.36054421768707484,0.36054421768707484,0.36054421768707484,0.36054421768707484,0.36054421768707484,0.35374149659863946,0.35034013605442177,0.3435374149659864,0.3401360544217687,0.3333333333333333,0.3333333333333333,0.3197278911564626,0.3163265306122449,0.30952380952380953,0.30612244897959184,0.30612244897959184,0.29591836734693877,0.2925170068027211,0.2925170068027211,0.2925170068027211,0.2925170068027211,0.2925170068027211,0.2925170068027211,0.2925170068027211,0.2925170068027211,0.2925170068027211,0.2925170068027211,0.2925170068027211,0.2925170068027211,0.2925170068027211,0.2925170068027211,0.2925170068027211,0.2925170068027211,0.2925170068027211,0.2925170068027211,0.2925170068027211,0.2925170068027211,0.2925170068027211,0.2925170068027211,0.2925170068027211,0.2925170068027211,0.2925170068027211,0.2925170068027211,0.2925170068027211,0.2925170068027211,0.2925170068027211,0.2925170068027211,0.2925170068027211,0.2925170068027211,0.2925170068027211,0.2925170068027211,0.2925170068027211,0.2925170068027211,0.2925170068027211,0.2925170068027211,0.2925170068027211,0.2925170068027211,0.2925170068027211,0.2925170068027211,0.2925170068027211,0.2925170068027211,0.2925170068027211,0.2925170068027211,0.2925170068027211,0.2925170068027211,0.2925170068027211,0.2925170068027211,0.2925170068027211,0.2925170068027211,0.2925170068027211,0.2925170068027211,0.2925170068027211,0.2925170068027211,0.2925170068027211,0.2925170068027211,0.2925170068027211,0.2925170068027211,0.29591836734693877,0.29591836734693877,0.30272108843537415,0.30952380952380953,0.32653061224489793,0.3401360544217687,0.36054421768707484,0.3877551020408163,0.41156462585034015,0.4217687074829932,0.43197278911564624,0.4421768707482993,0.445578231292517,0.4557823129251701,0.4557823129251701,0.4557823129251701,0.45918367346938777,0.45918367346938777,0.45918367346938777,0.45918367346938777,0.4557823129251701,0.4557823129251701,0.4523809523809524,0.4523809523809524,0.4523809523809524,0.445578231292517,0.445578231292517,0.4421768707482993,0.4421768707482993,0.4421768707482993,0.4421768707482993,0.4421768707482993,0.4421768707482993,0.4421768707482993,0.4421768707482993,0.4421768707482993,0.4421768707482993,0.4421768707482993,0.4421768707482993,0.4421768707482993,0.4421768707482993,0.4421768707482993,0.4421768707482993,0.4421768707482993,0.4421768707482993,0.4421768707482993,0.4421768707482993,0.4421768707482993,0.4421768707482993,0.4421768707482993,0.4421768707482993,0.4421768707482993,0.4421768707482993,0.4421768707482993,0.4421768707482993,0.4421768707482993,0.4421768707482993,0.4421768707482993,0.4421768707482993,0.4421768707482993,0.4421768707482993,0.4387755102040816,0.40476190476190477,0.3401360544217687,0.25510204081632654,0.20748299319727892,0.1292517006802721,0.06462585034013606,0.027210884353741496,0.02040816326530612,0.013605442176870748,0.01020408163265306,0.01020408163265306,0.01020408163265306,0.01020408163265306,0.01020408163265306,0.006802721088435374,0.003401360544217687,-0.003401360544217687,-0.003401360544217687,-0.003401360544217687,-0.003401360544217687,-0.003401360544217687,-0.003401360544217687,-0.003401360544217687,-0.003401360544217687,-0.003401360544217687,-0.003401360544217687,-0.003401360544217687,-0.003401360544217687,-0.003401360544217687,-0.003401360544217687,-0.003401360544217687,-0.003401360544217687,-0.003401360544217687,-0.003401360544217687,-0.003401360544217687,-0.003401360544217687,-0.003401360544217687,-0.003401360544217687,-0.003401360544217687,-0.003401360544217687,-0.003401360544217687,-0.003401360544217687,-0.003401360544217687,-0.003401360544217687,-0.003401360544217687,-0.003401360544217687,-0.003401360544217687,-0.003401360544217687,0,0.006802721088435374,0.01020408163265306,0.02040816326530612,0.02040816326530612,0.023809523809523808,0.034013605442176874,0.03741496598639456,0.047619047619047616,0.047619047619047616,0.05102040816326531,0.05102040816326531,0.05442176870748299,0.05442176870748299,0.05442176870748299,0.05442176870748299,0.05442176870748299,0.061224489795918366,0.06802721088435375,0.08163265306122448,0.08163265306122448,0.08503401360544217,0.08503401360544217,0.08503401360544217,0.08503401360544217,0.08503401360544217,0.08503401360544217,0.08503401360544217,0.08503401360544217,0.08503401360544217,0.08503401360544217,0.08503401360544217,0.08503401360544217,0.08503401360544217,0.08503401360544217,0.08503401360544217,0.08503401360544217,0.08503401360544217,0.08503401360544217,0.08503401360544217,0.08503401360544217,0.08503401360544217,0.08503401360544217,0.08503401360544217,0.08503401360544217,0.08503401360544217,0.08503401360544217,0.08503401360544217,0.08503401360544217,0.08503401360544217,0.08503401360544217,0.08503401360544217,0.08503401360544217,0.08503401360544217,0.08503401360544217,0.08503401360544217,0.08503401360544217,0.08503401360544217,0.08503401360544217,0.08503401360544217,0.08503401360544217,0.08503401360544217,0.08503401360544217,0.08503401360544217,0.09183673469387756,0.09183673469387756,0.09523809523809523,0.10204081632653061,0.1054421768707483,0.10884353741496598,0.10884353741496598,0.10884353741496598,0.10884353741496598,0.10884353741496598,0.11224489795918367,0.12244897959183673,0.14965986394557823,0.16666666666666666,0.19727891156462585,0.21428571428571427,0.21768707482993196,0.22448979591836735,0.22448979591836735,0.22448979591836735,0.22448979591836735,0.22448979591836735,0.22448979591836735,0.22448979591836735,0.22448979591836735,0.22448979591836735,0.22448979591836735,0.22448979591836735,0.22448979591836735,0.22448979591836735,0.22448979591836735,0.22448979591836735,0.22448979591836735,0.22448979591836735,0.22448979591836735,0.22108843537414966,0.2108843537414966,0.20068027210884354,0.1870748299319728,0.17687074829931973,0.17687074829931973,0.16326530612244897,0.15306122448979592,0.14965986394557823,0.14965986394557823,0.14965986394557823,0.14965986394557823,0.14965986394557823,0.14965986394557823,0.14965986394557823,0.14965986394557823,0.14965986394557823,0.15306122448979592,0.16666666666666666,0.17346938775510204,0.1870748299319728,0.20408163265306123,0.20748299319727892,0.20748299319727892,0.20748299319727892,0.2108843537414966,0.2108843537414966,0.2108843537414966,0.21768707482993196,0.21768707482993196,0.21768707482993196,0.21768707482993196,0.21768707482993196,0.21768707482993196,0.21768707482993196,0.21768707482993196,0.21768707482993196,0.21768707482993196,0.21768707482993196,0.21768707482993196,0.21768707482993196,0.21768707482993196,0.21768707482993196,0.21768707482993196,0.21768707482993196,0.21768707482993196,0.21768707482993196,0.21768707482993196,0.21768707482993196,0.21768707482993196,0.21768707482993196,0.21768707482993196,0.21768707482993196,0.21768707482993196,0.21768707482993196,0.21768707482993196,0.21768707482993196,0.21768707482993196,0.21768707482993196,0.21768707482993196,0.21768707482993196,0.21768707482993196,0.21768707482993196,0.21768707482993196,0.21768707482993196,0.21768707482993196,0.21768707482993196,0.22108843537414966,0.22108843537414966,0.22108843537414966,0.22108843537414966,0.22108843537414966,0.22448979591836735,0.22448979591836735,0.22448979591836735,0.22448979591836735,0.22448979591836735,0.22789115646258504,0.22789115646258504,0.22789115646258504,0.23129251700680273,0.23129251700680273,0.23129251700680273,0.23129251700680273,0.23129251700680273,0.23129251700680273,0.23469387755102042,0.23469387755102042,0.23469387755102042,0.23469387755102042,0.23469387755102042,0.23469387755102042,0.23469387755102042,0.23469387755102042,0.23469387755102042,0.23469387755102042,0.23469387755102042,0.23469387755102042,0.23469387755102042,0.23469387755102042,0.23469387755102042,0.23469387755102042,0.23469387755102042,0.23469387755102042,0.23469387755102042,0.23469387755102042,0.23469387755102042,0.23469387755102042,0.23469387755102042,0.23469387755102042,0.23469387755102042,0.23469387755102042,0.23469387755102042,0.23469387755102042,0.23469387755102042,0.23469387755102042,0.23469387755102042,0.23469387755102042,0.23469387755102042,0.23469387755102042,0.23469387755102042,0.23469387755102042,0.23469387755102042,0.23469387755102042,0.23469387755102042,0.23469387755102042,0.23469387755102042,0.23469387755102042,0.23469387755102042,0.23469387755102042,0.24829931972789115,0.2789115646258503,0.336734693877551,0.3707482993197279,0.4217687074829932,0.46258503401360546,0.47619047619047616,0.47619047619047616,0.48299319727891155,0.4931972789115646,0.4931972789115646,0.5034013605442177,0.5102040816326531,0.5238095238095238,0.5272108843537415,0.5306122448979592,0.54421768707483,0.5476190476190477,0.5476190476190477,0.5510204081632653,0.5510204081632653,0.5544217687074829,0.5544217687074829,0.5544217687074829,0.5612244897959183,0.5612244897959183,0.5680272108843537,0.5680272108843537,0.5680272108843537,0.5680272108843537,0.5680272108843537,0.5680272108843537,0.5680272108843537,0.5680272108843537,0.5680272108843537,0.5680272108843537,0.5680272108843537,0.5680272108843537,0.5680272108843537,0.5680272108843537,0.5680272108843537,0.5680272108843537,0.564625850340136,0.5544217687074829,0.5510204081632653,0.5476190476190477,0.5476190476190477,0.5476190476190477,0.5544217687074829,0.5680272108843537,0.5850340136054422,0.6054421768707483,0.6054421768707483,0.6156462585034014,0.6156462585034014,0.6054421768707483,0.5918367346938775,0.5544217687074829,0.5374149659863946,0.5238095238095238,0.5204081632653061,0.5068027210884354,0.47959183673469385,0.4523809523809524,0.42857142857142855,0.37755102040816324,0.30612244897959184,0.2653061224489796,0.20748299319727892,0.16326530612244897,0.1292517006802721,0.10884353741496598,0.09863945578231292,0.09863945578231292,0.09863945578231292,0.09863945578231292,0.09863945578231292,0.09863945578231292,0.09863945578231292,0.09863945578231292,0.09863945578231292,0.10204081632653061,0.10884353741496598,0.11224489795918367,0.12244897959183673,0.13945578231292516,0.13945578231292516,0.14625850340136054,0.15306122448979592,0.15306122448979592,0.15306122448979592,0.15306122448979592,0.15306122448979592,0.15306122448979592,0.15306122448979592,0.1564625850340136,0.1598639455782313,0.17006802721088435,0.17346938775510204,0.19047619047619047,0.22108843537414966,0.25170068027210885,0.2619047619047619,0.2789115646258503,0.29591836734693877,0.29591836734693877,0.29931972789115646,0.30612244897959184,0.32653061224489793,0.3469387755102041,0.42517006802721086,0.5034013605442177,0.5612244897959183,0.5884353741496599,0.6156462585034014,0.6258503401360545,0.6326530612244898,0.6326530612244898,0.6360544217687075,0.6530612244897959,0.6802721088435374,0.6870748299319728,0.7040816326530612,0.717687074829932,0.717687074829932,0.7278911564625851,0.7448979591836735,0.7619047619047619,0.7619047619047619,0.7755102040816326,0.782312925170068,0.782312925170068,0.782312925170068,0.782312925170068,0.7687074829931972,0.7482993197278912,0.7414965986394558,0.7142857142857143,0.6938775510204082,0.6904761904761905,0.6904761904761905,0.7551020408163265,0.9217687074829932,0.9931972789115646,1.119047619047619,1.2006802721088434,1.227891156462585,1.2312925170068028,1.2312925170068028,1.2312925170068028,1.2210884353741496,1.2108843537414966,1.1904761904761905,1.1700680272108843,1.1462585034013606,1.1360544217687074,1.1122448979591837,1.0952380952380953,1.0748299319727892,1.0680272108843538,1.054421768707483,1.054421768707483,1.054421768707483,1.0510204081632653,1.0408163265306123,1.0374149659863945,1.034013605442177,1.0204081632653061,1.0204081632653061,1.010204081632653,1.0068027210884354,1.0068027210884354,1.0034013605442176,1.0034013605442176,1.0034013605442176,1.0034013605442176,1.0034013605442176,1.0034013605442176,1.0034013605442176,1.0034013605442176,1.0034013605442176,1.0034013605442176,1.0034013605442176,1.0034013605442176,1.0034013605442176,1.0034013605442176,1.0034013605442176,1.0034013605442176,1.0034013605442176,1.0034013605442176,1.0034013605442176,0.9693877551020408,0.8945578231292517,0.8469387755102041,0.7142857142857143,0.5986394557823129,0.564625850340136,0.46938775510204084,0.43197278911564624,0.41156462585034015,0.41156462585034015,0.41156462585034015,0.41156462585034015,0.41156462585034015,0.41156462585034015,0.40476190476190477,0.40476190476190477,0.40476190476190477,0.40476190476190477,0.40476190476190477,0.40476190476190477,0.40476190476190477,0.40476190476190477,0.40476190476190477,0.40476190476190477,0.40476190476190477,0.40476190476190477,0.40476190476190477,0.40476190476190477,0.40476190476190477,0.40476190476190477,0.40476190476190477,0.40476190476190477,0.40476190476190477,0.40476190476190477,0.3979591836734694,0.3979591836734694,0.3979591836734694,0.3979591836734694,0.3979591836734694,0.3979591836734694,0.3979591836734694,0.3979591836734694,0.3979591836734694,0.3979591836734694,0.3979591836734694,0.3979591836734694,0.3979591836734694,0.3979591836734694,0.3945578231292517,0.3945578231292517,0.3945578231292517,0.3945578231292517,0.391156462585034,0.4013605442176871,0.4013605442176871,0.40816326530612246,0.41836734693877553,0.42517006802721086,0.42857142857142855,0.43197278911564624,0.4421768707482993,0.4489795918367347,0.45918367346938777,0.47619047619047616,0.48299319727891155,0.4897959183673469,0.4897959183673469,0.4897959183673469,0.4897959183673469,0.4897959183673469,0.4897959183673469,0.48639455782312924,0.47278911564625853,0.46258503401360546,0.46258503401360546,0.45918367346938777,0.4557823129251701,0.4489795918367347,0.4421768707482993,0.43197278911564624,0.42517006802721086,0.41496598639455784,0.40476190476190477,0.391156462585034,0.36054421768707484,0.3401360544217687,0.29931972789115646,0.272108843537415,0.24489795918367346,0.24149659863945577,0.23809523809523808,0.23469387755102042,0.22448979591836735,0.21768707482993196,0.19727891156462585,0.1836734693877551,0.18027210884353742,0.18027210884353742,0.18027210884353742,0.18027210884353742,0.18027210884353742,0.18027210884353742,0.18027210884353742,0.18027210884353742,0.18027210884353742,0.18027210884353742,0.18027210884353742,0.18027210884353742,0.18027210884353742,0.18027210884353742,0.17006802721088435,0.17006802721088435,0.16666666666666666,0.16666666666666666,0.16666666666666666,0.16666666666666666,0.16666666666666666,0.16666666666666666,0.16666666666666666,0.16666666666666666,0.16666666666666666,0.16666666666666666,0.16666666666666666,0.16666666666666666,0.16666666666666666,0.16666666666666666,0.16666666666666666,0.16666666666666666,0.16666666666666666,0.16666666666666666,0.16666666666666666,0.16666666666666666,0.16666666666666666,0.16666666666666666,0.16666666666666666,0.16666666666666666,0.16666666666666666,0.16666666666666666,0.16666666666666666,0.16666666666666666,0.16666666666666666,0.16666666666666666,0.16666666666666666,0.16666666666666666,0.16666666666666666,0.16666666666666666,0.16666666666666666,0.16666666666666666,0.16666666666666666,0.16666666666666666,0.16666666666666666,0.16666666666666666,0.16666666666666666,0.16666666666666666,0.1836734693877551,0.1870748299319728,0.1870748299319728,0.1870748299319728,0.1870748299319728,0.1870748299319728,0.1870748299319728,0.1870748299319728,0.1870748299319728,0.1870748299319728,0.1870748299319728,0.1870748299319728,0.1870748299319728,0.1870748299319728,0.1870748299319728,0.1870748299319728,0.19047619047619047,0.20068027210884354,0.20068027210884354,0.20748299319727892,0.20748299319727892,0.21768707482993196,0.21768707482993196,0.22108843537414966,0.22789115646258504,0.23469387755102042,0.23809523809523808,0.24489795918367346,0.25170068027210885,0.2653061224489796,0.2891156462585034,0.30952380952380953,0.336734693877551,0.35374149659863946,0.3843537414965986,0.40816326530612246,0.42857142857142855,0.42857142857142855,0.43197278911564624,0.43197278911564624,0.43197278911564624,0.43197278911564624,0.43197278911564624,0.43197278911564624,0.43197278911564624,0.43197278911564624,0.43197278911564624,0.43197278911564624,0.43197278911564624,0.43197278911564624,0.43197278911564624,0.43197278911564624,0.43197278911564624,0.43197278911564624,0.43197278911564624,0.43197278911564624,0.43197278911564624,0.43197278911564624,0.43197278911564624,0.43197278911564624,0.43197278911564624,0.43197278911564624,0.43197278911564624,0.43197278911564624,0.43197278911564624,0.43197278911564624,0.43197278911564624,0.43197278911564624,0.43197278911564624,0.43197278911564624,0.43197278911564624,0.43197278911564624,0.43197278911564624,0.43197278911564624,0.43197278911564624,0.43197278911564624,0.43197278911564624,0.43197278911564624,0.43197278911564624,0.43197278911564624,0.43197278911564624,0.43197278911564624,0.43197278911564624,0.43197278911564624,0.43197278911564624,0.43197278911564624,0.43197278911564624,0.43197278911564624,0.43197278911564624,0.43197278911564624,0.43197278911564624,0.43197278911564624,0.43197278911564624,0.43197278911564624,0.43197278911564624,0.43197278911564624,0.43197278911564624,0.43197278911564624,0.43197278911564624,0.43197278911564624,0.43197278911564624,0.43197278911564624,0.43197278911564624,0.42857142857142855,0.42857142857142855,0.42857142857142855,0.42857142857142855,0.42517006802721086,0.4217687074829932,0.4217687074829932,0.4217687074829932,0.43537414965986393,0.4421768707482993,0.4421768707482993,0.4421768707482993],"y":[1.4873015873015882,1.4873015873015882,1.4873015873015882,1.4873015873015882,1.4873015873015882,1.4873015873015882,1.4873015873015882,1.4873015873015882,1.4873015873015882,1.4873015873015882,1.4873015873015882,1.4873015873015882,1.4873015873015882,1.4873015873015882,1.4873015873015882,1.4873015873015882,1.4873015873015882,1.4873015873015882,1.4873015873015882,1.4873015873015882,1.4873015873015882,1.4873015873015882,1.4777777777777787,1.4777777777777787,1.4777777777777787,1.4777777777777787,1.4777777777777787,1.4777777777777787,1.4587301587301598,1.3634920634920644,1.2206349206349214,0.9920634920634928,0.8777777777777784,0.6015873015873021,0.2873015873015876,0.06825396825396847,-0.046031746031745875,-0.1888888888888888,-0.30317460317460315,-0.4746031746031747,-0.588888888888889,-0.750793650793651,-0.8746031746031749,-0.9698412698412702,-0.9888888888888893,-1.0174603174603178,-1.0174603174603178,-1.0174603174603178,-1.0174603174603178,-1.0174603174603178,-1.0269841269841273,-1.0269841269841273,-1.0269841269841273,-1.0269841269841273,-1.0269841269841273,-1.0269841269841273,-1.0269841269841273,-1.0269841269841273,-1.0269841269841273,-1.0269841269841273,-1.0269841269841273,-1.0269841269841273,-1.0269841269841273,-1.0650793650793655,-1.0650793650793655,-1.1126984126984132,-1.1317460317460322,-1.1603174603174609,-1.1984126984126988,-1.2269841269841275,-1.2460317460317465,-1.3031746031746037,-1.37936507936508,-1.4269841269841275,-1.4269841269841275,-1.4269841269841275,-1.4460317460317467,-1.4460317460317467,-1.4460317460317467,-1.417460317460318,-1.3412698412698418,-1.2936507936507942,-1.2746031746031752,-1.2650793650793657,-1.2460317460317465,-1.2460317460317465,-1.1984126984126988,-1.1412698412698417,-1.074603174603175,-1.055555555555556,-1.0174603174603178,-1.0174603174603178,-1.0174603174603178,-1.0174603174603178,-1.0174603174603178,-1.0174603174603178,-1.0174603174603178,-1.0174603174603178,-1.0460317460317463,-1.055555555555556,-1.055555555555556,-1.055555555555556,-1.055555555555556,-1.055555555555556,-1.055555555555556,-1.055555555555556,-1.055555555555556,-1.055555555555556,-1.0650793650793655,-1.0650793650793655,-1.0650793650793655,-1.0650793650793655,-1.0650793650793655,-1.0650793650793655,-1.055555555555556,-1.0269841269841273,-0.9888888888888893,-0.9317460317460321,-0.8841269841269844,-0.8650793650793653,-0.8079365079365082,-0.7698412698412701,-0.7031746031746033,-0.6365079365079367,-0.49365079365079373,-0.41746031746031753,-0.3507936507936508,-0.32222222222222224,-0.27460317460317457,-0.265079365079365,-0.246031746031746,-0.2174603174603174,-0.1888888888888888,-0.1507936507936507,-0.09365079365079353,-0.06507936507936493,-0.02698412698412682,-0.01746031746031729,-0.01746031746031729,0.0015873015873017686,0.011111111111111297,0.011111111111111297,0.011111111111111297,0.011111111111111297,0.011111111111111297,0.011111111111111297,0.011111111111111297,0.0015873015873017686,-0.02698412698412682,-0.02698412698412682,-0.03650793650793635,-0.03650793650793635,-0.03650793650793635,-0.03650793650793635,-0.03650793650793635,-0.03650793650793635,-0.03650793650793635,-0.03650793650793635,-0.03650793650793635,-0.03650793650793635,-0.03650793650793635,-0.03650793650793635,-0.03650793650793635,-0.03650793650793635,-0.03650793650793635,-0.03650793650793635,-0.03650793650793635,-0.03650793650793635,-0.03650793650793635,-0.03650793650793635,-0.03650793650793635,-0.02698412698412682,-0.02698412698412682,-0.01746031746031729,-0.01746031746031729,-0.01746031746031729,-0.00793650793650776,0.011111111111111297,0.020634920634920825,0.020634920634920825,0.020634920634920825,0.020634920634920825,0.020634920634920825,0.020634920634920825,0.020634920634920825,0.020634920634920825,0.020634920634920825,0.020634920634920825,0.020634920634920825,0.020634920634920825,0.020634920634920825,0.020634920634920825,0.020634920634920825,0.020634920634920825,0.020634920634920825,0.020634920634920825,0.020634920634920825,0.03968253968253988,0.077777777777778,0.09682539682539706,0.09682539682539706,0.09682539682539706,0.09682539682539706,0.09682539682539706,0.09682539682539706,0.09682539682539706,0.09682539682539706,0.09682539682539706,0.09682539682539706,0.09682539682539706,0.09682539682539706,0.08730158730158753,0.08730158730158753,0.08730158730158753,0.08730158730158753,0.08730158730158753,0.08730158730158753,0.077777777777778,0.077777777777778,0.077777777777778,0.077777777777778,0.077777777777778,0.077777777777778,0.077777777777778,0.06825396825396847,0.06825396825396847,0.06825396825396847,0.06825396825396847,0.06825396825396847,0.06825396825396847,0.06825396825396847,0.06825396825396847,0.06825396825396847,0.06825396825396847,0.06825396825396847,0.06825396825396847,0.06825396825396847,0.06825396825396847,0.06825396825396847,0.06825396825396847,0.06825396825396847,0.06825396825396847,0.06825396825396847,0.06825396825396847,0.06825396825396847,0.06825396825396847,0.06825396825396847,0.06825396825396847,0.06825396825396847,0.06825396825396847,0.06825396825396847,0.058730158730158945,0.058730158730158945,0.058730158730158945,0.058730158730158945,0.058730158730158945,0.058730158730158945,0.058730158730158945,0.058730158730158945,0.058730158730158945,0.058730158730158945,0.03968253968253988,0.03968253968253988,0.03968253968253988,0.03968253968253988,0.03968253968253988,0.03968253968253988,0.03968253968253988,0.030158730158730357,0.030158730158730357,0.030158730158730357,0.030158730158730357,0.030158730158730357,0.030158730158730357,0.030158730158730357,0.030158730158730357,0.030158730158730357,0.030158730158730357,0.030158730158730357,0.030158730158730357,0.030158730158730357,0.030158730158730357,0.030158730158730357,0.030158730158730357,0.030158730158730357,0.030158730158730357,0.030158730158730357,0.030158730158730357,0.030158730158730357,0.030158730158730357,0.030158730158730357,0.030158730158730357,0.020634920634920825,0.011111111111111297,-0.00793650793650776,-0.00793650793650776,-0.03650793650793635,-0.046031746031745875,-0.05555555555555541,-0.05555555555555541,-0.05555555555555541,-0.05555555555555541,-0.05555555555555541,-0.05555555555555541,-0.05555555555555541,-0.05555555555555541,-0.05555555555555541,-0.05555555555555541,-0.05555555555555541,-0.05555555555555541,-0.05555555555555541,-0.05555555555555541,-0.05555555555555541,-0.05555555555555541,-0.05555555555555541,-0.05555555555555541,-0.05555555555555541,-0.05555555555555541,-0.05555555555555541,-0.05555555555555541,-0.05555555555555541,-0.05555555555555541,-0.05555555555555541,-0.05555555555555541,-0.05555555555555541,-0.05555555555555541,-0.05555555555555541,-0.05555555555555541,-0.05555555555555541,-0.05555555555555541,-0.046031746031745875,-0.046031746031745875,-0.046031746031745875,-0.046031746031745875,-0.046031746031745875,-0.046031746031745875,-0.046031746031745875,-0.046031746031745875,-0.046031746031745875,-0.046031746031745875,-0.046031746031745875,-0.046031746031745875,-0.046031746031745875,-0.046031746031745875,-0.046031746031745875,-0.046031746031745875,-0.046031746031745875,-0.046031746031745875,-0.046031746031745875,-0.046031746031745875,-0.046031746031745875,-0.046031746031745875,-0.046031746031745875,-0.046031746031745875,-0.046031746031745875,-0.046031746031745875,-0.046031746031745875,-0.046031746031745875,-0.046031746031745875,-0.046031746031745875,-0.046031746031745875,-0.046031746031745875,-0.046031746031745875,-0.046031746031745875,-0.046031746031745875,-0.046031746031745875,-0.02698412698412682,-0.02698412698412682,-0.01746031746031729,-0.01746031746031729,-0.00793650793650776,-0.00793650793650776,0.011111111111111297,0.011111111111111297,0.011111111111111297,0.011111111111111297,-0.046031746031745875,-0.17936507936507928,-0.4841269841269842,-0.8174603174603178,-1.1317460317460322,-1.255555555555556,-1.4746031746031751,-1.6746031746031753,-1.8079365079365088,-2.0365079365079373,-2.103174603174604,-2.1507936507936516,-2.1603174603174615,-2.1793650793650805,-2.1793650793650805,-2.1793650793650805,-2.1793650793650805,-2.1793650793650805,-2.1603174603174615,-2.1126984126984136,-2.084126984126985,-2.0174603174603183,-1.9793650793650803,-1.9698412698412708,-1.9507936507936516,-1.9222222222222232,-1.9126984126984135,-1.9126984126984135,-1.865079365079366,-1.8555555555555563,-1.8555555555555563,-1.8365079365079373,-1.8365079365079373,-1.8365079365079373,-1.8365079365079373,-1.8365079365079373,-1.8365079365079373,-1.8365079365079373,-1.8365079365079373,-1.8365079365079373,-1.8365079365079373,-1.8365079365079373,-1.8365079365079373,-1.8365079365079373,-1.8365079365079373,-1.8365079365079373,-1.8365079365079373,-1.8365079365079373,-1.8365079365079373,-1.8365079365079373,-1.8365079365079373,-1.8365079365079373,-1.8365079365079373,-1.8365079365079373,-1.8365079365079373,-1.8365079365079373,-1.8365079365079373,-1.8365079365079373,-1.8365079365079373,-1.8365079365079373,-1.8365079365079373,-1.8365079365079373,-1.8365079365079373,-1.8460317460317468,-1.8460317460317468,-1.8460317460317468,-1.8460317460317468,-1.8460317460317468,-1.8460317460317468,-1.8460317460317468,-1.8460317460317468,-1.8460317460317468,-1.8460317460317468,-1.8460317460317468,-1.8460317460317468,-1.8460317460317468,-1.8365079365079373,-1.6936507936507943,-1.5222222222222228,-1.398412698412699,-1.255555555555556,-1.0079365079365084,-0.6936507936507939,-0.4555555555555556,-0.3603174603174603,-0.11269841269841258,0.13492063492063516,0.32539682539682574,0.42063492063492103,0.5539682539682544,0.6301587301587307,0.6492063492063498,0.6682539682539688,0.6873015873015879,0.6968253968253973,0.706349206349207,0.7349206349206355,0.7349206349206355,0.7349206349206355,0.7349206349206355,0.7349206349206355,0.7349206349206355,0.7349206349206355,0.7349206349206355,0.706349206349207,0.6873015873015879,0.6492063492063498,0.6492063492063498,0.6492063492063498,0.6206349206349212,0.6206349206349212,0.5920634920634925,0.5730158730158735,0.544444444444445,0.544444444444445,0.5253968253968259,0.5158730158730164,0.5063492063492068,0.5063492063492068,0.5063492063492068,0.5063492063492068,0.5063492063492068,0.5063492063492068,0.5063492063492068,0.5063492063492068,0.5063492063492068,0.5158730158730164,0.5253968253968259,0.544444444444445,0.544444444444445,0.5539682539682544,0.5539682539682544,0.5539682539682544,0.5539682539682544,0.5539682539682544,0.5539682539682544,0.5539682539682544,0.5539682539682544,0.5539682539682544,0.5539682539682544,0.5539682539682544,0.5539682539682544,0.5539682539682544,0.5539682539682544,0.5539682539682544,0.5539682539682544,0.5539682539682544,0.5539682539682544,0.544444444444445,0.544444444444445,0.5349206349206354,0.5253968253968259,0.5253968253968259,0.5063492063492068,0.5063492063492068,0.5063492063492068,0.5063492063492068,0.5063492063492068,0.5063492063492068,0.5063492063492068,0.5063492063492068,0.5063492063492068,0.5063492063492068,0.5063492063492068,0.4968253968253973,0.4968253968253973,0.48730158730158774,0.48730158730158774,0.48730158730158774,0.48730158730158774,0.48730158730158774,0.48730158730158774,0.48730158730158774,0.48730158730158774,0.48730158730158774,0.48730158730158774,0.48730158730158774,0.48730158730158774,0.48730158730158774,0.48730158730158774,0.48730158730158774,0.48730158730158774,0.48730158730158774,0.48730158730158774,0.4777777777777782,0.42063492063492103,0.41111111111111154,0.41111111111111154,0.41111111111111154,0.41111111111111154,0.41111111111111154,0.41111111111111154,0.41111111111111154,0.41111111111111154,0.41111111111111154,0.41111111111111154,0.41111111111111154,0.41111111111111154,0.41111111111111154,0.41111111111111154,0.41111111111111154,0.41111111111111154,0.41111111111111154,0.41111111111111154,0.41111111111111154,0.41111111111111154,0.41111111111111154,0.41111111111111154,0.41111111111111154,0.41111111111111154,0.42063492063492103,0.4301587301587306,0.4301587301587306,0.4301587301587306,0.4301587301587306,0.4301587301587306,0.4301587301587306,0.4301587301587306,0.4301587301587306,0.4301587301587306,0.4301587301587306,0.4301587301587306,0.4301587301587306,0.4301587301587306,0.4301587301587306,0.4301587301587306,0.4301587301587306,0.4301587301587306,0.4301587301587306,0.4301587301587306,0.4301587301587306,0.4301587301587306,0.4301587301587306,0.4301587301587306,0.4301587301587306,0.4301587301587306,0.4301587301587306,0.4301587301587306,0.4301587301587306,0.4301587301587306,0.4301587301587306,0.4301587301587306,0.4301587301587306,0.4301587301587306,0.4301587301587306,0.4301587301587306,0.4301587301587306,0.4301587301587306,0.4301587301587306,0.4301587301587306,0.4301587301587306,0.4301587301587306,0.4301587301587306,0.4301587301587306,0.4301587301587306,0.4301587301587306,0.4301587301587306,0.4301587301587306,0.4301587301587306,0.4301587301587306,0.4301587301587306,0.4301587301587306,0.4301587301587306,0.4301587301587306,0.4301587301587306,0.4301587301587306,0.4301587301587306,0.4301587301587306,0.4301587301587306,0.4301587301587306,0.4301587301587306,0.4301587301587306,0.4492063492063496,0.4492063492063496,0.4492063492063496,0.4492063492063496,0.4492063492063496,0.4492063492063496,0.4492063492063496,0.45873015873015915,0.45873015873015915,0.45873015873015915,0.45873015873015915,0.45873015873015915,0.45873015873015915,0.45873015873015915,0.45873015873015915,0.45873015873015915,0.45873015873015915,0.45873015873015915,0.45873015873015915,0.45873015873015915,0.4682539682539687,0.4682539682539687,0.4682539682539687,0.4682539682539687,0.4682539682539687,0.4682539682539687,0.4682539682539687,0.4682539682539687,0.4682539682539687,0.4682539682539687,0.4682539682539687,0.4682539682539687,0.4682539682539687,0.4682539682539687,0.4682539682539687,0.4682539682539687,0.4682539682539687,0.4682539682539687,0.4682539682539687,0.4682539682539687,0.4682539682539687,0.4682539682539687,0.4682539682539687,0.4682539682539687,0.4682539682539687,0.4682539682539687,0.4682539682539687,0.4682539682539687,0.4682539682539687,0.4682539682539687,0.4682539682539687,0.4682539682539687,0.4682539682539687,0.4682539682539687,0.4682539682539687,0.4682539682539687,0.4682539682539687,0.4682539682539687,0.4682539682539687,0.4682539682539687,0.4682539682539687,0.4682539682539687,0.4682539682539687,0.4682539682539687,0.4682539682539687,0.4682539682539687,0.4682539682539687,0.4682539682539687,0.4682539682539687,0.4682539682539687,0.4682539682539687,0.4682539682539687,0.4682539682539687,0.4682539682539687,0.4682539682539687,0.4682539682539687,0.4682539682539687,0.4682539682539687,0.4682539682539687,0.4682539682539687,0.4682539682539687,0.4682539682539687,0.4682539682539687,0.4682539682539687,0.4682539682539687,0.4682539682539687,0.4682539682539687,0.4682539682539687,0.4682539682539687,0.4682539682539687,0.4682539682539687,0.4682539682539687,0.4682539682539687,0.4682539682539687,0.4682539682539687,0.4682539682539687,0.4682539682539687,0.4682539682539687,0.4682539682539687,0.4682539682539687,0.4682539682539687,0.4682539682539687,0.4682539682539687,0.4682539682539687,0.4682539682539687,0.4682539682539687,0.4682539682539687,0.4682539682539687,0.4682539682539687,0.4682539682539687,0.4682539682539687,0.4682539682539687,0.4682539682539687,0.4682539682539687,0.4682539682539687,0.4682539682539687,0.4682539682539687,0.4682539682539687,0.4682539682539687,0.4682539682539687,0.4682539682539687,0.4682539682539687,0.4682539682539687,0.4682539682539687,0.4682539682539687,0.4682539682539687,0.4682539682539687,0.4682539682539687,0.4682539682539687,0.4682539682539687,0.4682539682539687,0.4682539682539687,0.4682539682539687,0.4682539682539687,0.4682539682539687,0.4682539682539687,0.4777777777777782,0.4777777777777782,0.4777777777777782,0.4777777777777782,0.5158730158730164,0.5253968253968259,0.5253968253968259,0.5253968253968259,0.5349206349206354,0.5349206349206354,0.5349206349206354,0.5730158730158735,0.582539682539683,0.5920634920634925,0.6206349206349212,0.6682539682539688,0.706349206349207,0.7253968253968259,0.7730158730158736,0.8206349206349213,0.8873015873015879,0.906349206349207,0.9730158730158738,1.0111111111111117,1.0111111111111117,1.030158730158731,1.0396825396825404,1.0396825396825404,1.0396825396825404,1.0396825396825404,1.0396825396825404,1.0396825396825404,1.0396825396825404,1.0396825396825404,1.0396825396825404,1.0396825396825404,1.0396825396825404,1.0396825396825404,1.0396825396825404,1.0396825396825404,1.0396825396825404,1.0396825396825404,1.0396825396825404,1.0396825396825404,1.0396825396825404,1.0396825396825404,1.0396825396825404,1.0396825396825404,1.0396825396825404,1.0396825396825404,1.0396825396825404,1.0396825396825404,1.0396825396825404,1.0396825396825404,1.0396825396825404,1.0396825396825404,1.0396825396825404,1.0396825396825404,1.0396825396825404,1.0396825396825404,1.0396825396825404,1.0396825396825404,1.0396825396825404,1.0396825396825404,1.0396825396825404,1.0396825396825404,1.0396825396825404,1.0396825396825404,1.0396825396825404,1.0396825396825404,1.0396825396825404,1.0396825396825404,1.0396825396825404,1.0396825396825404,1.0396825396825404,1.0396825396825404,1.0396825396825404,1.0396825396825404,1.0396825396825404,1.0396825396825404,1.0396825396825404,1.0396825396825404,1.0396825396825404,1.0396825396825404,1.0396825396825404,1.0396825396825404,1.0396825396825404,1.0396825396825404,1.0396825396825404,1.0396825396825404,1.0396825396825404,1.0396825396825404,1.0396825396825404,1.0396825396825404,1.0396825396825404,1.0396825396825404,1.0396825396825404,1.0396825396825404,1.0396825396825404,1.0396825396825404,1.0396825396825404,1.0396825396825404,1.0396825396825404,1.0396825396825404,1.0396825396825404,1.0396825396825404,1.0396825396825404,1.0396825396825404,1.0396825396825404,1.030158730158731,1.030158730158731,1.030158730158731,1.030158730158731,1.030158730158731,1.030158730158731,1.030158730158731,1.030158730158731,1.030158730158731,1.030158730158731,1.030158730158731,1.030158730158731,1.030158730158731,1.0206349206349214,1.0206349206349214,1.0206349206349214,1.0206349206349214,1.0206349206349214,1.0206349206349214,1.0206349206349214,1.0206349206349214,1.0206349206349214,1.0206349206349214,1.0206349206349214,1.0206349206349214,1.0206349206349214,1.0206349206349214,1.0206349206349214,1.0111111111111117,0.9920634920634928,0.9349206349206356,0.906349206349207,0.906349206349207,0.906349206349207,0.906349206349207,0.906349206349207,0.906349206349207,0.906349206349207,0.906349206349207,0.906349206349207,0.906349206349207,0.906349206349207,0.906349206349207,0.906349206349207,0.906349206349207,0.906349206349207,0.906349206349207,0.8968253968253975,0.8968253968253975,0.8873015873015879,0.8682539682539689,0.8492063492063499,0.8111111111111118,0.7349206349206355,0.6206349206349212,0.6015873015873021,0.5539682539682544,0.5253968253968259,0.5063492063492068,0.4968253968253973,0.4968253968253973,0.4968253968253973,0.4968253968253973,0.4968253968253973,0.4968253968253973,0.4968253968253973,0.4968253968253973,0.4968253968253973,0.5063492063492068,0.5063492063492068,0.5253968253968259,0.5253968253968259,0.5253968253968259,0.5253968253968259,0.544444444444445,0.544444444444445,0.544444444444445,0.544444444444445,0.544444444444445,0.544444444444445,0.544444444444445,0.544444444444445,0.544444444444445,0.544444444444445,0.544444444444445,0.544444444444445,0.544444444444445,0.544444444444445,0.5349206349206354,0.5349206349206354,0.5349206349206354,0.5349206349206354,0.5349206349206354,0.5349206349206354,0.5349206349206354,0.5349206349206354,0.5349206349206354,0.5349206349206354,0.5349206349206354,0.5349206349206354,0.5349206349206354,0.5349206349206354,0.5349206349206354,0.5349206349206354,0.5349206349206354,0.5349206349206354,0.5349206349206354,0.5349206349206354,0.5349206349206354,0.5349206349206354,0.5349206349206354,0.5349206349206354,0.5349206349206354,0.5349206349206354,0.5349206349206354,0.5349206349206354,0.5349206349206354,0.5349206349206354,0.5349206349206354,0.5349206349206354,0.5349206349206354,0.5349206349206354,0.5349206349206354,0.5349206349206354,0.5349206349206354,0.5349206349206354,0.5349206349206354,0.5349206349206354,0.5158730158730164,0.5063492063492068,0.5063492063492068,0.5063492063492068,0.5063492063492068,0.4968253968253973,0.48730158730158774,0.48730158730158774,0.48730158730158774,0.48730158730158774,0.45873015873015915,0.45873015873015915,0.4492063492063496,0.4492063492063496,0.4492063492063496,0.4492063492063496,0.4492063492063496,0.4492063492063496,0.4492063492063496,0.45873015873015915,0.45873015873015915,0.45873015873015915,0.45873015873015915,0.45873015873015915,0.45873015873015915,0.4682539682539687,0.4682539682539687,0.4682539682539687,0.4682539682539687,0.4682539682539687,0.4682539682539687,0.4682539682539687,0.4682539682539687,0.4682539682539687,0.4682539682539687,0.4682539682539687,0.45873015873015915,0.4492063492063496,0.4492063492063496,0.4492063492063496,0.4492063492063496,0.4492063492063496,0.4492063492063496,0.4492063492063496,0.4492063492063496,0.4492063492063496,0.4492063492063496,0.45873015873015915,0.45873015873015915,0.45873015873015915,0.45873015873015915,0.45873015873015915,0.45873015873015915,0.45873015873015915,0.45873015873015915,0.45873015873015915,0.45873015873015915,0.45873015873015915,0.45873015873015915,0.45873015873015915,0.45873015873015915,0.45873015873015915,0.45873015873015915,0.45873015873015915,0.45873015873015915,0.45873015873015915,0.45873015873015915,0.45873015873015915,0.45873015873015915,0.45873015873015915,0.45873015873015915,0.45873015873015915,0.45873015873015915,0.45873015873015915,0.45873015873015915,0.45873015873015915,0.45873015873015915,0.45873015873015915,0.45873015873015915,0.45873015873015915,0.45873015873015915,0.45873015873015915,0.45873015873015915,0.45873015873015915,0.45873015873015915,0.45873015873015915,0.45873015873015915,0.45873015873015915,0.45873015873015915,0.45873015873015915,0.45873015873015915,0.45873015873015915,0.45873015873015915,0.45873015873015915,0.45873015873015915,0.45873015873015915,0.45873015873015915,0.45873015873015915,0.45873015873015915,0.45873015873015915,0.45873015873015915,0.4682539682539687,0.4682539682539687,0.4682539682539687,0.4682539682539687,0.4682539682539687,0.4682539682539687,0.4682539682539687,0.4682539682539687,0.4777777777777782,0.4777777777777782,0.4968253968253973,0.5253968253968259,0.5253968253968259,0.5253968253968259,0.5253968253968259,0.5253968253968259,0.5253968253968259,0.5253968253968259,0.5253968253968259,0.5253968253968259,0.5253968253968259,0.5158730158730164,0.4968253968253973,0.4968253968253973,0.4968253968253973,0.4968253968253973,0.4968253968253973,0.4968253968253973,0.4968253968253973,0.4968253968253973,0.48730158730158774,0.4777777777777782,0.4777777777777782,0.4777777777777782,0.4777777777777782,0.4777777777777782,0.4777777777777782,0.4777777777777782,0.4777777777777782,0.4777777777777782,0.4777777777777782,0.4777777777777782,0.4777777777777782,0.4777777777777782,0.4777777777777782,0.4777777777777782,0.4777777777777782,0.4777777777777782,0.4777777777777782,0.4777777777777782,0.4777777777777782,0.4777777777777782,0.4777777777777782,0.4777777777777782,0.4777777777777782,0.4777777777777782,0.4777777777777782,0.4777777777777782,0.4777777777777782,0.4777777777777782,0.4777777777777782,0.4777777777777782,0.4777777777777782,0.4777777777777782,0.4777777777777782,0.4777777777777782,0.4682539682539687,0.41111111111111154,0.32539682539682574,0.29682539682539716,0.23968253968254,0.20158730158730187,0.1730158730158733,0.15396825396825423,0.12539682539682565,0.10634920634920658,0.10634920634920658,0.10634920634920658,0.09682539682539706,0.077777777777778,0.04920634920634941,0.03968253968253988,0.011111111111111297,0.011111111111111297,0.011111111111111297,0.011111111111111297,0.011111111111111297,0.011111111111111297,0.011111111111111297,0.011111111111111297,0.011111111111111297,0.011111111111111297,0.011111111111111297,0.011111111111111297,0.011111111111111297,0.011111111111111297,0.011111111111111297,0.011111111111111297,0.011111111111111297,0.011111111111111297,0.011111111111111297,0.011111111111111297,0.011111111111111297,0.011111111111111297,0.011111111111111297,0.011111111111111297,0.011111111111111297,0.011111111111111297,0.011111111111111297,0.011111111111111297,0.011111111111111297,0.011111111111111297,0.011111111111111297,0.011111111111111297,0.011111111111111297,0.011111111111111297,0.011111111111111297,0.011111111111111297,0.011111111111111297,0.011111111111111297,0.011111111111111297,0.011111111111111297,0.020634920634920825,0.020634920634920825,0.020634920634920825,0.020634920634920825,0.020634920634920825,0.020634920634920825,0.020634920634920825,0.020634920634920825,0.020634920634920825,0.020634920634920825,0.03968253968253988,0.03968253968253988,0.03968253968253988,0.03968253968253988,0.03968253968253988,0.03968253968253988,0.03968253968253988,0.03968253968253988,0.03968253968253988,0.03968253968253988,0.03968253968253988,0.03968253968253988,0.03968253968253988,0.03968253968253988,0.03968253968253988,0.03968253968253988,0.03968253968253988,0.03968253968253988,0.03968253968253988,0.03968253968253988,0.03968253968253988,0.03968253968253988,0.03968253968253988,0.03968253968253988,0.03968253968253988,0.03968253968253988,0.03968253968253988,0.03968253968253988,0.03968253968253988,0.03968253968253988,0.03968253968253988,0.03968253968253988,0.03968253968253988,0.03968253968253988,0.03968253968253988,0.03968253968253988,0.03968253968253988,0.03968253968253988,0.03968253968253988,0.03968253968253988,0.03968253968253988,0.03968253968253988,0.03968253968253988,0.03968253968253988,0.03968253968253988,0.03968253968253988,0.03968253968253988,0.03968253968253988,0.03968253968253988,0.030158730158730357,0.020634920634920825,0.011111111111111297,0.011111111111111297,0.011111111111111297,0.011111111111111297,0.011111111111111297,0.011111111111111297,0.011111111111111297,0.011111111111111297,0.020634920634920825,0.04920634920634941,0.058730158730158945,0.058730158730158945,0.06825396825396847,0.06825396825396847,0.06825396825396847,0.06825396825396847,0.06825396825396847,0.06825396825396847,0.06825396825396847,0.06825396825396847,0.06825396825396847,0.06825396825396847,0.06825396825396847,0.06825396825396847,0.06825396825396847,0.06825396825396847,0.06825396825396847,0.06825396825396847,0.04920634920634941,-0.13174603174603164,-0.23650793650793644,-0.4841269841269842,-0.7222222222222224,-0.9412698412698416,-1.074603174603175,-1.1984126984126988,-1.398412698412699,-1.5698412698412705,-1.6269841269841276,-1.6841269841269848,-1.703174603174604,-1.703174603174604,-1.703174603174604,-1.703174603174604,-1.703174603174604,-1.703174603174604,-1.722222222222223,-1.741269841269842,-1.7698412698412707,-1.7793650793650801,-1.8174603174603183,-1.8460317460317468,-1.8555555555555563,-1.8555555555555563,-1.8555555555555563,-1.8555555555555563,-1.8555555555555563,-1.8555555555555563,-1.8746031746031755,-1.8746031746031755,-1.8746031746031755,-1.8746031746031755,-1.8746031746031755,-1.8746031746031755,-1.8746031746031755,-1.8746031746031755,-1.8746031746031755,-1.8746031746031755,-1.8746031746031755,-1.8746031746031755,-1.8746031746031755,-1.8746031746031755,-1.8746031746031755,-1.8746031746031755,-1.8746031746031755,-1.8746031746031755,-1.8746031746031755,-1.8746031746031755,-1.8746031746031755,-1.8746031746031755,-1.8746031746031755,-1.8746031746031755,-1.8746031746031755,-1.8746031746031755,-1.8746031746031755,-1.8746031746031755,-1.8746031746031755,-1.8746031746031755,-1.8746031746031755,-1.8746031746031755,-1.8746031746031755,-1.8746031746031755,-1.8746031746031755,-1.8746031746031755,-1.8746031746031755,-1.8746031746031755,-1.8746031746031755,-1.8746031746031755,-1.8746031746031755,-1.8746031746031755,-1.8746031746031755,-1.8746031746031755,-1.8746031746031755,-1.8746031746031755,-1.8746031746031755,-1.8746031746031755,-1.8746031746031755,-1.8746031746031755,-1.8746031746031755,-1.8746031746031755,-1.8746031746031755,-1.8746031746031755,-1.8746031746031755,-1.8746031746031755,-1.8746031746031755,-1.8746031746031755,-1.865079365079366,-1.865079365079366,-1.865079365079366,-1.865079365079366,-1.865079365079366,-1.865079365079366,-1.865079365079366,-1.865079365079366,-1.865079365079366,-1.865079365079366,-1.865079365079366,-1.865079365079366,-1.865079365079366,-1.865079365079366,-1.865079365079366,-1.865079365079366,-1.865079365079366,-1.865079365079366,-1.865079365079366,-1.865079365079366,-1.865079365079366,-1.865079365079366,-1.865079365079366,-1.865079365079366,-1.865079365079366,-1.865079365079366,-1.865079365079366,-1.865079365079366,-1.865079365079366,-1.865079365079366,-1.865079365079366,-1.865079365079366,-1.865079365079366,-1.865079365079366,-1.865079365079366,-1.865079365079366,-1.865079365079366,-1.865079365079366,-1.865079365079366,-1.865079365079366,-1.865079365079366,-1.865079365079366,-1.865079365079366,-1.865079365079366,-1.8555555555555563,-1.8555555555555563,-1.8555555555555563,-1.8555555555555563,-1.8365079365079373,-1.8365079365079373,-1.8365079365079373,-1.8365079365079373,-1.8365079365079373,-1.8555555555555563,-1.8555555555555563,-1.865079365079366,-1.8746031746031755,-1.884126984126985,-1.884126984126985,-1.8936507936507945,-1.903174603174604,-1.903174603174604,-1.903174603174604,-1.9126984126984135,-1.9126984126984135,-1.9126984126984135,-1.9126984126984135,-1.9126984126984135,-1.9126984126984135,-1.9126984126984135,-1.9317460317460327,-1.9317460317460327,-1.9317460317460327,-1.9317460317460327,-1.9317460317460327,-1.9317460317460327,-1.9317460317460327,-1.9317460317460327,-1.9317460317460327,-1.9317460317460327,-1.9317460317460327,-1.9317460317460327,-1.9317460317460327,-1.9317460317460327,-1.9317460317460327,-1.9317460317460327,-1.9317460317460327,-1.9317460317460327,-1.9317460317460327,-1.9317460317460327,-1.9317460317460327,-1.9222222222222232,-1.884126984126985,-1.7793650793650801,-1.6460317460317468,-1.4746031746031751,-1.3698412698412703,-1.1126984126984132,-0.8841269841269844,-0.6174603174603176,-0.5317460317460319,-0.3412698412698413,-0.265079365079365,-0.22698412698412693,-0.22698412698412693,-0.22698412698412693,-0.22698412698412693,-0.22698412698412693,-0.246031746031746,-0.25555555555555554,-0.2841269841269841,-0.2841269841269841,-0.2841269841269841,-0.2841269841269841,-0.23650793650793644,-0.2174603174603174,-0.1888888888888888,-0.16031746031746022,-0.1507936507936507,-0.1507936507936507,-0.12222222222222211,-0.09365079365079353,-0.046031746031745875,-0.02698412698412682,0.030158730158730357,0.077777777777778,0.1444444444444447,0.1730158730158733,0.24920634920634951,0.36349206349206387,0.42063492063492103,0.5063492063492068,0.5539682539682544,0.6015873015873021,0.6111111111111116,0.6301587301587307,0.6682539682539688,0.6777777777777784,0.6968253968253973,0.744444444444445,0.7539682539682545,0.8015873015873022,0.8206349206349213,0.8682539682539689,0.9158730158730165,0.9253968253968261,0.9253968253968261,0.9253968253968261,0.9253968253968261,0.9253968253968261,0.9253968253968261,0.9253968253968261,0.9444444444444451,0.9539682539682547,0.9825396825396833,1.0111111111111117,1.0111111111111117,1.0111111111111117,1.0111111111111117,1.0111111111111117,1.0111111111111117,1.0111111111111117,1.0111111111111117,1.0111111111111117,1.0111111111111117,1.0111111111111117,1.0111111111111117,1.0206349206349214,1.0206349206349214,1.030158730158731,1.030158730158731,1.0396825396825404,1.0396825396825404,1.0587301587301594,1.0682539682539691,1.0682539682539691,1.0682539682539691,1.0682539682539691,1.0682539682539691,1.0682539682539691,1.0777777777777786,1.0777777777777786,1.0777777777777786,1.0777777777777786,1.0777777777777786,1.1730158730158737,1.268253968253969,1.268253968253969,1.268253968253969,1.268253968253969,1.268253968253969,1.268253968253969,1.2587301587301596,1.24920634920635,1.211111111111112,1.211111111111112,1.2015873015873024,1.2015873015873024,1.2015873015873024,1.192063492063493,1.1730158730158737,1.1539682539682548,1.1253968253968263,1.1158730158730166,1.0968253968253976,1.087301587301588,1.087301587301588,1.0682539682539691,1.030158730158731,1.0206349206349214,1.0111111111111117,0.9920634920634928,0.9920634920634928,0.9634920634920642,0.9539682539682547,0.9539682539682547,0.9444444444444451,0.9444444444444451,0.9444444444444451,0.9444444444444451,0.9444444444444451,0.9444444444444451,0.9444444444444451,0.9444444444444451,0.9444444444444451,0.9444444444444451,0.9444444444444451,0.9444444444444451,0.9444444444444451,0.9444444444444451,0.9444444444444451,0.9444444444444451,0.9444444444444451,0.9444444444444451,0.906349206349207,0.7825396825396831,0.6873015873015879,0.6301587301587307,0.5063492063492068,0.42063492063492103,0.401587301587302,0.3349206349206353,0.29682539682539716,0.2777777777777781,0.2777777777777781,0.2777777777777781,0.2777777777777781,0.2777777777777781,0.2777777777777781,0.2682539682539686,0.2682539682539686,0.2682539682539686,0.2682539682539686,0.2682539682539686,0.2682539682539686,0.2682539682539686,0.25873015873015903,0.24920634920634951,0.24920634920634951,0.24920634920634951,0.23968253968254,0.23968253968254,0.23968253968254,0.22063492063492093,0.22063492063492093,0.22063492063492093,0.22063492063492093,0.22063492063492093,0.22063492063492093,0.20158730158730187,0.20158730158730187,0.20158730158730187,0.20158730158730187,0.20158730158730187,0.20158730158730187,0.20158730158730187,0.20158730158730187,0.20158730158730187,0.20158730158730187,0.20158730158730187,0.20158730158730187,0.20158730158730187,0.20158730158730187,0.19206349206349235,0.19206349206349235,0.19206349206349235,0.19206349206349235,0.19206349206349235,0.21111111111111142,0.21111111111111142,0.22063492063492093,0.24920634920634951,0.25873015873015903,0.2682539682539686,0.2777777777777781,0.29682539682539716,0.31587301587301625,0.34444444444444483,0.3825396825396829,0.41111111111111154,0.45873015873015915,0.4777777777777782,0.5253968253968259,0.5539682539682544,0.5634920634920639,0.5730158730158735,0.6015873015873021,0.6206349206349212,0.6396825396825402,0.6396825396825402,0.6492063492063498,0.6492063492063498,0.6492063492063498,0.6492063492063498,0.6492063492063498,0.6492063492063498,0.6492063492063498,0.6492063492063498,0.6396825396825402,0.582539682539683,0.5539682539682544,0.4682539682539687,0.41111111111111154,0.36349206349206387,0.36349206349206387,0.34444444444444483,0.2873015873015876,0.20158730158730187,0.16349206349206377,0.058730158730158945,0.020634920634920825,0.0015873015873017686,0.0015873015873017686,0.0015873015873017686,0.0015873015873017686,0.0015873015873017686,0.0015873015873017686,0.0015873015873017686,0.0015873015873017686,0.0015873015873017686,0.0015873015873017686,0.0015873015873017686,0.0015873015873017686,-0.00793650793650776,-0.01746031746031729,-0.046031746031745875,-0.046031746031745875,-0.05555555555555541,-0.05555555555555541,-0.05555555555555541,-0.05555555555555541,-0.05555555555555541,-0.05555555555555541,-0.05555555555555541,-0.05555555555555541,-0.05555555555555541,-0.05555555555555541,-0.05555555555555541,-0.05555555555555541,-0.05555555555555541,-0.05555555555555541,-0.05555555555555541,-0.05555555555555541,-0.05555555555555541,-0.05555555555555541,-0.05555555555555541,-0.05555555555555541,-0.05555555555555541,-0.05555555555555541,-0.05555555555555541,-0.05555555555555541,-0.06507936507936493,-0.06507936507936493,-0.06507936507936493,-0.06507936507936493,-0.06507936507936493,-0.06507936507936493,-0.06507936507936493,-0.06507936507936493,-0.06507936507936493,-0.06507936507936493,-0.07460317460317446,-0.07460317460317446,-0.07460317460317446,-0.07460317460317446,-0.07460317460317446,-0.07460317460317446,-0.07460317460317446,-0.084126984126984,-0.07460317460317446,-0.07460317460317446,-0.07460317460317446,-0.07460317460317446,-0.07460317460317446,-0.07460317460317446,-0.07460317460317446,-0.07460317460317446,-0.07460317460317446,-0.07460317460317446,-0.07460317460317446,-0.07460317460317446,-0.07460317460317446,-0.07460317460317446,-0.07460317460317446,-0.07460317460317446,-0.06507936507936493,-0.05555555555555541,-0.05555555555555541,-0.046031746031745875,-0.046031746031745875,-0.01746031746031729,-0.01746031746031729,-0.00793650793650776,0.011111111111111297,0.020634920634920825,0.030158730158730357,0.04920634920634941,0.10634920634920658,0.15396825396825423,0.24920634920634951,0.34444444444444483,0.4777777777777782,0.5730158730158735,0.6682539682539688,0.706349206349207,0.7634920634920641,0.7634920634920641,0.7634920634920641,0.7730158730158736,0.7730158730158736,0.7730158730158736,0.7730158730158736,0.7730158730158736,0.7730158730158736,0.7730158730158736,0.7730158730158736,0.7730158730158736,0.7730158730158736,0.7730158730158736,0.7730158730158736,0.7730158730158736,0.7730158730158736,0.7730158730158736,0.7730158730158736,0.7730158730158736,0.7730158730158736,0.7730158730158736,0.7920634920634927,0.7920634920634927,0.7920634920634927,0.7920634920634927,0.7920634920634927,0.7920634920634927,0.7920634920634927,0.7920634920634927,0.7920634920634927,0.7920634920634927,0.7920634920634927,0.7920634920634927,0.7920634920634927,0.7920634920634927,0.7920634920634927,0.7920634920634927,0.7920634920634927,0.7920634920634927,0.7920634920634927,0.7920634920634927,0.7920634920634927,0.7920634920634927,0.7920634920634927,0.7920634920634927,0.7920634920634927,0.7920634920634927,0.7920634920634927,0.7920634920634927,0.7920634920634927,0.7920634920634927,0.7920634920634927,0.7920634920634927,0.7920634920634927,0.7920634920634927,0.7920634920634927,0.7920634920634927,0.7920634920634927,0.7920634920634927,0.7920634920634927,0.7920634920634927,0.7920634920634927,0.7920634920634927,0.7920634920634927,0.7920634920634927,0.7920634920634927,0.7920634920634927,0.7920634920634927,0.7920634920634927,0.7920634920634927,0.8015873015873022,0.8777777777777784,0.9444444444444451,1.0682539682539691,1.2396825396825406,1.4015873015873026,1.4968253968253977,1.6396825396825407]},"final_keyboard_state":["E","R","T","O","L","M","A","Z","B"],"num_clicks":9,"points":11,"cheat":false,"trial_type":"Hangman","trial_index":5,"time_elapsed":64558,"internal_node_id":"0.0-4.0","protocol_sum":"","subject_identifier":520,"subject_sum":[57,187,136,244,13,58,162,178,254,157,234,103,190,39,199,71,101,219,14,187,63,243,207,143,183,121,175,99,25,250,32,69],"subject_pair":260,"STUDY_ID":"66a3ed3c5d10d0e7d8a6b9da","PROLIFIC_PID":"60f4a2d142c69dc1121b6dbf","SESSION_ID":"66a442ee20cfeabd54f43b95","practice_instructions":1,"leaderboard_instructions":1,"bonus":0,"reveal_word":false,"self_rating":"5","confidence":"61"},{"view_history":"[{\"page_index\":0,\"viewing_time\":2778.5},{\"page_index\":1,\"viewing_time\":14743.89999999851}]","rt":17522.89999999851,"trial_type":"instructions","trial_index":6,"time_elapsed":82082,"internal_node_id":"0.0-5.0","protocol_sum":"","subject_identifier":520,"subject_sum":[57,187,136,244,13,58,162,178,254,157,234,103,190,39,199,71,101,219,14,187,63,243,207,143,183,121,175,99,25,250,32,69],"subject_pair":260,"STUDY_ID":"66a3ed3c5d10d0e7d8a6b9da","PROLIFIC_PID":"60f4a2d142c69dc1121b6dbf","SESSION_ID":"66a442ee20cfeabd54f43b95","practice_instructions":1,"leaderboard_instructions":1,"bonus":0,"reveal_word":false,"self_rating":"5","confidence":"61"},{"rt":7503.19999999553,"responses":"{\"Q0\":\"...from <b>a previous session</b> that is not part of the upcoming tournament.\"}","question_order":"[0]","trial_type":"survey-multi-choice","trial_index":7,"time_elapsed":89586,"internal_node_id":"0.0-6.0","protocol_sum":"","subject_identifier":520,"subject_sum":[57,187,136,244,13,58,162,178,254,157,234,103,190,39,199,71,101,219,14,187,63,243,207,143,183,121,175,99,25,250,32,69],"subject_pair":260,"correct":true,"test_part":"multichoice_leaderboard","STUDY_ID":"66a3ed3c5d10d0e7d8a6b9da","PROLIFIC_PID":"60f4a2d142c69dc1121b6dbf","SESSION_ID":"66a442ee20cfeabd54f43b95","practice_instructions":1,"leaderboard_instructions":1,"bonus":0,"reveal_word":false,"self_rating":"5","confidence":"61"},{"view_history":"[{\"page_index\":0,\"viewing_time\":14438.69999999553}]","rt":14438.79999999702,"trial_type":"instructions","trial_index":8,"time_elapsed":104025,"internal_node_id":"0.0-8.0","protocol_sum":"","subject_identifier":520,"subject_sum":[57,187,136,244,13,58,162,178,254,157,234,103,190,39,199,71,101,219,14,187,63,243,207,143,183,121,175,99,25,250,32,69],"subject_pair":260,"STUDY_ID":"66a3ed3c5d10d0e7d8a6b9da","PROLIFIC_PID":"60f4a2d142c69dc1121b6dbf","SESSION_ID":"66a442ee20cfeabd54f43b95","practice_instructions":1,"leaderboard_instructions":1,"bonus":0,"reveal_word":false,"self_rating":"5","confidence":"61"},{"rt":14359.60000000149,"responses":"{\"Q0\":\"...h