[{"success":true,"trial_type":"fullscreen","trial_index":0,"time_elapsed":2972,"internal_node_id":"0.0-0.0","protocol_sum":"","subject_identifier":313,"subject_sum":[15,236,249,36,127,61,220,132,219,138,128,79,163,6,92,1,59,175,107,124,36,88,194,186,43,245,108,46,29,66,221,212],"subject_pair":156,"STUDY_ID":"66a0b3911f23dfc7665bb169","PROLIFIC_PID":"666389d35e9d93996c78bbf6","SESSION_ID":"66a2122b27fb49ebe5578d70","practice_instructions":3,"leaderboard_instructions":1,"bonus":0,"reveal_word":true,"self_rating":"2","confidence":"74"},{"view_history":"[{\"page_index\":0,\"viewing_time\":3419}]","rt":3419.199999809265,"trial_type":"instructions","trial_index":1,"time_elapsed":6395,"internal_node_id":"0.0-1.0","protocol_sum":"","subject_identifier":313,"subject_sum":[15,236,249,36,127,61,220,132,219,138,128,79,163,6,92,1,59,175,107,124,36,88,194,186,43,245,108,46,29,66,221,212],"subject_pair":156,"STUDY_ID":"66a0b3911f23dfc7665bb169","PROLIFIC_PID":"666389d35e9d93996c78bbf6","SESSION_ID":"66a2122b27fb49ebe5578d70","practice_instructions":3,"leaderboard_instructions":1,"bonus":0,"reveal_word":true,"self_rating":"2","confidence":"74"},{"view_history":"[{\"page_index\":0,\"viewing_time\":5247.300000190735}]","rt":5247.5,"trial_type":"instructions","trial_index":2,"time_elapsed":11643,"internal_node_id":"0.0-2.0-0.0","protocol_sum":"","subject_identifier":313,"subject_sum":[15,236,249,36,127,61,220,132,219,138,128,79,163,6,92,1,59,175,107,124,36,88,194,186,43,245,108,46,29,66,221,212],"subject_pair":156,"STUDY_ID":"66a0b3911f23dfc7665bb169","PROLIFIC_PID":"666389d35e9d93996c78bbf6","SESSION_ID":"66a2122b27fb49ebe5578d70","practice_instructions":3,"leaderboard_instructions":1,"bonus":0,"reveal_word":true,"self_rating":"2","confidence":"74"},{"rt":7631.10000038147,"responses":"{\"Q0\":\"... click on letters in <b>alphabetical order</b>\"}","question_order":"[0]","trial_type":"survey-multi-choice","trial_index":3,"time_elapsed":19275,"internal_node_id":"0.0-2.0-1.0","protocol_sum":"","subject_identifier":313,"subject_sum":[15,236,249,36,127,61,220,132,219,138,128,79,163,6,92,1,59,175,107,124,36,88,194,186,43,245,108,46,29,66,221,212],"subject_pair":156,"correct":false,"test_part":"multichoice_nonpretend","STUDY_ID":"66a0b3911f23dfc7665bb169","PROLIFIC_PID":"666389d35e9d93996c78bbf6","SESSION_ID":"66a2122b27fb49ebe5578d70","practice_instructions":3,"leaderboard_instructions":1,"bonus":0,"reveal_word":true,"self_rating":"2","confidence":"74"},{"view_history":"[{\"page_index\":0,\"viewing_time\":59894.40000009537}]","rt":59894.59999990463,"trial_type":"instructions","trial_index":4,"time_elapsed":79183,"internal_node_id":"0.0-2.1-0.1","protocol_sum":"","subject_identifier":313,"subject_sum":[15,236,249,36,127,61,220,132,219,138,128,79,163,6,92,1,59,175,107,124,36,88,194,186,43,245,108,46,29,66,221,212],"subject_pair":156,"STUDY_ID":"66a0b3911f23dfc7665bb169","PROLIFIC_PID":"666389d35e9d93996c78bbf6","SESSION_ID":"66a2122b27fb49ebe5578d70","practice_instructions":3,"leaderboard_instructions":1,"bonus":0,"reveal_word":true,"self_rating":"2","confidence":"74"},{"rt":4646.89999961853,"responses":"{\"Q0\":\"... go <b>really fast</b> and finish the game as quickly as possible\"}","question_order":"[0]","trial_type":"survey-multi-choice","trial_index":5,"time_elapsed":83832,"internal_node_id":"0.0-2.1-1.1","protocol_sum":"","subject_identifier":313,"subject_sum":[15,236,249,36,127,61,220,132,219,138,128,79,163,6,92,1,59,175,107,124,36,88,194,186,43,245,108,46,29,66,221,212],"subject_pair":156,"correct":false,"test_part":"multichoice_nonpretend","STUDY_ID":"66a0b3911f23dfc7665bb169","PROLIFIC_PID":"666389d35e9d93996c78bbf6","SESSION_ID":"66a2122b27fb49ebe5578d70","practice_instructions":3,"leaderboard_instructions":1,"bonus":0,"reveal_word":true,"self_rating":"2","confidence":"74"},{"view_history":"[{\"page_index\":0,\"viewing_time\":3078.6000003814697}]","rt":3078.9000000953674,"trial_type":"instructions","trial_index":6,"time_elapsed":86911,"internal_node_id":"0.0-2.2-0.2","protocol_sum":"","subject_identifier":313,"subject_sum":[15,236,249,36,127,61,220,132,219,138,128,79,163,6,92,1,59,175,107,124,36,88,194,186,43,245,108,46,29,66,221,212],"subject_pair":156,"STUDY_ID":"66a0b3911f23dfc7665bb169","PROLIFIC_PID":"666389d35e9d93996c78bbf6","SESSION_ID":"66a2122b27fb49ebe5578d70","practice_instructions":3,"leaderboard_instructions":1,"bonus":0,"reveal_word":true,"self_rating":"2","confidence":"74"},{"rt":3383.5999999046326,"responses":"{\"Q0\":\"... reveal the word with as <b>few letter guesses</b> as possible\"}","question_order":"[0]","trial_type":"survey-multi-choice","trial_index":7,"time_elapsed":90296,"internal_node_id":"0.0-2.2-1.2","protocol_sum":"","subject_identifier":313,"subject_sum":[15,236,249,36,127,61,220,132,219,138,128,79,163,6,92,1,59,175,107,124,36,88,194,186,43,245,108,46,29,66,221,212],"subject_pair":156,"correct":true,"test_part":"multichoice_nonpretend","STUDY_ID":"66a0b3911f23dfc7665bb169","PROLIFIC_PID":"666389d35e9d93996c78bbf6","SESSION_ID":"66a2122b27fb49ebe5578d70","practice_instructions":3,"leaderboard_instructions":1,"bonus":0,"reveal_word":true,"self_rating":"2","confidence":"74"},{"view_history":"[{\"page_index\":0,\"viewing_time\":1911.4000000953674}]","rt":1911.5999999046326,"trial_type":"instructions","trial_index":8,"time_elapsed":92208,"internal_node_id":"0.0-3.0","protocol_sum":"","subject_identifier":313,"subject_sum":[15,236,249,36,127,61,220,132,219,138,128,79,163,6,92,1,59,175,107,124,36,88,194,186,43,245,108,46,29,66,221,212],"subject_pair":156,"STUDY_ID":"66a0b3911f23dfc7665bb169","PROLIFIC_PID":"666389d35e9d93996c78bbf6","SESSION_ID":"66a2122b27fb49ebe5578d70","practice_instructions":3,"leaderboard_instructions":1,"bonus":0,"reveal_word":true,"self_rating":"2","confidence":"74"},{"word":"ZEBRA","click_log":{"letter":["","Z","E","B","R","A"],"t":[0,7895.800000190735,8911.10000038147,11560,15752.900000095367,17407.10000038147],"hit":[null,1,1,1,1,1],"asked":["","Z","ZE","ZEB","ZEBR","ZEBRA"],"word_state":["_____","Z____","ZE___","ZEB__","ZEBR_","ZEBRA"]},"hover_log":{"letter":["?","?","?","?","?","?","?","?","?","?","J","J","J","J","J","J","J","J","J","J","J","J","J","J","J","J","J","J","J","J","J","J","J","J","J","J","J","J","J","J","J","J","J","J","J","?","?","?","?","?","?","?","?","?","?","?","?","?","?","?","?","?","?","?","?","?","?","?","?","?","?","?","?","?","?","J","J","J","J","J","J","J","?","K","K","K","?","?","?","?","L","L","L","?","?","?","?","?","?","?","?","?","?","?","?","?","?","?","?","?","?","?","?","?","?","?","?","?","?","?","?","?","?","?","?","?","?","?","?","?","?","?","?","?","?","?","?","?","?","?","?","?","?","?","?","?","?","?","?","?","?","?","?","?","?","?","?","?","?","?","?","?","?","M","M","M","M","M","M","M","M","?","?","?","L","L","?","?","?","?","?","?","?","?","?","?","?","?","?","T","T","T","T","T","T","T","T","T","T","T","T","T","T","T","T","T","T","T","?","?","K","K","?","?","?","?","?","?","?","?","?","?","?","?","?","?","?","?","?","?","?","?","?","?","?","?","?","?","C","C","C","C","C","C","?","?","?","?","?","?","?","?","?","?","?","M","M","M","M","?","?","N","?","?","?","?","O","O","O","O","O","O","O","O","O","O","O","O","O","O","O","O","O","?","?","?","?","?","?","?","?","?","?","?","?","?","?","?","?","?","?","?","?","?","?","X","?","?","?","?","?","?","?","?","?","?","?","?","?","?","?","?","?","?","?","?","M","M","?","L","L","?","?","?","?","?","?","?","?","?","?","?","?","?","?","?","?","?","?","?","?","?","?","?","K","K","K","?","?","?","?","?","C","C","C","D","D","D","?","E","E","E","E","E","E","?","?","?","?","?","?","?","?","?","?","F","F","F","F","F","F","F","F","F","F","F","F","?","?","?","?","?","?","?","?","?","?","?","?","?","?","?","?","?","?","?","?","?","?","?","P","P","P","P","?","?","?","?","?","?","?","?","?","?","?","?","?","?","?","?","?","Z","Z","Z","Z","Z","Z","Z","Z","Z","Z","Z","Z","Z","Z","Z","Z","Z","Z","Z","Z","Z","Z","Z","Z","Z","Z","Z","Z","Z","Z","Z","Z","Z","Z","Z","Z","Z","Z","Z","?","?","?","?","?","?","?","?","?","?","O","O","O","O","O","O","O","O","O","?","?","?","?","?","?","?","?","?","E","E","E","E","E","E","E","E","E","E","E","E","E","E","E","E","E","E","E","E","E","E","E","E","E","E","E","E","E","E","E","E","E","E","E","E","E","E","E","E","?","?","?","?","?","M","M","M","M","M","M","M","M","M","M","M","M","M","M","M","M","M","M","M","M","M","M","M","M","M","?","?","?","?","?","?","?","?","?","?","?","?","?","?","?","?","?","?","?","?","?","?","?","?","?","?","?","?","?","?","?","?","?","?","?","?","?","?","?","?","?","?","?","?","?","?","?","?","?","?","?","?","?","?","?","B","B","B","B","B","B","?","?","?","?","?","?","?","?","?","?","?","?","?","?","?","?","?","?","?","?","?","?","?","?","?","?","?","?","?","?","?","?","?","?","?","?","B","B","B","B","B","B","B","B","B","B","B","B","B","B","B","B","B","B","B","B","B","B","B","B","B","B","B","B","B","B","B","?","?","C","C","C","C","C","C","C","C","C","D","D","D","D","D","?","?","?","?","?","?","E","E","?","?","?","?","?","?","?","?","?","?","?","?","?","?","?","?","?","?","?","?","?","?","?","?","?","?","?","?","?","?","?","?","?","?","?","?","?","?","?","O","O","?","?","?","?","?","?","?","N","N","N","?","?","?","?","?","?","?","?","?","?","?","?","?","?","?","?","?","?","?","?","?","?","?","?","?","?","?","?","?","?","?","?","?","?","?","M","M","M","M","M","M","M","M","M","M","M","M","M","M","M","M","M","M","M","?","L","L","L","L","L","L","L","L","L","L","?","K","K","K","K","K","K","K","K","K","?","?","?","?","U","?","V","W","?","X","?","Y","Y","?","?","?","Z","Z","?","?","?","?","?","?","?","?","?","?","?","?","?","?","?","?","?","?","?","?","?","?","?","?","?","?","?","?","?","?","?","?","?","?","?","?","?","?","?","?","R","R","R","R","R","R","R","R","R","R","R","R","R","R","R","R","R","R","R","R","R","R","R","R","R","R","R","R","R","R","?","Q","?","?","?","?","?","?","?","?","?","?","?","?","?","?","?","?","?","?","?","?","?","?","?","?","?","?","?","?","?","?","?","?","?","?","K","K","K","K","?","?","?","?","?","?","?","?","?","?","?","?","?","?","?","?","?","?","?","?","?","?","?","?","?","?","?","A","A","A","A","A","A","A","A","A","A","A","A","A","A","A","A","A","A","A","A","A","A","A","A","A","A","A","A","A","A","A","A","A","A","A","A","A","A","A","?","?","?","K","L","L","?","?","?","?","W","W","W","W","W","W","W","W","W","W","W","?","X","X","X","X","X","X","X","X","X","X","X","X","X","X","X","X","X","X","X","X","X","X","X","X","X","X","X","X","X","X","X","X","X","X","X","X","X","X","X","X","X","X","X","X","X","X","X","X","X","X","X","X","X","X","X","X","X","X","X","X","X","X","X","X","X","X","X","X","X","X","X","X","X","X","X","X","X","X","X","X","X","X","X","X","X","X"],"t":[37,48,60,76,93,109,127,144,162,179,197,211,227,244,260,277,294,311,329,345,361,378,393,409,426,443,459,476,493,509,525,542,559,575,592,609,625,642,665,681,698,714,731,747,765,781,796,815,829,847,863,880,897,913,930,948,964,980,997,1013,1030,1047,1064,1080,1096,1114,1131,1147,1164,1180,1197,1213,1231,1248,1265,1282,1299,1315,1333,1349,1369,1380,1397,1409,1432,1448,1461,1481,1495,1514,1532,1551,1567,1577,1596,1614,1629,1646,1663,1682,1695,1714,1731,1747,1763,1781,1796,1814,1830,1848,1865,1879,1896,1913,1930,1951,1964,1980,1997,2014,2030,2046,2064,2080,2096,2114,2128,2147,2164,2180,2195,2214,2230,2248,2263,2281,2297,2314,2330,2347,2363,2386,2398,2411,2433,2447,2464,2480,2498,2514,2530,2547,2563,2581,2597,2614,2630,2647,2663,2680,2698,2717,2735,2752,2761,2781,2799,2813,2830,2843,2861,2881,2898,2909,2925,2953,2965,2982,3002,3019,3027,3041,3066,3078,3093,3116,3132,3146,3167,3179,3194,3209,3230,3247,3264,3285,3298,3311,3331,3348,3365,3382,3395,3415,3433,3447,3458,3481,3501,3513,3525,3542,3565,3585,3599,3619,3627,3649,3666,3682,3700,3709,3733,3748,3760,3775,3799,3817,3832,3851,3863,3875,3898,3913,3932,3948,3964,3981,4004,4012,4030,4047,4071,4084,4092,4116,4128,4151,4166,4179,4204,4213,4235,4246,4259,4286,4301,4313,4325,4344,4370,4383,4392,4419,4431,4441,4467,4481,4494,4517,4530,4547,4562,4581,4595,4614,4631,4648,4664,4683,4699,4711,4733,4745,4768,4781,4797,4812,4829,4851,4866,4877,4899,4917,4926,4942,4957,4978,5000,5016,5028,5042,5066,5083,5098,5111,5132,5148,5164,5178,5199,5218,5231,5251,5260,5281,5299,5317,5326,5348,5371,5378,5390,5411,5435,5447,5459,5486,5500,5508,5535,5544,5558,5586,5599,5608,5635,5647,5657,5683,5702,5712,5725,5751,5762,5782,5797,5813,5825,5839,5863,5880,5899,5916,5926,5942,5967,5982,5992,6011,6025,6040,6057,6072,6090,6106,6124,6140,6156,6173,6189,6206,6223,6240,6256,6273,6289,6306,6323,6340,6356,6373,6389,6406,6422,6445,6462,6481,6501,6510,6523,6551,6567,6576,6591,6618,6633,6642,6656,6673,6693,6714,6732,6741,6767,6777,6791,6815,6832,6849,6858,6876,6899,6918,6926,6943,6965,6975,6991,7017,7033,7041,7068,7076,7101,7108,7132,7148,7157,7182,7197,7208,7225,7242,7258,7277,7298,7326,7344,7362,7375,7390,7406,7422,7438,7461,7476,7490,7509,7526,7544,7558,7577,7593,7609,7625,7643,7659,7676,7689,7716,7727,7740,7755,7771,7789,7805,7822,7838,7855,7872,7888,7908,7922,7938,7965,7977,7993,8008,8034,8052,8059,8083,8091,8114,8127,8149,8158,8173,8197,8214,8227,8250,8261,8278,8292,8310,8328,8347,8363,8380,8391,8406,8431,8441,8466,8476,8490,8515,8531,8540,8565,8576,8594,8612,8624,8643,8659,8678,8696,8710,8723,8740,8758,8774,8793,8811,8827,8846,8858,8877,8894,8907,8921,8938,8955,8972,8990,9008,9027,9044,9062,9079,9097,9109,9123,9140,9156,9173,9190,9206,9224,9241,9257,9272,9290,9306,9324,9342,9357,9377,9389,9405,9424,9444,9462,9480,9493,9515,9528,9540,9556,9582,9598,9608,9630,9644,9656,9673,9697,9713,9723,9739,9763,9779,9789,9810,9827,9844,9861,9878,9890,9911,9927,9950,9957,9977,9994,10007,10026,10045,10062,10072,10087,10104,10121,10145,10171,10187,10204,10221,10238,10255,10271,10288,10305,10321,10339,10355,10371,10389,10404,10421,10437,10456,10472,10492,10506,10532,10547,10556,10581,10592,10610,10624,10651,10662,10673,10701,10710,10723,10749,10764,10775,10789,10816,10829,10840,10866,10879,10890,10914,10941,10945,10978,10993,11009,11023,11047,11061,11071,11087,11104,11129,11148,11163,11174,11188,11214,11230,11239,11259,11277,11291,11315,11325,11338,11361,11378,11392,11405,11425,11442,11455,11472,11497,11512,11522,11546,11559,11571,11588,11612,11630,11641,11663,11674,11692,11708,11724,11739,11765,11781,11790,11813,11825,11844,11856,11883,11899,11907,11922,11955,11959,11974,11992,12024,12030,12055,12072,12109,12127,12131,12163,12177,12189,12210,12224,12240,12257,12271,12296,12306,12329,12348,12383,12393,12405,12432,12442,12458,12474,12498,12515,12524,12543,12557,12572,12598,12614,12637,12660,12674,12688,12708,12725,12746,12757,12770,12788,12809,12824,12840,12854,12870,12894,12906,12930,12941,12954,12976,12988,13010,13022,13042,13058,13073,13088,13111,13129,13141,13153,13170,13190,13207,13221,13236,13252,13276,13293,13310,13325,13338,13358,13378,13389,13406,13421,13438,13454,13473,13490,13506,13522,13543,13563,13572,13587,13607,13628,13644,13655,13669,13690,13706,13726,13738,13754,13775,13794,13806,13820,13838,13856,13877,13888,13903,13919,13937,13952,13968,13985,14002,14018,14035,14052,14069,14086,14105,14121,14136,14156,14174,14186,14202,14219,14236,14252,14269,14286,14303,14320,14336,14353,14369,14387,14402,14421,14436,14453,14469,14486,14503,14519,14538,14553,14569,14586,14602,14619,14636,14653,14669,14686,14703,14720,14736,14753,14769,14785,14802,14819,14836,14852,14869,14885,14902,14918,14935,14952,14968,14985,15001,15018,15035,15052,15070,15085,15106,15122,15140,15157,15172,15188,15204,15221,15239,15256,15274,15290,15304,15319,15341,15360,15374,15386,15402,15419,15435,15451,15468,15485,15502,15518,15537,15555,15571,15588,15603,15622,15637,15653,15673,15687,15701,15723,15738,15752,15768,15785,15802,15819,15838,15857,15874,15892,15903,15919,15936,15957,15971,15985,16005,16023,16037,16052,16069,16085,16108,16125,16139,16158,16170,16189,16204,16222,16239,16253,16268,16287,16304,16325,16340,16354,16380,16394,16403,16419,16448,16460,16471,16497,16506,16532,16540,16558,16569,16595,16611,16625,16637,16660,16675,16694,16710,16723,16737,16756,16772,16790,16809,16826,16845,16856,16876,16893,16904,16919,16949,16965,16970,16989,17001,17027,17042,17059,17079,17088,17111,17122,17148,17157,17181,17188,17205,17228,17249,17258,17273,17293,17312,17322,17344,17359,17377,17390,17404,17422,17435,17461,17478,17495,17510,17522,17543,17559,17577,17592,17609,17625,17636,17654,17679,17697,17707,17721,17746,17762,17777,17788,17811,17827,17837,17859,17878,17893,17911,17926,17948,17958,17970,17986,18014,18027,18040,18062,18074,18092,18104,18123,18142,18158,18177,18193,18209,18224,18240,18256,18275,18290,18305,18317,18339,18359,18379,18387,18411,18425,18439,18456,18477,18492,18510,18527,18536,18559,18577,18588,18602,18617,18634,18651,18667,18685,18701,18718,18734,18751,18767,18785,18801,18818,18834,18851,18867,18884,18905,18923,18935,18951,18976,18993,19015,19026,19039,19051,19076,19091,19105,19122,19141,19161,19172,19186,19206,19226,19243,19259,19268,19294,19307,19319,19345,19358,19374,19385,19401,19419],"hit":[null],"x":[-1.6054421768707483,-1.6054421768707483,-1.6054421768707483,-1.6054421768707483,-1.6054421768707483,-1.6054421768707483,-1.6054421768707483,-1.6054421768707483,-1.6054421768707483,-1.6054421768707483,-0.006802721088435374,-0.006802721088435374,-0.006802721088435374,-0.006802721088435374,-0.006802721088435374,-0.006802721088435374,-0.006802721088435374,-0.006802721088435374,-0.006802721088435374,-0.006802721088435374,-0.006802721088435374,-0.017006802721088437,-0.02040816326530612,-0.02040816326530612,-0.02040816326530612,-0.02040816326530612,-0.02040816326530612,-0.02040816326530612,-0.02040816326530612,-0.02040816326530612,-0.02040816326530612,-0.02040816326530612,-0.02040816326530612,-0.02040816326530612,-0.02040816326530612,-0.02040816326530612,-0.02040816326530612,-0.023809523809523808,-0.027210884353741496,-0.034013605442176874,-0.04081632653061224,-0.04421768707482993,-0.04421768707482993,-0.047619047619047616,-0.05442176870748299,-0.061224489795918366,-0.061224489795918366,-0.061224489795918366,-0.06462585034013606,-0.06802721088435375,-0.06802721088435375,-0.06802721088435375,-0.06802721088435375,-0.06802721088435375,-0.06802721088435375,-0.06802721088435375,-0.06802721088435375,-0.06802721088435375,-0.06802721088435375,-0.06802721088435375,-0.06802721088435375,-0.06802721088435375,-0.06802721088435375,-0.06802721088435375,-0.06802721088435375,-0.06802721088435375,-0.06802721088435375,-0.06802721088435375,-0.06802721088435375,-0.06802721088435375,-0.06802721088435375,-0.06802721088435375,-0.06802721088435375,-0.06802721088435375,-0.061224489795918366,-0.04421768707482993,-0.034013605442176874,-0.027210884353741496,-0.013605442176870748,0.006802721088435374,0.023809523809523808,0.03741496598639456,0.06462585034013606,0.09523809523809523,0.15306122448979592,0.1870748299319728,0.21768707482993196,0.22448979591836735,0.22448979591836735,0.22448979591836735,0.23469387755102042,0.2755102040816326,0.3197278911564626,0.35034013605442177,0.35374149659863946,0.35374149659863946,0.35374149659863946,0.35374149659863946,0.35374149659863946,0.35374149659863946,0.35374149659863946,0.35374149659863946,0.35374149659863946,0.35374149659863946,0.35374149659863946,0.35374149659863946,0.35374149659863946,0.35374149659863946,0.35374149659863946,0.35034013605442177,0.3469387755102041,0.3469387755102041,0.3469387755102041,0.3469387755102041,0.3469387755102041,0.3469387755102041,0.3469387755102041,0.3469387755102041,0.3469387755102041,0.3469387755102041,0.3469387755102041,0.3469387755102041,0.3469387755102041,0.3469387755102041,0.3469387755102041,0.3469387755102041,0.3469387755102041,0.3469387755102041,0.3469387755102041,0.3469387755102041,0.3469387755102041,0.3469387755102041,0.3469387755102041,0.3469387755102041,0.3469387755102041,0.3469387755102041,0.3469387755102041,0.3469387755102041,0.3469387755102041,0.3469387755102041,0.3469387755102041,0.3469387755102041,0.3469387755102041,0.3469387755102041,0.3469387755102041,0.3469387755102041,0.3469387755102041,0.3469387755102041,0.3469387755102041,0.3469387755102041,0.3469387755102041,0.3469387755102041,0.3469387755102041,0.3469387755102041,0.3469387755102041,0.3469387755102041,0.3469387755102041,0.3469387755102041,0.3469387755102041,0.3469387755102041,0.3469387755102041,0.36054421768707484,0.3673469387755102,0.3741496598639456,0.3741496598639456,0.37755102040816324,0.37755102040816324,0.37755102040816324,0.37755102040816324,0.37755102040816324,0.3741496598639456,0.3469387755102041,0.3469387755102041,0.3401360544217687,0.3231292517006803,0.3129251700680272,0.30612244897959184,0.30612244897959184,0.29931972789115646,0.282312925170068,0.2619047619047619,0.25170068027210885,0.24489795918367346,0.24489795918367346,0.23469387755102042,0.22448979591836735,0.20748299319727892,0.1836734693877551,0.16326530612244897,0.14965986394557823,0.13945578231292516,0.1326530612244898,0.1292517006802721,0.12585034013605442,0.12244897959183673,0.11564625850340136,0.11224489795918367,0.10884353741496598,0.10884353741496598,0.10884353741496598,0.10884353741496598,0.10884353741496598,0.10884353741496598,0.10884353741496598,0.10884353741496598,0.10884353741496598,0.10884353741496598,0.10884353741496598,0.12244897959183673,0.1360544217687075,0.16326530612244897,0.1870748299319728,0.19727891156462585,0.19727891156462585,0.20408163265306123,0.20408163265306123,0.20748299319727892,0.20748299319727892,0.20748299319727892,0.20748299319727892,0.20748299319727892,0.20748299319727892,0.2108843537414966,0.2108843537414966,0.21768707482993196,0.21768707482993196,0.21768707482993196,0.22108843537414966,0.22108843537414966,0.22108843537414966,0.22108843537414966,0.22108843537414966,0.22448979591836735,0.22448979591836735,0.22448979591836735,0.22448979591836735,0.22448979591836735,0.22448979591836735,0.22789115646258504,0.23809523809523808,0.24489795918367346,0.24829931972789115,0.2755102040816326,0.3197278911564626,0.3299319727891156,0.3333333333333333,0.3333333333333333,0.336734693877551,0.3401360544217687,0.3435374149659864,0.3469387755102041,0.35034013605442177,0.35374149659863946,0.36054421768707484,0.36394557823129253,0.37755102040816324,0.3945578231292517,0.42857142857142855,0.46938775510204084,0.4965986394557823,0.5,0.5680272108843537,0.6258503401360545,0.6462585034013606,0.6530612244897959,0.6598639455782312,0.6700680272108843,0.6768707482993197,0.6938775510204082,0.7006802721088435,0.7006802721088435,0.7006802721088435,0.7006802721088435,0.7006802721088435,0.7006802721088435,0.7006802721088435,0.7006802721088435,0.7006802721088435,0.7040816326530612,0.7040816326530612,0.7074829931972789,0.7074829931972789,0.7142857142857143,0.717687074829932,0.7210884353741497,0.7244897959183674,0.7278911564625851,0.7278911564625851,0.7312925170068028,0.7346938775510204,0.7346938775510204,0.7346938775510204,0.7414965986394558,0.7414965986394558,0.7448979591836735,0.7482993197278912,0.7482993197278912,0.7482993197278912,0.7482993197278912,0.7482993197278912,0.7482993197278912,0.7482993197278912,0.7482993197278912,0.7482993197278912,0.7482993197278912,0.7312925170068028,0.6632653061224489,0.6394557823129252,0.6394557823129252,0.6326530612244898,0.6122448979591837,0.6054421768707483,0.6020408163265306,0.5986394557823129,0.5952380952380952,0.5952380952380952,0.5952380952380952,0.5782312925170068,0.5680272108843537,0.5544217687074829,0.5374149659863946,0.5238095238095238,0.5238095238095238,0.5238095238095238,0.5204081632653061,0.47959183673469385,0.43537414965986393,0.3877551020408163,0.3469387755102041,0.2891156462585034,0.272108843537415,0.2585034013605442,0.25170068027210885,0.23809523809523808,0.22108843537414966,0.19727891156462585,0.1836734693877551,0.17346938775510204,0.17006802721088435,0.17006802721088435,0.16326530612244897,0.1564625850340136,0.1326530612244898,0.12244897959183673,0.10884353741496598,0.10884353741496598,0.10884353741496598,0.10884353741496598,0.10884353741496598,0.10884353741496598,0.10884353741496598,0.10884353741496598,0.10884353741496598,0.11564625850340136,0.1292517006802721,0.14285714285714285,0.1564625850340136,0.17687074829931973,0.20408163265306123,0.22448979591836735,0.23809523809523808,0.25170068027210885,0.2687074829931973,0.2857142857142857,0.3435374149659864,0.3877551020408163,0.43537414965986393,0.47619047619047616,0.5102040816326531,0.5306122448979592,0.5408163265306123,0.5476190476190477,0.5544217687074829,0.564625850340136,0.5850340136054422,0.6326530612244898,0.6428571428571429,0.6462585034013606,0.6564625850340136,0.6598639455782312,0.6598639455782312,0.6598639455782312,0.6598639455782312,0.6598639455782312,0.6598639455782312,0.6666666666666666,0.673469387755102,0.6768707482993197,0.6768707482993197,0.6768707482993197,0.6768707482993197,0.6768707482993197,0.6802721088435374,0.6802721088435374,0.6870748299319728,0.6870748299319728,0.6870748299319728,0.7108843537414966,0.7312925170068028,0.7448979591836735,0.7448979591836735,0.7448979591836735,0.7448979591836735,0.7653061224489796,0.7857142857142857,0.7959183673469388,0.7959183673469388,0.7959183673469388,0.7993197278911565,0.8027210884353742,0.8027210884353742,0.8061224489795918,0.8061224489795918,0.8095238095238095,0.8095238095238095,0.8163265306122449,0.8163265306122449,0.8163265306122449,0.8163265306122449,0.8095238095238095,0.8095238095238095,0.8061224489795918,0.8061224489795918,0.8027210884353742,0.8027210884353742,0.8061224489795918,0.8061224489795918,0.8163265306122449,0.8299319727891157,0.8469387755102041,0.8639455782312925,0.8843537414965986,0.8979591836734694,0.9081632653061225,0.9115646258503401,0.9149659863945578,0.9217687074829932,0.9285714285714286,0.9319727891156463,0.935374149659864,0.9387755102040817,0.9455782312925171,0.9523809523809523,0.9591836734693877,0.9659863945578231,0.9693877551020408,0.9727891156462585,0.9727891156462585,0.9727891156462585,0.9727891156462585,0.9795918367346939,0.9795918367346939,0.9795918367346939,0.9795918367346939,0.9795918367346939,0.9795918367346939,0.9795918367346939,0.9795918367346939,0.9795918367346939,0.9795918367346939,0.9795918367346939,0.9795918367346939,0.9795918367346939,0.9795918367346939,0.9795918367346939,0.9795918367346939,0.9795918367346939,0.9795918367346939,0.9795918367346939,0.9795918367346939,0.9795918367346939,0.9795918367346939,0.9795918367346939,0.9795918367346939,0.9795918367346939,0.9795918367346939,0.9795918367346939,0.9795918367346939,0.9795918367346939,0.9727891156462585,0.9047619047619048,0.8571428571428571,0.8299319727891157,0.8197278911564626,0.8163265306122449,0.8095238095238095,0.8061224489795918,0.7925170068027211,0.7789115646258503,0.7789115646258503,0.7585034013605442,0.7414965986394558,0.7278911564625851,0.7210884353741497,0.7210884353741497,0.7210884353741497,0.7210884353741497,0.7210884353741497,0.7210884353741497,0.7142857142857143,0.7006802721088435,0.6870748299319728,0.673469387755102,0.6598639455782312,0.6496598639455783,0.6394557823129252,0.6326530612244898,0.6258503401360545,0.6122448979591837,0.5918367346938775,0.5782312925170068,0.5748299319727891,0.5714285714285714,0.5714285714285714,0.5714285714285714,0.5714285714285714,0.5680272108843537,0.564625850340136,0.5612244897959183,0.5612244897959183,0.5612244897959183,0.5612244897959183,0.5612244897959183,0.5612244897959183,0.5612244897959183,0.5612244897959183,0.5612244897959183,0.5612244897959183,0.5612244897959183,0.5612244897959183,0.5612244897959183,0.5612244897959183,0.5612244897959183,0.5612244897959183,0.5612244897959183,0.5612244897959183,0.5612244897959183,0.5612244897959183,0.5612244897959183,0.5612244897959183,0.5612244897959183,0.5612244897959183,0.5612244897959183,0.5510204081632653,0.54421768707483,0.5374149659863946,0.5374149659863946,0.5340136054421769,0.5068027210884354,0.48639455782312924,0.46938775510204084,0.45918367346938777,0.4489795918367347,0.445578231292517,0.445578231292517,0.445578231292517,0.445578231292517,0.445578231292517,0.445578231292517,0.445578231292517,0.445578231292517,0.445578231292517,0.445578231292517,0.445578231292517,0.445578231292517,0.445578231292517,0.4421768707482993,0.4421768707482993,0.4387755102040816,0.43197278911564624,0.42857142857142855,0.41836734693877553,0.41496598639455784,0.40476190476190477,0.391156462585034,0.3877551020408163,0.3877551020408163,0.38095238095238093,0.37755102040816324,0.37755102040816324,0.3741496598639456,0.3707482993197279,0.3707482993197279,0.3707482993197279,0.3707482993197279,0.3707482993197279,0.3707482993197279,0.3707482993197279,0.3707482993197279,0.3707482993197279,0.3707482993197279,0.3707482993197279,0.3707482993197279,0.3707482993197279,0.3707482993197279,0.3707482993197279,0.3707482993197279,0.3707482993197279,0.3707482993197279,0.3707482993197279,0.3707482993197279,0.3707482993197279,0.3707482993197279,0.3707482993197279,0.3707482993197279,0.3707482993197279,0.3707482993197279,0.3333333333333333,0.29591836734693877,0.2653061224489796,0.23809523809523808,0.21768707482993196,0.2108843537414966,0.20408163265306123,0.19727891156462585,0.1870748299319728,0.1564625850340136,0.1360544217687075,0.12244897959183673,0.11904761904761904,0.11564625850340136,0.11564625850340136,0.11564625850340136,0.11564625850340136,0.11224489795918367,0.1054421768707483,0.10204081632653061,0.09523809523809523,0.08163265306122448,0.08163265306122448,0.08163265306122448,0.08843537414965986,0.09183673469387756,0.09863945578231292,0.10204081632653061,0.1054421768707483,0.10884353741496598,0.10884353741496598,0.11564625850340136,0.12244897959183673,0.12585034013605442,0.12585034013605442,0.12585034013605442,0.12585034013605442,0.12585034013605442,0.12585034013605442,0.12585034013605442,0.12585034013605442,0.12585034013605442,0.12585034013605442,0.12585034013605442,0.12585034013605442,0.12585034013605442,0.12585034013605442,0.12585034013605442,0.12585034013605442,0.12585034013605442,0.12585034013605442,0.12585034013605442,0.12585034013605442,0.12585034013605442,0.12585034013605442,0.12585034013605442,0.12585034013605442,0.12585034013605442,0.12585034013605442,0.12585034013605442,0.12585034013605442,0.12585034013605442,0.12585034013605442,0.12585034013605442,0.12585034013605442,0.12585034013605442,0.1292517006802721,0.1292517006802721,0.1292517006802721,0.1292517006802721,0.1292517006802721,0.1292517006802721,0.1292517006802721,0.1292517006802721,0.1292517006802721,0.1292517006802721,0.1292517006802721,0.1292517006802721,0.1292517006802721,0.1292517006802721,0.1292517006802721,0.1292517006802721,0.1292517006802721,0.1292517006802721,0.1292517006802721,0.1292517006802721,0.1292517006802721,0.1292517006802721,0.1292517006802721,0.1292517006802721,0.1292517006802721,0.1292517006802721,0.13945578231292516,0.16666666666666666,0.18027210884353742,0.1836734693877551,0.1870748299319728,0.19047619047619047,0.19387755102040816,0.20408163265306123,0.21428571428571427,0.23469387755102042,0.2619047619047619,0.2857142857142857,0.2891156462585034,0.2891156462585034,0.2891156462585034,0.2925170068027211,0.3197278911564626,0.3401360544217687,0.3741496598639456,0.41496598639455784,0.43537414965986393,0.4557823129251701,0.46938775510204084,0.48299319727891155,0.48639455782312924,0.4897959183673469,0.4897959183673469,0.4897959183673469,0.5068027210884354,0.54421768707483,0.5680272108843537,0.5816326530612245,0.5884353741496599,0.5918367346938775,0.5918367346938775,0.5918367346938775,0.5918367346938775,0.6054421768707483,0.6190476190476191,0.6326530612244898,0.6462585034013606,0.6462585034013606,0.6462585034013606,0.6462585034013606,0.6462585034013606,0.6462585034013606,0.6530612244897959,0.6530612244897959,0.6700680272108843,0.673469387755102,0.6768707482993197,0.6870748299319728,0.7006802721088435,0.717687074829932,0.717687074829932,0.717687074829932,0.717687074829932,0.7210884353741497,0.7482993197278912,0.7517006802721088,0.7551020408163265,0.7551020408163265,0.7551020408163265,0.7551020408163265,0.7551020408163265,0.7551020408163265,0.7551020408163265,0.7551020408163265,0.7551020408163265,0.7482993197278912,0.7210884353741497,0.7210884353741497,0.6700680272108843,0.6326530612244898,0.6258503401360545,0.6258503401360545,0.6258503401360545,0.6258503401360545,0.6156462585034014,0.5952380952380952,0.564625850340136,0.54421768707483,0.5170068027210885,0.5,0.5,0.5,0.5,0.5,0.5,0.5,0.5,0.4931972789115646,0.48639455782312924,0.48299319727891155,0.48299319727891155,0.48299319727891155,0.48299319727891155,0.48299319727891155,0.48299319727891155,0.48299319727891155,0.48299319727891155,0.48299319727891155,0.48299319727891155,0.47619047619047616,0.4489795918367347,0.4387755102040816,0.4217687074829932,0.41496598639455784,0.40476190476190477,0.40476190476190477,0.4013605442176871,0.4013605442176871,0.3979591836734694,0.3979591836734694,0.3979591836734694,0.3979591836734694,0.4013605442176871,0.40816326530612246,0.41496598639455784,0.42857142857142855,0.4421768707482993,0.46258503401360546,0.47278911564625853,0.47619047619047616,0.47619047619047616,0.47619047619047616,0.47619047619047616,0.47619047619047616,0.47619047619047616,0.47619047619047616,0.47619047619047616,0.47619047619047616,0.47619047619047616,0.46258503401360546,0.46258503401360546,0.4217687074829932,0.35034013605442177,0.30272108843537415,0.282312925170068,0.2755102040816326,0.2755102040816326,0.2755102040816326,0.2755102040816326,0.2755102040816326,0.2653061224489796,0.2585034013605442,0.24489795918367346,0.21768707482993196,0.19047619047619047,0.17687074829931973,0.16326530612244897,0.14285714285714285,0.1360544217687075,0.12585034013605442,0.11564625850340136,0.11224489795918367,0.10884353741496598,0.10884353741496598,0.11904761904761904,0.13945578231292516,0.1870748299319728,0.2585034013605442,0.3469387755102041,0.4387755102040816,0.5306122448979592,0.6326530612244898,0.717687074829932,0.7755102040816326,0.8639455782312925,0.8877551020408163,0.9081632653061225,0.9217687074829932,0.9455782312925171,0.9829931972789115,1.034013605442177,1.064625850340136,1.0680272108843538,1.0680272108843538,1.0680272108843538,1.0680272108843538,1.0680272108843538,1.0680272108843538,1.0680272108843538,1.0680272108843538,1.0680272108843538,1.0680272108843538,1.0680272108843538,1.0680272108843538,1.0680272108843538,1.0680272108843538,1.0680272108843538,1.0680272108843538,1.0680272108843538,1.0680272108843538,1.0680272108843538,1.0680272108843538,1.0680272108843538,1.0714285714285714,1.0748299319727892,1.0748299319727892,1.0816326530612246,1.0952380952380953,1.1020408163265305,1.1054421768707483,1.1054421768707483,1.1054421768707483,1.1054421768707483,1.1054421768707483,1.1054421768707483,1.1088435374149659,1.1156462585034013,1.1156462585034013,1.1156462585034013,1.1224489795918366,1.1224489795918366,1.129251700680272,1.129251700680272,1.129251700680272,1.1326530612244898,1.1326530612244898,1.1326530612244898,1.1326530612244898,1.1326530612244898,1.1326530612244898,1.1326530612244898,1.1326530612244898,1.1326530612244898,1.1326530612244898,1.1326530612244898,1.1326530612244898,1.1326530612244898,1.1326530612244898,1.1326530612244898,1.1326530612244898,1.1326530612244898,1.1326530612244898,1.1326530612244898,1.1326530612244898,1.1326530612244898,1.1326530612244898,1.1326530612244898,1.1326530612244898,1.1326530612244898,1.129251700680272,1.1156462585034013,1.0680272108843538,0.9965986394557823,0.9081632653061225,0.826530612244898,0.7891156462585034,0.717687074829932,0.7074829931972789,0.7040816326530612,0.6768707482993197,0.6224489795918368,0.5918367346938775,0.5340136054421769,0.4557823129251701,0.4013605442176871,0.36054421768707484,0.336734693877551,0.3231292517006803,0.3231292517006803,0.3231292517006803,0.3129251700680272,0.2857142857142857,0.272108843537415,0.2585034013605442,0.2585034013605442,0.2585034013605442,0.2585034013605442,0.2585034013605442,0.25170068027210885,0.23129251700680273,0.2108843537414966,0.19047619047619047,0.1836734693877551,0.17346938775510204,0.17346938775510204,0.17346938775510204,0.16326530612244897,0.14625850340136054,0.1360544217687075,0.11564625850340136,0.10204081632653061,0.09523809523809523,0.09183673469387756,0.08503401360544217,0.08503401360544217,0.08503401360544217,0.08503401360544217,0.08163265306122448,0.08163265306122448,0.08163265306122448,0.08163265306122448,0.08163265306122448,0.08163265306122448,0.0782312925170068,0.07482993197278912,0.07482993197278912,0.07482993197278912,0.07482993197278912,0.07482993197278912,0.07482993197278912,0.07482993197278912,0.07482993197278912,0.06802721088435375,0.061224489795918366,0.05442176870748299,0.05442176870748299,0.05102040816326531,0.047619047619047616,0.04421768707482993,0.04081632653061224,0.04081632653061224,0.03741496598639456,0.03741496598639456,0.034013605442176874,0.030612244897959183,0.027210884353741496,0.027210884353741496,0.027210884353741496,0.02040816326530612,0.017006802721088437,0.013605442176870748,0.013605442176870748,0.013605442176870748,0.013605442176870748,0.013605442176870748,0.013605442176870748,0.013605442176870748,0.013605442176870748,0.013605442176870748,0.013605442176870748,0.013605442176870748,0.013605442176870748,0.013605442176870748,0.013605442176870748,0.013605442176870748,0.013605442176870748,0.013605442176870748,0.013605442176870748,0.013605442176870748,0.013605442176870748,0.013605442176870748,0.013605442176870748,0.013605442176870748,0.013605442176870748,0.013605442176870748,0.013605442176870748,0.027210884353741496,0.06802721088435375,0.10204081632653061,0.12244897959183673,0.17687074829931973,0.24489795918367346,0.3197278911564626,0.38095238095238093,0.4489795918367347,0.47619047619047616,0.5170068027210885,0.5272108843537415,0.5306122448979592,0.5306122448979592,0.5306122448979592,0.5306122448979592,0.5306122448979592,0.5306122448979592,0.5306122448979592,0.5306122448979592,0.5544217687074829,0.5986394557823129,0.6360544217687075,0.673469387755102,0.6870748299319728,0.6870748299319728,0.6870748299319728,0.6870748299319728,0.6870748299319728,0.6870748299319728,0.6870748299319728,0.6870748299319728,0.6870748299319728,0.6870748299319728,0.6870748299319728,0.6870748299319728,0.6904761904761905,0.6904761904761905,0.6904761904761905,0.6904761904761905,0.6904761904761905,0.6904761904761905,0.6904761904761905,0.6904761904761905,0.6904761904761905,0.6904761904761905,0.6904761904761905,0.6904761904761905,0.6904761904761905,0.6904761904761905,0.6904761904761905,0.6904761904761905,0.6904761904761905,0.6904761904761905,0.6904761904761905,0.6904761904761905,0.6904761904761905,0.6904761904761905,0.6904761904761905,0.6904761904761905,0.6904761904761905,0.6904761904761905,0.6904761904761905,0.6904761904761905,0.6904761904761905,0.6904761904761905,0.6904761904761905,0.6904761904761905,0.6904761904761905,0.6904761904761905,0.6904761904761905,0.6904761904761905,0.6904761904761905,0.6904761904761905,0.6904761904761905,0.6904761904761905,0.6904761904761905,0.6904761904761905,0.6904761904761905,0.6904761904761905,0.6904761904761905,0.6904761904761905,0.6904761904761905,0.6904761904761905,0.6904761904761905,0.6904761904761905,0.6904761904761905,0.6904761904761905,0.6904761904761905,0.6904761904761905,0.6904761904761905,0.6904761904761905,0.6904761904761905,0.6904761904761905,0.6904761904761905,0.6904761904761905,0.6904761904761905,0.6904761904761905,0.6904761904761905,0.6904761904761905,0.6904761904761905,0.6904761904761905,0.6904761904761905,0.6904761904761905,0.6904761904761905,0.6904761904761905,0.6904761904761905,0.6904761904761905,0.6904761904761905],"y":[-2.857142857142857,-2.857142857142857,-2.857142857142857,-2.857142857142857,-2.857142857142857,-2.857142857142857,-2.857142857142857,-2.857142857142857,-2.857142857142857,-2.857142857142857,0.3761904761904762,0.38571428571428573,0.3952380952380952,0.3952380952380952,0.3952380952380952,0.3952380952380952,0.40476190476190477,0.4142857142857143,0.4142857142857143,0.4142857142857143,0.4142857142857143,0.43333333333333335,0.44285714285714284,0.44285714285714284,0.44285714285714284,0.44285714285714284,0.44285714285714284,0.44285714285714284,0.44285714285714284,0.44285714285714284,0.44285714285714284,0.44285714285714284,0.44285714285714284,0.44285714285714284,0.44285714285714284,0.44285714285714284,0.44285714285714284,0.4523809523809524,0.46190476190476193,0.4714285714285714,0.49047619047619045,0.5,0.5095238095238095,0.5095238095238095,0.5285714285714286,0.5285714285714286,0.5380952380952381,0.5476190476190477,0.5476190476190477,0.5476190476190477,0.5476190476190477,0.5476190476190477,0.5476190476190477,0.5476190476190477,0.5476190476190477,0.5476190476190477,0.5476190476190477,0.5476190476190477,0.5476190476190477,0.5476190476190477,0.5476190476190477,0.5476190476190477,0.5476190476190477,0.5476190476190477,0.5476190476190477,0.5476190476190477,0.5476190476190477,0.5476190476190477,0.5476190476190477,0.5476190476190477,0.5476190476190477,0.5476190476190477,0.5476190476190477,0.5476190476190477,0.5476190476190477,0.5380952380952381,0.5285714285714286,0.5285714285714286,0.5095238095238095,0.5095238095238095,0.5,0.5,0.49047619047619045,0.49047619047619045,0.4523809523809524,0.4523809523809524,0.4523809523809524,0.4523809523809524,0.4523809523809524,0.4523809523809524,0.4523809523809524,0.5,0.5476190476190477,0.5857142857142857,0.5952380952380952,0.5952380952380952,0.5952380952380952,0.5952380952380952,0.5952380952380952,0.5952380952380952,0.5952380952380952,0.5952380952380952,0.5952380952380952,0.5952380952380952,0.5952380952380952,0.5952380952380952,0.5952380952380952,0.5952380952380952,0.5952380952380952,0.5857142857142857,0.5857142857142857,0.5857142857142857,0.5857142857142857,0.5857142857142857,0.5857142857142857,0.5857142857142857,0.5857142857142857,0.5857142857142857,0.5857142857142857,0.5857142857142857,0.5857142857142857,0.5857142857142857,0.5857142857142857,0.5857142857142857,0.5857142857142857,0.5857142857142857,0.5857142857142857,0.5857142857142857,0.5857142857142857,0.5857142857142857,0.5857142857142857,0.5857142857142857,0.5857142857142857,0.5857142857142857,0.5857142857142857,0.5857142857142857,0.5857142857142857,0.5857142857142857,0.5857142857142857,0.5857142857142857,0.5857142857142857,0.5857142857142857,0.5857142857142857,0.5857142857142857,0.5857142857142857,0.5857142857142857,0.5857142857142857,0.5857142857142857,0.5857142857142857,0.5857142857142857,0.5857142857142857,0.5857142857142857,0.5857142857142857,0.5857142857142857,0.5857142857142857,0.5857142857142857,0.5857142857142857,0.5857142857142857,0.5857142857142857,0.5857142857142857,0.5857142857142857,0.5666666666666667,0.5476190476190477,0.5380952380952381,0.5285714285714286,0.5285714285714286,0.5285714285714286,0.5285714285714286,0.5285714285714286,0.5285714285714286,0.5285714285714286,0.5666666666666667,0.5761904761904761,0.5857142857142857,0.6238095238095238,0.6428571428571429,0.6619047619047619,0.6714285714285714,0.680952380952381,0.7,0.7380952380952381,0.7476190476190476,0.7571428571428571,0.7571428571428571,0.7666666666666667,0.7761904761904762,0.7952380952380952,0.8238095238095238,0.8333333333333334,0.8523809523809524,0.8714285714285714,0.8809523809523809,0.8904761904761904,0.9,0.9285714285714286,0.9380952380952381,0.9476190476190476,0.9571428571428572,0.9571428571428572,0.9571428571428572,0.9666666666666667,0.9666666666666667,0.9666666666666667,0.9666666666666667,0.9666666666666667,0.9380952380952381,0.9095238095238095,0.8904761904761904,0.7761904761904762,0.6904761904761905,0.5666666666666667,0.4238095238095238,0.3380952380952381,0.3,0.2523809523809524,0.22380952380952382,0.19523809523809524,0.16666666666666666,0.15714285714285714,0.14761904761904762,0.1380952380952381,0.11904761904761904,0.1,0.09047619047619047,0.08095238095238096,0.06190476190476191,0.06190476190476191,0.05238095238095238,0.05238095238095238,0.04285714285714286,0.04285714285714286,0.04285714285714286,0.03333333333333333,0.03333333333333333,0.03333333333333333,0.03333333333333333,0.03333333333333333,0.03333333333333333,0.03333333333333333,0.03333333333333333,0.04285714285714286,0.04285714285714286,0.07142857142857142,0.11904761904761904,0.1380952380952381,0.14761904761904762,0.14761904761904762,0.15714285714285714,0.16666666666666666,0.20476190476190476,0.2619047619047619,0.3,0.3380952380952381,0.35714285714285715,0.3952380952380952,0.44285714285714284,0.46190476190476193,0.5095238095238095,0.5285714285714286,0.5476190476190477,0.5476190476190477,0.5761904761904761,0.5952380952380952,0.6047619047619047,0.6047619047619047,0.6047619047619047,0.6047619047619047,0.6047619047619047,0.6047619047619047,0.6047619047619047,0.6047619047619047,0.6047619047619047,0.6047619047619047,0.6047619047619047,0.6047619047619047,0.6047619047619047,0.6047619047619047,0.6047619047619047,0.6047619047619047,0.6047619047619047,0.6047619047619047,0.6238095238095238,0.6428571428571429,0.680952380952381,0.7,0.7095238095238096,0.719047619047619,0.7285714285714285,0.7380952380952381,0.7666666666666667,0.7761904761904762,0.7952380952380952,0.8142857142857143,0.8142857142857143,0.8333333333333334,0.8333333333333334,0.8333333333333334,0.8333333333333334,0.8333333333333334,0.8333333333333334,0.8333333333333334,0.8333333333333334,0.8333333333333334,0.8428571428571429,0.8428571428571429,0.8428571428571429,0.8428571428571429,0.8333333333333334,0.8333333333333334,0.8333333333333334,0.8142857142857143,0.7952380952380952,0.7952380952380952,0.7857142857142857,0.7761904761904762,0.7761904761904762,0.7761904761904762,0.7285714285714285,0.7,0.6619047619047619,0.6428571428571429,0.6238095238095238,0.6238095238095238,0.6238095238095238,0.6238095238095238,0.6142857142857143,0.6047619047619047,0.6047619047619047,0.6047619047619047,0.6428571428571429,0.6619047619047619,0.6619047619047619,0.6714285714285714,0.680952380952381,0.6904761904761905,0.7,0.7285714285714285,0.7476190476190476,0.7571428571428571,0.7571428571428571,0.7571428571428571,0.7761904761904762,0.7952380952380952,0.8142857142857143,0.8142857142857143,0.8142857142857143,0.8142857142857143,0.8142857142857143,0.8142857142857143,0.8142857142857143,0.8142857142857143,0.8142857142857143,0.8047619047619048,0.7380952380952381,0.6333333333333333,0.5476190476190477,0.4523809523809524,0.35714285714285715,0.2714285714285714,0.20476190476190476,0.1761904761904762,0.14761904761904762,0.10952380952380952,0.09047619047619047,0.03333333333333333,0.014285714285714285,-0.014285714285714285,-0.014285714285714285,-0.023809523809523808,-0.03333333333333333,-0.04285714285714286,-0.04285714285714286,-0.05238095238095238,-0.06190476190476191,-0.06190476190476191,-0.08095238095238096,-0.08095238095238096,-0.08095238095238096,-0.08095238095238096,-0.08095238095238096,-0.08095238095238096,-0.08095238095238096,-0.08095238095238096,-0.08095238095238096,-0.08095238095238096,-0.07142857142857142,-0.05238095238095238,-0.04285714285714286,-0.04285714285714286,-0.023809523809523808,0.004761904761904762,0.014285714285714285,0.09047619047619047,0.12857142857142856,0.14761904761904762,0.14761904761904762,0.14761904761904762,0.18571428571428572,0.19523809523809524,0.20476190476190476,0.21428571428571427,0.21428571428571427,0.21428571428571427,0.22380952380952382,0.22380952380952382,0.23333333333333334,0.23333333333333334,0.23333333333333334,0.23333333333333334,0.23333333333333334,0.23333333333333334,0.23333333333333334,0.23333333333333334,0.24285714285714285,0.2523809523809524,0.28095238095238095,0.30952380952380953,0.3380952380952381,0.3761904761904762,0.3952380952380952,0.4238095238095238,0.46190476190476193,0.5095238095238095,0.5571428571428572,0.5761904761904761,0.5952380952380952,0.5952380952380952,0.6428571428571429,0.6904761904761905,0.7476190476190476,0.7952380952380952,0.8333333333333334,0.8714285714285714,0.9,0.9095238095238095,0.9285714285714286,0.9380952380952381,0.9476190476190476,0.9476190476190476,0.9571428571428572,0.9666666666666667,0.9666666666666667,0.9857142857142858,0.9857142857142858,0.9952380952380953,0.9952380952380953,1.0047619047619047,1.0047619047619047,1.0047619047619047,1.0047619047619047,1.0047619047619047,1.0047619047619047,1.0047619047619047,1.0047619047619047,1.0047619047619047,1.0047619047619047,1.0047619047619047,1.0047619047619047,1.0047619047619047,1.0047619047619047,1.0047619047619047,1.0047619047619047,1.0047619047619047,1.0047619047619047,1.0047619047619047,1.0047619047619047,1.0047619047619047,1.0047619047619047,1.0047619047619047,1.0047619047619047,1.0047619047619047,1.0047619047619047,1.0047619047619047,1.0047619047619047,1.0047619047619047,1.0047619047619047,1.0047619047619047,1.0047619047619047,0.9952380952380953,0.9857142857142858,0.8238095238095238,0.7571428571428571,0.7,0.6619047619047619,0.6428571428571429,0.6238095238095238,0.6047619047619047,0.5476190476190477,0.5095238095238095,0.5095238095238095,0.44285714285714284,0.3952380952380952,0.35714285714285715,0.3476190476190476,0.3476190476190476,0.3476190476190476,0.3476190476190476,0.3476190476190476,0.3476190476190476,0.32857142857142857,0.2619047619047619,0.23333333333333334,0.19523809523809524,0.18571428571428572,0.16666666666666666,0.15714285714285714,0.14761904761904762,0.12857142857142856,0.10952380952380952,0.07142857142857142,0.05238095238095238,0.04285714285714286,0.04285714285714286,0.04285714285714286,0.03333333333333333,0.03333333333333333,0.03333333333333333,0.03333333333333333,0.023809523809523808,0.014285714285714285,0.014285714285714285,0.014285714285714285,0.014285714285714285,0.014285714285714285,0.014285714285714285,0.014285714285714285,0.014285714285714285,0.014285714285714285,0.014285714285714285,0.014285714285714285,0.014285714285714285,0.014285714285714285,0.014285714285714285,0.014285714285714285,0.014285714285714285,0.014285714285714285,0.014285714285714285,0.014285714285714285,0.014285714285714285,0.014285714285714285,0.014285714285714285,0.014285714285714285,0.014285714285714285,0.03333333333333333,0.05238095238095238,0.08095238095238096,0.09047619047619047,0.10952380952380952,0.18571428571428572,0.23333333333333334,0.28095238095238095,0.30952380952380953,0.3380952380952381,0.35714285714285715,0.35714285714285715,0.35714285714285715,0.36666666666666664,0.36666666666666664,0.3761904761904762,0.3761904761904762,0.38571428571428573,0.38571428571428573,0.38571428571428573,0.38571428571428573,0.38571428571428573,0.3952380952380952,0.4142857142857143,0.44285714285714284,0.46190476190476193,0.4714285714285714,0.49047619047619045,0.5095238095238095,0.5190476190476191,0.5380952380952381,0.5571428571428572,0.5666666666666667,0.5666666666666667,0.5857142857142857,0.5952380952380952,0.6047619047619047,0.6238095238095238,0.6619047619047619,0.6904761904761905,0.7285714285714285,0.7666666666666667,0.7761904761904762,0.7761904761904762,0.7761904761904762,0.7761904761904762,0.7761904761904762,0.7761904761904762,0.7761904761904762,0.7761904761904762,0.7761904761904762,0.7761904761904762,0.7761904761904762,0.7761904761904762,0.7761904761904762,0.7761904761904762,0.7761904761904762,0.7761904761904762,0.7761904761904762,0.7761904761904762,0.7761904761904762,0.7761904761904762,0.7761904761904762,0.7761904761904762,0.7761904761904762,0.7761904761904762,0.7761904761904762,0.7761904761904762,0.7761904761904762,0.7761904761904762,0.7761904761904762,0.7761904761904762,0.7761904761904762,0.7761904761904762,0.7857142857142857,0.7952380952380952,0.7952380952380952,0.7952380952380952,0.7952380952380952,0.7952380952380952,0.7952380952380952,0.7952380952380952,0.7857142857142857,0.7761904761904762,0.7285714285714285,0.6047619047619047,0.3952380952380952,0.2619047619047619,0.14761904761904762,0.1,0.05238095238095238,0.023809523809523808,-0.014285714285714285,-0.04285714285714286,-0.08095238095238096,-0.12857142857142856,-0.16666666666666666,-0.19523809523809524,-0.19523809523809524,-0.19523809523809524,-0.19523809523809524,-0.19523809523809524,-0.19523809523809524,-0.19523809523809524,-0.19523809523809524,-0.19523809523809524,-0.19523809523809524,-0.19523809523809524,-0.19523809523809524,-0.19523809523809524,-0.19523809523809524,-0.19523809523809524,-0.19523809523809524,-0.19523809523809524,-0.19523809523809524,-0.19523809523809524,-0.19523809523809524,-0.19523809523809524,-0.19523809523809524,-0.19523809523809524,-0.19523809523809524,-0.19523809523809524,-0.19523809523809524,-0.19523809523809524,-0.19523809523809524,-0.19523809523809524,-0.19523809523809524,-0.19523809523809524,-0.19523809523809524,-0.19523809523809524,-0.18571428571428572,-0.16666666666666666,-0.15714285714285714,-0.15714285714285714,-0.15714285714285714,-0.14761904761904762,-0.14761904761904762,-0.14761904761904762,-0.14761904761904762,-0.14761904761904762,-0.14761904761904762,-0.14761904761904762,-0.14761904761904762,-0.14761904761904762,-0.14761904761904762,-0.14761904761904762,-0.14761904761904762,-0.14761904761904762,-0.14761904761904762,-0.14761904761904762,-0.14761904761904762,-0.14761904761904762,-0.14761904761904762,-0.14761904761904762,-0.14761904761904762,-0.14761904761904762,-0.1380952380952381,-0.10952380952380952,-0.1,-0.1,-0.1,-0.09047619047619047,-0.08095238095238096,-0.08095238095238096,-0.07142857142857142,-0.06190476190476191,-0.04285714285714286,-0.023809523809523808,-0.023809523809523808,-0.023809523809523808,-0.023809523809523808,-0.023809523809523808,-0.014285714285714285,-0.004761904761904762,0.014285714285714285,0.05238095238095238,0.07142857142857142,0.08095238095238096,0.09047619047619047,0.09047619047619047,0.10952380952380952,0.10952380952380952,0.10952380952380952,0.10952380952380952,0.11904761904761904,0.14761904761904762,0.15714285714285714,0.16666666666666666,0.16666666666666666,0.16666666666666666,0.16666666666666666,0.16666666666666666,0.16666666666666666,0.16666666666666666,0.16666666666666666,0.16666666666666666,0.16666666666666666,0.16666666666666666,0.16666666666666666,0.16666666666666666,0.16666666666666666,0.16666666666666666,0.16666666666666666,0.16666666666666666,0.16666666666666666,0.16666666666666666,0.16666666666666666,0.16666666666666666,0.16666666666666666,0.16666666666666666,0.16666666666666666,0.16666666666666666,0.16666666666666666,0.16666666666666666,0.20476190476190476,0.20476190476190476,0.21428571428571427,0.21428571428571427,0.21428571428571427,0.21428571428571427,0.21428571428571427,0.22380952380952382,0.23333333333333334,0.2523809523809524,0.2619047619047619,0.3,0.3476190476190476,0.3476190476190476,0.3761904761904762,0.38571428571428573,0.38571428571428573,0.38571428571428573,0.38571428571428573,0.38571428571428573,0.38571428571428573,0.38571428571428573,0.38571428571428573,0.38571428571428573,0.38571428571428573,0.38571428571428573,0.38571428571428573,0.38571428571428573,0.38571428571428573,0.38571428571428573,0.38571428571428573,0.38571428571428573,0.38571428571428573,0.38571428571428573,0.38571428571428573,0.38571428571428573,0.38571428571428573,0.38571428571428573,0.38571428571428573,0.38571428571428573,0.38571428571428573,0.38571428571428573,0.38571428571428573,0.38571428571428573,0.38571428571428573,0.3761904761904762,0.30952380952380953,0.28095238095238095,0.24285714285714285,0.24285714285714285,0.23333333333333334,0.23333333333333334,0.23333333333333334,0.23333333333333334,0.2619047619047619,0.2904761904761905,0.2904761904761905,0.3,0.3476190476190476,0.35714285714285715,0.3952380952380952,0.43333333333333335,0.4714285714285714,0.5095238095238095,0.5285714285714286,0.5285714285714286,0.5285714285714286,0.5285714285714286,0.5285714285714286,0.5285714285714286,0.5285714285714286,0.5285714285714286,0.5285714285714286,0.5285714285714286,0.5285714285714286,0.5571428571428572,0.5571428571428572,0.5666666666666667,0.5666666666666667,0.5761904761904761,0.5857142857142857,0.5857142857142857,0.5857142857142857,0.5857142857142857,0.5857142857142857,0.5857142857142857,0.5857142857142857,0.5857142857142857,0.5857142857142857,0.5857142857142857,0.5857142857142857,0.5761904761904761,0.5761904761904761,0.5761904761904761,0.5761904761904761,0.5761904761904761,0.5857142857142857,0.5952380952380952,0.6047619047619047,0.6428571428571429,0.7,0.7857142857142857,0.861904761904762,0.9666666666666667,1.042857142857143,1.0809523809523809,1.0809523809523809,1.0809523809523809,1.0523809523809524,1.0238095238095237,0.9476190476190476,0.9285714285714286,0.9095238095238095,0.9,0.8904761904761904,0.8904761904761904,0.8904761904761904,0.8714285714285714,0.8523809523809524,0.8523809523809524,0.8523809523809524,0.8523809523809524,0.8523809523809524,0.8523809523809524,0.8523809523809524,0.8523809523809524,0.8523809523809524,0.8523809523809524,0.8523809523809524,0.8523809523809524,0.8523809523809524,0.8523809523809524,0.8523809523809524,0.8523809523809524,0.8523809523809524,0.8523809523809524,0.8523809523809524,0.8523809523809524,0.8523809523809524,0.8523809523809524,0.8428571428571429,0.8333333333333334,0.8142857142857143,0.7952380952380952,0.7761904761904762,0.7761904761904762,0.7761904761904762,0.7761904761904762,0.7761904761904762,0.7761904761904762,0.7761904761904762,0.7476190476190476,0.7380952380952381,0.719047619047619,0.7095238095238096,0.680952380952381,0.6714285714285714,0.6428571428571429,0.6333333333333333,0.6047619047619047,0.5952380952380952,0.5952380952380952,0.5952380952380952,0.5952380952380952,0.5857142857142857,0.5857142857142857,0.5857142857142857,0.5857142857142857,0.5857142857142857,0.5857142857142857,0.5857142857142857,0.5857142857142857,0.5857142857142857,0.5857142857142857,0.5857142857142857,0.5857142857142857,0.5857142857142857,0.5857142857142857,0.5857142857142857,0.5857142857142857,0.5857142857142857,0.5857142857142857,0.5857142857142857,0.5857142857142857,0.5857142857142857,0.5857142857142857,0.6047619047619047,0.6428571428571429,0.6619047619047619,0.6619047619047619,0.680952380952381,0.680952380952381,0.680952380952381,0.680952380952381,0.680952380952381,0.6904761904761905,0.7095238095238096,0.719047619047619,0.7380952380952381,0.7571428571428571,0.7952380952380952,0.7952380952380952,0.8142857142857143,0.8142857142857143,0.8142857142857143,0.8142857142857143,0.8142857142857143,0.8142857142857143,0.8238095238095238,0.8238095238095238,0.8238095238095238,0.8238095238095238,0.8238095238095238,0.8238095238095238,0.8238095238095238,0.8238095238095238,0.8238095238095238,0.8238095238095238,0.8238095238095238,0.8142857142857143,0.8047619047619048,0.7857142857142857,0.7285714285714285,0.6238095238095238,0.5666666666666667,0.48095238095238096,0.43333333333333335,0.38571428571428573,0.35714285714285715,0.32857142857142857,0.3,0.28095238095238095,0.2619047619047619,0.24285714285714285,0.24285714285714285,0.22380952380952382,0.22380952380952382,0.22380952380952382,0.20476190476190476,0.20476190476190476,0.19523809523809524,0.18571428571428572,0.18571428571428572,0.18571428571428572,0.18571428571428572,0.18571428571428572,0.18571428571428572,0.18571428571428572,0.16666666666666666,0.14761904761904762,0.12857142857142856,0.10952380952380952,0.10952380952380952,0.1,0.09047619047619047,0.08095238095238096,0.07142857142857142,0.06190476190476191,0.06190476190476191,0.05238095238095238,0.03333333333333333,0.03333333333333333,0.023809523809523808,0.014285714285714285,0.014285714285714285,-0.004761904761904762,-0.004761904761904762,-0.004761904761904762,-0.014285714285714285,-0.014285714285714285,-0.014285714285714285,-0.014285714285714285,-0.014285714285714285,-0.014285714285714285,-0.014285714285714285,-0.014285714285714285,-0.014285714285714285,-0.014285714285714285,-0.014285714285714285,-0.014285714285714285,-0.014285714285714285,-0.014285714285714285,-0.014285714285714285,-0.014285714285714285,-0.014285714285714285,-0.014285714285714285,-0.014285714285714285,-0.014285714285714285,-0.014285714285714285,-0.014285714285714285,-0.014285714285714285,-0.004761904761904762,0.03333333333333333,0.1380952380952381,0.24285714285714285,0.28095238095238095,0.3761904761904762,0.49047619047619045,0.6047619047619047,0.7095238095238096,0.8047619047619048,0.8523809523809524,0.9285714285714286,0.9285714285714286,0.9285714285714286,0.9285714285714286,0.9285714285714286,0.9285714285714286,0.9285714285714286,0.9285714285714286,0.9285714285714286,0.9285714285714286,0.9476190476190476,0.9952380952380953,1.0333333333333334,1.061904761904762,1.0714285714285714,1.0809523809523809,1.0809523809523809,1.0809523809523809,1.0809523809523809,1.0809523809523809,1.0809523809523809,1.0809523809523809,1.0809523809523809,1.0809523809523809,1.0809523809523809,1.0809523809523809,1.0809523809523809,1.0809523809523809,1.0809523809523809,1.0809523809523809,1.0809523809523809,1.0809523809523809,1.0809523809523809,1.0809523809523809,1.0809523809523809,1.0809523809523809,1.0809523809523809,1.0809523809523809,1.0809523809523809,1.0809523809523809,1.0809523809523809,1.0809523809523809,1.0809523809523809,1.0809523809523809,1.0809523809523809,1.0809523809523809,1.0809523809523809,1.0809523809523809,1.0809523809523809,1.0809523809523809,1.0809523809523809,1.0809523809523809,1.0809523809523809,1.0809523809523809,1.0809523809523809,1.0809523809523809,1.0809523809523809,1.0809523809523809,1.0809523809523809,1.0809523809523809,1.0809523809523809,1.0809523809523809,1.0809523809523809,1.0809523809523809,1.0809523809523809,1.0809523809523809,1.0809523809523809,1.0809523809523809,1.0809523809523809,1.0809523809523809,1.0809523809523809,1.0809523809523809,1.0809523809523809,1.0809523809523809,1.0809523809523809,1.0809523809523809,1.0809523809523809,1.0809523809523809,1.0809523809523809,1.0809523809523809,1.0809523809523809,1.0809523809523809,1.0809523809523809,1.0809523809523809,1.0809523809523809,1.0809523809523809,1.0809523809523809,1.0809523809523809,1.0809523809523809,1.0809523809523809,1.0809523809523809,1.0809523809523809,1.0809523809523809,1.0809523809523809,1.0809523809523809,1.0809523809523809,1.0809523809523809,1.0809523809523809,1.0809523809523809]},"final_keyboard_state":["Z","E","B","R","A"],"num_clicks":5,"points":15,"cheat":false,"trial_type":"Hangman","trial_index":9,"time_elapsed":111633,"internal_node_id":"0.0-4.0","protocol_sum":"","subject_identifier":313,"subject_sum":[15,236,249,36,127,61,220,132,219,138,128,79,163,6,92,1,59,175,107,124,36,88,194,186,43,245,108,46,29,66,221,212],"subject_pair":156,"STUDY_ID":"66a0b3911f23dfc7665bb169","PROLIFIC_PID":"666389d35e9d93996c78bbf6","SESSION_ID":"66a2122b27fb49ebe5578d70","practice_instructions":3,"leaderboard_instructions":1,"bonus":0,"reveal_word":true,"self_rating":"2","confidence":"74"},{"view_history":"[{\"page_index\":0,\"viewing_time\":4716.800000190735},{\"page_index\":1,\"viewing_time\":1263.5999999046326}]","rt":5981,"trial_type":"instructions","trial_index":10,"time_elapsed":117616,"internal_node_id":"0.0-5.0","protocol_sum":"","subject_identifier":313,"subject_sum":[15,236,249,36,127,61,220,132,219,138,128,79,163,6,92,1,59,175,107,124,36,88,194,186,43,245,108,46,29,66,221,212],"subject_pair":156,"STUDY_ID":"66a0b3911f23dfc7665bb169","PROLIFIC_PID":"666389d35e9d93996c78bbf6","SESSION_ID":"66a2122b27fb49ebe5578d70","practice_instructions":3,"leaderboard_instructions":1,"bonus":0,"reveal_word":true,"self_rating":"2","confidence":"74"},{"rt":6959.099999904633,"responses":"{\"Q0\":\"...from the <b>upcoming tournament</b>.\"}","question_order":"[0]","trial_type":"survey-multi-choice","trial_index":11,"time_elapsed":124576,"internal_node_id":"0.0-6.0","protocol_sum":"","subject_identifier":313,"subject_sum":[15,236,249,36,127,61,220,132,219,138,128,79,163,6,92,1,59,175,107,124,36,88,194,186,43,245,108,46,29,66,221,212],"subject_pair":156,"correct":false,"test_part":"multichoice_leaderboard","STUDY_ID":"66a0b3911f23dfc7665bb169","PROLIFIC_PID":"666389d35e9d93996c78bbf6","SESSION_ID":"66a2122b27fb49ebe5578d70","practice_instructions":3,"leaderboard_instructions":1,"bonus":0,"reveal_word":true,"self_rating":"2","confidence":"74"},{"view_history":"[{\"page_index\":0,\"viewing_time\":2934.4000000953674}]","rt":2934.5999999046326,"trial_type":"instructions","trial_index":12,"time_elapsed":127511,"internal_node_id":"0.0-7.0-0.0","protocol_sum":"","subject_identifier":313,"subject_sum":[15,236,249,36,127,61,220,132,219,138,128,79,163,6,92,1,59,175,107,124,36,88,194,186,43,245,108,46,29,66,221,212],"subject_pair":156,"STUDY_ID":"66a0b3911f23dfc7665bb169","PROLIFIC_PID":"666389d35e9d93996c78bbf6","SESSION_ID":"66a2122b27fb49ebe5578d70","practice_instructions":3,"leaderboard_instructions":1,"bonus":0,"reveal_word":true,"self_rating":"2","confidence":"74"},{"rt":3447.2999997138977,"responses":"{\"Q0\":\"...from <b>a previous session</b> that is not part of the upcoming tournament.\"}","question_order":"[0]","trial_type":"survey-multi-choice","trial_index":13,"time_elapsed":130959,"internal_node_id":"0.0-7.0-1.0","protocol_sum":"","subject_identifier":313,"subject_sum":[15,236,249,36,127,61,220,132,219,138,128,79,163,6,92,1,59,175,107,124,36,88,194,186,43,245,108,46,29,66,221,212],"subject_pair":156,"correct":true,"test_part":"multichoice_leaderboard","STUDY_ID":"66a0b3911f23dfc7665bb169","PROLIFIC_PID":"666389d35e9d93996c78bbf6","SESSION_ID":"66a2122b27fb49ebe5578d70","practice_instructions":3,"leaderboard_instructions":1,"bonus":0,"reveal_word":true,"self_rating":"2","confidence":"74"},{"view_history":"[{\"page_index\":0,\"viewing_time\":2254.1000003814697}]","rt":2254.2000002861023,"trial_type":"instructions","trial_index":14,"time_elapsed":133215,"internal_node_id":"0.0-8.0","protocol_sum":"","subject_identifier":313,"subject_sum":[15,236,249,36,127,61,220,132,219,138,128,79,163,6,92,1,59,175,107,124,36,88,194,186,43,245,108,46,29,66,221,212],"subject_pair":156,"STUDY_ID":"66a0b3911f23dfc7665bb169","PROLIFIC_PID":"666389d35e9d93996c78bbf6","SESSION_ID":"66a2122b27fb49ebe5578d70","practice_instructions":3,"leaderboard_instructions":1,"bonus":0,"reveal_word":true,"self_rating":"2","confidence":"74"},{"rt":2839.4000000953674,"responses":"{\"Q0\":\"...how well players did (in terms of <b>points</b>) in <b>previous games.</b>\"}","question_order":"[0]","trial_type":"survey-multi-choice","trial_index":15,"time_elapsed":136056,"internal_node_id":"0.0-9.0","protocol_sum":"","subject_identifier":313,"subject_sum":[15,236,249,36,127,61,220,132,219,138,128,79,163,6,92,1,59,175,107,124,36,88,194,186,43,245,108,46,29,66,221,212],"subject_pair":156,"correct":false,"test_part":"multichoice_tournament","STUDY_ID":"66a0b3911f23dfc7665bb169","PROLIFIC_PID":"666389d35e9d93996c78bbf6","SESSION_ID":"66a2122b27fb49ebe5578d70","practice_instructions":3,"leaderboard_instructions":1,"bonus":0,"reveal_word":true,"self_rating":"2","confidence":"74"},{"view_history":"[{\"page_index\":0,\"viewing_time\":1326.2000002861023}]","rt":1326.5,"trial_type":"instructions","trial_index":16,"time_elapsed":137383,"internal_node_id":"0.0-10.0-0.0","protocol_sum":"","subject_identifier":313,"subject_sum":[15,236,249,36,127,61,220,132,219,138,128,79,163,6,92,1,59,175,107,124,36,88,194,186,43,245,108,46,29,66,221,212],"subject_pair":156,"STUDY_ID":"66a0b3911f23dfc7665bb169","PROLIFIC_PID":"666389d35e9d93996c78bbf6","SESSION_ID":"66a2122b27fb49ebe5578d70","practice_instructions":3,"leaderboard_instructions":1,"bonus":0,"reveal_word":true,"self_rating":"2","confidence":"74"},{"rt":2479.2999997138977,"responses":"{\"Q0\":\"...players' leaderboard position (in terms of <b>points</b>) in an <b>upcoming tournament.</b>\"}","question_order":"[0]","trial_type":"survey-multi-choice","trial_index":17,"time_elapsed":139864,"internal_node_id":"0.0-10.0-1.0","protocol_sum":"","subject_identifier":313,"subject_sum":[15,236,249,36,127,61,220,132,219,138,128,79,163,6,92,1,59,175,107,124,36,88,194,186,43,245,108,46,29,66,221,212],"subject_pair":156,"correct":true,"test_part":"multichoice_tournament","STUDY_ID":"66a0b3911f23dfc7665bb169","PROLIFIC_PID":"666389d35e9d93996c78bbf6","SESSION_ID":"66a2122b27fb49ebe5578d70","practice_instructions":3,"leaderboard_instructions":1,"bonus":0,"reveal_word":true,"self_rating":"2","confidence":"74"},{"view_history":"[{\"page_index\":0,\"viewing_time\":1679.0999999046326}]","rt":1679.2999997138977,"trial_type":"instructions","trial_index":18,"time_elapsed":141544,"internal_node_id":"0.0-11.0","protocol_sum":"","subject_identifier":313,"subject_sum":[15,236,249,36,127,61,220,132,219,138,128,79,163,6,92,1,59,175,107,124,36,88,194,186,43,245,108,46,29,66,221,212],"subject_pair":156,"STUDY_ID":"66a0b3911f23dfc7665bb169","PROLIFIC_PID":"666389d35e9d93996c78bbf6","SESSION_ID":"66a2122b27fb49ebe5578d70","practice_instructions":3,"leaderboard_instructions":1,"bonus":0,"reveal_word":true,"self_rating":"2","confidence":"74"},{"view_history":"[{\"page_index\":0,\"viewing_time\":1543.2000002861023}]","rt":1543.5,"trial_type":"instructions","trial_index":19,"time_elapsed":143088,"internal_node_id":"0.0-12.0-0.0","protocol_sum":"","subject_identifier":313,"subject_sum":[15,236,249,36,127,61,220,132,219,138,128,79,163,6,92,1,59,175,107,124,36,88,194,186,43,245,108,46,29,66,221,212],"subject_pair":156,"STUDY_ID":"66a0b3911f23dfc7665bb169","PROLIFIC_PID":"666389d35e9d93996c78bbf6","SESSION_ID":"66a2122b27fb49ebe5578d70","practice_instructions":3,"leaderboard_instructions":1,"bonus":0,"reveal_word":true,"self_rating":"2","confidence":"74"},{"rt":8350.400000095367,"response":"USAIN BOLT","responses":["USAIN BOLT"],"trial_type":"type-this","trial_index":20,"time_elapsed":151953,"internal_node_id":"0.0-12.0-1.0","protocol_sum":"","subject_identifier":313,"subject_sum":[15,236,249,36,127,61,220,132,219,138,128,79,163,6,92,1,59,175,107,124,36,88,194,186,43,245,108,46,29,66,221,212],"subject_pair":156,"STUDY_ID":"66a0b3911f23dfc7665bb169","PROLIFIC_PID":"666389d35e9d93996c78bbf6","SESSION_ID":"66a2122b27fb49ebe5578d70","practice_instructions":3,"leaderboard_instructions":1,"bonus":0,"reveal_word":true,"self_rating":"2","confidence":"74"},{"word":"USAIN BOLT","click_log":{"letter":["","A","I","E","O","B","M","D","T","S","L","U","N"],"t":[0,3745.4000000953674,6260.5,10208.800000190735,13840.099999904633,18804.599999904633,25501.800000190735,28766.5,38312.800000190735,46827.7000002861,56737.59999990463,59319.90000009537,62018.09999990463],"hit":[null,1,1,0,1,1,0,0,1,1,1,1,1],"asked":["","A","AI","AIE","AIEO","AIEOB","AIEOBM","AIEOBMD","AIEOBMDT","AIEOBMDTS","AIEOBMDTSL","AIEOBMDTSLU","AIEOBMDTSLUN"],"word_state":["_____ ____","__A__ ____","__AI_ ____","__AI_ ____","__AI_ _O__","__AI_ BO__","__AI_ BO__","__AI_ BO__","__AI_ BO_T","_SAI_ BO_T","_SAI_ BOLT","USAI_ BOLT","USAIN BOLT"]},"hover_log":{"letter":["?","?","?","?","?","?","?","?","?","?","?","?","?","?","?","?","?","?","?","?","?","?","?","?","?","?","?","?","?","?","?","?","?","?","?","?","?","?","?","?","?","?","?","?","?","?","?","?","?","?","?","?","?","?","?","?","?","?","?","?","?","?","?","?","?","?","?","?","?","?","?","?","?","?","?","?","?","?","?","?","?","?","?","?","?","?","?","?","?","?","?","?","?","?","?","?","?","?","?","?","?","?","?","?","?","?","?","?","?","?","?","?","?","?","?","?","?","?","?","?","?","?","?","?","?","?","?","?","?","?","?","?","?","?","?","?","?","?","?","?","?","?","?","?","?","?","?","?","?","?","?","?","?","?","?","?","?","?","?","?","?","?","?","?","?","?","?","?","?","?","?","?","?","?","?","?","?","?","?","?","?","?","?","?","?","?","?","?","?","?","?","?","?","?","?","?","?","?","?","?","?","?","?","?","?","?","?","?","?","?","?","?","?","?","?","?","?","?","?","?","?","?","?","?","?","?","?","?","?","?","?","?","?","?","?","?","?","?","?","?","?","?","?","?","?","?","?","?","?","?","?","?","?","?","?","?","?","?","?","?","?","?","?","?","?","?","?","?","?","?","?","?","?","?","?","?","?","?","?","?","?","?","?","?","?","?","?","?","?","?","?","?","?","?","?","?","?","?","?","?","?","?","?","?","?","?","?","?","?","?","?","?","?","?","?","?","?","?","?","?","?","?","?","?","?","?","?","?","?","?","?","?","?","?","?","?","?","?","?","?","?","?","?","?","?","?","?","?","?","?","?","?","?","?","?","?","?","?","?","?","?","?","?","?","?","?","?","?","?","?","?","?","?","?","?","?","?","?","?","?","?","?","?","?","?","?","?","?","?","?","?","?","?","?","?","?","?","?","?","?","?","?","?","?","?","?","?","?","?","?","?","?","?","?","?","?","?","?","?","?","?","?","?","?","?","?","?","?","?","?","?","?","?","?","?","?","?","?","?","?","?","?","?","?","?","?","?","?","?","?","?","?","?","?","?","?","?","?","?","?","?","?","?","?","?","?","?","?","?","?","?","?","?","?","?","?","?","?","?","?","?","?","?","?","?","?","?","?","?","?","?","?","?","?","?","?","?","?","?","?","?","?","?","?","?","?","?","?","?","?","?","?","?","?","?","?","?","?","?","?","?","?","?","?","?","?","?","?","?","?","?","?","?","?","?","?","?","?","?","?","?","?","?","?","?","?","?","?","?","?","?","?","?","?","?","?","?","?","?","?","?","?","?","?","?","?","?","?","?","?","?","?","?","?","?","?","?","?","?","?","?","?","?","?","?","?","?","?","?","?","?","?","?","?","?","?","?","?","?","?","?","?","?","?","?","?","?","?","?","?","?","?","?","?","?","?","?","?","?","?","?","?","?","?","?","?","?","?","?","?","?","?","?","?","?","?","?","?","?","?","?","?","?","?","?","?","?","?","?","?","?","?","?","?","?","?","?","?","?","?","?","?","?","?","?","?","?","?","?","?","?","?","?","?","?","?","?","?","?","?","?","?","?","?","?","?","?","?","?","?","?","?","?","?","?","?","?","?","?","?","?","?","?","?","?","?","?","?","?","?","?","?","?","?","?","?","?","?","?","?","?","?","?","?","?","?","?","?","?","?","?","?","?","?","?","?","?","?","?","?","?","?","?","?","?","?","?","?","?","?","?","?","?","?","?","?","?","?","?","?","?","?","?","?","?","?","?","?","?","?","?","?","?","?","?","?","?","?","?","?","?","?","?","?","?","?","?","?","?","?","?","?","?","?","?","?","?","?","?","?","?","?","?","?","?","?","?","?","?","?","?","?","?","?","?","?","?","?","?","?","?","?","?","?","?","?","?","?","?","?","?","?","?","?","?","?","?","?","?","?","?","?","?","?","?","?","?","?","?","?","?","?","?","?","?","?","?","?","?","?","?","?","?","?","?","?","?","?","?","?","?","?","?","?","?","?","?","?","?","?","?","?","?","?","?","?","?","?","?","?","?","?","?","?","?","?","?","?","?","?","?","?","?","?","?","?","?","?","?","?","?","?","?","?","?","?","?","?","?","?","?","?","?","?","?","?","?","?","?","?","?","?","?","?","?","?","?","?","?","?","?","?","?","?","?","?","?","?","?","?","?","?","?","?","?","?","?","?","?","?","?","?","?","?","?","?","?","?","?","?","?","?","?","?","?","?","?","?","?","?","?","?","?","?","?","?","?","?","?","?","?","?","?","?","?","?","?","?","?","?","?","?","?","?","?","?","?","?","?","?","?","?","?","?","?","?","?","?","?","?","?","?","?","?","?","?","?","?","?","?","?","?","?","?","?","?","?","?","?","?","?","?","?","?","?","?","?","?","?","?","?","?","?","?","?","?","?","?","?","?","?","?","?","?","?","?","?","?","?","?","?","?","?","?","?","?","?","?","?","?","?","?","?","?","?","?","?","?","?","?","?","?","?","?","?","?","?","?","?","?","?","?","?","?","?","?","?","?","?","?","?","?","?","?","?","?","?","?","?","?","?","?","?","?","?","?","?","?","?","?","?","?","?","?","?","?","?","?","?","?","?","?","?","?","?","?","?","?","?","?","?","?","?","?","?","?","?","?","?","?","?","?","?","?","?","?","?","?","?","?","?","?","?","?","?","?","?","?","?","?","?","?","?","?","?","?","?","?","?","?","?","?","?","?","?","?","?","?","?","?","?","?","?","?","?","?","?","?","?","?","?","?","?","?","?","?","?","?","?","?","?","?","?","?","?","?","?","?","?","?","?","?","?","?","?","?","?","?","?","?","?","?","?","?","?","?","?","?","?","?","?","?","?","?","?","?","?","?","?","?","?","?","?","?","?","?","?","?","?","?","?","?","?","?","?","?","?","?","?","?","?","?","?","?","?","?","?","?","?","?","?","?","?","?","?","?","?","?","?","?","?","?","?","?","?","?","?","?","?","?","?","?","?","?","?","?","?","?","?","?","?","?","?","?","?","?","?","?","?","?","?","?","?","?","?","?","?","?","?","?","?","?","?","?","?","?","?","?","?","?","?","?","?","?","?","?","?","?","?","?","?","?","?","?","?","?","?","?","?","?","?","?","?","?","?","?","?","?","?","?","?","?","?","?","?","?","?","?","?","?","?","?","?","?","?","?","?","?","?","?","?","?","?","?","?","?","?","?","?","?","?","?","?","?","?","?","?","?","?","?","?","?","?","?","?","?","?","?","?","?","?","?","?","?","?","?","?","?","?","?","?","?","?","?","?","?","?","?","?","?","?","?","?","?","?","?","?","?","?","?","?","?","?","?","?","?","?","?","?","?","?","?","?","?","?","?","?","?","?","?","?","?","?","?","?","?","?","?","?","?","?","?","?","?","?","?","?","?","?","?","?","?","?","?","?","?","?","?","?","?","?","?","?","?","?","?","?","?","?","?","?","?","?","?","?","?","?","?","?","?","?","?","?","?","?","?","?","?","?","?","?","?","?","?","?","?","?","?","?","?","?","?","?","?","?","?","?","?","?","?","?","?","?","?","?","?","?","?","?","?","?","?","?","?","?","?","?","?","?","?","?","?","?","?","?","?","?","?","?","?","?","?","?","?","?","?","?","?","?","?","?","?","?","?","?","?","?","?","?","?","?","?","?","?","?","?","?","?","?","?","?","?","?","?","?","?","?","?","?","?","?","?","?","?","?","?","?","?","?","?","?","?","?","?","?","?","?","?","?","?","?","?","?","?","?","?","?","?","?","?","?","?","?","?","?","?","?","?","?","?","?","?","?","?","?","?","?","?","?","?","?","?","?","?","?","?","?","?","?","?","?","?","?","?","?","?","?","?","?","?","?","?","?","?","?","?","?","?","?","?","?","?","?","?","?","?","?","?","?","?","?","?","?","?","?","?","?","?","?","?","?","?","?","?","?","?","?","?","?","?","?","?","?","?","?","?","?","?","?","?","?","?","?","?","?","?","?","?","?","?","?","?","?","?","?","?","?","?","?","?","?","?","?","?","?","?","?","?","?","?","?","?","?","?","?","?","?","?","?","?","?","?","?","?","?","?","?","?","?","?","?","?","?","?","?","?","?","?","?","?","?","?","?","?","?","?","?","?","?","?","?","?","?","?","?","?","?","?","?","?","?","?","?","?","?","?","?","?","?","?","?","?","?","?","?","?","?","?","?","?","?","?","?","?","?","?","?","?","?","?","?","?","?","?","?","?","?","?","?","?","?","?","?","?","?","?","?","?","?","?","?","?","?","?","?","?","?","?","?","?","?","?","?","?","?","?","?","?","?","?","?","?","?","?","?","?","?","?","?","?","?","?","?","?","?","?","?","?","?","?","?","?","?","?","?","?","?","?","?","?","?","?","?","?","?","?","?","?","?","?","?","?","?","?","?","?","?","?","?","?","?","?","?","?","?","?","?","?","?","?","?","?","?","?","?","?","?","?","?","?","?","?","?","?","?","?","?","?","?","?","?","?","?","?","?","?","?","?","?","?","?","?","?","?","?","?","?","?","?","?","?","?","?","?","?","?","?","?","?","?","?","?","?","?","?","?","?","?","?","?","?","?","?","?","?","?","?","?","?","?","?","?","?","?","?","?","?","?","?","?","?","?","?","?","?","?","?","?","?","?","?","?","?","?","?","?","?","?","?","?","?","?","?","?","?","?","?","?","?","?","?","?","?","?","?","?","?","?","?","?","?","?","?","?","?","?","?","?","?","?","?","?","?","?","?","?","?","?","?","?","?","?","?","?","?","?","?","?","?","?","?","?","?","?","?","?","?","?","?","?","?","?","?","?","?","?","?","?","?","?","?","?","?","?","?","?","?","?","?","?","?","?","?","?","?","?","?","?","?","?","?","?","?","?","?","?","?","?","?","?","?","?","?","?","?","?","?","J","?","?","?","?","?","?","?","?","?","?","?","?","?","?","?","?","?","?","?","?","?","?","?","?","?","?","?","?","?","?","?","?","?","?","?","?","?","?","?","?","?","?","?","?","?","?","?","?","?","?","?","?","?","?","?","?","?","?","?","?","?","?","?","?","?","?","?","?","?","?","?","?","?","?","?","?","?","?","?","?","?","?","?","?","?","?","?","?","?","?","?","?","?","?","?","?","?","?","?","?","?","?","?","?","?","?","?","?","?","?","?","?","?","?","?","?","?","?","?","?","?","?","?","?","?","?","?","?","?","?","?","?","?","?","?","?","?","?","?","?","?","?","?","?","?","?","?","?","?","?","?","?","?","?","?","?","?","?","?","?","?","?","?","?","?","?","?","?","?","?","?","?","?","?","?","?","?","?","?","?","?","?","?","?","?","?","?","?","?","?","?","?","?","?","?","?","?","?","?","?","?","?","?","?","?","?","?","?","?","?","?","?","?","?","?","?","?","?","?","?","?","?","?","?","?","?","?","?","?","?","?","?","?","?","?","?","?","?","?","?","?","?","?","?","?","?","?","?","?","?","?","?","?","?","?","?","?","?","?","?","?","?","?","?","?","?","?","?","?","?","?","?","?","?","?","?","?","?","?","?","?","?","?","?","?","?","?","?","?","?","?","?","?","?","?","?","?","?","?","?","?","?","?","?","?","?","?","?","?","?","?","?","?","?","?","?","?","?","?","?","?","?","?","?","?","?","?","?","?","?","?","?","?","?","?","?","?","?","?","?","?","?","?","?","?","?","?","?","?","?","?","?","?","?","?","?","?","?","?","?","?","?","?","?","?","?","?","?","?","?","?","?","?","?","?","?","?","?","?","?","?","?","?","?","?","?","?","?","?","?","?","?","?","?","?","?","?","?","?","?","?","?","?","?","?","?","?","?","?","?","?","?","?","?","?","?","?","?","?","?","?","?","?","?","?","?","?","?","?","?","?","?","?","?","?","?","?","?","?","?","?","?","?","?","?","?","?","?","?","?","?","?","?","?","?","?","?","?","?","?","?","?","?","?","?","?","?","?","?","?","?","?","?","?","?","?","?","?","?","?","?","?","?","?","?","?","?","?","?","?","?","?","?","?","?","?","?","?","?","?","?","?","?","?","?","?","?","?","?","?","?","?","?","?","?","?","?","?","?","?","?","?","?","?","?","?","?","?","?","?","?","?","?","?","?","?","?","?","?","?","?","?","?","?","?","?","?","?","?","?","?","?","?","?","?","?","?","?","?","?","?","?","?","?","?","?","?","?","?","?","?","?","?","?","?","?","?","?","?","?","?","?","?","?","?","?","?","?","?","?","?","?","?","?","?","?","?","?","?","?","?","?","?","?","?","?","?","?","?","?","?","?","?","?","?","?","?","?","?","?","?","?","?","?","?","?","?","?","?","?","?","?","?","?","?","?","?","?","?","?","?","?","?","?","?","?","?","?","?","?","?","?","?","?","?","?","?","?","?","?","?","?","?","?","?","?","?","?","?","?","?","?","?","?","?","?","?","?","?","?","?","?","?","?","?","?","?","?","?","?","?","?","?","?","?","?","?","?","?","?","?","?","?","?","?","?","?","?","?","?","?","?","?","?","?","?","?","?","?","?","?","?","?","?","?","?","?","?","?","?","?","?","?","?","?","?","?","?","?","?","?","?","?","?","?","?","?","?","?","?","?","?","?","?","?","?","?","?","?","?","?","?","?","?","?","?","?","?","?","?","?","?","?","?","?","?","?","?","?","?","?","?","?","?","?","?","?","?","?","?","?","?","?","?","?","?","?","?","?","?","?","?","?","?","?","?","?","?","?","?","?","?","?","?","?","?","?","?","?","?","?","?","?","?","?","?","?","?","?","?","?","?","?","?","?","?","?","?","?","?","?","?","?","?","?","?","?","?","?","?","?","?","?","?","?","?","?","?","?","?","?","?","?","?","?","?","?","?","?","?","?","?","?","?","?","?","?","?","?","?","?","?","?","?","?","?","?","?","?","?","?","?","?","?","?","?","?","?","?","?","?","?","?","?","?","?","?","?","?","?","?","?","?","?","?","?","?","?","?","?","?","?","?","?","?","?","?","?","?","?","?","?","?","?","?","?","?","?","?","?","?","?","?","?","?","?","?","?","?","?","?","?","?","?","?","?","?","?","?","?","?","?","?","?","?","?","?","?","?","?","?","?","?","?","?","?","?","?","?","?","?","?","?","?","?","?","?","?","?","?","?","?","?","?","?","?","?","?","?","?","?","?","?","?","?","?","?","?","?","?","?","?","?","?","?","?","?","?","?","?","?","?","?","?","?","?","?","?","?","?","?","?","?","?","?","?","?","?","?","?","?","?","?","?","?","?","?","?","?","?","?","?","?","?","?","?","?","?","?","?","?","?","?","?","?","?","?","?","?","?","?","?","?","?","?","?","?","?","?","?","?","?","?","?","?","?","?","?","?","?","?","?","?","?","?","?","?","?","?","?","?","?","?","?","?","?","?","?","?","?","?","?","?","?","?","?","?","?","?","?","?","?","?","?","?","?","?","?","?","?","?","?","?","?","?","?","?","?","?","?","?","?","?","?","?","?","?","?","?","?","?","?","?","?","?","?","?","?","?","?","?","?","?","?","?","?","?","?","?","?","?","?","?","?","?","?","?","?","?","?","?","?","?","?","?","?","?","?","?","?","?","?","?","?","?","?","?","?","?","?","?","?","?","?","?","?","?","?","?","?","?","?","?","?","?","?","?","?","?","?","?","?","?","?","?","?","?","?","?","?","?","?","?","?","?","?","?","?","?","?","?","?","?","?","?","?","?","?","?","?","?","?","?","?","?","?","?","?","?","?","?","?","?","?","?","?","?","?","?","?","?","?","?","?","?","?","?","?","?","?","?","?","?","?","?","?","?","?","?","?","?","?","?","?","?","?","?","?","?","?","?","?","?","?","?","?","?","?","?","?","?","?","?","?","?","?","?","?","?","?","?","?","?","?","?","?","?","?","?","?","?","?","?","?","?","?","?","?","?","?","?","?","?","?","?","?","?","?","?","?","?","?","?","?","?","?","?","?","?","?","?","?","?","?","?","?","?","?","?","?","?","?","?","?","?","?","?","?","?","?","?","?","?","?","?","?","?","?","?","?","?","?","?","?","?","?","?","?","?","?","?","?","?","?","?","?","?","?","?","?","?","?","?","?","?","?","?","?","?","?","?","?","?","?","?","?","?","?","?","?","?","?","?","?","?","?","?","?","?","?","?","?","?","?","?","?","?","?","?","?","?","?","?","?","?","?","?","?","?","?","?","?","?","?","?","?","?","?","?","?","?","?","?","?","?","?","?","?","?","?","?","?","?","?","?","?","?","?","?","?","?","?","?","?","?","?","?","?","?","?","?","?","?","?","?","?","?","?","?","?","?","?","?","?","?","?","?","?","?","?","?","?","?","?","?","?","?","?","?","?","?","?","?","?","?","?","?","?","?","?","?","?","?","?","?","?","?","?","?","?","?","?","?","?","?","?","?","?","?","?","?","?","?","?","?","?","?","?","?","?","?","?","?","?","?","?","?","?","?","?","?","?","?","?","?","?","?","?","?","?","?","?","?","?","?","?","?","?","?","?","?","?","?","?","?","?","?","?","?","?","?","?","?","?","?","?","?","?","?","?","?","?","?","?","?","?","?","?","?","?","?","?","?","?","?","?","?","?","?","?","?","?","?","?","?","?","?","?","?","?","?","?","?","?","?","?","?","?","?","?","?","?","?","?","?","?","?","?","?","?","?","?","?","?","?","?","?","?","?","?","?","?","?","?","?","?","?","?","?","?","?","?","?","?","?","?","?","?","?","?","?","?","?","?","?","?","?","?","?","?","?","?","?","?","?","?","?","?","?","?","?","?","?","?","?","?","?","?","?","?","?","?","?","?","?","?","?","?","?","?","?","?","?","?","?","?","?","?","?","?","?","?","?","?","?","?","?","?","?","?","?","?","?","?","?","?","?","?","?","?","?","?","?","?","?","?","?","?","?","?","?","?","?","?","?","?","?","?","?","?","?","?","?","?","?","?","?","?","?","?","?","?","?","?","?","?","?","?","?","?","?","?","?","?","?","?","?","?","?","?","?","?","?","?","?","?","?","?","?","?","?","?","?","?","?","?","?","?","?","?","?","?","?","?","?","?","?","?","?","?","?","?","?","?","?","?","?","?","?","?","?","?","?","?","?","?","?","?","?","?","?","?","?","?","?","?","?","?","?","?","?","?","?","?","?","?","?","?","?","?","?","?","?","?","?","?","?","?","?","?","?","?","?","?","?","?","?","?","?","?","?","?","?","?","?","?","?","?","?","?","?","?","?","?","?","?","?","?","?","?","?","?","?","?","?","?","?","?","?","?","?","?","?","?","?","?","?","?","?","?","?","?","?","?","?","?","?","?","?","?","?","?","?","?","?","?","?","?","?","?","?","?","?","?","?","?","?","?","?","?","?","?","?","?","?","?","?","?","?","?","?","?","?","?","?","?","?","?","?","?","?","?","?","?","?","?","?","?","?","?","?","?","?","?","?","?","?","?","?","?","?","?","?","?","?","?","?","?","?","?","?","?","?","?","?","?","?","?","?","?","?","?","?","?","?","?","?","?","?","?","?","?","?","?","?","?","?","?","?","?","?","?","?","?","?","?","?","?","?","?","?","?","?","?","?","?","?","?","?","?","?","?","?","?","?","?","?","?","?","?","?","?","?","?","?","?","?","?","?","?","?","?","?","?","?","?","?","?","?","?","?","?","?","?","?","?","?","?","?","?","?","?","?","?","?","?","?","?","?","?","?","?","?","?","?","?","?","?","?","?","?","?","?","?","?","?","?","?","?","?","?","?","?","?","?","?","?","?","?","?","?","?","?","?","?","?","?","?","?","?","?","?","?","?","?","?","?","?","?","?","?","?","?","?","?","?","?","?","?","?","?","?","?","?","?","?","?","?","?","?","?","?","?","?","?","?","?","?","?","?","?","?","?","?","?","?","?","?","?","?","?","?","?","?","?","?","?","?","?","?","?","?","?","?","?","?","?","?","?","?","?","?","?","?","?","?","?","?","?","?","?","?","?","?","?","?","?","?","?","?","?","?","?","?","?","?","?","?","?","?","?","?","?","?","?","?","?","?","?","?","?","?","?","?","?","?","?","?","?","?","?","?","?","?","?","?","?","?","?","?","?","?","?","?","?","?","?","?","?","?","?","?","?","?","?","?","?","?","?","?","?","?","?","?","?","?","?","?","?","?","?","?","?","?","?","?","?","?","?","?","?","?","?","?","?","?","?","?","?","?","?","?","?","?","?","?","?","?","?","?","?","?","?","?","?","?","?","?","?","?","?","?","?","?","?","?","?","?","?","?","?","?","?","?","?","?","?","?","?","?","?","?","?","?","?","?","?","?","?","?","?","?","?","?","?","?","?","?","?","?","?","?","?","?","?","?","?","?","?","?","?","?","?","?","?","?","?","?","?","?","?","?","?","?","?","?","?","?","?","?","?","?","?","?","?","?","?","?","?","?","?","?","?","?","?","?","?","?","?","?","?","?","?","?","?","?","?","?","?","?","?","?","?","?","?","?","?","?","?","?","?","?","?","?","?","?","?","?","?","?","?","?","?","?","?","?","?","?","?","?","?","?","?","?","?","?","?","?","?","?","?","?","?","?","?","?","?","?","?","?","?","?","?","?","?","?","?","?","?","?","?","?","?","?","?","?","?","?","?","?","?","?","?","?","?","?","?","?","?","?","?","?","?","?","?","?","?","?","?","?","?","?","?","?","?","?","?","?","?","?","?","?","?","?","?","?","?","?","?","?","?","?","?","?","?","?","?","?","?","?","?","?","?","?","?","?","?","?","?","?","?","?","?","?","?","?","?","?","?","?","?","?","?","?","?","?","?","?","?","?","?","?","?","?","?","?","?","?","?","?","?","?","?","?","?","?","?","?","?","?","?","?","?","?","?","?","?","?","?","?","?","?","?","?","?","?","?","?","?","?","?","?","?","?","?","?","?","?","?","?","?","?","?","?","?","?","?","?","?","?","?","?","?","?","?","?","?","?","?","?","?","?","?","?","?","?","?","?","?","?","?","?","?","?","?","?","?","?","?","?","?","?","?","?","?","?","?","?","?","?","?","?","?","?","?","?","?","?","?","?","?","?","?","?","?","?","?","?","?","?","?","?","?","?","?","?","?","?","?","?","?","?","?","?","?","?","?","?","?","?","?","?","?","?","?","?","?","?","?","?","?","?","?","?","?","?","?","?","?","?","?","?","?","?","?","?","?","?","?","?","?","?","?","?","?","?","?","?","?","?","?","?","?","?","?","?","?","?","?","?","?","?","?","?","?","?","?","?","?","?","?","?","?","?","?","?","?","?","?","?","?","?","?","?","?","?","?","?","?","?","?","?","?","?","?","?","?","?","?","?","?","?","?","?","?","?","?","?","?","?","?","?","?","?","?","?","?","?","?","?","?","?","?","?","?","?","?","?","?","?","?","?","?","?","?","?","?","?","?","?","?","?","?","?","?","?","?","?","?","?","?","?","?","?","?","?","?","?","?","?","?","?","?","?","?","?","?","?","?","?","?","?","?","?","?","?","?","?","?","?","?","?","?","?","?","?","?","?","?","?","?","?","?","?","?","?","?","?","?","?","?","?","?","?","?","?","?","?","?","?","?","?","?","?","?","?","?","?","?","?","?","?","?","?","?","?","?","?","?","?","?","?","?","?","?","?","?","?","?","?","?","?","?","?","?","?","?","?","?","?","?","?","?","?","?","?","?","?","?","?","?","?","?","?","?","?","?","?","?","?","?","?","?","?","?","?","?","?","?","?","?","?","?","?","?","?","?","?","?","?","?","?","?","?","?","?","?","?","?","?","?","?","?","?","?","?","?","?","?","?","?","?","?","?","?","?","?","?","?","?","?","?","?","?","?","?","?","?","?","?","?","?","?","?","?","?","?","?","?","?","?","?","?","?","?","?","?","?","?","?","?","?","?","?","?","?","?","?","?","?","?","?","?","?","?","?","?","?","?","?","?","?","?","?","?","?","?","?","?","?","?","?","?","?","?","?","?","?","?","?","?","?","?","?","?","?","?","?","?","?","?","?","?","?","?","?","?","?","?","?","?","?","?","?","?","?","?","?","?","?","?","?","?","?","?","?","?","?","?","?","?","?","?","?","?","?","?","?","?","?","?","?","?","?","?","?","?","?","?","?","?","?","?","?","?","?","?","?","?","?","?","?","?","?","?","?","?","?","?","?","?","?","?","?","?","?","?","?","?","?","?","?","?","?","?","?","?","?","?","?","?","?","?","?","?","?","?","?","?","?","?","?","?","?","?","?","?","?","?","?","?","?","?","?","?","?","?","?","?","?","?","?","?","?","?","?","?","?","?","?","?","?","?","?","?","?","?","?","?","?","?","?","?","?","?","?","?","?","?","?","?","?","?","?","?","?","?","?","?","?","?","?","?","?","?","?","?","?","?","?","?","?","?","?","?","?","?","?","?","?","?","?","?","?","?","?","?","?","?","?","?","?","?","?","?","?","?","?","?","?","?","?","?","?","?","?","?","?","?","?","?","?","?","?","?","?","?","?","?","?","?","?","?","?","?","?","?","?","?","?","?","?","?","?","?","?","?","?","?","?","?","?","?","?","?","?","?","?","?","?","?","?","?","?","?","?","?","?","?","?","?","?","?","?","?","?","?","?","?","?","?","?","?","?","?","?","?","?","?","?","?","?","?","?","?","?","?","?","?","?","?","?","?","?","?","?","?","?","?","?","?","?","?","?","?","?","?","?","?","?","?","?","?","?","?","?","?","?","?","?","?","?","?","?","?","?","?","?","?","?","?","?","?","?","?","?","?","?","?","?","?","?","?","?","?","?","?","?","?","?","?","?","?","?","?","?","?","?","?","?","?","?","?","?","?","?","?","?","?","?","?","?","?","?","?","?","?","?","?","?","?","?","?","?","?","?","?","?","?","?","?","?","?","?","?","?","?","?","?","?","?","?","?","?","?","?","?","?","?","?","?","?","?","?","?","?","?","?","?","?","?","?","?","?","?","?","?","?","?","?","?","?","?","?","?","?","?","?","?","?","?","?","?","?","?","?","?","?","?","?","?","?","?","?","?","?","?","?","?","?","?","?","?","?","?","?","?","?","?","?","?","?","?","?","?","?","?","?","?","?","?","?","?","?","?","?","?","?","?","?","?","?","?","?","?","?","?","?","?","?","?","?","?","?","?","?","?","?","?","?","?","?","?","?","?","?","?","?","?","?","?","?","?","?","?","?","?","?","?","?","?","?","?","?","?","?","?","?","?","?","?","?","?","?","?","?","?","?","?","?","?","?","?","?","?","?","?","?","?","?","?","?","?","?","?","?","?","?","?","?","?","?","?","?","?","?","?","?","?","?","?","?","?","?","?","?","?","?","?","?","?","?","?","?","?","?","?","?","?","?","?","?","?","?","?","?","?","?","?","?","?","?","?","?","?","?","?","?","?","?","?","?","?","?","?","?","?","?","?","?","?","?","?","?","?","?","?","?","?","?","?","?","?","?","?","?","?","?","?","?","?","?","?","?","?","?","?","?","?","?","?","?","?","?","?","?","?","?","?","?","?","?","?","?","?","?","?","?","?","?","?","?","?","?","?","?","?","?","?","?","?","?","?","?","?","?","?","?","?","?","?","?","?","?","?","?","?","?","?","?","?","?","?","?","?","?","?","?","?","?","?","?","?","?","?","?","?","?","?","?","?","?","?","?","?","?","?","?","?","?","?","?","?","?","?","?","?","?","?","?","?","?","?","?","?","?","?","?","?","?","?","?","?","?","?","?","?","?","?","?","?","?","?","?","?","?","?","?","?","?","?","?","?","?","?","?","?","?","?","?","?","?","?","?","?","?","?","?","?","?","?","?","?","?","?","?","?","?","?","?","?","?","?","?","?","?","?","?","?","?","?","?","?","?","?","?","?","?","?","?","?","?","?","?","?","?","?","?","?","?","?","?","?","?","?","?","?","?","?","?","?","?","?","?","?","?","?","?","?","?","?","?","?","?","?","?","?","?","?","?","?","?","?","?","?","?","?","?","?","?","?","?","?","?","?","?","?","?","?","?","?","?","?","?","?","?","?","?","?","?","?","?","?","?","?","?","?","?","?","?","?","?","?","?","?","?","?","?","?","?","?","?","?","?","?","?","?","?","?","?","?","?","?","?","?","?","?","?","?","?","?","?","?","?","?","?","?","?","?","?","?","?","?","?","?","?","?","?","?","?","?","?","?","?","?","?","?","?","?","?","?","?","?","?","?","?","?","?","?","?","?","?","?","?","?","?","?","?","?","?","?","?","?","?","?","?","?","?","?","?","?","?","?","?","?","?","?","?","?","?","?","?","?","?","?","?","?","?","?","?","?","?","?","?","?","?","?","?","?","?","?","?","?","?","?","?","?","?","?","?","?","?","?","?","?","?","?","?","?","?","?","?","?","?","?","?","?","?","?","?","?","?","?","?","?","?","?","?","?","?","?","?","?","?","?","?","?","?","?","?","?","?","?","?","?","?","?","?","?","?","?","?","?","?","?","?","?","?","?","?","?","?","?","?","?","?","?","?","?","?","?","?","?","?","?","?","?","?","?","?","?","?","?","?","?","?","?","?","?","?","?","?","?","?","?","?","?","?","?","?","?","?","?","?","?","?","?","?","?","?","?","?","?","?","?","?","?","?","?","?","?","?","?","?","?","?","?","?","?","?","?","?","?","?","?","?","?","?","?","?","?","?","?","?","?","?","?","?","?","?","?","?","?","?","?","?","?","?","?","?","?","?","?","?","?","?","?","?","?","?","?","?","?","?","?","?","?","?","?","?","?","?","?","?","?","?","?","?","?","?","?","?","?","?","?","?","?","?","?","?","?","?","?","?","?","?","?","?","?","?","?","?","?","?","?","?","?","?","?","?","?","?","?","?","?","?","?","?","?","?","?","?","?","?","?","?","?","?","?","?","?","?","?","?","?","?","?","?","?","?","?","?","?","?","?","?","?","?","?","?","?","?","?","?","?","?","?","?","?","?","?","?","?","?","?","?","?","?","?","?","?","?","?","?","?","?","?","?","?","?","?","?","?","?","?","?","?","?","?","?","?","?","?","?","?","?","?","?","?","?","?","?","?","?","?","?","?","?","?","?","?","?","?","?","?","?","?","?","?","?","?","?","?","?","?","?","?","?","?","?","?","?","?","?","?","?","?","?","?","?","?","?","?","?","?","?","?","?","?","?","?","?","?","?","?","?","?","?","?","?","?","?","?","?","?","?","?","?","?","?","?","?","?","?","?","?","?","?","?","?","?","?","?","?","?","?","?","?","?","?","?","?","?","?","?","?","?","?","?","?","?","?","?","?","?","?","?","?","?","?","?","?","?","?","?","?","?","?","?","?","?","?","?","?","?","?","?","?","?","?","?","?","?","?","?","?","?","?","?","?","?","?","?","?","?","?","?","?","?","?","?","?","?","?","?","?","?","?","?","?","?","?","?","?","?","?","?","?","?","?","?","?","?","?","?","?","?","?","?","?","?","?","?","?","?","?","?","?","?","?","?","?","?","?","?","?","?","?","?","?","?","?","?","?","?","?","?","?","?","?","?","?","?","?","?","?","?","?","?","?","?","?","?","?","?","?","?","?","?","?","?","?","?","?","?","?","?","?","?","?","?","?","?","?","?","?","?","?","?","?","?","?","?","?","?","?","?","?","?","?","?","?","?","?","?","?","?","?","?","?","?","?","?","?","?","?","?","?","?","?","?","?","?","?","?","?","?","?","?","?","?","?","?","?","?","?","?","?","?","?","?","?","?","?","?","?","?","?","?","?","?","?","?","?","?","?","?","?","?","?","?","?","?","?","?","?","?","?","?","?","?","?","?","?","?","?","?","?","?","?","?","?","?","?","?","?","?","?","?","?","?","?","?","?","?","?","?","?","?","?","?","?","?","?","?","?","?","?","?","?","?","?","?","?","?","?","?","?","?","?","?","?","?","?","?","?","?","?","?","?","?","?","?","?","?","?","?","?","?","?","?","?","?","?","?","?","?","?","?","?","?","?","?","?","?","?","?","?","?","?","?","?","?","?","?","?","?","?","?","?","?","?","?","?","?","?","?","?","?","?","?","?","?","?","?","?","?","?","?","?","?","?","?","?","?","?","?","?","?","?","?","?","?","?","?","?","?","?","?","?","?","?","?","?","?","?","?","?","?","?","?","?","?","?","?","?","?","?","?","?","?","?","?","?","?","?","?","?","?","?","?","?","?","?","?","?","?","?","?","?","?","?","?","?","?","?","?","?","?","?","?","?","?","?","?","?","?","?","?","?","?","?","?","?","?","?","?","?","?","?","?","?","?","?","?","?","?","?","?","?","?","?","?","?","?","?","?","?","?","?","?","?","?","?","?","?","?","?","?","?","?","?","?","?","?","?","?","?","?","?","?","?","?","?","?","?","?","?","?","?","?","?","?","?","?","?","?","?","?","?","?","?","?","?","?","?","?","?","?","?","?","?","?","?","?","?","?","?","?","?","?","?","?","?","?","?","?","?","?","?","?","?","?","?","?","?","?","?","?","?","?","?","?","?","?","?","?","?","?","?","?","?","?","?","?","?","?","?","?","?","?","?","?","?","?","?","?","?","?","?","?","?","?","?","?","?","?","?","?","?","?","?","?","?","?","?","?","?","?","?","?","?","?","?","?","?","?","?","?","?","?","?","?","?","?","?","?","?","?","?","?","?","?","?","?","?","?","?","?","?","?","?","?","?","?","?","?","?","?","?","?","?","?","?","?","?","?","?","?","?","?","?","?","?","?","?","?","?","?","?","?","?","?","?","?","?"