success,trial_type,trial_index,time_elapsed,internal_node_id,protocol_sum,subject_identifier,subject_sum,subject_pair,STUDY_ID,PROLIFIC_PID,SESSION_ID,practice_instructions,leaderboard_instructions,bonus,reveal_word,self_rating,confidence,view_history,rt,responses,question_order,correct,test_part,word,click_log,final_keyboard_state,num_clicks,points,cheat,response,position_RT,position,player,i_game,true_position,distance,last_word,stimulus,confidence_slider_self_response
1.0,fullscreen,0,13763,0.0-0.0,,337,"[128, 195, 205, 64, 250, 53, 249, 8, 139, 135, 65, 189, 139, 230, 21, 61, 224, 95, 102, 28, 254, 235, 70, 37, 255, 191, 95, 74, 108, 60, 2, 196]",168,66a0b3911f23dfc7665bb169,65f4ab7884f8411c9e11a34e,66a17b400949f58a5d8be1d4,1,1,0,True,4,72,,,,,,,,,,,,,,,,,,,,,,
,instructions,1,20776,0.0-1.0,,337,"[128, 195, 205, 64, 250, 53, 249, 8, 139, 135, 65, 189, 139, 230, 21, 61, 224, 95, 102, 28, 254, 235, 70, 37, 255, 191, 95, 74, 108, 60, 2, 196]",168,66a0b3911f23dfc7665bb169,65f4ab7884f8411c9e11a34e,66a17b400949f58a5d8be1d4,1,1,0,True,4,72,"[{""page_index"":0,""viewing_time"":7011.0999999940395}]",7011.4000000059605,,,,,,,,,,,,,,,,,,,,
,instructions,2,54509,0.0-2.0-0.0,,337,"[128, 195, 205, 64, 250, 53, 249, 8, 139, 135, 65, 189, 139, 230, 21, 61, 224, 95, 102, 28, 254, 235, 70, 37, 255, 191, 95, 74, 108, 60, 2, 196]",168,66a0b3911f23dfc7665bb169,65f4ab7884f8411c9e11a34e,66a17b400949f58a5d8be1d4,1,1,0,True,4,72,"[{""page_index"":0,""viewing_time"":33732.09999999404}]",33732.40000000596,,,,,,,,,,,,,,,,,,,,
,survey-multi-choice,3,64362,0.0-2.0-1.0,,337,"[128, 195, 205, 64, 250, 53, 249, 8, 139, 135, 65, 189, 139, 230, 21, 61, 224, 95, 102, 28, 254, 235, 70, 37, 255, 191, 95, 74, 108, 60, 2, 196]",168,66a0b3911f23dfc7665bb169,65f4ab7884f8411c9e11a34e,66a17b400949f58a5d8be1d4,1,1,0,True,4,72,,9852.199999988079,"{""Q0"":""... reveal the word with as <b>few letter guesses</b> as possible""}",[0],1.0,multichoice_nonpretend,,,,,,,,,,,,,,,,
,instructions,4,66565,0.0-3.0,,337,"[128, 195, 205, 64, 250, 53, 249, 8, 139, 135, 65, 189, 139, 230, 21, 61, 224, 95, 102, 28, 254, 235, 70, 37, 255, 191, 95, 74, 108, 60, 2, 196]",168,66a0b3911f23dfc7665bb169,65f4ab7884f8411c9e11a34e,66a17b400949f58a5d8be1d4,1,1,0,True,4,72,"[{""page_index"":0,""viewing_time"":2201.100000023842}]",2201.2000000178814,,,,,,,,,,,,,,,,,,,,
,Hangman,5,121458,0.0-4.0,,337,"[128, 195, 205, 64, 250, 53, 249, 8, 139, 135, 65, 189, 139, 230, 21, 61, 224, 95, 102, 28, 254, 235, 70, 37, 255, 191, 95, 74, 108, 60, 2, 196]",168,66a0b3911f23dfc7665bb169,65f4ab7884f8411c9e11a34e,66a17b400949f58a5d8be1d4,1,1,0,True,4,72,,,,,,,ZEBRA,"{'letter': ['', 'H', 'O', 'A', 'P', 'D', 'N', 'T', 'S', 'M', 'E', 'R', 'Z', 'B'], 't': [0, 7813.199999988079, 12463.800000011921, 14321.40000000596, 19740.40000000596, 23993.5, 26411, 28471.19999998808, 31967.30000001192, 36574.30000001192, 38640, 48380, 51741.40000000596, 52882.5], 'hit': [None, 0, 0, 1, 0, 0, 0, 0, 0, 0, 1, 1, 1, 1], 'asked': ['', 'H', 'HO', 'HOA', 'HOAP', 'HOAPD', 'HOAPDN', 'HOAPDNT', 'HOAPDNTS', 'HOAPDNTSM', 'HOAPDNTSME', 'HOAPDNTSMER', 'HOAPDNTSMERZ', 'HOAPDNTSMERZB'], 'word_state': ['_____', '_____', '_____', '____A', '____A', '____A', '____A', '____A', '____A', '____A', '_E__A', '_E_RA', 'ZE_RA', 'ZEBRA']}","['H', 'O', 'A', 'P', 'D', 'N', 'T', 'S', 'M', 'E', 'R', 'Z', 'B']",13.0,7.0,0.0,,,,,,,,,,
,instructions,6,155485,0.0-5.0,,337,"[128, 195, 205, 64, 250, 53, 249, 8, 139, 135, 65, 189, 139, 230, 21, 61, 224, 95, 102, 28, 254, 235, 70, 37, 255, 191, 95, 74, 108, 60, 2, 196]",168,66a0b3911f23dfc7665bb169,65f4ab7884f8411c9e11a34e,66a17b400949f58a5d8be1d4,1,1,0,True,4,72,"[{""page_index"":0,""viewing_time"":3319.399999976158},{""page_index"":1,""viewing_time"":30706.5}]",34026.39999997616,,,,,,,,,,,,,,,,,,,,
,survey-multi-choice,7,164081,0.0-6.0,,337,"[128, 195, 205, 64, 250, 53, 249, 8, 139, 135, 65, 189, 139, 230, 21, 61, 224, 95, 102, 28, 254, 235, 70, 37, 255, 191, 95, 74, 108, 60, 2, 196]",168,66a0b3911f23dfc7665bb169,65f4ab7884f8411c9e11a34e,66a17b400949f58a5d8be1d4,1,1,0,True,4,72,,8594.90000000596,"{""Q0"":""...from <b>a previous session</b> that is not part of the upcoming tournament.""}",[0],1.0,multichoice_leaderboard,,,,,,,,,,,,,,,,
,instructions,8,175418,0.0-8.0,,337,"[128, 195, 205, 64, 250, 53, 249, 8, 139, 135, 65, 189, 139, 230, 21, 61, 224, 95, 102, 28, 254, 235, 70, 37, 255, 191, 95, 74, 108, 60, 2, 196]",168,66a0b3911f23dfc7665bb169,65f4ab7884f8411c9e11a34e,66a17b400949f58a5d8be1d4,1,1,0,True,4,72,"[{""page_index"":0,""viewing_time"":11336.90000000596}]",11337.09999999404,,,,,,,,,,,,,,,,,,,,
,survey-multi-choice,9,188348,0.0-9.0,,337,"[128, 195, 205, 64, 250, 53, 249, 8, 139, 135, 65, 189, 139, 230, 21, 61, 224, 95, 102, 28, 254, 235, 70, 37, 255, 191, 95, 74, 108, 60, 2, 196]",168,66a0b3911f23dfc7665bb169,65f4ab7884f8411c9e11a34e,66a17b400949f58a5d8be1d4,1,1,0,True,4,72,,12929.100000023842,"{""Q0"":""...how well players did (in terms of <b>points</b>) in <b>previous games.</b>""}",[0],0.0,multichoice_tournament,,,,,,,,,,,,,,,,
,instructions,10,192086,0.0-10.0-0.0,,337,"[128, 195, 205, 64, 250, 53, 249, 8, 139, 135, 65, 189, 139, 230, 21, 61, 224, 95, 102, 28, 254, 235, 70, 37, 255, 191, 95, 74, 108, 60, 2, 196]",168,66a0b3911f23dfc7665bb169,65f4ab7884f8411c9e11a34e,66a17b400949f58a5d8be1d4,1,1,0,True,4,72,"[{""page_index"":0,""viewing_time"":3737.800000011921}]",3738.0,,,,,,,,,,,,,,,,,,,,
,survey-multi-choice,11,195697,0.0-10.0-1.0,,337,"[128, 195, 205, 64, 250, 53, 249, 8, 139, 135, 65, 189, 139, 230, 21, 61, 224, 95, 102, 28, 254, 235, 70, 37, 255, 191, 95, 74, 108, 60, 2, 196]",168,66a0b3911f23dfc7665bb169,65f4ab7884f8411c9e11a34e,66a17b400949f58a5d8be1d4,1,1,0,True,4,72,,3609.5999999940395,"{""Q0"":""...players' leaderboard position (in terms of <b>points</b>) in an <b>upcoming tournament.</b>""}",[0],1.0,multichoice_tournament,,,,,,,,,,,,,,,,
,instructions,12,217895,0.0-11.0,,337,"[128, 195, 205, 64, 250, 53, 249, 8, 139, 135, 65, 189, 139, 230, 21, 61, 224, 95, 102, 28, 254, 235, 70, 37, 255, 191, 95, 74, 108, 60, 2, 196]",168,66a0b3911f23dfc7665bb169,65f4ab7884f8411c9e11a34e,66a17b400949f58a5d8be1d4,1,1,0,True,4,72,"[{""page_index"":0,""viewing_time"":22196.80000001192}]",22197.0,,,,,,,,,,,,,,,,,,,,
,instructions,13,241070,0.0-12.0-0.0,,337,"[128, 195, 205, 64, 250, 53, 249, 8, 139, 135, 65, 189, 139, 230, 21, 61, 224, 95, 102, 28, 254, 235, 70, 37, 255, 191, 95, 74, 108, 60, 2, 196]",168,66a0b3911f23dfc7665bb169,65f4ab7884f8411c9e11a34e,66a17b400949f58a5d8be1d4,1,1,0,True,4,72,"[{""page_index"":0,""viewing_time"":23173.59999999404}]",23173.80000001192,,,,,,,,,,,,,,,,,,,,
,type-this,14,256834,0.0-12.0-1.0,,337,"[128, 195, 205, 64, 250, 53, 249, 8, 139, 135, 65, 189, 139, 230, 21, 61, 224, 95, 102, 28, 254, 235, 70, 37, 255, 191, 95, 74, 108, 60, 2, 196]",168,66a0b3911f23dfc7665bb169,65f4ab7884f8411c9e11a34e,66a17b400949f58a5d8be1d4,1,1,0,True,4,72,,15261.800000011921,['USAIN BOLT'],,,,,,,,,,USAIN BOLT,,,,,,,,,
,Hangman_replay,15,290044,0.0-12.0-2.0,,337,"[128, 195, 205, 64, 250, 53, 249, 8, 139, 135, 65, 189, 139, 230, 21, 61, 224, 95, 102, 28, 254, 235, 70, 37, 255, 191, 95, 74, 108, 60, 2, 196]",168,66a0b3911f23dfc7665bb169,65f4ab7884f8411c9e11a34e,66a17b400949f58a5d8be1d4,1,1,0,True,4,72,,,,,,,USAIN BOLT,"{'letter': ['', 'T', 'W', 'I', 'A', 'F', 'G', 'R', 'O', 'S', 'U', 'B', 'N', 'L'], 't': [0, 3723.5, 6693.399999976158, 7810.799999982119, 9111.799999982119, 12381.799999982119, 13165.59999999404, 14133.699999988079, 15952, 21791.09999999404, 24877.899999976158, 26913.09999999404, 28915.5, 31200.399999976158], 'hit': [None, 1, 0, 1, 1, 0, 0, 0, 1, 1, 1, 1, 1, 1], 'asked': ['', 'T', 'TW', 'TWI', 'TWIA', 'TWIAF', 'TWIAFG', 'TWIAFGR', 'TWIAFGRO', 'TWIAFGROS', 'TWIAFGROSU', 'TWIAFGROSUB', 'TWIAFGROSUBN', 'TWIAFGROSUBNL'], 'word_state': ['_____ ____', '_____ ___T', '_____ ___T', '___I_ ___T', '__AI_ ___T', '__AI_ ___T', '__AI_ ___T', '__AI_ ___T', '__AI_ _O_T', '_SAI_ _O_T', 'USAI_ _O_T', 'USAI_ BO_T', 'USAIN BO_T', 'USAIN BOLT']}","['T', 'W', 'I', 'A', 'F', 'G', 'R', 'O', 'S', 'U', 'B', 'N', 'L']",13.0,11.0,0.0,,,,,,,,,,
,instructions,16,296330,0.0-12.0-3.0,,337,"[128, 195, 205, 64, 250, 53, 249, 8, 139, 135, 65, 189, 139, 230, 21, 61, 224, 95, 102, 28, 254, 235, 70, 37, 255, 191, 95, 74, 108, 60, 2, 196]",168,66a0b3911f23dfc7665bb169,65f4ab7884f8411c9e11a34e,66a17b400949f58a5d8be1d4,1,1,0,True,4,72,"[{""page_index"":0,""viewing_time"":6286.300000011921}]",6286.700000017881,,,,,,,,,,,,,,,,,,,,
,Guess_leaderboard,17,307825,0.0-12.0-4.0,,337,"[128, 195, 205, 64, 250, 53, 249, 8, 139, 135, 65, 189, 139, 230, 21, 61, 224, 95, 102, 28, 254, 235, 70, 37, 255, 191, 95, 74, 108, 60, 2, 196]",168,66a0b3911f23dfc7665bb169,65f4ab7884f8411c9e11a34e,66a17b400949f58a5d8be1d4,1,1,0,True,4,72,,,,,,,USAIN BOLT,,,,,,,10737.5,22.0,79.0,0.0,56.0,34.0,,,
,instructions,18,331452,0.0-12.0-0.1,,337,"[128, 195, 205, 64, 250, 53, 249, 8, 139, 135, 65, 189, 139, 230, 21, 61, 224, 95, 102, 28, 254, 235, 70, 37, 255, 191, 95, 74, 108, 60, 2, 196]",168,66a0b3911f23dfc7665bb169,65f4ab7884f8411c9e11a34e,66a17b400949f58a5d8be1d4,1,1,0,True,4,72,"[{""page_index"":0,""viewing_time"":23626.19999998808}]",23626.399999976158,,,,,,,,,,,,,,,,,,,,
,type-this,19,337041,0.0-12.0-1.1,,337,"[128, 195, 205, 64, 250, 53, 249, 8, 139, 135, 65, 189, 139, 230, 21, 61, 224, 95, 102, 28, 254, 235, 70, 37, 255, 191, 95, 74, 108, 60, 2, 196]",168,66a0b3911f23dfc7665bb169,65f4ab7884f8411c9e11a34e,66a17b400949f58a5d8be1d4,1,1,0,True,4,72,,5087.799999982119,['THUMB'],,,,,,,,,,THUMB,,,,,,,,,
,Hangman_replay,20,373226,0.0-12.0-2.1,,337,"[128, 195, 205, 64, 250, 53, 249, 8, 139, 135, 65, 189, 139, 230, 21, 61, 224, 95, 102, 28, 254, 235, 70, 37, 255, 191, 95, 74, 108, 60, 2, 196]",168,66a0b3911f23dfc7665bb169,65f4ab7884f8411c9e11a34e,66a17b400949f58a5d8be1d4,1,1,0,True,4,72,,,,,,,THUMB,"{'letter': ['', 'E', 'I', 'A', 'O', 'U', 'R', 'L', 'T', 'H', 'M', 'B'], 't': [0, 2596.800000011921, 4849.0999999940395, 6066.800000011921, 7435.0999999940395, 8803.40000000596, 15726.5, 17728.5, 18796.80000001192, 27238.69999998808, 33160.69999998808, 34178.40000000596], 'hit': [None, 0, 0, 0, 0, 1, 0, 0, 1, 1, 1, 1], 'asked': ['', 'E', 'EI', 'EIA', 'EIAO', 'EIAOU', 'EIAOUR', 'EIAOURL', 'EIAOURLT', 'EIAOURLTH', 'EIAOURLTHM', 'EIAOURLTHMB'], 'word_state': ['_____', '_____', '_____', '_____', '_____', '__U__', '__U__', '__U__', 'T_U__', 'THU__', 'THUM_', 'THUMB']}","['E', 'I', 'A', 'O', 'U', 'R', 'L', 'T', 'H', 'M', 'B']",11.0,9.0,0.0,,,,,,,,,,
,instructions,21,375810,0.0-12.0-3.1,,337,"[128, 195, 205, 64, 250, 53, 249, 8, 139, 135, 65, 189, 139, 230, 21, 61, 224, 95, 102, 28, 254, 235, 70, 37, 255, 191, 95, 74, 108, 60, 2, 196]",168,66a0b3911f23dfc7665bb169,65f4ab7884f8411c9e11a34e,66a17b400949f58a5d8be1d4,1,1,0,True,4,72,"[{""page_index"":0,""viewing_time"":2582.800000011921}]",2583.199999988079,,,,,,,,,,,,,,,,,,,,
,Guess_leaderboard,22,380698,0.0-12.0-4.1,,337,"[128, 195, 205, 64, 250, 53, 249, 8, 139, 135, 65, 189, 139, 230, 21, 61, 224, 95, 102, 28, 254, 235, 70, 37, 255, 191, 95, 74, 108, 60, 2, 196]",168,66a0b3911f23dfc7665bb169,65f4ab7884f8411c9e11a34e,66a17b400949f58a5d8be1d4,1,1,0,True,4,72,,,,,,,THUMB,,,,,,,4130.899999976158,75.0,92.0,1.0,24.0,51.0,,,
,instructions,23,392947,0.0-12.0-0.2,,337,"[128, 195, 205, 64, 250, 53, 249, 8, 139, 135, 65, 189, 139, 230, 21, 61, 224, 95, 102, 28, 254, 235, 70, 37, 255, 191, 95, 74, 108, 60, 2, 196]",168,66a0b3911f23dfc7665bb169,65f4ab7884f8411c9e11a34e,66a17b400949f58a5d8be1d4,1,1,0,True,4,72,"[{""page_index"":0,""viewing_time"":12248.59999999404}]",12248.899999976158,,,,,,,,,,,,,,,,,,,,
,type-this,24,398044,0.0-12.0-1.2,,337,"[128, 195, 205, 64, 250, 53, 249, 8, 139, 135, 65, 189, 139, 230, 21, 61, 224, 95, 102, 28, 254, 235, 70, 37, 255, 191, 95, 74, 108, 60, 2, 196]",168,66a0b3911f23dfc7665bb169,65f4ab7884f8411c9e11a34e,66a17b400949f58a5d8be1d4,1,1,0,True,4,72,,4594.699999988079,['FIG'],,,,,,,,,,FIG,,,,,,,,,
,Hangman_replay,25,446983,0.0-12.0-2.2,,337,"[128, 195, 205, 64, 250, 53, 249, 8, 139, 135, 65, 189, 139, 230, 21, 61, 224, 95, 102, 28, 254, 235, 70, 37, 255, 191, 95, 74, 108, 60, 2, 196]",168,66a0b3911f23dfc7665bb169,65f4ab7884f8411c9e11a34e,66a17b400949f58a5d8be1d4,1,1,0,True,4,72,,,,,,,FIG,"{'letter': ['', 'A', 'O', 'P', 'I', 'H', 'G', 'F'], 't': [0, 33820.10000002384, 36506.20000001788, 40476.90000000596, 41494.60000002384, 42445, 43396.30000001192, 46933.20000001788], 'hit': [None, 0, 0, 0, 1, 0, 1, 1], 'asked': ['', 'A', 'AO', 'AOP', 'AOPI', 'AOPIH', 'AOPIHG', 'AOPIHGF'], 'word_state': ['___', '___', '___', '___', '_I_', '_I_', '_IG', 'FIG']}","['A', 'O', 'P', 'I', 'H', 'G', 'F']",7.0,11.0,0.0,,,,,,,,,,
,instructions,26,449135,0.0-12.0-3.2,,337,"[128, 195, 205, 64, 250, 53, 249, 8, 139, 135, 65, 189, 139, 230, 21, 61, 224, 95, 102, 28, 254, 235, 70, 37, 255, 191, 95, 74, 108, 60, 2, 196]",168,66a0b3911f23dfc7665bb169,65f4ab7884f8411c9e11a34e,66a17b400949f58a5d8be1d4,1,1,0,True,4,72,"[{""page_index"":0,""viewing_time"":2151.300000011921}]",2151.5,,,,,,,,,,,,,,,,,,,,
,Guess_leaderboard,27,451636,0.0-12.0-4.2,,337,"[128, 195, 205, 64, 250, 53, 249, 8, 139, 135, 65, 189, 139, 230, 21, 61, 224, 95, 102, 28, 254, 235, 70, 37, 255, 191, 95, 74, 108, 60, 2, 196]",168,66a0b3911f23dfc7665bb169,65f4ab7884f8411c9e11a34e,66a17b400949f58a5d8be1d4,1,1,0,True,4,72,,,,,,,FIG,,,,,,,1733.800000011921,85.0,66.0,2.0,92.0,7.0,,,
,instructions,28,462352,0.0-12.0-0.3,,337,"[128, 195, 205, 64, 250, 53, 249, 8, 139, 135, 65, 189, 139, 230, 21, 61, 224, 95, 102, 28, 254, 235, 70, 37, 255, 191, 95, 74, 108, 60, 2, 196]",168,66a0b3911f23dfc7665bb169,65f4ab7884f8411c9e11a34e,66a17b400949f58a5d8be1d4,1,1,0,True,4,72,"[{""page_index"":0,""viewing_time"":10714.700000017881}]",10714.90000000596,,,,,,,,,,,,,,,,,,,,
,type-this,29,468829,0.0-12.0-1.3,,337,"[128, 195, 205, 64, 250, 53, 249, 8, 139, 135, 65, 189, 139, 230, 21, 61, 224, 95, 102, 28, 254, 235, 70, 37, 255, 191, 95, 74, 108, 60, 2, 196]",168,66a0b3911f23dfc7665bb169,65f4ab7884f8411c9e11a34e,66a17b400949f58a5d8be1d4,1,1,0,True,4,72,,5975.100000023842,['THIRTY FOUR'],,,,,,,,,,THIRTY FOUR,,,,,,,,,
,Hangman_replay,30,508628,0.0-12.0-2.3,,337,"[128, 195, 205, 64, 250, 53, 249, 8, 139, 135, 65, 189, 139, 230, 21, 61, 224, 95, 102, 28, 254, 235, 70, 37, 255, 191, 95, 74, 108, 60, 2, 196]",168,66a0b3911f23dfc7665bb169,65f4ab7884f8411c9e11a34e,66a17b400949f58a5d8be1d4,1,1,0,True,4,72,,,,,,,THIRTY FOUR,"{'letter': ['', 'A', 'E', 'I', 'O', 'U', 'T', 'R', 'F', 'H', 'Y'], 't': [0, 4659, 6193.5999999940395, 8079.0999999940395, 10765.300000011921, 14251.800000011921, 21575.80000001192, 28849.5, 31836.30000001192, 35823.30000001192, 37792.5], 'hit': [None, 0, 0, 1, 1, 1, 2, 2, 1, 1, 1], 'asked': ['', 'A', 'AE', 'AEI', 'AEIO', 'AEIOU', 'AEIOUT', 'AEIOUTR', 'AEIOUTRF', 'AEIOUTRFH', 'AEIOUTRFHY'], 'word_state': ['______ ____', '______ ____', '______ ____', '__I___ ____', '__I___ _O__', '__I___ _OU_', 'T_I_T_ _OU_', 'T_IRT_ _OUR', 'T_IRT_ FOUR', 'THIRT_ FOUR', 'THIRTY FOUR']}","['A', 'E', 'I', 'O', 'U', 'T', 'R', 'F', 'H', 'Y']",10.0,13.0,0.0,,,,,,,,,,
,instructions,31,511615,0.0-12.0-3.3,,337,"[128, 195, 205, 64, 250, 53, 249, 8, 139, 135, 65, 189, 139, 230, 21, 61, 224, 95, 102, 28, 254, 235, 70, 37, 255, 191, 95, 74, 108, 60, 2, 196]",168,66a0b3911f23dfc7665bb169,65f4ab7884f8411c9e11a34e,66a17b400949f58a5d8be1d4,1,1,0,True,4,72,"[{""page_index"":0,""viewing_time"":2986.600000023842}]",2986.9000000059605,,,,,,,,,,,,,,,,,,,,
,Guess_leaderboard,32,514615,0.0-12.0-4.3,,337,"[128, 195, 205, 64, 250, 53, 249, 8, 139, 135, 65, 189, 139, 230, 21, 61, 224, 95, 102, 28, 254, 235, 70, 37, 255, 191, 95, 74, 108, 60, 2, 196]",168,66a0b3911f23dfc7665bb169,65f4ab7884f8411c9e11a34e,66a17b400949f58a5d8be1d4,1,1,0,True,4,72,,,,,,,THIRTY FOUR,,,,,,,2246.800000011921,15.0,99.0,3.0,80.0,65.0,,,
,instructions,33,518704,0.0-12.0-0.4,,337,"[128, 195, 205, 64, 250, 53, 249, 8, 139, 135, 65, 189, 139, 230, 21, 61, 224, 95, 102, 28, 254, 235, 70, 37, 255, 191, 95, 74, 108, 60, 2, 196]",168,66a0b3911f23dfc7665bb169,65f4ab7884f8411c9e11a34e,66a17b400949f58a5d8be1d4,1,1,0,True,4,72,"[{""page_index"":0,""viewing_time"":4087.2000000178814}]",4087.4000000059605,,,,,,,,,,,,,,,,,,,,
,type-this,34,524282,0.0-12.0-1.4,,337,"[128, 195, 205, 64, 250, 53, 249, 8, 139, 135, 65, 189, 139, 230, 21, 61, 224, 95, 102, 28, 254, 235, 70, 37, 255, 191, 95, 74, 108, 60, 2, 196]",168,66a0b3911f23dfc7665bb169,65f4ab7884f8411c9e11a34e,66a17b400949f58a5d8be1d4,1,1,0,True,4,72,,5076.0,['KENTUCKY'],,,,,,,,,,KENTUCKY,,,,,,,,,
,Hangman_replay,35,601938,0.0-12.0-2.4,,337,"[128, 195, 205, 64, 250, 53, 249, 8, 139, 135, 65, 189, 139, 230, 21, 61, 224, 95, 102, 28, 254, 235, 70, 37, 255, 191, 95, 74, 108, 60, 2, 196]",168,66a0b3911f23dfc7665bb169,65f4ab7884f8411c9e11a34e,66a17b400949f58a5d8be1d4,1,1,0,True,4,72,,,,,,,KENTUCKY,"{'letter': ['', 'I', 'A', 'E', 'K', 'N', 'T', 'U', 'C', 'Y'], 't': [0, 29487, 52526.30000001192, 66907.70000001788, 69493.70000001788, 71679.09999999404, 72730.40000000596, 73681.09999999404, 74481.59999999404, 75649.59999999404], 'hit': [None, 0, 0, 1, 2, 1, 1, 1, 1, 1], 'asked': ['', 'I', 'IA', 'IAE', 'IAEK', 'IAEKN', 'IAEKNT', 'IAEKNTU', 'IAEKNTUC', 'IAEKNTUCY'], 'word_state': ['________', '________', '________', '_E______', 'KE____K_', 'KEN___K_', 'KENT__K_', 'KENTU_K_', 'KENTUCK_', 'KENTUCKY']}","['I', 'A', 'E', 'K', 'N', 'T', 'U', 'C', 'Y']",9.0,13.0,0.0,,,,,,,,,,
,instructions,36,606446,0.0-12.0-3.4,,337,"[128, 195, 205, 64, 250, 53, 249, 8, 139, 135, 65, 189, 139, 230, 21, 61, 224, 95, 102, 28, 254, 235, 70, 37, 255, 191, 95, 74, 108, 60, 2, 196]",168,66a0b3911f23dfc7665bb169,65f4ab7884f8411c9e11a34e,66a17b400949f58a5d8be1d4,1,1,0,True,4,72,"[{""page_index"":0,""viewing_time"":4507.0999999940395}]",4507.5,,,,,,,,,,,,,,,,,,,,
,Guess_leaderboard,37,610144,0.0-12.0-4.4,,337,"[128, 195, 205, 64, 250, 53, 249, 8, 139, 135, 65, 189, 139, 230, 21, 61, 224, 95, 102, 28, 254, 235, 70, 37, 255, 191, 95, 74, 108, 60, 2, 196]",168,66a0b3911f23dfc7665bb169,65f4ab7884f8411c9e11a34e,66a17b400949f58a5d8be1d4,1,1,0,True,4,72,,,,,,,KENTUCKY,,,,,,,2933.199999988079,11.0,73.0,4.0,21.0,10.0,,,
,survey-text,38,617108,0.0-13.0,,337,"[128, 195, 205, 64, 250, 53, 249, 8, 139, 135, 65, 189, 139, 230, 21, 61, 224, 95, 102, 28, 254, 235, 70, 37, 255, 191, 95, 74, 108, 60, 2, 196]",168,66a0b3911f23dfc7665bb169,65f4ab7884f8411c9e11a34e,66a17b400949f58a5d8be1d4,1,1,0,True,4,72,,6961.299999982119,"{""Q0"":""KENTUCKY""}",,,,,,,,,,,,,,,,,kentucky,,
,survey-multi-choice,39,636544,0.0-14.0,,337,"[128, 195, 205, 64, 250, 53, 249, 8, 139, 135, 65, 189, 139, 230, 21, 61, 224, 95, 102, 28, 254, 235, 70, 37, 255, 191, 95, 74, 108, 60, 2, 196]",168,66a0b3911f23dfc7665bb169,65f4ab7884f8411c9e11a34e,66a17b400949f58a5d8be1d4,1,1,0,True,4,72,,19434.79999998212,"{""Q0"":""4. I would be <b>fourth</b> out of the six of us.""}",[0],,self-rating,,,,,,,,,4.0,,,,,,,
,html-slider-response,40,640769,0.0-15.0,,337,"[128, 195, 205, 64, 250, 53, 249, 8, 139, 135, 65, 189, 139, 230, 21, 61, 224, 95, 102, 28, 254, 235, 70, 37, 255, 191, 95, 74, 108, 60, 2, 196]",168,66a0b3911f23dfc7665bb169,65f4ab7884f8411c9e11a34e,66a17b400949f58a5d8be1d4,1,1,0,True,4,72,,4224.0999999940395,,,,,,,,,,,72,,,,,,,,"<p>Overall, how confident were you in your answer to this last question?</p>",72.0
,survey-text,41,654851,0.0-16.0,,337,"[128, 195, 205, 64, 250, 53, 249, 8, 139, 135, 65, 189, 139, 230, 21, 61, 224, 95, 102, 28, 254, 235, 70, 37, 255, 191, 95, 74, 108, 60, 2, 196]",168,66a0b3911f23dfc7665bb169,65f4ab7884f8411c9e11a34e,66a17b400949f58a5d8be1d4,1,1,0,True,4,72,,14080.40000000596,"{""Q0"":""How to rank order performance.""}",,,,,,,,,,,,,,,,,,,
,survey-text,42,663494,0.0-17.0,,337,"[128, 195, 205, 64, 250, 53, 249, 8, 139, 135, 65, 189, 139, 230, 21, 61, 224, 95, 102, 28, 254, 235, 70, 37, 255, 191, 95, 74, 108, 60, 2, 196]",168,66a0b3911f23dfc7665bb169,65f4ab7884f8411c9e11a34e,66a17b400949f58a5d8be1d4,1,1,0,True,4,72,,8641.199999988079,"{""Q0"":""Nothing further.""}",,,,,,,,,,,,,,,,,,,
,instructions,43,719321,0.0-18.0,,337,"[128, 195, 205, 64, 250, 53, 249, 8, 139, 135, 65, 189, 139, 230, 21, 61, 224, 95, 102, 28, 254, 235, 70, 37, 255, 191, 95, 74, 108, 60, 2, 196]",168,66a0b3911f23dfc7665bb169,65f4ab7884f8411c9e11a34e,66a17b400949f58a5d8be1d4,1,1,0,True,4,72,"[{""page_index"":0,""viewing_time"":55825.90000000596}]",55826.20000001788,,,,,,,,,,,,,,,,,,,,
