[{"success":true,"trial_type":"fullscreen","trial_index":0,"time_elapsed":13763,"internal_node_id":"0.0-0.0","protocol_sum":"","subject_identifier":337,"subject_sum":[128,195,205,64,250,53,249,8,139,135,65,189,139,230,21,61,224,95,102,28,254,235,70,37,255,191,95,74,108,60,2,196],"subject_pair":168,"STUDY_ID":"66a0b3911f23dfc7665bb169","PROLIFIC_PID":"65f4ab7884f8411c9e11a34e","SESSION_ID":"66a17b400949f58a5d8be1d4","practice_instructions":1,"leaderboard_instructions":1,"bonus":0,"reveal_word":true,"self_rating":"4","confidence":"72"},{"view_history":"[{\"page_index\":0,\"viewing_time\":7011.0999999940395}]","rt":7011.4000000059605,"trial_type":"instructions","trial_index":1,"time_elapsed":20776,"internal_node_id":"0.0-1.0","protocol_sum":"","subject_identifier":337,"subject_sum":[128,195,205,64,250,53,249,8,139,135,65,189,139,230,21,61,224,95,102,28,254,235,70,37,255,191,95,74,108,60,2,196],"subject_pair":168,"STUDY_ID":"66a0b3911f23dfc7665bb169","PROLIFIC_PID":"65f4ab7884f8411c9e11a34e","SESSION_ID":"66a17b400949f58a5d8be1d4","practice_instructions":1,"leaderboard_instructions":1,"bonus":0,"reveal_word":true,"self_rating":"4","confidence":"72"},{"view_history":"[{\"page_index\":0,\"viewing_time\":33732.09999999404}]","rt":33732.40000000596,"trial_type":"instructions","trial_index":2,"time_elapsed":54509,"internal_node_id":"0.0-2.0-0.0","protocol_sum":"","subject_identifier":337,"subject_sum":[128,195,205,64,250,53,249,8,139,135,65,189,139,230,21,61,224,95,102,28,254,235,70,37,255,191,95,74,108,60,2,196],"subject_pair":168,"STUDY_ID":"66a0b3911f23dfc7665bb169","PROLIFIC_PID":"65f4ab7884f8411c9e11a34e","SESSION_ID":"66a17b400949f58a5d8be1d4","practice_instructions":1,"leaderboard_instructions":1,"bonus":0,"reveal_word":true,"self_rating":"4","confidence":"72"},{"rt":9852.199999988079,"responses":"{\"Q0\":\"... reveal the word with as <b>few letter guesses</b> as possible\"}","question_order":"[0]","trial_type":"survey-multi-choice","trial_index":3,"time_elapsed":64362,"internal_node_id":"0.0-2.0-1.0","protocol_sum":"","subject_identifier":337,"subject_sum":[128,195,205,64,250,53,249,8,139,135,65,189,139,230,21,61,224,95,102,28,254,235,70,37,255,191,95,74,108,60,2,196],"subject_pair":168,"correct":true,"test_part":"multichoice_nonpretend","STUDY_ID":"66a0b3911f23dfc7665bb169","PROLIFIC_PID":"65f4ab7884f8411c9e11a34e","SESSION_ID":"66a17b400949f58a5d8be1d4","practice_instructions":1,"leaderboard_instructions":1,"bonus":0,"reveal_word":true,"self_rating":"4","confidence":"72"},{"view_history":"[{\"page_index\":0,\"viewing_time\":2201.100000023842}]","rt":2201.2000000178814,"trial_type":"instructions","trial_index":4,"time_elapsed":66565,"internal_node_id":"0.0-3.0","protocol_sum":"","subject_identifier":337,"subject_sum":[128,195,205,64,250,53,249,8,139,135,65,189,139,230,21,61,224,95,102,28,254,235,70,37,255,191,95,74,108,60,2,196],"subject_pair":168,"STUDY_ID":"66a0b3911f23dfc7665bb169","PROLIFIC_PID":"65f4ab7884f8411c9e11a34e","SESSION_ID":"66a17b400949f58a5d8be1d4","practice_instructions":1,"leaderboard_instructions":1,"bonus":0,"reveal_word":true,"self_rating":"4","confidence":"72"},{"word":"ZEBRA","click_log":{"letter":["","H","O","A","P","D","N","T","S","M","E","R","Z","B"],"t":[0,7813.199999988079,12463.800000011921,14321.40000000596,19740.40000000596,23993.5,26411,28471.19999998808,31967.30000001192,36574.30000001192,38640,48380,51741.40000000596,52882.5],"hit":[null,0,0,1,0,0,0,0,0,0,1,1,1,1],"asked":["","H","HO","HOA","HOAP","HOAPD","HOAPDN","HOAPDNT","HOAPDNTS","HOAPDNTSM","HOAPDNTSME","HOAPDNTSMER","HOAPDNTSMERZ","HOAPDNTSMERZB"],"word_state":["_____","_____","_____","____A","____A","____A","____A","____A","____A","____A","_E__A","_E_RA","ZE_RA","ZEBRA"]},"hover_log":{"letter":["?","?","?","?","?","?","?","J","J","?","?","?","?","?","?","?","?","?","?","?","?","?","?","?","?","?","?","?","?","?","?","?","?","?","?","?","?","?","?","?","?","?","?","?","?","?","?","?","?","?","?","?","?","?","?","?","?","?","?","?","?","?","?","?","?","?","?","?","?","?","?","?","?","?","?","?","?","?","?","?","?","?","?","?","?","?","?","?","?","?","?","?","?","?","?","?","?","?","?","?","?","?","?","?","?","?","?","?","?","?","?","?","?","?","?","?","?","?","?","?","?","?","?","?","?","?","?","?","?","?","?","?","?","?","?","?","?","?","?","?","?","?","?","?","?","?","?","?","?","?","?","?","?","?","?","?","?","?","?","?","?","?","?","?","?","?","?","?","?","?","?","?","?","?","?","?","?","?","?","?","?","?","?","?","?","?","?","?","?","?","?","?","?","?","?","?","?","?","?","?","?","?","?","?","?","?","?","?","?","?","?","?","?","?","?","?","?","?","?","?","?","?","?","?","?","?","?","?","?","?","?","?","?","?","?","?","?","?","?","?","?","?","?","?","?","?","?","?","?","?","?","?","?","?","?","?","?","?","?","?","?","?","?","?","?","?","?","?","?","?","?","?","?","?","?","?","?","?","?","?","?","?","?","?","?","?","?","?","?","?","?","?","?","?","?","?","?","?","?","?","?","?","?","?","?","?","?","?","?","?","?","?","?","?","?","?","?","?","?","?","?","?","?","?","?","?","?","?","?","?","?","?","?","?","?","?","?","?","?","?","?","?","?","?","?","?","?","?","?","?","?","?","?","?","?","?","?","?","?","?","?","?","?","?","?","?","?","?","?","?","?","?","?","?","?","?","?","?","?","?","?","?","?","?","?","?","?","?","?","?","?","?","C","C","?","?","?","?","?","?","L","L","?","?","?","?","?","?","?","?","?","?","?","?","?","?","L","L","L","?","?","?","?","?","E","?","F","F","F","?","G","G","?","?","?","?","?","?","?","?","H","H","H","H","H","H","H","H","H","H","H","H","H","H","H","H","H","H","H","H","H","H","H","H","H","H","H","H","H","H","H","H","H","H","H","H","H","H","H","H","H","H","H","H","H","H","H","H","H","H","H","H","H","?","?","?","?","?","?","?","?","?","?","?","?","?","?","?","?","?","?","?","?","?","?","?","?","?","?","?","?","?","?","?","?","?","?","?","?","?","?","?","?","?","?","?","?","?","?","?","?","?","?","?","?","?","?","?","?","?","?","?","?","?","?","?","?","?","?","?","?","?","?","?","?","?","?","?","?","?","?","?","?","?","?","?","?","?","?","?","?","?","?","?","?","?","?","?","?","?","?","?","?","?","?","?","?","?","?","?","?","?","?","?","?","?","?","?","?","?","?","?","?","?","?","?","?","?","?","?","?","?","?","?","?","?","?","?","?","?","?","?","?","?","?","?","?","?","?","?","?","?","?","?","?","?","?","?","?","?","?","?","?","?","?","?","?","?","?","?","?","?","?","?","?","?","?","?","?","?","?","?","?","?","?","?","?","?","?","?","?","?","?","?","?","?","?","?","?","?","?","?","?","?","?","?","?","?","S","T","?","?","?","?","?","?","?","?","Y","Y","Y","?","?","?","?","?","?","?","?","?","?","?","O","O","O","O","O","O","O","O","O","O","O","O","O","O","O","O","O","O","O","O","O","O","O","O","O","O","O","O","O","O","O","O","O","O","N","?","?","B","?","?","?","?","?","?","?","?","?","?","?","?","?","?","?","?","?","?","?","?","?","?","?","?","?","?","?","?","?","?","?","?","?","?","?","?","?","?","?","?","?","?","?","?","?","?","?","?","?","?","?","?","?","?","?","?","?","?","?","?","A","A","A","A","A","A","A","A","A","A","A","A","A","A","A","A","A","A","A","A","A","A","A","A","A","A","A","A","A","A","A","A","A","A","A","A","A","A","A","A","A","A","A","A","A","?","?","?","?","?","?","?","?","?","?","?","?","?","?","?","?","?","?","?","?","?","?","?","?","?","?","?","?","?","?","?","?","?","?","?","?","?","?","?","?","?","?","?","?","?","?","?","?","?","?","?","?","?","?","?","?","?","?","?","?","?","?","?","?","?","?","?","?","?","?","?","?","?","?","?","?","?","?","?","?","?","?","?","?","?","?","?","?","?","?","?","?","?","?","?","?","?","?","?","?","?","?","?","?","?","?","?","?","?","?","?","?","?","?","?","?","?","?","?","?","?","?","?","?","?","?","?","?","?","?","?","?","?","?","?","?","?","?","?","?","?","?","?","?","?","?","?","?","?","?","?","?","?","?","?","?","?","?","?","?","?","?","?","?","?","?","?","?","?","?","?","?","?","?","?","?","?","?","?","?","?","?","?","?","?","?","?","?","?","?","?","?","?","?","?","?","?","?","?","?","?","?","?","?","?","?","?","S","S","S","S","S","S","S","S","S","?","?","?","?","?","?","?","?","?","?","?","?","?","?","?","?","?","?","?","?","?","?","?","?","?","?","?","?","?","?","?","?","?","?","W","W","W","X","?","Y","?","Z","Z","Z","Z","Z","Z","?","?","?","?","?","?","?","?","?","?","P","P","P","P","P","P","P","P","P","P","P","P","P","P","P","P","P","P","P","P","P","P","P","P","P","P","P","P","P","P","P","P","P","P","P","P","P","P","P","P","P","P","P","P","P","P","P","P","P","P","P","P","P","P","P","P","P","P","P","P","P","P","P","P","P","P","P","P","P","P","P","P","P","P","P","P","P","P","P","P","P","P","P","P","P","P","?","?","F","?","?","?","?","?","?","?","?","?","?","?","?","?","?","?","?","?","?","?","?","?","?","?","?","?","?","?","?","?","?","?","?","?","?","?","?","?","?","?","?","?","?","?","?","?","?","?","?","?","?","?","?","?","?","?","?","?","?","?","?","?","?","?","?","?","?","?","?","?","?","?","?","?","?","?","?","?","?","?","?","?","?","?","?","?","?","?","?","?","?","?","?","?","?","?","?","?","?","?","?","?","?","?","?","?","?","?","?","?","?","?","?","?","?","?","?","?","?","?","?","?","?","?","?","?","?","?","?","?","?","?","?","?","?","?","?","?","?","?","?","?","?","?","?","?","?","D","D","D","D","D","D","D","D","D","D","D","D","D","D","D","D","D","D","D","D","D","D","D","D","D","D","D","D","D","D","D","D","D","D","D","D","D","D","D","D","D","D","D","D","D","D","D","D","D","D","D","D","D","D","D","D","D","D","D","D","D","D","D","D","D","D","D","D","D","D","D","D","D","?","?","?","?","?","?","?","?","?","?","?","?","?","?","?","?","?","?","?","?","?","?","?","?","?","?","?","?","?","?","?","?","?","?","?","?","?","?","?","?","?","?","?","?","?","?","?","?","?","?","?","?","?","?","?","?","?","?","?","?","?","?","?","?","?","?","?","?","?","?","?","?","?","?","?","?","?","?","?","?","?","?","?","?","?","?","?","?","?","C","?","D","?","?","?","?","M","M","M","M","?","M","?","?","?","?","?","?","?","N","N","N","N","N","N","N","N","N","N","N","N","N","N","N","N","N","N","N","N","N","N","N","N","N","N","N","N","N","N","N","N","N","N","?","?","?","C","?","?","?","?","?","?","?","?","?","?","?","?","?","?","?","?","?","?","?","?","?","?","?","?","?","?","?","?","?","?","?","?","?","?","?","?","?","?","?","?","?","?","?","?","?","?","?","?","?","?","?","?","?","?","?","?","?","?","?","?","?","?","?","?","?","?","?","?","?","?","?","?","?","?","?","?","?","?","?","?","?","?","?","?","?","?","?","?","?","?","T","T","T","T","T","T","T","T","T","T","T","T","T","T","T","T","T","T","T","T","T","T","T","T","T","T","T","T","T","T","T","T","?","S","S","?","?","?","?","?","?","?","?","?","?","?","?","?","?","?","?","?","?","?","?","?","?","?","?","?","?","?","?","?","?","?","?","?","?","?","?","?","?","?","?","?","?","?","?","?","?","?","?","?","?","?","?","?","?","?","?","?","?","?","?","?","?","?","?","?","?","?","?","?","?","?","?","?","?","?","?","?","?","?","?","?","?","?","?","?","?","S","S","S","S","S","S","S","S","S","S","S","S","S","S","S","S","S","S","S","S","S","S","S","S","S","S","S","S","S","S","S","S","S","S","S","S","S","S","S","S","S","S","S","S","S","S","S","S","S","S","S","S","S","S","S","S","S","S","S","S","S","S","S","S","S","S","S","S","S","S","S","S","S","S","S","S","S","S","S","S","S","S","S","S","S","S","S","S","S","S","S","S","S","S","S","S","S","S","S","S","S","S","S","S","S","S","S","S","S","S","S","S","S","S","S","S","S","S","S","S","S","?","?","?","?","?","?","?","?","?","?","?","?","?","?","?","?","?","?","?","?","?","?","?","?","?","?","?","?","?","?","?","?","?","?","?","?","?","?","?","?","?","?","?","?","?","?","?","?","?","?","?","?","?","?","?","?","?","?","?","?","?","?","?","?","?","?","?","?","?","?","?","?","?","?","?","?","?","?","?","?","?","?","?","?","?","?","?","?","?","?","?","?","?","?","?","?","?","?","?","?","?","?","?","?","?","?","?","?","?","?","?","?","?","?","?","?","?","?","?","?","?","?","?","?","?","?","?","?","?","?","?","?","?","?","?","?","?","?","?","?","?","?","?","?","?","?","?","?","?","?","?","?","?","?","?","?","?","?","?","?","?","?","?","?","?","?","?","?","?","?","?","?","?","?","?","?","?","?","?","?","?","?","?","?","?","?","?","?","?","?","?","?","?","?","?","?","?","?","?","?","?","?","?","?","?","?","?","?","?","?","?","?","?","?","?","?","?","?","?","?","?","?","?","?","?","?","?","?","E","E","E","?","?","?","?","?","?","?","?","?","?","?","?","?","?","?","?","M","M","M","M","M","M","M","M","M","M","M","M","M","M","M","M","M","M","M","M","M","M","M","M","M","M","M","?","?","?","?","?","?","?","?","?","?","?","?","?","?","?","?","?","?","?","?","?","?","?","?","?","?","?","?","?","?","?","?","?","?","?","?","?","?","?","?","?","?","?","?","?","?","?","?","?","?","?","?","?","?","?","?","?","?","?","?","?","?","?","?","?","?","?","?","?","?","?","?","?","?","?","?","?","?","?","?","?","?","?","?","?","?","?","?","E","E","E","E","E","E","E","E","E","E","E","E","E","E","E","E","E","E","E","E","E","E","E","E","E","E","E","E","E","E","E","E","E","E","E","?","?","?","?","?","?","?","?","?","?","?","?","?","?","?","?","?","?","?","?","?","?","?","?","?","?","?","?","?","?","?","?","?","?","?","?","?","?","?","?","?","?","?","?","?","?","?","?","?","?","?","?","?","?","?","?","?","?","?","?","?","?","?","?","?","?","?","?","?","?","?","?","?","?","?","?","?","?","?","?","?","?","?","?","?","?","?","?","?","?","?","?","?","?","?","?","?","?","?","?","?","?","?","?","?","?","?","?","?","?","?","?","?","?","?","?","?","?","?","?","?","?","?","?","?","?","?","?","?","?","?","?","?","?","?","?","?","?","?","?","?","?","?","?","?","?","?","?","?","?","?","?","?","?","?","?","?","?","?","?","?","?","?","?","?","?","?","?","?","?","?","?","?","?","?","?","?","?","?","?","?","?","?","?","?","?","?","?","?","?","?","?","?","?","?","?","?","?","?","?","?","?","?","?","?","?","?","?","?","?","?","?","?","?","?","?","?","?","?","?","?","?","?","?","?","?","?","?","?","?","?","?","?","?","?","?","?","?","?","?","?","?","?","?","?","?","?","?","?","?","?","?","?","?","?","?","?","?","?","?","?","?","?","?","?","?","?","?","?","?","?","?","?","?","?","?","?","?","?","?","?","?","?","?","?","?","?","?","?","?","?","?","?","?","?","?","?","?","?","?","?","?","?","?","?","?","?","?","?","?","?","?","?","?","?","?","?","?","?","?","?","?","?","?","?","?","?","?","?","?","?","?","?","?","?","?","?","?","?","?","?","?","?","?","?","?","?","?","?","?","?","?","?","?","?","?","?","?","?","?","?","?","?","?","?","?","?","?","?","?","?","?","?","?","?","?","?","?","?","?","?","?","?","?","?","?","?","?","?","?","?","?","?","?","?","?","?","?","?","?","?","?","?","?","?","?","?","?","?","?","?","?","?","?","?","?","?","?","?","?","?","?","?","?","?","?","?","?","?","?","?","?","?","?","?","?","?","?","?","?","?","?","?","?","?","?","?","?","?","?","?","?","?","?","?","?","?","?","?","?","?","?","?","?","?","?","?","?","?","?","?","?","?","?","?","?","?","?","?","?","?","?","?","?","?","?","?","?","?","?","?","?","?","?","?","?","?","?","?","?","?","?","?","?","?","?","?","?","?","?","?","?","?","?","?","?","?","?","?","?","?","?","?","?","?","?","?","?","?","?","?","?","?","?","?","?","?","?","?","?","?","?","?","?","?","?","?","?","?","R","R","R","R","R","R","R","R","R","R","R","R","R","R","R","R","R","R","R","R","R","R","R","R","R","R","R","R","R","R","R","R","R","R","R","R","R","?","?","H","G","?","?","?","?","?","?","?","?","?","?","?","?","?","?","?","?","?","?","?","?","?","?","?","?","?","?","?","?","?","?","?","?","?","?","?","?","?","?","?","?","?","?","?","?","?","?","?","?","?","?","?","?","?","?","?","?","?","?","?","?","?","?","?","?","?","?","?","?","?","?","?","?","?","?","?","?","?","?","?","?","?","?","?","?","?","?","?","?","?","?","?","?","?","?","?","?","?","?","?","?","?","?","?","?","?","?","?","?","?","?","?","?","?","?","?","?","C","C","?","M","?","?","W","W","W","W","W","W","W","W","?","?","?","X","X","X","?","?","Y","Y","Y","Y","Y","?","?","Z","Z","Z","Z","Z","Z","Z","Z","Z","Z","Z","Z","Z","Z","Z","Z","Z","Z","Z","Z","Z","Z","Z","Z","Z","Z","Z","Z","Z","Z","Z","Z","Z","Z","Z","Z","Z","Z","Z","Z","Z","Z","Z","Z","Z","Z","Z","Z","Z","Z","Z","Z","Z","Z","Z","Y","Y","?","?","?","N","M","?","L","L","?","?","?","?","?","?","?","?","?","?","?","?","?","?","?","?","?","?","?","?","?","?","B","B","B","B","B","B","B","B","B","B","B","B","B","B","B","B","B","B","B","B","B","B","B","B","B","B","B","B","B","B","B","B","B","B","?","?","?","?","?","?","?","?","?","?","?","?","?","?","?","?","?","?","?","?","?","?","?","?","?","?","?","?","?","?","?","?","?","?","?","?","?","?","?","?","?","?","?","?","?","?","?","?","?","?","?","?","?","?","?","?","?","?","?","?","?","?","?","?","?","?","?","?","?","?","?","?","?","?","?","?","?","?","?","?","?","?","?","?","?","?","?","?","?","?","?","?","?","?","?","?","?","?","?","?","?","?","?","?","?","?","?","?","?","?","?","?"],"t":[23,34,51,67,84,101,117,135,150,168,183,201,217,233,250,267,284,301,318,334,350,367,384,402,417,434,450,467,484,501,517,534,550,567,584,600,617,634,650,667,684,701,717,734,751,768,785,802,818,834,851,868,885,901,918,935,952,968,985,1002,1018,1034,1051,1068,1085,1102,1119,1135,1151,1169,1186,1202,1219,1236,1252,1268,1286,1302,1319,1335,1351,1369,1386,1401,1418,1435,1451,1469,1486,1501,1518,1535,1552,1569,1586,1602,1619,1636,1652,1670,1686,1702,1720,1735,1753,1768,1786,1803,1819,1835,1852,1869,1886,1903,1919,1936,1952,1969,1986,2002,2019,2036,2052,2070,2086,2102,2118,2136,2153,2170,2187,2203,2220,2236,2253,2270,2286,2303,2320,2336,2352,2370,2387,2402,2420,2436,2453,2470,2486,2502,2519,2536,2553,2569,2587,2603,2621,2636,2653,2670,2687,2703,2720,2736,2753,2770,2786,2803,2820,2837,2854,2870,2887,2904,2920,2936,2953,2970,2987,3004,3020,3037,3053,3071,3087,3104,3121,3136,3153,3170,3186,3203,3220,3236,3254,3271,3287,3303,3320,3336,3353,3370,3386,3403,3420,3437,3453,3470,3487,3503,3520,3537,3553,3570,3588,3604,3620,3637,3655,3671,3688,3705,3721,3738,3754,3771,3787,3804,3821,3837,3855,3870,3887,3904,3922,3937,3954,3971,3988,4004,4021,4037,4055,4071,4087,4105,4121,4137,4155,4172,4188,4205,4221,4237,4254,4271,4288,4305,4322,4338,4356,4371,4389,4405,4421,4438,4454,4471,4488,4505,4522,4538,4555,4572,4588,4605,4622,4639,4655,4672,4689,4705,4721,4738,4756,4771,4788,4806,4822,4839,4855,4872,4889,4906,4922,4938,4956,4972,4989,5006,5022,5039,5056,5072,5089,5106,5122,5139,5156,5172,5189,5206,5223,5238,5256,5272,5289,5306,5322,5338,5355,5372,5388,5405,5423,5439,5456,5472,5489,5506,5522,5539,5556,5573,5590,5606,5622,5639,5656,5672,5689,5706,5722,5739,5756,5773,5789,5806,5822,5839,5856,5874,5890,5906,5923,5940,5956,5972,5990,6006,6022,6039,6056,6073,6089,6107,6123,6140,6157,6173,6190,6206,6223,6239,6256,6273,6289,6306,6323,6340,6356,6373,6390,6407,6423,6439,6456,6473,6490,6506,6523,6540,6557,6573,6590,6606,6623,6640,6656,6674,6690,6707,6723,6741,6757,6774,6791,6807,6824,6841,6857,6874,6891,6907,6924,6940,6957,6974,6990,7007,7023,7040,7057,7073,7091,7107,7124,7140,7157,7174,7190,7207,7224,7240,7258,7275,7291,7308,7325,7341,7357,7374,7391,7407,7424,7441,7458,7475,7492,7507,7524,7541,7557,7574,7591,7608,7625,7641,7659,7675,7691,7708,7726,7742,7759,7775,7792,7808,7826,7842,7858,7875,7892,7908,7926,7942,7958,7975,7991,8008,8025,8042,8059,8075,8092,8108,8126,8142,8159,8175,8192,8209,8225,8241,8258,8275,8291,8308,8325,8341,8358,8375,8391,8408,8425,8442,8458,8476,8492,8509,8526,8543,8560,8576,8593,8609,8626,8643,8659,8676,8692,8709,8725,8743,8760,8776,8793,8810,8826,8843,8860,8876,8892,8909,8926,8942,8959,8976,8993,9009,9026,9043,9060,9076,9093,9109,9127,9143,9160,9176,9193,9210,9227,9243,9260,9276,9293,9310,9326,9343,9360,9376,9393,9410,9427,9443,9460,9477,9493,9510,9527,9544,9560,9576,9594,9610,9626,9643,9661,9676,9694,9710,9727,9743,9760,9776,9794,9810,9827,9844,9860,9877,9894,9910,9926,9944,9961,9977,9993,10010,10027,10044,10061,10077,10094,10110,10128,10144,10161,10177,10194,10210,10227,10244,10261,10277,10294,10310,10327,10345,10360,10378,10395,10411,10428,10443,10461,10478,10495,10510,10527,10544,10561,10577,10595,10611,10628,10645,10661,10678,10695,10711,10728,10745,10761,10777,10795,10810,10828,10844,10861,10878,10895,10911,10928,10944,10962,10978,10995,11011,11028,11044,11061,11077,11094,11111,11128,11145,11161,11178,11195,11211,11229,11245,11262,11279,11296,11312,11329,11345,11361,11379,11396,11412,11429,11444,11461,11478,11494,11511,11528,11545,11561,11578,11595,11611,11628,11645,11662,11678,11695,11711,11728,11745,11761,11778,11795,11812,11828,11845,11862,11878,11895,11912,11929,11946,11962,11979,11996,12012,12030,12046,12063,12079,12096,12112,12129,12146,12163,12180,12196,12213,12230,12246,12263,12280,12297,12312,12329,12345,12363,12379,12396,12413,12430,12446,12463,12481,12497,12513,12530,12546,12563,12580,12596,12613,12629,12646,12662,12679,12696,12712,12729,12746,12763,12779,12796,12813,12830,12847,12863,12880,12897,12914,12930,12946,12964,12980,12997,13014,13030,13046,13063,13080,13097,13114,13129,13146,13163,13180,13196,13213,13230,13247,13263,13280,13297,13313,13330,13347,13363,13381,13397,13413,13431,13447,13463,13481,13497,13514,13531,13547,13564,13581,13598,13615,13631,13647,13663,13681,13698,13715,13731,13748,13764,13781,13798,13814,13831,13847,13864,13881,13898,13915,13931,13948,13965,13981,13997,14014,14031,14048,14065,14081,14097,14115,14131,14147,14165,14182,14198,14215,14232,14248,14264,14281,14298,14315,14333,14349,14365,14381,14398,14415,14431,14448,14465,14481,14498,14514,14531,14548,14565,14582,14598,14615,14632,14648,14665,14681,14698,14715,14731,14749,14766,14782,14799,14816,14832,14849,14866,14882,14898,14915,14932,14949,14966,14982,14999,15016,15032,15049,15066,15082,15099,15115,15132,15149,15166,15182,15199,15215,15232,15249,15266,15282,15299,15316,15333,15349,15366,15382,15400,15415,15433,15450,15466,15483,15500,15516,15533,15549,15566,15583,15600,15617,15632,15650,15667,15683,15700,15716,15733,15750,15767,15784,15800,15816,15833,15850,15866,15883,15900,15917,15934,15950,15967,15983,16000,16016,16033,16050,16066,16083,16099,16116,16133,16150,16167,16183,16200,16217,16233,16250,16267,16284,16301,16317,16334,16350,16367,16383,16401,16416,16433,16451,16467,16484,16500,16516,16534,16551,16567,16584,16600,16617,16634,16651,16667,16684,16701,16717,16733,16750,16767,16784,16801,16817,16834,16850,16867,16884,16901,16917,16934,16951,16968,16984,17001,17017,17033,17050,17067,17084,17100,17117,17134,17150,17167,17184,17200,17217,17234,17251,17267,17284,17300,17317,17334,17351,17368,17384,17401,17417,17434,17451,17467,17485,17501,17518,17535,17552,17568,17585,17602,17618,17634,17651,17668,17685,17702,17718,17735,17752,17768,17785,17802,17818,17835,17851,17868,17884,17901,17919,17936,17951,17969,17985,18001,18018,18034,18051,18068,18084,18102,18118,18135,18151,18168,18185,18201,18219,18235,18251,18268,18285,18302,18318,18335,18351,18369,18385,18402,18419,18436,18452,18469,18485,18502,18518,18535,18552,18570,18586,18603,18619,18635,18652,18669,18686,18702,18718,18735,18752,18770,18785,18803,18820,18835,18852,18870,18886,18902,18919,18936,18952,18969,18985,19003,19019,19037,19052,19070,19087,19103,19120,19136,19153,19169,19186,19202,19220,19236,19253,19269,19286,19302,19320,19336,19353,19369,19387,19403,19421,19436,19454,19471,19487,19503,19519,19537,19553,19571,19587,19603,19620,19637,19653,19671,19687,19704,19720,19736,19754,19770,19787,19804,19821,19837,19854,19870,19887,19903,19921,19937,19954,19970,19988,20004,20020,20038,20054,20071,20087,20104,20121,20137,20154,20170,20187,20204,20221,20237,20254,20271,20288,20304,20321,20338,20354,20371,20387,20404,20420,20437,20453,20471,20487,20504,20520,20537,20554,20571,20587,20604,20620,20637,20654,20672,20688,20704,20721,20737,20754,20771,20787,20805,20822,20838,20855,20871,20888,20905,20921,20938,20955,20971,20989,21005,21021,21038,21055,21072,21088,21105,21121,21139,21155,21172,21188,21205,21221,21237,21255,21272,21289,21305,21322,21338,21355,21372,21389,21406,21422,21439,21456,21472,21488,21505,21522,21539,21555,21573,21588,21605,21621,21639,21656,21671,21688,21706,21722,21739,21756,21773,21789,21806,21822,21839,21856,21872,21889,21906,21922,21940,21956,21973,21989,22006,22022,22038,22056,22072,22090,22106,22123,22140,22156,22172,22190,22207,22222,22239,22256,22273,22290,22306,22323,22340,22358,22373,22390,22406,22423,22440,22456,22473,22490,22506,22523,22540,22557,22573,22590,22606,22623,22639,22656,22672,22689,22706,22722,22739,22756,22773,22790,22807,22822,22841,22857,22873,22890,22907,22923,22940,22957,22973,22991,23006,23023,23040,23056,23074,23090,23106,23123,23140,23157,23173,23191,23206,23224,23240,23258,23274,23290,23307,23324,23340,23357,23374,23390,23406,23424,23440,23457,23474,23491,23508,23524,23541,23557,23574,23590,23607,23624,23641,23657,23674,23691,23708,23724,23741,23757,23774,23791,23808,23825,23841,23858,23875,23890,23908,23924,23941,23958,23974,23991,24008,24024,24041,24058,24075,24091,24107,24125,24141,24158,24174,24191,24207,24224,24241,24257,24274,24291,24307,24324,24342,24357,24375,24392,24409,24424,24442,24458,24475,24491,24508,24525,24542,24558,24575,24592,24609,24625,24642,24658,24675,24692,24708,24726,24741,24758,24776,24791,24808,24825,24841,24859,24875,24891,24909,24926,24942,24959,24976,24991,25009,25026,25042,25059,25075,25092,25109,25126,25141,25159,25175,25192,25209,25226,25242,25259,25276,25292,25309,25326,25343,25360,25376,25393,25409,25426,25442,25459,25476,25493,25509,25525,25542,25559,25575,25592,25609,25625,25642,25659,25676,25693,25709,25726,25742,25759,25777,25793,25809,25826,25843,25859,25877,25893,25910,25926,25942,25959,25977,25992,26009,26027,26043,26060,26076,26093,26110,26127,26143,26160,26176,26193,26210,26226,26243,26260,26277,26294,26310,26327,26343,26359,26377,26393,26410,26427,26443,26460,26477,26494,26510,26526,26543,26560,26576,26593,26610,26626,26643,26660,26676,26693,26710,26726,26743,26760,26776,26793,26810,26827,26845,26861,26877,26894,26911,26928,26944,26961,26977,26994,27010,27028,27044,27061,27077,27093,27110,27127,27144,27160,27177,27193,27211,27227,27244,27261,27278,27295,27311,27328,27344,27361,27378,27395,27412,27428,27444,27462,27477,27495,27511,27528,27544,27561,27578,27594,27611,27627,27645,27661,27677,27695,27711,27728,27745,27762,27779,27796,27812,27828,27845,27862,27878,27896,27911,27928,27945,27961,27978,27996,28012,28028,28045,28061,28078,28094,28112,28129,28145,28162,28178,28195,28212,28228,28245,28262,28279,28295,28311,28329,28345,28362,28379,28395,28412,28428,28446,28462,28480,28496,28513,28529,28546,28563,28579,28595,28612,28628,28645,28662,28678,28696,28712,28728,28745,28762,28779,28795,28812,28829,28846,28862,28880,28896,28912,28929,28946,28962,28979,28996,29012,29030,29046,29062,29080,29097,29112,29129,29146,29163,29180,29196,29213,29230,29246,29263,29280,29296,29313,29329,29346,29364,29380,29396,29414,29430,29447,29463,29480,29497,29514,29530,29547,29563,29579,29597,29614,29630,29647,29664,29680,29697,29714,29730,29747,29763,29779,29796,29813,29830,29846,29863,29880,29896,29913,29930,29947,29963,29980,29998,30014,30031,30046,30063,30080,30096,30113,30131,30148,30164,30181,30198,30214,30230,30247,30264,30281,30297,30314,30330,30347,30366,30381,30397,30414,30430,30447,30464,30481,30497,30514,30531,30548,30565,30581,30598,30615,30631,30648,30665,30681,30698,30715,30731,30747,30764,30781,30798,30815,30832,30848,30865,30881,30898,30915,30932,30948,30965,30981,30997,31015,31032,31048,31065,31081,31097,31115,31131,31149,31165,31181,31198,31215,31231,31248,31265,31282,31298,31315,31332,31348,31365,31382,31399,31415,31432,31448,31465,31482,31498,31516,31532,31549,31566,31582,31598,31616,31631,31648,31665,31682,31699,31716,31732,31749,31766,31782,31799,31816,31833,31849,31865,31882,31899,31916,31932,31949,31966,31983,31999,32015,32033,32049,32066,32083,32100,32116,32132,32148,32165,32182,32199,32215,32232,32249,32265,32282,32299,32316,32332,32350,32366,32383,32400,32416,32433,32449,32466,32482,32499,32516,32532,32549,32566,32582,32600,32616,32632,32650,32667,32683,32700,32716,32732,32750,32766,32783,32799,32816,32833,32849,32866,32883,32899,32916,32933,32949,32966,32983,32999,33016,33033,33050,33066,33083,33100,33116,33133,33150,33167,33183,33200,33217,33233,33250,33266,33284,33300,33317,33334,33351,33367,33384,33401,33417,33434,33451,33467,33484,33501,33517,33534,33551,33567,33584,33601,33618,33634,33651,33668,33684,33701,33718,33735,33750,33768,33784,33801,33817,33834,33850,33868,33884,33901,33917,33934,33951,33968,33984,34000,34017,34034,34051,34068,34084,34100,34118,34135,34151,34167,34184,34201,34218,34235,34251,34268,34284,34301,34318,34334,34352,34369,34385,34401,34418,34435,34451,34468,34484,34501,34518,34535,34552,34567,34585,34602,34619,34635,34652,34668,34685,34701,34718,34736,34751,34768,34785,34801,34819,34835,34851,34868,34886,34902,34919,34935,34952,34969,34986,35002,35019,35036,35052,35068,35086,35102,35119,35135,35152,35169,35186,35201,35219,35235,35251,35269,35286,35302,35319,35336,35352,35369,35386,35403,35419,35435,35452,35470,35486,35503,35519,35536,35553,35570,35586,35603,35620,35636,35653,35670,35687,35703,35720,35737,35753,35770,35787,35803,35820,35836,35853,35869,35885,35902,35919,35936,35952,35969,35986,36002,36019,36036,36053,36070,36087,36103,36120,36137,36153,36170,36186,36203,36219,36236,36253,36270,36286,36304,36320,36337,36353,36371,36386,36404,36419,36437,36454,36471,36487,36503,36520,36536,36554,36570,36587,36604,36620,36637,36654,36670,36687,36703,36720,36736,36753,36770,36787,36803,36820,36837,36853,36870,36887,36903,36921,36937,36955,36971,36987,37004,37021,37037,37054,37070,37088,37104,37121,37137,37154,37171,37187,37205,37221,37237,37254,37271,37287,37304,37321,37337,37355,37371,37387,37405,37421,37437,37454,37471,37488,37504,37521,37538,37555,37571,37588,37605,37622,37638,37654,37672,37687,37704,37721,37738,37755,37771,37787,37805,37821,37838,37855,37871,37888,37905,37921,37938,37954,37972,37988,38004,38021,38038,38054,38071,38088,38104,38121,38138,38155,38171,38189,38205,38222,38238,38255,38272,38289,38306,38322,38338,38355,38373,38389,38406,38422,38439,38455,38472,38489,38505,38522,38539,38556,38572,38589,38606,38622,38639,38656,38672,38689,38706,38723,38739,38755,38772,38788,38805,38822,38838,38855,38872,38889,38906,38922,38939,38956,38972,38989,39006,39023,39040,39056,39073,39090,39106,39124,39140,39156,39173,39190,39206,39223,39240,39257,39273,39290,39307,39323,39340,39357,39374,39390,39407,39423,39440,39456,39473,39490,39506,39524,39540,39557,39573,39590,39607,39623,39640,39657,39674,39690,39707,39724,39740,39757,39774,39790,39806,39824,39841,39857,39874,39891,39907,39924,39941,39957,39974,39991,40007,40024,40040,40058,40074,40091,40107,40124,40140,40157,40174,40191,40208,40224,40241,40257,40274,40291,40307,40324,40340,40358,40374,40391,40407,40425,40441,40457,40475,40491,40507,40525,40541,40558,40575,40591,40608,40624,40641,40657,40674,40691,40708,40725,40741,40758,40774,40791,40808,40825,40841,40858,40875,40892,40908,40925,40941,40957,40975,40992,41008,41025,41041,41058,41075,41091,41108,41125,41142,41158,41175,41192,41208,41225,41241,41258,41274,41292,41308,41325,41342,41358,41376,41391,41408,41425,41441,41458,41476,41492,41508,41525,41541,41558,41575,41592,41608,41625,41642,41658,41675,41692,41709,41725,41742,41759,41775,41792,41809,41825,41842,41858,41875,41892,41909,41926,41942,41960,41976,41993,42009,42026,42042,42058,42076,42093,42109,42126,42142,42160,42176,42192,42209,42226,42242,42259,42276,42293,42310,42327,42343,42360,42378,42393,42410,42426,42443,42459,42476,42493,42509,42527,42543,42559,42577,42593,42610,42626,42643,42659,42676,42692,42710,42727,42742,42760,42776,42793,42810,42827,42843,42860,42877,42893,42910,42927,42944,42960,42976,42994,43010,43027,43043,43060,43076,43094,43110,43126,43144,43161,43177,43194,43211,43227,43243,43261,43277,43294,43310,43326,43344,43360,43377,43394,43410,43427,43444,43461,43477,43495,43511,43527,43543,43561,43576,43595,43611,43627,43645,43661,43677,43694,43711,43727,43745,43761,43777,43794,43811,43828,43844,43861,43878,43895,43911,43928,43944,43961,43978,43994,44011,44028,44045,44061,44078,44095,44112,44128,44145,44162,44177,44195,44212,44227,44244,44262,44278,44294,44311,44327,44345,44361,44378,44395,44411,44428,44445,44462,44477,44495,44512,44528,44544,44562,44579,44594,44611,44628,44644,44662,44679,44695,44712,44729,44744,44762,44779,44796,44812,44828,44845,44861,44878,44895,44912,44929,44945,44962,44979,44995,45012,45029,45045,45062,45079,45096,45112,45128,45145,45162,45179,45196,45212,45228,45245,45263,45280,45296,45312,45329,45346,45363,45379,45396,45413,45429,45446,45463,45480,45497,45513,45529,45546,45562,45580,45596,45613,45630,45646,45663,45680,45696,45713,45730,45746,45762,45780,45796,45813,45830,45847,45863,45879,45896,45914,45930,45947,45963,45980,45997,46014,46029,46046,46063,46080,46097,46114,46131,46147,46163,46180,46196,46213,46230,46246,46263,46280,46297,46314,46330,46347,46364,46383,46397,46414,46430,46447,46464,46480,46496,46514,46531,46547,46563,46581,46597,46614,46630,46648,46664,46681,46698,46714,46731,46747,46764,46781,46797,46814,46831,46847,46864,46880,46898,46914,46931,46947,46964,46980,46998,47014,47031,47048,47064,47081,47098,47115,47131,47147,47163,47180,47197,47213,47230,47247,47264,47280,47297,47314,47331,47347,47364,47380,47397,47414,47430,47447,47464,47481,47497,47515,47531,47547,47564,47581,47598,47615,47631,47648,47664,47682,47698,47715,47731,47748,47765,47781,47799,47815,47831,47848,47865,47882,47898,47914,47931,47948,47964,47982,47998,48015,48031,48048,48065,48082,48099,48116,48132,48148,48165,48182,48199,48216,48231,48249,48266,48282,48299,48316,48332,48348,48366,48381,48398,48416,48432,48448,48466,48482,48498,48515,48532,48548,48565,48582,48598,48615,48632,48648,48665,48682,48698,48715,48732,48749,48765,48782,48800,48816,48832,48850,48866,48882,48900,48916,48933,48949,48966,48983,48999,49015,49033,49049,49066,49083,49100,49116,49133,49150,49167,49183,49200,49217,49233,49249,49267,49283,49300,49316,49332,49350,49367,49383,49400,49416,49433,49450,49466,49482,49500,49516,49533,49550,49567,49583,49600,49617,49633,49650,49667,49683,49700,49716,49733,49750,49767,49783,49801,49817,49834,49850,49867,49884,49900,49917,49933,49950,49966,49984,50000,50017,50034,50050,50067,50083,50101,50117,50134,50151,50167,50183,50200,50217,50233,50251,50267,50285,50301,50317,50333,50351,50367,50384,50400,50417,50433,50451,50467,50483,50500,50517,50534,50550,50567,50584,50600,50617,50634,50650,50668,50685,50701,50717,50734,50751,50768,50784,50801,50818,50834,50850,50867,50884,50901,50918,50934,50951,50968,50984,51001,51018,51034,51051,51068,51085,51101,51118,51136,51151,51168,51185,51201,51218,51234,51252,51268,51286,51302,51319,51335,51351,51368,51385,51402,51418,51436,51452,51468,51486,51502,51519,51536,51551,51569,51586,51602,51619,51635,51652,51669,51686,51702,51719,51735,51752,51769,51786,51802,51819,51836,51852,51869,51885,51902,51918,51935,51952,51968,51985,52002,52018,52035,52052,52068,52085,52102,52119,52135,52152,52170,52187,52203,52219,52236,52253,52270,52285,52302,52319,52336,52352,52369,52386,52403,52419,52436,52453,52470,52486,52503,52519,52536,52553,52570,52586,52603,52619,52636,52653,52669,52686,52703,52719,52736,52754,52770,52786,52803,52820,52836,52854,52870,52888,52903,52920,52937,52954,52969,52986,53003,53020,53036,53053,53069,53086,53103,53119,53137,53153,53169,53186,53203,53220,53236,53254,53271,53288,53303,53320,53336,53354,53371,53387,53404,53421,53437,53454,53471,53487,53505,53520,53537,53553,53570,53587,53604,53620,53637,53654,53670,53687,53704,53721,53738,53754,53771,53787,53805,53821,53838,53854,53872,53887,53905,53921,53938,53955,53971,53988,54004,54021,54038,54055,54071,54087,54105,54122,54138,54155,54171,54187,54205,54221,54238,54254,54271,54288,54305,54321,54338,54355,54371,54389,54405,54421,54438,54454,54471,54488,54505,54521,54538,54555,54571,54589,54605,54622,54639,54656,54672,54688,54704,54722,54738,54755,54771,54788,54804,54821,54838,54854,54871,54890],"hit":[null],"x":[-2.0408163265306123,-2.0408163265306123,-2.0408163265306123,-2.0408163265306123,-2.0408163265306123,-2.0408163265306123,-2.0408163265306123,0.05102040816326531,-0.03741496598639456,-0.16326530612244897,-0.29931972789115646,-0.43197278911564624,-0.5986394557823129,-0.7517006802721088,-0.891156462585034,-1.0068027210884354,-1.0748299319727892,-1.0816326530612246,-1.0816326530612246,-1.0816326530612246,-1.0816326530612246,-1.0816326530612246,-1.0816326530612246,-1.0816326530612246,-1.0816326530612246,-1.0816326530612246,-1.0748299319727892,-1.0476190476190477,-1.0374149659863945,-1.0374149659863945,-1.0374149659863945,-1.0170068027210883,-0.9795918367346939,-0.9251700680272109,-0.8707482993197279,-0.8197278911564626,-0.7482993197278912,-0.6938775510204082,-0.6530612244897959,-0.6360544217687075,-0.6190476190476191,-0.608843537414966,-0.608843537414966,-0.6258503401360545,-0.6360544217687075,-0.6360544217687075,-0.6360544217687075,-0.6360544217687075,-0.6360544217687075,-0.6360544217687075,-0.6360544217687075,-0.6360544217687075,-0.6360544217687075,-0.6360544217687075,-0.6360544217687075,-0.6360544217687075,-0.6360544217687075,-0.6360544217687075,-0.6360544217687075,-0.6360544217687075,-0.6360544217687075,-0.6428571428571429,-0.6666666666666666,-0.6836734693877551,-0.6904761904761905,-0.7040816326530612,-0.7142857142857143,-0.717687074829932,-0.717687074829932,-0.717687074829932,-0.717687074829932,-0.717687074829932,-0.717687074829932,-0.717687074829932,-0.717687074829932,-0.717687074829932,-0.717687074829932,-0.717687074829932,-0.717687074829932,-0.717687074829932,-0.717687074829932,-0.717687074829932,-0.717687074829932,-0.717687074829932,-0.717687074829932,-0.717687074829932,-0.717687074829932,-0.717687074829932,-0.717687074829932,-0.717687074829932,-0.717687074829932,-0.717687074829932,-0.717687074829932,-0.717687074829932,-0.717687074829932,-0.717687074829932,-0.717687074829932,-0.717687074829932,-0.717687074829932,-0.717687074829932,-0.717687074829932,-0.717687074829932,-0.717687074829932,-0.717687074829932,-0.717687074829932,-0.717687074829932,-0.717687074829932,-0.717687074829932,-0.717687074829932,-0.717687074829932,-0.717687074829932,-0.717687074829932,-0.717687074829932,-0.717687074829932,-0.717687074829932,-0.717687074829932,-0.717687074829932,-0.717687074829932,-0.717687074829932,-0.717687074829932,-0.717687074829932,-0.717687074829932,-0.717687074829932,-0.717687074829932,-0.717687074829932,-0.717687074829932,-0.717687074829932,-0.717687074829932,-0.717687074829932,-0.717687074829932,-0.717687074829932,-0.717687074829932,-0.717687074829932,-0.717687074829932,-0.717687074829932,-0.717687074829932,-0.717687074829932,-0.717687074829932,-0.717687074829932,-0.717687074829932,-0.717687074829932,-0.717687074829932,-0.717687074829932,-0.717687074829932,-0.717687074829932,-0.717687074829932,-0.717687074829932,-0.717687074829932,-0.717687074829932,-0.717687074829932,-0.717687074829932,-0.717687074829932,-0.717687074829932,-0.717687074829932,-0.717687074829932,-0.717687074829932,-0.717687074829932,-0.717687074829932,-0.717687074829932,-0.717687074829932,-0.717687074829932,-0.717687074829932,-0.717687074829932,-0.717687074829932,-0.717687074829932,-0.717687074829932,-0.717687074829932,-0.717687074829932,-0.717687074829932,-0.717687074829932,-0.717687074829932,-0.717687074829932,-0.717687074829932,-0.717687074829932,-0.717687074829932,-0.717687074829932,-0.717687074829932,-0.717687074829932,-0.717687074829932,-0.717687074829932,-0.717687074829932,-0.717687074829932,-0.717687074829932,-0.717687074829932,-0.717687074829932,-0.717687074829932,-0.717687074829932,-0.717687074829932,-0.7074829931972789,-0.673469387755102,-0.6122448979591837,-0.54421768707483,-0.4897959183673469,-0.4557823129251701,-0.4387755102040816,-0.43537414965986393,-0.43537414965986393,-0.4217687074829932,-0.3979591836734694,-0.35374149659863946,-0.29931972789115646,-0.24829931972789115,-0.2108843537414966,-0.1836734693877551,-0.16666666666666666,-0.1564625850340136,-0.13945578231292516,-0.1054421768707483,-0.04081632653061224,0.027210884353741496,0.08843537414965986,0.1360544217687075,0.16326530612244897,0.17687074829931973,0.17687074829931973,0.17687074829931973,0.17687074829931973,0.1836734693877551,0.1836734693877551,0.1870748299319728,0.1870748299319728,0.1870748299319728,0.1870748299319728,0.1870748299319728,0.1870748299319728,0.1870748299319728,0.1870748299319728,0.1870748299319728,0.1870748299319728,0.19047619047619047,0.19047619047619047,0.19047619047619047,0.19047619047619047,0.19047619047619047,0.19047619047619047,0.19047619047619047,0.19047619047619047,0.19047619047619047,0.19047619047619047,0.19047619047619047,0.19047619047619047,0.19047619047619047,0.19047619047619047,0.19047619047619047,0.19047619047619047,0.19047619047619047,0.19047619047619047,0.19047619047619047,0.19047619047619047,0.19047619047619047,0.19047619047619047,0.19047619047619047,0.19047619047619047,0.19047619047619047,0.19047619047619047,0.19047619047619047,0.19387755102040816,0.19727891156462585,0.19727891156462585,0.19727891156462585,0.19727891156462585,0.20408163265306123,0.20748299319727892,0.20748299319727892,0.2108843537414966,0.2108843537414966,0.2108843537414966,0.21428571428571427,0.21428571428571427,0.21428571428571427,0.21428571428571427,0.21428571428571427,0.21428571428571427,0.21428571428571427,0.21428571428571427,0.21428571428571427,0.21428571428571427,0.21428571428571427,0.21428571428571427,0.21428571428571427,0.21428571428571427,0.21428571428571427,0.21428571428571427,0.21428571428571427,0.21428571428571427,0.21428571428571427,0.21428571428571427,0.21428571428571427,0.21428571428571427,0.21428571428571427,0.21428571428571427,0.21428571428571427,0.21428571428571427,0.21428571428571427,0.21428571428571427,0.21428571428571427,0.21428571428571427,0.21428571428571427,0.21428571428571427,0.21428571428571427,0.21428571428571427,0.21428571428571427,0.21428571428571427,0.21428571428571427,0.21428571428571427,0.21768707482993196,0.21768707482993196,0.21768707482993196,0.21768707482993196,0.21768707482993196,0.22108843537414966,0.22448979591836735,0.22448979591836735,0.22448979591836735,0.22448979591836735,0.22789115646258504,0.23129251700680273,0.23129251700680273,0.23129251700680273,0.23129251700680273,0.23129251700680273,0.23129251700680273,0.22789115646258504,0.22448979591836735,0.22108843537414966,0.21768707482993196,0.21768707482993196,0.21768707482993196,0.21768707482993196,0.21768707482993196,0.21768707482993196,0.21768707482993196,0.21768707482993196,0.21768707482993196,0.21768707482993196,0.21768707482993196,0.21768707482993196,0.23129251700680273,0.25170068027210885,0.282312925170068,0.30612244897959184,0.3401360544217687,0.3945578231292517,0.4489795918367347,0.47959183673469385,0.5068027210884354,0.5238095238095238,0.5306122448979592,0.5306122448979592,0.5306122448979592,0.5306122448979592,0.5306122448979592,0.5306122448979592,0.5306122448979592,0.5340136054421769,0.5408163265306123,0.54421768707483,0.5578231292517006,0.5714285714285714,0.5918367346938775,0.6360544217687075,0.673469387755102,0.7074829931972789,0.7414965986394558,0.7619047619047619,0.7721088435374149,0.7755102040816326,0.7755102040816326,0.7755102040816326,0.7755102040816326,0.7755102040816326,0.7721088435374149,0.7687074829931972,0.7619047619047619,0.7482993197278912,0.7244897959183674,0.6904761904761905,0.6462585034013606,0.5986394557823129,0.5476190476190477,0.5068027210884354,0.46938775510204084,0.4489795918367347,0.4387755102040816,0.43197278911564624,0.4217687074829932,0.41156462585034015,0.3979591836734694,0.391156462585034,0.38095238095238093,0.3673469387755102,0.35374149659863946,0.3401360544217687,0.32653061224489793,0.3129251700680272,0.29931972789115646,0.282312925170068,0.272108843537415,0.2653061224489796,0.2619047619047619,0.25510204081632654,0.23809523809523808,0.22448979591836735,0.22108843537414966,0.21768707482993196,0.21768707482993196,0.21768707482993196,0.21768707482993196,0.21768707482993196,0.21768707482993196,0.21768707482993196,0.21768707482993196,0.21768707482993196,0.21768707482993196,0.21768707482993196,0.22108843537414966,0.23469387755102042,0.2687074829931973,0.29931972789115646,0.3401360544217687,0.391156462585034,0.4387755102040816,0.48639455782312924,0.5340136054421769,0.5884353741496599,0.6360544217687075,0.6802721088435374,0.7108843537414966,0.7448979591836735,0.7857142857142857,0.826530612244898,0.8605442176870748,0.9115646258503401,0.9421768707482994,0.9523809523809523,0.95578231292517,0.95578231292517,0.95578231292517,0.95578231292517,0.9591836734693877,0.9625850340136054,0.9659863945578231,0.9693877551020408,0.9727891156462585,0.9761904761904762,0.9761904761904762,0.9761904761904762,0.9761904761904762,0.9761904761904762,0.9761904761904762,0.9761904761904762,0.9761904761904762,0.9761904761904762,0.9761904761904762,0.9761904761904762,0.9761904761904762,0.9761904761904762,0.9761904761904762,0.9761904761904762,0.9761904761904762,0.9761904761904762,0.9761904761904762,0.9761904761904762,0.9761904761904762,0.9761904761904762,0.9761904761904762,0.9761904761904762,0.9761904761904762,0.9761904761904762,0.9761904761904762,0.9761904761904762,0.9761904761904762,0.9761904761904762,0.9761904761904762,0.9761904761904762,0.9761904761904762,0.9761904761904762,0.9761904761904762,0.9761904761904762,0.9761904761904762,0.9761904761904762,0.9761904761904762,0.9761904761904762,0.9727891156462585,0.9693877551020408,0.9659863945578231,0.9659863945578231,0.9625850340136054,0.9625850340136054,0.9625850340136054,0.9591836734693877,0.9591836734693877,0.95578231292517,0.9489795918367347,0.9081632653061225,0.8333333333333334,0.7244897959183674,0.5850340136054422,0.4217687074829932,0.2585034013605442,0.11904761904761904,-0.013605442176870748,-0.12585034013605442,-0.24149659863945577,-0.3435374149659864,-0.4217687074829932,-0.46258503401360546,-0.47959183673469385,-0.47959183673469385,-0.47959183673469385,-0.47959183673469385,-0.47959183673469385,-0.47959183673469385,-0.47959183673469385,-0.47959183673469385,-0.47959183673469385,-0.47959183673469385,-0.47959183673469385,-0.47959183673469385,-0.47959183673469385,-0.47959183673469385,-0.47959183673469385,-0.47959183673469385,-0.47959183673469385,-0.47959183673469385,-0.47959183673469385,-0.47959183673469385,-0.47959183673469385,-0.47959183673469385,-0.47959183673469385,-0.47959183673469385,-0.47959183673469385,-0.47959183673469385,-0.47959183673469385,-0.47959183673469385,-0.47959183673469385,-0.47959183673469385,-0.47959183673469385,-0.47959183673469385,-0.47959183673469385,-0.47959183673469385,-0.47959183673469385,-0.47959183673469385,-0.47959183673469385,-0.47959183673469385,-0.47959183673469385,-0.47959183673469385,-0.47959183673469385,-0.47959183673469385,-0.47959183673469385,-0.47959183673469385,-0.47959183673469385,-0.47959183673469385,-0.47959183673469385,-0.47959183673469385,-0.47959183673469385,-0.47959183673469385,-0.47959183673469385,-0.47959183673469385,-0.47959183673469385,-0.47959183673469385,-0.47959183673469385,-0.47959183673469385,-0.47959183673469385,-0.47959183673469385,-0.47959183673469385,-0.47959183673469385,-0.47959183673469385,-0.47959183673469385,-0.47959183673469385,-0.47959183673469385,-0.47959183673469385,-0.47959183673469385,-0.47959183673469385,-0.47959183673469385,-0.47959183673469385,-0.47959183673469385,-0.47959183673469385,-0.47959183673469385,-0.47959183673469385,-0.47959183673469385,-0.47959183673469385,-0.47959183673469385,-0.47959183673469385,-0.47959183673469385,-0.47959183673469385,-0.47959183673469385,-0.47959183673469385,-0.47959183673469385,-0.47959183673469385,-0.47959183673469385,-0.47959183673469385,-0.47959183673469385,-0.47959183673469385,-0.47959183673469385,-0.47959183673469385,-0.47959183673469385,-0.47959183673469385,-0.47959183673469385,-0.47959183673469385,-0.47959183673469385,-0.47959183673469385,-0.47959183673469385,-0.47959183673469385,-0.47959183673469385,-0.47959183673469385,-0.47959183673469385,-0.47959183673469385,-0.47959183673469385,-0.47959183673469385,-0.47959183673469385,-0.47959183673469385,-0.47959183673469385,-0.47959183673469385,-0.47959183673469385,-0.47959183673469385,-0.47959183673469385,-0.47959183673469385,-0.47959183673469385,-0.47959183673469385,-0.47959183673469385,-0.47959183673469385,-0.47959183673469385,-0.47959183673469385,-0.47959183673469385,-0.47959183673469385,-0.47959183673469385,-0.47959183673469385,-0.47959183673469385,-0.47959183673469385,-0.47959183673469385,-0.47959183673469385,-0.47959183673469385,-0.47959183673469385,-0.47959183673469385,-0.47959183673469385,-0.47959183673469385,-0.47959183673469385,-0.47959183673469385,-0.47959183673469385,-0.47959183673469385,-0.47959183673469385,-0.47959183673469385,-0.47959183673469385,-0.47959183673469385,-0.47959183673469385,-0.47959183673469385,-0.47959183673469385,-0.47959183673469385,-0.47959183673469385,-0.47959183673469385,-0.47959183673469385,-0.47959183673469385,-0.47959183673469385,-0.47959183673469385,-0.47959183673469385,-0.47959183673469385,-0.47959183673469385,-0.47959183673469385,-0.47959183673469385,-0.47959183673469385,-0.47959183673469385,-0.47959183673469385,-0.47959183673469385,-0.47959183673469385,-0.47959183673469385,-0.47959183673469385,-0.47959183673469385,-0.47959183673469385,-0.47959183673469385,-0.47959183673469385,-0.47959183673469385,-0.47959183673469385,-0.47959183673469385,-0.47959183673469385,-0.47959183673469385,-0.47959183673469385,-0.47959183673469385,-0.47959183673469385,-0.47959183673469385,-0.47959183673469385,-0.47959183673469385,-0.47959183673469385,-0.47959183673469385,-0.47959183673469385,-0.46258503401360546,-0.42517006802721086,-0.38095238095238093,-0.3401360544217687,-0.3129251700680272,-0.2925170068027211,-0.2789115646258503,-0.2653061224489796,-0.24149659863945577,-0.2108843537414966,-0.17687074829931973,-0.12585034013605442,-0.07142857142857142,0.006802721088435374,0.08843537414965986,0.1870748299319728,0.29931972789115646,0.40816326530612246,0.5306122448979592,0.6564625850340136,0.7482993197278912,0.8027210884353742,0.8163265306122449,0.8231292517006803,0.8197278911564626,0.8061224489795918,0.8027210884353742,0.7993197278911565,0.7959183673469388,0.7925170068027211,0.782312925170068,0.7721088435374149,0.7619047619047619,0.7585034013605442,0.7517006802721088,0.7448979591836735,0.7380952380952381,0.7346938775510204,0.7346938775510204,0.7346938775510204,0.7346938775510204,0.7346938775510204,0.7346938775510204,0.7346938775510204,0.7346938775510204,0.7346938775510204,0.7346938775510204,0.7346938775510204,0.7346938775510204,0.7312925170068028,0.7312925170068028,0.7278911564625851,0.7244897959183674,0.7244897959183674,0.7244897959183674,0.7244897959183674,0.7210884353741497,0.7210884353741497,0.7210884353741497,0.7210884353741497,0.7210884353741497,0.7210884353741497,0.7210884353741497,0.7210884353741497,0.7210884353741497,0.7210884353741497,0.7210884353741497,0.7210884353741497,0.7210884353741497,0.7142857142857143,0.673469387755102,0.5986394557823129,0.48639455782312924,0.3333333333333333,0.19047619047619047,0.05442176870748299,-0.06462585034013606,-0.14625850340136054,-0.20408163265306123,-0.25170068027210885,-0.3129251700680272,-0.3741496598639456,-0.40476190476190477,-0.41836734693877553,-0.4217687074829932,-0.4217687074829932,-0.4217687074829932,-0.4217687074829932,-0.4217687074829932,-0.4217687074829932,-0.4217687074829932,-0.4217687074829932,-0.4217687074829932,-0.4217687074829932,-0.4217687074829932,-0.4217687074829932,-0.4217687074829932,-0.4217687074829932,-0.4217687074829932,-0.4217687074829932,-0.4217687074829932,-0.3979591836734694,-0.3741496598639456,-0.3401360544217687,-0.29931972789115646,-0.2653061224489796,-0.23129251700680273,-0.20408163265306123,-0.1836734693877551,-0.16326530612244897,-0.14285714285714285,-0.12585034013605442,-0.11224489795918367,-0.10204081632653061,-0.09523809523809523,-0.08163265306122448,-0.07482993197278912,-0.07142857142857142,-0.06802721088435375,-0.06802721088435375,-0.06802721088435375,-0.06462585034013606,-0.061224489795918366,-0.05782312925170068,-0.05782312925170068,-0.05442176870748299,-0.05442176870748299,-0.05442176870748299,-0.05442176870748299,-0.05442176870748299,-0.05442176870748299,-0.05442176870748299,-0.05442176870748299,-0.047619047619047616,-0.047619047619047616,-0.04421768707482993,-0.04081632653061224,-0.04081632653061224,-0.04081632653061224,-0.03741496598639456,-0.034013605442176874,-0.034013605442176874,-0.030612244897959183,-0.027210884353741496,-0.027210884353741496,-0.027210884353741496,-0.027210884353741496,-0.027210884353741496,-0.023809523809523808,-0.02040816326530612,-0.017006802721088437,-0.013605442176870748,-0.013605442176870748,-0.013605442176870748,-0.01020408163265306,-0.01020408163265306,-0.01020408163265306,-0.01020408163265306,-0.01020408163265306,-0.01020408163265306,-0.01020408163265306,-0.01020408163265306,-0.01020408163265306,-0.01020408163265306,-0.01020408163265306,-0.01020408163265306,-0.01020408163265306,-0.01020408163265306,-0.01020408163265306,-0.01020408163265306,-0.01020408163265306,-0.01020408163265306,-0.01020408163265306,-0.01020408163265306,-0.01020408163265306,-0.01020408163265306,-0.01020408163265306,-0.01020408163265306,-0.01020408163265306,-0.02040816326530612,-0.07482993197278912,-0.1326530612244898,-0.20408163265306123,-0.272108843537415,-0.3129251700680272,-0.3401360544217687,-0.36394557823129253,-0.38095238095238093,-0.3945578231292517,-0.40816326530612246,-0.41156462585034015,-0.41836734693877553,-0.41836734693877553,-0.41836734693877553,-0.41836734693877553,-0.41836734693877553,-0.41836734693877553,-0.41836734693877553,-0.41836734693877553,-0.41836734693877553,-0.41836734693877553,-0.41836734693877553,-0.41836734693877553,-0.41836734693877553,-0.4217687074829932,-0.4217687074829932,-0.4217687074829932,-0.4217687074829932,-0.4217687074829932,-0.4217687074829932,-0.4217687074829932,-0.4217687074829932,-0.4217687074829932,-0.4217687074829932,-0.4217687074829932,-0.4217687074829932,-0.4217687074829932,-0.4217687074829932,-0.4217687074829932,-0.4217687074829932,-0.4217687074829932,-0.4217687074829932,-0.4217687074829932,-0.4217687074829932,-0.4217687074829932,-0.4217687074829932,-0.4217687074829932,-0.4217687074829932,-0.4217687074829932,-0.4217687074829932,-0.4217687074829932,-0.4217687074829932,-0.4217687074829932,-0.4217687074829932,-0.4217687074829932,-0.4217687074829932,-0.4217687074829932,-0.4217687074829932,-0.4217687074829932,-0.4217687074829932,-0.4217687074829932,-0.4217687074829932,-0.4217687074829932,-0.4217687074829932,-0.4217687074829932,-0.4217687074829932,-0.4217687074829932,-0.4217687074829932,-0.4217687074829932,-0.4217687074829932,-0.4217687074829932,-0.4217687074829932,-0.4217687074829932,-0.4217687074829932,-0.4217687074829932,-0.4217687074829932,-0.4217687074829932,-0.4217687074829932,-0.4217687074829932,-0.4217687074829932,-0.4217687074829932,-0.4217687074829932,-0.4217687074829932,-0.4217687074829932,-0.4217687074829932,-0.4217687074829932,-0.4217687074829932,-0.4217687074829932,-0.4217687074829932,-0.4217687074829932,-0.4217687074829932,-0.4217687074829932,-0.4217687074829932,-0.4217687074829932,-0.4217687074829932,-0.4217687074829932,-0.4217687074829932,-0.4217687074829932,-0.4217687074829932,-0.4217687074829932,-0.4217687074829932,-0.4217687074829932,-0.4217687074829932,-0.4217687074829932,-0.4217687074829932,-0.4217687074829932,-0.4217687074829932,-0.4217687074829932,-0.4217687074829932,-0.4217687074829932,-0.4217687074829932,-0.4217687074829932,-0.4217687074829932,-0.4217687074829932,-0.4217687074829932,-0.4217687074829932,-0.4217687074829932,-0.4217687074829932,-0.4217687074829932,-0.4217687074829932,-0.4217687074829932,-0.4217687074829932,-0.4217687074829932,-0.4217687074829932,-0.4217687074829932,-0.4217687074829932,-0.4217687074829932,-0.4217687074829932,-0.4217687074829932,-0.4217687074829932,-0.4217687074829932,-0.4217687074829932,-0.4217687074829932,-0.4217687074829932,-0.4217687074829932,-0.4217687074829932,-0.4217687074829932,-0.4217687074829932,-0.4217687074829932,-0.4217687074829932,-0.4217687074829932,-0.4217687074829932,-0.4217687074829932,-0.4217687074829932,-0.4217687074829932,-0.4217687074829932,-0.4217687074829932,-0.4217687074829932,-0.4217687074829932,-0.4217687074829932,-0.4217687074829932,-0.4217687074829932,-0.4217687074829932,-0.4217687074829932,-0.4217687074829932,-0.40816326530612246,-0.391156462585034,-0.3673469387755102,-0.3469387755102041,-0.3333333333333333,-0.3163265306122449,-0.29931972789115646,-0.2857142857142857,-0.2687074829931973,-0.24489795918367346,-0.22448979591836735,-0.20408163265306123,-0.1870748299319728,-0.17346938775510204,-0.1564625850340136,-0.14625850340136054,-0.1292517006802721,-0.11904761904761904,-0.10884353741496598,-0.09863945578231292,-0.09523809523809523,-0.08843537414965986,-0.08503401360544217,-0.08503401360544217,-0.08163265306122448,-0.08163265306122448,-0.08163265306122448,-0.08163265306122448,-0.08163265306122448,-0.08163265306122448,-0.08163265306122448,-0.08163265306122448,-0.08163265306122448,-0.08163265306122448,-0.08163265306122448,-0.08163265306122448,-0.08163265306122448,-0.08163265306122448,-0.08163265306122448,-0.08163265306122448,-0.08163265306122448,-0.08163265306122448,-0.08163265306122448,-0.08163265306122448,-0.08163265306122448,-0.08163265306122448,-0.0782312925170068,-0.07482993197278912,-0.07482993197278912,-0.07142857142857142,-0.06802721088435375,-0.061224489795918366,-0.05442176870748299,-0.05102040816326531,-0.04421768707482993,-0.04081632653061224,-0.03741496598639456,-0.030612244897959183,-0.027210884353741496,-0.013605442176870748,0,0.02040816326530612,0.04081632653061224,0.06802721088435375,0.09523809523809523,0.12244897959183673,0.14965986394557823,0.17687074829931973,0.20408163265306123,0.22789115646258504,0.24829931972789115,0.272108843537415,0.29931972789115646,0.3299319727891156,0.36054421768707484,0.391156462585034,0.41156462585034015,0.42857142857142855,0.4489795918367347,0.46938775510204084,0.48639455782312924,0.5102040816326531,0.5306122448979592,0.5374149659863946,0.5408163265306123,0.54421768707483,0.54421768707483,0.54421768707483,0.54421768707483,0.54421768707483,0.54421768707483,0.5408163265306123,0.5408163265306123,0.5408163265306123,0.5408163265306123,0.5578231292517006,0.5782312925170068,0.608843537414966,0.6870748299319728,0.7755102040816326,0.8571428571428571,0.9251700680272109,0.9659863945578231,0.9795918367346939,0.9863945578231292,0.9931972789115646,0.9931972789115646,0.9965986394557823,1.0068027210884354,1.0068027210884354,1.0068027210884354,1.0068027210884354,1.0034013605442176,0.9897959183673469,0.9761904761904762,0.95578231292517,0.935374149659864,0.9149659863945578,0.9081632653061225,0.8979591836734694,0.8979591836734694,0.8945578231292517,0.8945578231292517,0.8945578231292517,0.8945578231292517,0.891156462585034,0.8877551020408163,0.8877551020408163,0.8843537414965986,0.8843537414965986,0.8843537414965986,0.8843537414965986,0.8843537414965986,0.8843537414965986,0.8843537414965986,0.8843537414965986,0.8843537414965986,0.8843537414965986,0.8843537414965986,0.8843537414965986,0.8809523809523809,0.8809523809523809,0.8809523809523809,0.8775510204081632,0.8775510204081632,0.8775510204081632,0.8775510204081632,0.8775510204081632,0.8775510204081632,0.8775510204081632,0.8775510204081632,0.8775510204081632,0.8775510204081632,0.8775510204081632,0.8775510204081632,0.8775510204081632,0.8775510204081632,0.8775510204081632,0.8775510204081632,0.8775510204081632,0.8775510204081632,0.8775510204081632,0.8775510204081632,0.8775510204081632,0.8775510204081632,0.8775510204081632,0.8775510204081632,0.8775510204081632,0.8775510204081632,0.8775510204081632,0.8775510204081632,0.8775510204081632,0.8775510204081632,0.8775510204081632,0.8775510204081632,0.8775510204081632,0.8775510204081632,0.8775510204081632,0.8775510204081632,0.8775510204081632,0.8775510204081632,0.8775510204081632,0.8775510204081632,0.8775510204081632,0.8775510204081632,0.8775510204081632,0.8775510204081632,0.8775510204081632,0.8775510204081632,0.8775510204081632,0.8775510204081632,0.8775510204081632,0.8775510204081632,0.8775510204081632,0.8775510204081632,0.8775510204081632,0.8775510204081632,0.8775510204081632,0.8775510204081632,0.8775510204081632,0.8741496598639455,0.8741496598639455,0.8707482993197279,0.8469387755102041,0.8197278911564626,0.782312925170068,0.7346938775510204,0.6802721088435374,0.6224489795918368,0.5612244897959183,0.5034013605442177,0.445578231292517,0.391156462585034,0.3435374149659864,0.29931972789115646,0.2619047619047619,0.23809523809523808,0.22448979591836735,0.21768707482993196,0.21428571428571427,0.21428571428571427,0.21428571428571427,0.21428571428571427,0.21428571428571427,0.21428571428571427,0.21428571428571427,0.21428571428571427,0.21428571428571427,0.21428571428571427,0.21428571428571427,0.21428571428571427,0.21428571428571427,0.21428571428571427,0.21428571428571427,0.21428571428571427,0.21428571428571427,0.21428571428571427,0.21428571428571427,0.21428571428571427,0.21428571428571427,0.21428571428571427,0.21428571428571427,0.21428571428571427,0.21428571428571427,0.21428571428571427,0.21428571428571427,0.21428571428571427,0.21428571428571427,0.21428571428571427,0.21428571428571427,0.21428571428571427,0.21428571428571427,0.21428571428571427,0.21428571428571427,0.21428571428571427,0.21428571428571427,0.21428571428571427,0.21428571428571427,0.21428571428571427,0.21428571428571427,0.21428571428571427,0.21428571428571427,0.21428571428571427,0.21428571428571427,0.21428571428571427,0.21428571428571427,0.21428571428571427,0.21428571428571427,0.21428571428571427,0.21428571428571427,0.21428571428571427,0.21428571428571427,0.21428571428571427,0.21428571428571427,0.21428571428571427,0.21428571428571427,0.21428571428571427,0.21428571428571427,0.21428571428571427,0.21428571428571427,0.21428571428571427,0.21428571428571427,0.21428571428571427,0.21428571428571427,0.21428571428571427,0.21428571428571427,0.21428571428571427,0.21428571428571427,0.21428571428571427,0.21428571428571427,0.21428571428571427,0.21428571428571427,0.21428571428571427,0.21428571428571427,0.21428571428571427,0.21428571428571427,0.21428571428571427,0.21428571428571427,0.21428571428571427,0.21428571428571427,0.21428571428571427,0.21428571428571427,0.21428571428571427,0.21428571428571427,0.21428571428571427,0.21428571428571427,0.21428571428571427,0.21428571428571427,0.21428571428571427,0.21428571428571427,0.21428571428571427,0.21428571428571427,0.21428571428571427,0.21428571428571427,0.21428571428571427,0.21428571428571427,0.21428571428571427,0.21428571428571427,0.21428571428571427,0.21428571428571427,0.21428571428571427,0.21428571428571427,0.21428571428571427,0.21428571428571427,0.21428571428571427,0.21428571428571427,0.21428571428571427,0.21428571428571427,0.21428571428571427,0.21428571428571427,0.21428571428571427,0.21428571428571427,0.21428571428571427,0.21428571428571427,0.21428571428571427,0.23129251700680273,0.2619047619047619,0.29931972789115646,0.32653061224489793,0.3401360544217687,0.35714285714285715,0.3673469387755102,0.3741496598639456,0.38095238095238093,0.3843537414965986,0.391156462585034,0.3945578231292517,0.3945578231292517,0.3945578231292517,0.3945578231292517,0.3945578231292517,0.3945578231292517,0.3945578231292517,0.3979591836734694,0.3979591836734694,0.3979591836734694,0.3979591836734694,0.3979591836734694,0.3979591836734694,0.3979591836734694,0.3979591836734694,0.3979591836734694,0.3979591836734694,0.3979591836734694,0.3979591836734694,0.3979591836734694,0.3979591836734694,0.3979591836734694,0.3979591836734694,0.3979591836734694,0.3979591836734694,0.3979591836734694,0.3979591836734694,0.3979591836734694,0.3979591836734694,0.3979591836734694,0.3979591836734694,0.3979591836734694,0.3979591836734694,0.3979591836734694,0.3979591836734694,0.3979591836734694,0.3979591836734694,0.3979591836734694,0.3979591836734694,0.3979591836734694,0.3979591836734694,0.3979591836734694,0.3979591836734694,0.3979591836734694,0.3979591836734694,0.3979591836734694,0.3979591836734694,0.4013605442176871,0.4013605442176871,0.40476190476190477,0.40476190476190477,0.40816326530612246,0.40816326530612246,0.40816326530612246,0.40816326530612246,0.40816326530612246,0.40816326530612246,0.40816326530612246,0.40816326530612246,0.40816326530612246,0.40816326530612246,0.40816326530612246,0.40816326530612246,0.40816326530612246,0.40816326530612246,0.40816326530612246,0.40816326530612246,0.40816326530612246,0.40816326530612246,0.40816326530612246,0.40816326530612246,0.40816326530612246,0.40816326530612246,0.40816326530612246,0.40816326530612246,0.40816326530612246,0.40816326530612246,0.40816326530612246,0.40816326530612246,0.40816326530612246,0.3673469387755102,0.30612244897959184,0.24489795918367346,0.16666666666666666,0.1054421768707483,0.05102040816326531,0,-0.04081632653061224,-0.06802721088435375,-0.09523809523809523,-0.12244897959183673,-0.14285714285714285,-0.1564625850340136,-0.16666666666666666,-0.17006802721088435,-0.17006802721088435,-0.17006802721088435,-0.17006802721088435,-0.17006802721088435,-0.17006802721088435,-0.17006802721088435,-0.17006802721088435,-0.17006802721088435,-0.17006802721088435,-0.17006802721088435,-0.17006802721088435,-0.17006802721088435,-0.17006802721088435,-0.17006802721088435,-0.17006802721088435,-0.17006802721088435,-0.17006802721088435,-0.17006802721088435,-0.17006802721088435,-0.16666666666666666,-0.16326530612244897,-0.16326530612244897,-0.16326530612244897,-0.16326530612244897,-0.16326530612244897,-0.16326530612244897,-0.16326530612244897,-0.16326530612244897,-0.16326530612244897,-0.16326530612244897,-0.16326530612244897,-0.16326530612244897,-0.16326530612244897,-0.16326530612244897,-0.16326530612244897,-0.16326530612244897,-0.16326530612244897,-0.16326530612244897,-0.16326530612244897,-0.16326530612244897,-0.16326530612244897,-0.16326530612244897,-0.16326530612244897,-0.16326530612244897,-0.16326530612244897,-0.16326530612244897,-0.16326530612244897,-0.16326530612244897,-0.16326530612244897,-0.16326530612244897,-0.16326530612244897,-0.16326530612244897,-0.16326530612244897,-0.16326530612244897,-0.16326530612244897,-0.16326530612244897,-0.16326530612244897,-0.16326530612244897,-0.16326530612244897,-0.16326530612244897,-0.16326530612244897,-0.16326530612244897,-0.16326530612244897,-0.16326530612244897,-0.16326530612244897,-0.16326530612244897,-0.16326530612244897,-0.16326530612244897,-0.14965986394557823,-0.12585034013605442,-0.08503401360544217,-0.013605442176870748,0.08503401360544217,0.20748299319727892,0.3129251700680272,0.3673469387755102,0.3979591836734694,0.41496598639455784,0.42517006802721086,0.43537414965986393,0.445578231292517,0.4557823129251701,0.46258503401360546,0.46598639455782315,0.47278911564625853,0.47619047619047616,0.47959183673469385,0.48639455782312924,0.4897959183673469,0.4931972789115646,0.5,0.5034013605442177,0.5068027210884354,0.5102040816326531,0.5136054421768708,0.5170068027210885,0.5272108843537415,0.5306122448979592,0.5340136054421769,0.5408163265306123,0.54421768707483,0.54421768707483,0.5476190476190477,0.5510204081632653,0.5510204081632653,0.5544217687074829,0.5544217687074829,0.5544217687074829,0.5544217687074829,0.5544217687074829,0.5544217687074829,0.5544217687074829,0.5544217687074829,0.5544217687074829,0.5544217687074829,0.5544217687074829,0.5544217687074829,0.5544217687074829,0.5544217687074829,0.5544217687074829,0.5544217687074829,0.5544217687074829,0.5544217687074829,0.5544217687074829,0.5544217687074829,0.5544217687074829,0.5544217687074829,0.5408163265306123,0.5034013605442177,0.4489795918367347,0.3741496598639456,0.29591836734693877,0.22448979591836735,0.14285714285714285,0.04421768707482993,-0.04081632653061224,-0.12244897959183673,-0.19047619047619047,-0.23809523809523808,-0.272108843537415,-0.2925170068027211,-0.3163265306122449,-0.35034013605442177,-0.37755102040816324,-0.3979591836734694,-0.40476190476190477,-0.40816326530612246,-0.40816326530612246,-0.40816326530612246,-0.40816326530612246,-0.40816326530612246,-0.40816326530612246,-0.40816326530612246,-0.40816326530612246,-0.40816326530612246,-0.40816326530612246,-0.40816326530612246,-0.40816326530612246,-0.40816326530612246,-0.40816326530612246,-0.40816326530612246,-0.40816326530612246,-0.4217687074829932,-0.4489795918367347,-0.46258503401360546,-0.46598639455782315,-0.4421768707482993,-0.3945578231292517,-0.3435374149659864,-0.3129251700680272,-0.29931972789115646,-0.2857142857142857,-0.282312925170068,-0.2789115646258503,-0.2755102040816326,-0.272108843537415,-0.272108843537415,-0.272108843537415,-0.272108843537415,-0.272108843537415,-0.272108843537415,-0.272108843537415,-0.2687074829931973,-0.2653061224489796,-0.2585034013605442,-0.25510204081632654,-0.24489795918367346,-0.23129251700680273,-0.21768707482993196,-0.2108843537414966,-0.20408163265306123,-0.19047619047619047,-0.17346938775510204,-0.14965986394557823,-0.12585034013605442,-0.10884353741496598,-0.08503401360544217,-0.05442176870748299,-0.03741496598639456,-0.017006802721088437,-0.006802721088435374,0,0.003401360544217687,0.003401360544217687,0.006802721088435374,0.013605442176870748,0.017006802721088437,0.023809523809523808,0.027210884353741496,0.030612244897959183,0.03741496598639456,0.03741496598639456,0.04081632653061224,0.047619047619047616,0.05102040816326531,0.05442176870748299,0.06462585034013606,0.06802721088435375,0.0782312925170068,0.09183673469387756,0.10884353741496598,0.1326530612244898,0.14965986394557823,0.1564625850340136,0.1598639455782313,0.16326530612244897,0.16326530612244897,0.16326530612244897,0.16326530612244897,0.16326530612244897,0.16326530612244897,0.16326530612244897,0.16326530612244897,0.16326530612244897,0.16326530612244897,0.16326530612244897,0.16326530612244897,0.16326530612244897,0.16326530612244897,0.16326530612244897,0.16326530612244897,0.16326530612244897,0.16326530612244897,0.16326530612244897,0.16326530612244897,0.16326530612244897,0.16326530612244897,0.16326530612244897,0.16326530612244897,0.16326530612244897,0.16326530612244897,0.15306122448979592,0.12585034013605442,0.09523809523809523,0.061224489795918366,0.017006802721088437,-0.027210884353741496,-0.07142857142857142,-0.10884353741496598,-0.1564625850340136,-0.20408163265306123,-0.2585034013605442,-0.30952380952380953,-0.35034013605442177,-0.37755102040816324,-0.3945578231292517,-0.40476190476190477,-0.41496598639455784,-0.42517006802721086,-0.42857142857142855,-0.43197278911564624,-0.43197278911564624,-0.43197278911564624,-0.43197278911564624,-0.43197278911564624,-0.43197278911564624,-0.43197278911564624,-0.43197278911564624,-0.43197278911564624,-0.43197278911564624,-0.43197278911564624,-0.43197278911564624,-0.43197278911564624,-0.43197278911564624,-0.43197278911564624,-0.43197278911564624,-0.43197278911564624,-0.43197278911564624,-0.43197278911564624,-0.43197278911564624,-0.43197278911564624,-0.43197278911564624,-0.43197278911564624,-0.43197278911564624,-0.43197278911564624,-0.43197278911564624,-0.43197278911564624,-0.43197278911564624,-0.43197278911564624,-0.43197278911564624,-0.43197278911564624,-0.43197278911564624,-0.43197278911564624,-0.43197278911564624,-0.43197278911564624,-0.43197278911564624,-0.43197278911564624,-0.43197278911564624,-0.43197278911564624,-0.43197278911564624,-0.43197278911564624,-0.43197278911564624,-0.43197278911564624,-0.43197278911564624,-0.43197278911564624,-0.43197278911564624,-0.43197278911564624,-0.43197278911564624,-0.43197278911564624,-0.43197278911564624,-0.43197278911564624,-0.4217687074829932,-0.3945578231292517,-0.3673469387755102,-0.3299319727891156,-0.272108843537415,-0.21768707482993196,-0.18027210884353742,-0.14965986394557823,-0.1292517006802721,-0.11904761904761904,-0.1054421768707483,-0.09523809523809523,-0.09183673469387756,-0.08163265306122448,-0.0782312925170068,-0.07482993197278912,-0.06802721088435375,-0.061224489795918366,-0.05442176870748299,-0.04421768707482993,-0.03741496598639456,-0.030612244897959183,-0.027210884353741496,-0.023809523809523808,-0.023809523809523808,-0.023809523809523808,-0.02040816326530612,-0.02040816326530612,-0.017006802721088437,-0.017006802721088437,-0.017006802721088437,-0.017006802721088437,-0.017006802721088437,-0.017006802721088437,-0.017006802721088437,-0.017006802721088437,-0.017006802721088437,-0.017006802721088437,-0.017006802721088437,-0.017006802721088437,-0.017006802721088437,-0.017006802721088437,-0.017006802721088437,-0.017006802721088437,-0.017006802721088437,-0.017006802721088437,-0.017006802721088437,-0.017006802721088437,-0.017006802721088437,-0.017006802721088437,-0.017006802721088437,-0.017006802721088437,-0.017006802721088437,-0.017006802721088437,-0.017006802721088437,-0.017006802721088437,-0.017006802721088437,-0.017006802721088437,-0.017006802721088437,-0.017006802721088437,-0.017006802721088437,-0.017006802721088437,-0.017006802721088437,-0.017006802721088437,-0.017006802721088437,-0.017006802721088437,-0.017006802721088437,-0.017006802721088437,-0.017006802721088437,-0.017006802721088437,-0.017006802721088437,-0.017006802721088437,-0.017006802721088437,-0.017006802721088437,-0.017006802721088437,-0.017006802721088437,-0.017006802721088437,-0.017006802721088437,-0.013605442176870748,-0.013605442176870748,-0.013605442176870748,-0.013605442176870748,-0.013605442176870748,-0.013605442176870748,-0.013605442176870748,-0.013605442176870748,-0.013605442176870748,-0.013605442176870748,-0.013605442176870748,-0.013605442176870748,-0.013605442176870748,-0.013605442176870748,-0.013605442176870748,-0.013605442176870748,-0.013605442176870748,-0.013605442176870748,-0.013605442176870748,-0.013605442176870748,-0.01020408163265306,-0.006802721088435374,-0.003401360544217687,-0.003401360544217687,-0.003401360544217687,-0.003401360544217687,-0.003401360544217687,-0.003401360544217687,0,0,0,0,0,0,0,0,0,0,0,0,0,0,0,0,0,0,0,0,0,0,0,0,0,0,0,0,0,0,0,0,0,0,0,0,-0.006802721088435374,-0.034013605442176874,-0.061224489795918366,-0.09523809523809523,-0.1292517006802721,-0.15306122448979592,-0.17687074829931973,-0.19387755102040816,-0.21428571428571427,-0.23129251700680273,-0.24489795918367346,-0.2585034013605442,-0.2619047619047619,-0.2687074829931973,-0.272108843537415,-0.272108843537415,-0.272108843537415,-0.272108843537415,-0.272108843537415,-0.272108843537415,-0.272108843537415,-0.272108843537415,-0.272108843537415,-0.272108843537415,-0.272108843537415,-0.272108843537415,-0.272108843537415,-0.272108843537415,-0.272108843537415,-0.272108843537415,-0.272108843537415,-0.272108843537415,-0.272108843537415,-0.272108843537415,-0.272108843537415,-0.272108843537415,-0.272108843537415,-0.272108843537415,-0.272108843537415,-0.2619047619047619,-0.25510204081632654,-0.24489795918367346,-0.23129251700680273,-0.22789115646258504,-0.21768707482993196,-0.21428571428571427,-0.20408163265306123,-0.19047619047619047,-0.16326530612244897,-0.12585034013605442,-0.08163265306122448,-0.04081632653061224,0.027210884353741496,0.08843537414965986,0.1360544217687075,0.17687074829931973,0.2108843537414966,0.24829931972789115,0.2891156462585034,0.3299319727891156,0.3673469387755102,0.41496598639455784,0.4489795918367347,0.46938775510204084,0.4897959183673469,0.5102040816326531,0.5272108843537415,0.54421768707483,0.5578231292517006,0.5680272108843537,0.5748299319727891,0.5850340136054422,0.5918367346938775,0.5986394557823129,0.6020408163265306,0.6054421768707483,0.608843537414966,0.608843537414966,0.6122448979591837,0.6122448979591837,0.6122448979591837,0.6122448979591837,0.6122448979591837,0.6122448979591837,0.6122448979591837,0.6122448979591837,0.6122448979591837,0.6122448979591837,0.6122448979591837,0.6122448979591837,0.6122448979591837,0.6122448979591837,0.6122448979591837,0.6122448979591837,0.6122448979591837,0.6122448979591837,0.6122448979591837,0.6122448979591837,0.6122448979591837,0.6122448979591837,0.6122448979591837,0.6122448979591837,0.6122448979591837,0.6122448979591837,0.6122448979591837,0.6122448979591837,0.6122448979591837,0.6122448979591837,0.6122448979591837,0.6122448979591837,0.6122448979591837,0.6122448979591837,0.6122448979591837,0.6122448979591837,0.6122448979591837,0.6122448979591837,0.6122448979591837,0.6122448979591837,0.6122448979591837,0.6122448979591837,0.6122448979591837,0.6122448979591837,0.6122448979591837,0.6122448979591837,0.6122448979591837,0.6122448979591837,0.6122448979591837,0.6122448979591837,0.6122448979591837,0.6122448979591837,0.6122448979591837,0.6122448979591837,0.6122448979591837,0.6122448979591837,0.6122448979591837,0.6122448979591837,0.6122448979591837,0.6122448979591837,0.6122448979591837,0.6122448979591837,0.6122448979591837,0.6122448979591837,0.6122448979591837,0.6122448979591837,0.6122448979591837,0.6122448979591837,0.6122448979591837,0.6122448979591837,0.6122448979591837,0.6122448979591837,0.6122448979591837,0.6122448979591837,0.6122448979591837,0.6122448979591837,0.6122448979591837,0.6122448979591837,0.6122448979591837,0.6122448979591837,0.6122448979591837,0.6122448979591837,0.6122448979591837,0.6122448979591837,0.6122448979591837,0.6122448979591837,0.6122448979591837,0.6122448979591837,0.6122448979591837,0.6122448979591837,0.6122448979591837,0.6122448979591837,0.6122448979591837,0.6122448979591837,0.6122448979591837,0.6122448979591837,0.6122448979591837,0.6122448979591837,0.6122448979591837,0.6122448979591837,0.6122448979591837,0.6122448979591837,0.6122448979591837,0.6122448979591837,0.6122448979591837,0.6122448979591837,0.6122448979591837,0.6122448979591837,0.6122448979591837,0.6122448979591837,0.6122448979591837,0.6122448979591837,0.6122448979591837,0.6122448979591837,0.6122448979591837,0.6122448979591837,0.6122448979591837,0.6122448979591837,0.6122448979591837,0.6122448979591837,0.6122448979591837,0.6122448979591837,0.6122448979591837,0.6122448979591837,0.6122448979591837,0.6122448979591837,0.6122448979591837,0.6122448979591837,0.6122448979591837,0.6122448979591837,0.6122448979591837,0.6122448979591837,0.6122448979591837,0.6122448979591837,0.6122448979591837,0.6122448979591837,0.6122448979591837,0.6122448979591837,0.6122448979591837,0.6122448979591837,0.6122448979591837,0.6122448979591837,0.6122448979591837,0.6122448979591837,0.6122448979591837,0.6122448979591837,0.6122448979591837,0.6122448979591837,0.5986394557823129,0.5884353741496599,0.5782312925170068,0.5680272108843537,0.5578231292517006,0.54421768707483,0.5408163265306123,0.5340136054421769,0.5306122448979592,0.5238095238095238,0.5204081632653061,0.5204081632653061,0.5204081632653061,0.5204081632653061,0.5204081632653061,0.5204081632653061,0.5204081632653061,0.5170068027210885,0.5034013605442177,0.4897959183673469,0.47959183673469385,0.46938775510204084,0.4557823129251701,0.4489795918367347,0.4421768707482993,0.43537414965986393,0.42857142857142855,0.42857142857142855,0.42517006802721086,0.4217687074829932,0.4217687074829932,0.4217687074829932,0.4217687074829932,0.4217687074829932,0.4217687074829932,0.4217687074829932,0.4217687074829932,0.4217687074829932,0.4217687074829932,0.4217687074829932,0.4217687074829932,0.4217687074829932,0.4217687074829932,0.4217687074829932,0.4217687074829932,0.4217687074829932,0.4217687074829932,0.4217687074829932,0.4217687074829932,0.41156462585034015,0.4013605442176871,0.38095238095238093,0.36394557823129253,0.3401360544217687,0.3129251700680272,0.2789115646258503,0.24149659863945577,0.20748299319727892,0.18027210884353742,0.16326530612244897,0.14965986394557823,0.13945578231292516,0.1292517006802721,0.12244897959183673,0.11564625850340136,0.11564625850340136,0.11564625850340136,0.11564625850340136,0.11564625850340136,0.11564625850340136,0.11564625850340136,0.11564625850340136,0.11564625850340136,0.11564625850340136,0.11564625850340136,0.11564625850340136,0.11564625850340136,0.11564625850340136,0.11564625850340136,0.11564625850340136,0.11564625850340136,0.11564625850340136,0.11564625850340136,0.11564625850340136,0.11564625850340136,0.11564625850340136,0.11564625850340136,0.11564625850340136,0.11564625850340136,0.11564625850340136,0.11564625850340136,0.11564625850340136,0.11564625850340136,0.11564625850340136,0.11564625850340136,0.11564625850340136,0.11564625850340136,0.11564625850340136,0.11564625850340136,0.11564625850340136,0.11564625850340136,0.11564625850340136,0.11564625850340136,0.11564625850340136,0.11904761904761904,0.12244897959183673,0.1292517006802721,0.1326530612244898,0.1360544217687075,0.1360544217687075,0.13945578231292516,0.13945578231292516,0.13945578231292516,0.13945578231292516,0.13945578231292516,0.13945578231292516,0.13945578231292516,0.13945578231292516,0.13945578231292516,0.13945578231292516,0.13945578231292516,0.14625850340136054,0.15306122448979592,0.16666666666666666,0.18027210884353742,0.19047619047619047,0.20408163265306123,0.22108843537414966,0.24149659863945577,0.2585034013605442,0.2857142857142857,0.3129251700680272,0.35374149659863946,0.40476190476190477,0.4489795918367347,0.4897959183673469,0.5170068027210885,0.5306122448979592,0.5306122448979592,0.5374149659863946,0.5374149659863946,0.5374149659863946,0.5374149659863946,0.5374149659863946,0.5374149659863946,0.5408163265306123,0.5408163265306123,0.5408163265306123,0.5408163265306123,0.5408163265306123,0.5408163265306123,0.5408163265306123,0.5408163265306123,0.5408163265306123,0.5408163265306123,0.5408163265306123,0.5408163265306123,0.5408163265306123,0.5408163265306123,0.5408163265306123,0.5408163265306123,0.5408163265306123,0.5408163265306123,0.5408163265306123,0.5408163265306123,0.5408163265306123,0.5408163265306123,0.5408163265306123,0.5408163265306123,0.5408163265306123,0.5408163265306123,0.5340136054421769,0.5,0.46258503401360546,0.40816326530612246,0.3469387755102041,0.2857142857142857,0.22789115646258504,0.17346938775510204,0.11904761904761904,0.07482993197278912,0.04081632653061224,0.013605442176870748,0,-0.003401360544217687,-0.006802721088435374,-0.01020408163265306,-0.013605442176870748,-0.013605442176870748,-0.013605442176870748,-0.013605442176870748,-0.013605442176870748,-0.013605442176870748,-0.013605442176870748,-0.013605442176870748,-0.017006802721088437,-0.017006802721088437,-0.017006802721088437,-0.017006802721088437,-0.017006802721088437,-0.017006802721088437,-0.017006802721088437,-0.017006802721088437,-0.017006802721088437,-0.017006802721088437,-0.017006802721088437,-0.017006802721088437,-0.017006802721088437,-0.017006802721088437,-0.017006802721088437,-0.017006802721088437,-0.017006802721088437,-0.017006802721088437,-0.017006802721088437,-0.017006802721088437,-0.017006802721088437,-0.017006802721088437,-0.017006802721088437,-0.017006802721088437,-0.017006802721088437,-0.017006802721088437,-0.017006802721088437,-0.017006802721088437,-0.017006802721088437,-0.017006802721088437,-0.017006802721088437,-0.017006802721088437,-0.017006802721088437,-0.017006802721088437,-0.017006802721088437,-0.017006802721088437,-0.017006802721088437,-0.017006802721088437,-0.017006802721088437,-0.017006802721088437,-0.017006802721088437,-0.017006802721088437,-0.017006802721088437,-0.017006802721088437,-0.017006802721088437,-0.017006802721088437,-0.017006802721088437,-0.017006802721088437,-0.017006802721088437,-0.017006802721088437,-0.017006802721088437,-0.017006802721088437,-0.017006802721088437,-0.017006802721088437,-0.017006802721088437,-0.017006802721088437,-0.017006802721088437,-0.017006802721088437,-0.017006802721088437,-0.017006802721088437,-0.017006802721088437,-0.017006802721088437,-0.017006802721088437,-0.017006802721088437,-0.017006802721088437,-0.017006802721088437,-0.017006802721088437,-0.017006802721088437,-0.017006802721088437,-0.017006802721088437,-0.017006802721088437,-0.017006802721088437,-0.017006802721088437,-0.017006802721088437,-0.017006802721088437,-0.017006802721088437,-0.017006802721088437,-0.017006802721088437,-0.017006802721088437,-0.017006802721088437,-0.017006802721088437,-0.017006802721088437,-0.017006802721088437,-0.017006802721088437,-0.017006802721088437,-0.017006802721088437,-0.017006802721088437,-0.017006802721088437,-0.017006802721088437,-0.017006802721088437,-0.017006802721088437,-0.017006802721088437,-0.017006802721088437,-0.017006802721088437,-0.017006802721088437,-0.017006802721088437,-0.017006802721088437,-0.017006802721088437,-0.017006802721088437,-0.017006802721088437,-0.017006802721088437,-0.017006802721088437,-0.017006802721088437,-0.017006802721088437,-0.017006802721088437,-0.017006802721088437,-0.017006802721088437,-0.017006802721088437,-0.017006802721088437,-0.017006802721088437,-0.017006802721088437,-0.017006802721088437,-0.017006802721088437,-0.017006802721088437,-0.017006802721088437,-0.017006802721088437,-0.017006802721088437,-0.017006802721088437,-0.017006802721088437,-0.017006802721088437,-0.017006802721088437,-0.017006802721088437,-0.017006802721088437,-0.017006802721088437,-0.017006802721088437,-0.017006802721088437,-0.017006802721088437,-0.017006802721088437,-0.017006802721088437,-0.013605442176870748,-0.01020408163265306,-0.006802721088435374,0,0,0.003401360544217687,0.003401360544217687,0.006802721088435374,0.013605442176870748,0.013605442176870748,0.013605442176870748,0.013605442176870748,0.013605442176870748,0.013605442176870748,0.013605442176870748,0.013605442176870748,0.017006802721088437,0.017006802721088437,0.017006802721088437,0.017006802721088437,0.017006802721088437,0.017006802721088437,0.017006802721088437,0.017006802721088437,0.017006802721088437,0.017006802721088437,0.017006802721088437,0.017006802721088437,0.017006802721088437,0.017006802721088437,0.02040816326530612,0.02040816326530612,0.02040816326530612,0.02040816326530612,0.02040816326530612,0.02040816326530612,0.02040816326530612,0.023809523809523808,0.023809523809523808,0.023809523809523808,0.023809523809523808,0.023809523809523808,0.023809523809523808,0.023809523809523808,0.023809523809523808,0.023809523809523808,0.023809523809523808,0.023809523809523808,0.023809523809523808,0.023809523809523808,0.023809523809523808,0.023809523809523808,0.027210884353741496,0.027210884353741496,0.027210884353741496,0.027210884353741496,0.027210884353741496,0.027210884353741496,0.027210884353741496,0.027210884353741496,0.027210884353741496,0.027210884353741496,0.027210884353741496,0.027210884353741496,0.027210884353741496,0.027210884353741496,0.027210884353741496,0.027210884353741496,0.027210884353741496,0.027210884353741496,0.027210884353741496,0.027210884353741496,0.027210884353741496,0.027210884353741496,0.027210884353741496,0.027210884353741496,0.027210884353741496,0.027210884353741496,0.027210884353741496,0.027210884353741496,0.027210884353741496,0.027210884353741496,0.027210884353741496,0.027210884353741496,0.027210884353741496,0.027210884353741496,0.027210884353741496,0.027210884353741496,0.027210884353741496,0.027210884353741496,0.027210884353741496,0.027210884353741496,0.027210884353741496,0.027210884353741496,0.027210884353741496,0.027210884353741496,0.027210884353741496,0.027210884353741496,0.027210884353741496,0.027210884353741496,0.027210884353741496,0.027210884353741496,0.027210884353741496,0.027210884353741496,0.027210884353741496,0.027210884353741496,0.027210884353741496,0.027210884353741496,0.027210884353741496,0.027210884353741496,0.027210884353741496,0.027210884353741496,0.030612244897959183,0.04081632653061224,0.04421768707482993,0.047619047619047616,0.05102040816326531,0.05102040816326531,0.05442176870748299,0.05442176870748299,0.05442176870748299,0.05782312925170068,0.05782312925170068,0.061224489795918366,0.061224489795918366,0.06462585034013606,0.06802721088435375,0.06802721088435375,0.06802721088435375,0.06802721088435375,0.07142857142857142,0.07142857142857142,0.07482993197278912,0.07482993197278912,0.07482993197278912,0.0782312925170068,0.0782312925170068,0.0782312925170068,0.0782312925170068,0.0782312925170068,0.0782312925170068,0.0782312925170068,0.0782312925170068,0.0782312925170068,0.0782312925170068,0.0782312925170068,0.0782312925170068,0.0782312925170068,0.0782312925170068,0.0782312925170068,0.0782312925170068,0.0782312925170068,0.0782312925170068,0.0782312925170068,0.0782312925170068,0.0782312925170068,0.0782312925170068,0.0782312925170068,0.0782312925170068,0.0782312925170068,0.0782312925170068,0.0782312925170068,0.0782312925170068,0.0782312925170068,0.0782312925170068,0.0782312925170068,0.0782312925170068,0.0782312925170068,0.0782312925170068,0.0782312925170068,0.0782312925170068,0.0782312925170068,0.0782312925170068,0.0782312925170068,0.0782312925170068,0.0782312925170068,0.0782312925170068,0.0782312925170068,0.0782312925170068,0.0782312925170068,0.0782312925170068,0.0782312925170068,0.0782312925170068,0.0782312925170068,0.0782312925170068,0.0782312925170068,0.0782312925170068,0.0782312925170068,0.0782312925170068,0.0782312925170068,0.0782312925170068,0.0782312925170068,0.0782312925170068,0.0782312925170068,0.08163265306122448,0.08843537414965986,0.09863945578231292,0.1054421768707483,0.11224489795918367,0.12244897959183673,0.12244897959183673,0.1292517006802721,0.1326530612244898,0.1360544217687075,0.13945578231292516,0.14285714285714285,0.14285714285714285,0.14625850340136054,0.14625850340136054,0.14625850340136054,0.14625850340136054,0.14625850340136054,0.14625850340136054,0.14625850340136054,0.14625850340136054,0.14625850340136054,0.14625850340136054,0.14625850340136054,0.14625850340136054,0.14625850340136054,0.14625850340136054,0.14625850340136054,0.14625850340136054,0.14625850340136054,0.14625850340136054,0.14625850340136054,0.14625850340136054,0.14625850340136054,0.14625850340136054,0.14625850340136054,0.14625850340136054,0.14625850340136054,0.14625850340136054,0.14625850340136054,0.14625850340136054,0.14625850340136054,0.14625850340136054,0.14625850340136054,0.14625850340136054,0.14625850340136054,0.14625850340136054,0.14625850340136054,0.14625850340136054,0.14625850340136054,0.14625850340136054,0.14625850340136054,0.14625850340136054,0.14625850340136054,0.14625850340136054,0.14625850340136054,0.14625850340136054,0.14625850340136054,0.14625850340136054,0.14625850340136054,0.14625850340136054,0.14625850340136054,0.14625850340136054,0.14625850340136054,0.14625850340136054,0.14625850340136054,0.14625850340136054,0.14625850340136054,0.14625850340136054,0.14625850340136054,0.14625850340136054,0.14625850340136054,0.14625850340136054,0.14625850340136054,0.14625850340136054,0.14625850340136054,0.14625850340136054,0.14625850340136054,0.14625850340136054,0.14625850340136054,0.14625850340136054,0.14625850340136054,0.14625850340136054,0.14625850340136054,0.14625850340136054,0.14625850340136054,0.14625850340136054,0.14625850340136054,0.14625850340136054,0.14625850340136054,0.14625850340136054,0.14625850340136054,0.14625850340136054,0.14625850340136054,0.14625850340136054,0.14625850340136054,0.14625850340136054,0.14625850340136054,0.14625850340136054,0.14625850340136054,0.14625850340136054,0.14625850340136054,0.14625850340136054,0.14625850340136054,0.14625850340136054,0.14625850340136054,0.14625850340136054,0.14625850340136054,0.14625850340136054,0.14625850340136054,0.14625850340136054,0.14625850340136054,0.14625850340136054,0.14625850340136054,0.14625850340136054,0.14625850340136054,0.14625850340136054,0.14625850340136054,0.14625850340136054,0.14625850340136054,0.14625850340136054,0.14625850340136054,0.14625850340136054,0.14625850340136054,0.14625850340136054,0.14625850340136054,0.14625850340136054,0.14625850340136054,0.14625850340136054,0.14625850340136054,0.14625850340136054,0.14625850340136054,0.14625850340136054,0.14625850340136054,0.14625850340136054,0.14625850340136054,0.14625850340136054,0.14625850340136054,0.14625850340136054,0.14625850340136054,0.14625850340136054,0.14625850340136054,0.14625850340136054,0.14625850340136054,0.14625850340136054,0.14625850340136054,0.14625850340136054,0.14625850340136054,0.14625850340136054,0.14625850340136054,0.14625850340136054,0.14625850340136054,0.14625850340136054,0.14625850340136054,0.14625850340136054,0.14625850340136054,0.14625850340136054,0.14625850340136054,0.17006802721088435,0.2108843537414966,0.2925170068027211,0.47619047619047616,0.6564625850340136,0.8707482993197279,1.0612244897959184,1.153061224489796,1.183673469387755,1.1972789115646258,1.2040816326530612,1.2074829931972788,1.2142857142857142,1.2244897959183674,1.2244897959183674,1.227891156462585,1.2312925170068028,1.2312925170068028,1.2312925170068028,1.2312925170068028,1.2312925170068028,1.2312925170068028,1.227891156462585,1.227891156462585,1.2244897959183674,1.2244897959183674,1.2244897959183674,1.2210884353741496,1.217687074829932,1.217687074829932,1.2142857142857142,1.2108843537414966,1.2108843537414966,1.2108843537414966,1.2108843537414966,1.2108843537414966,1.2108843537414966,1.2108843537414966,1.2108843537414966,1.2108843537414966,1.2108843537414966,1.2074829931972788,1.2074829931972788,1.2074829931972788,1.2040816326530612,1.1972789115646258,1.183673469387755,1.1700680272108843,1.1598639455782314,1.153061224489796,1.1462585034013606,1.1428571428571428,1.1360544217687074,1.1360544217687074,1.1360544217687074,1.1360544217687074,1.1360544217687074,1.1360544217687074,1.1360544217687074,1.1360544217687074,1.1360544217687074,1.1360544217687074,1.1360544217687074,1.1360544217687074,1.1360544217687074,1.1360544217687074,1.1360544217687074,1.1360544217687074,1.1360544217687074,1.1360544217687074,1.1360544217687074,1.1360544217687074,1.1360544217687074,1.1360544217687074,1.1360544217687074,1.1360544217687074,1.1360544217687074,1.1360544217687074,1.1360544217687074,1.1360544217687074,1.1326530612244898,1.1156462585034013,1.0850340136054422,1.0476190476190477,0.9795918367346939,0.9013605442176871,0.8163265306122449,0.7074829931972789,0.5850340136054422,0.46598639455782315,0.35714285714285715,0.2585034013605442,0.17346938775510204,0.08843537414965986,0.02040816326530612,-0.027210884353741496,-0.05442176870748299,-0.07482993197278912,-0.08843537414965986,-0.08843537414965986,-0.08843537414965986,-0.08843537414965986,-0.08843537414965986,-0.08843537414965986,-0.08843537414965986,-0.08843537414965986,-0.08843537414965986,-0.08843537414965986,-0.08843537414965986,-0.08843537414965986,-0.08843537414965986,-0.08843537414965986,-0.08843537414965986,-0.08843537414965986,-0.08843537414965986,-0.08843537414965986,-0.08843537414965986,-0.08843537414965986,-0.08843537414965986,-0.08843537414965986,-0.08843537414965986,-0.08843537414965986,-0.08843537414965986,-0.08843537414965986,-0.08843537414965986,-0.08843537414965986,-0.08843537414965986,-0.08843537414965986,-0.08843537414965986,-0.08843537414965986,-0.08843537414965986,-0.08843537414965986,-0.08843537414965986,-0.08843537414965986,-0.08843537414965986,-0.08843537414965986,-0.08843537414965986,-0.08843537414965986,-0.08843537414965986,-0.08843537414965986,-0.08843537414965986,-0.08843537414965986,-0.08843537414965986,-0.08843537414965986,-0.08843537414965986,-0.08843537414965986,-0.08843537414965986,-0.08843537414965986,-0.08843537414965986,-0.08843537414965986,-0.08843537414965986,-0.08843537414965986,-0.08843537414965986,-0.08843537414965986,-0.08843537414965986,-0.08843537414965986,-0.08843537414965986,-0.08843537414965986,-0.08843537414965986,-0.08843537414965986,-0.08843537414965986,-0.08843537414965986,-0.08843537414965986,-0.08843537414965986,-0.08843537414965986,-0.08843537414965986,-0.08843537414965986,-0.08843537414965986,-0.08843537414965986,-0.08843537414965986,-0.08843537414965986,-0.08843537414965986,-0.08843537414965986,-0.08843537414965986,-0.08843537414965986,-0.08843537414965986,-0.08843537414965986,-0.08843537414965986,-0.08843537414965986,-0.08843537414965986,-0.08843537414965986,-0.08843537414965986,-0.08843537414965986,-0.08843537414965986,-0.08843537414965986,-0.08843537414965986,-0.08843537414965986,-0.08843537414965986,-0.08843537414965986,-0.08843537414965986,-0.08503401360544217,-0.07142857142857142,-0.05102040816326531,-0.023809523809523808,0.003401360544217687,0.027210884353741496,0.05442176870748299,0.0782312925170068,0.1054421768707483,0.1360544217687075,0.16666666666666666,0.20748299319727892,0.24829931972789115,0.29591836734693877,0.35374149659863946,0.41496598639455784,0.46598639455782315,0.5136054421768708,0.54421768707483,0.564625850340136,0.5714285714285714,0.5816326530612245,0.5850340136054422,0.5986394557823129,0.6054421768707483,0.6190476190476191,0.6326530612244898,0.6462585034013606,0.6598639455782312,0.673469387755102,0.6972789115646258,0.7312925170068028,0.7653061224489796,0.7925170068027211,0.8163265306122449,0.8333333333333334,0.8503401360544217,0.8673469387755102,0.8843537414965986,0.9115646258503401,0.9319727891156463,0.9455782312925171,0.9523809523809523,0.9523809523809523,0.9523809523809523,0.9523809523809523,0.9523809523809523,0.9523809523809523,0.9523809523809523,0.9523809523809523,0.9523809523809523,0.9523809523809523,0.9523809523809523,0.9523809523809523,0.9523809523809523,0.9523809523809523,0.9523809523809523,0.9523809523809523,0.9523809523809523,0.9523809523809523,0.9523809523809523,0.9523809523809523,0.95578231292517,0.9625850340136054,0.9659863945578231,0.9659863945578231,0.9659863945578231,0.9659863945578231,0.9659863945578231,0.9659863945578231,0.9659863945578231,0.9659863945578231,0.9659863945578231,0.9659863945578231,0.9659863945578231,0.9659863945578231,0.9659863945578231,0.9659863945578231,0.9659863945578231,0.9659863945578231,0.9659863945578231,0.9659863945578231,0.9659863945578231,0.9659863945578231,0.9659863945578231,0.9659863945578231,0.9659863945578231,0.9659863945578231,0.9659863945578231,0.9659863945578231,0.9659863945578231,0.9659863945578231,0.9659863945578231,0.9659863945578231,0.9659863945578231,0.9591836734693877,0.9149659863945578,0.8707482993197279,0.8061224489795918,0.7278911564625851,0.6394557823129252,0.5340136054421769,0.4387755102040816,0.36054421768707484,0.30952380952380953,0.2755102040816326,0.25170068027210885,0.23469387755102042,0.22448979591836735,0.20748299319727892,0.20408163265306123,0.20068027210884354,0.20068027210884354,0.20068027210884354,0.20068027210884354,0.20068027210884354,0.20068027210884354,0.19727891156462585,0.19387755102040816,0.19047619047619047,0.19047619047619047,0.19047619047619047,0.1870748299319728,0.1870748299319728,0.1870748299319728,0.1870748299319728,0.1870748299319728,0.1836734693877551,0.17687074829931973,0.17346938775510204,0.16326530612244897,0.16326530612244897,0.1598639455782313,0.1564625850340136,0.1564625850340136,0.1564625850340136,0.1564625850340136,0.1564625850340136,0.1564625850340136,0.1564625850340136,0.1564625850340136,0.15306122448979592,0.15306122448979592,0.14965986394557823,0.14965986394557823,0.14965986394557823,0.14965986394557823,0.14965986394557823,0.14965986394557823,0.14965986394557823,0.14965986394557823,0.14965986394557823,0.14965986394557823,0.14965986394557823,0.14965986394557823,0.14965986394557823,0.14965986394557823,0.14965986394557823,0.14625850340136054,0.14285714285714285,0.1360544217687075,0.12244897959183673,0.09523809523809523,0.06802721088435375,0.027210884353741496,-0.013605442176870748,-0.047619047619047616,-0.09183673469387756,-0.1360544217687075,-0.19047619047619047,-0.2585034013605442,-0.3197278911564626,-0.3707482993197279,-0.41496598639455784,-0.4489795918367347,-0.46258503401360546,-0.46938775510204084,-0.46938775510204084,-0.46938775510204084,-0.46938775510204084,-0.46938775510204084,-0.46938775510204084,-0.46938775510204084,-0.46938775510204084,-0.46938775510204084,-0.46938775510204084,-0.46938775510204084,-0.46938775510204084,-0.46938775510204084,-0.46938775510204084,-0.46938775510204084,-0.46258503401360546,-0.43537414965986393,-0.40476190476190477,-0.35374149659863946,-0.29931972789115646,-0.24829931972789115,-0.2108843537414966,-0.1870748299319728,-0.16326530612244897,-0.14625850340136054,-0.1326530612244898,-0.12585034013605442,-0.12244897959183673,-0.12244897959183673,-0.12244897959183673,-0.12244897959183673,-0.12244897959183673,-0.11904761904761904,-0.11904761904761904,-0.11564625850340136,-0.10884353741496598,-0.09523809523809523,-0.09523809523809523,-0.09523809523809523,-0.09523809523809523,-0.09523809523809523,