"success","trial_type","trial_index","time_elapsed","internal_node_id","protocol_sum","subject_identifier","subject_sum","subject_pair","STUDY_ID","PROLIFIC_PID","SESSION_ID","practice_instructions","leaderboard_instructions","bonus","reveal_word","self_rating","confidence","view_history","rt","responses","question_order","correct","test_part","word","final_keyboard_state","num_clicks","points","cheat","position_RT","position","player","i_game","true_position","distance","last_word","response","stimulus","confidence_slider_self_response"
"true","fullscreen",0,3105,"0.0-0.0",NA,20,"74,68,220,21,54,66,4,168,15,232,14,144,57,69,92,193,96,130,129,130,15,226,178,79,30,82,51,173,230,175,29,213",10,"669a58f4f17d67c0aba4c4d3","5d4c78071b920f00198e8533","669a5c6f777f0ecd9e7b0369",1,0,0,"false",3,0,"",NA,"","","","","","",NA,NA,"",NA,NA,NA,NA,NA,NA,"",NA,"",NA
"","instructions",1,11527,"0.0-1.0",NA,20,"74,68,220,21,54,66,4,168,15,232,14,144,57,69,92,193,96,130,129,130,15,226,178,79,30,82,51,173,230,175,29,213",10,"669a58f4f17d67c0aba4c4d3","5d4c78071b920f00198e8533","669a5c6f777f0ecd9e7b0369",1,0,0,"false",3,0,"[{""page_index"":0,""viewing_time"":8420}]",8420.5,"","","","","","",NA,NA,"",NA,NA,NA,NA,NA,NA,"",NA,"",NA
"","instructions",2,25898,"0.0-2.0-0.0",NA,20,"74,68,220,21,54,66,4,168,15,232,14,144,57,69,92,193,96,130,129,130,15,226,178,79,30,82,51,173,230,175,29,213",10,"669a58f4f17d67c0aba4c4d3","5d4c78071b920f00198e8533","669a5c6f777f0ecd9e7b0369",1,0,0,"false",3,0,"[{""page_index"":0,""viewing_time"":14369.600000000093}]",14369.8999999999,"","","","","","",NA,NA,"",NA,NA,NA,NA,NA,NA,"",NA,"",NA
"","survey-multi-choice",3,36846,"0.0-2.0-1.0",NA,20,"74,68,220,21,54,66,4,168,15,232,14,144,57,69,92,193,96,130,129,130,15,226,178,79,30,82,51,173,230,175,29,213",10,"669a58f4f17d67c0aba4c4d3","5d4c78071b920f00198e8533","669a5c6f777f0ecd9e7b0369",1,0,0,"false",3,0,"",10945.3999999999,"{""Q0"":""... reveal the word with as <b>few letter guesses</b> as possible""}","[0]","true","multichoice_nonpretend","","",NA,NA,"",NA,NA,NA,NA,NA,NA,"",NA,"",NA
"","instructions",4,39074,"0.0-3.0",NA,20,"74,68,220,21,54,66,4,168,15,232,14,144,57,69,92,193,96,130,129,130,15,226,178,79,30,82,51,173,230,175,29,213",10,"669a58f4f17d67c0aba4c4d3","5d4c78071b920f00198e8533","669a5c6f777f0ecd9e7b0369",1,0,0,"false",3,0,"[{""page_index"":0,""viewing_time"":2227}]",2227.29999999981,"","","","","","",NA,NA,"",NA,NA,NA,NA,NA,NA,"",NA,"",NA
"","Hangman",5,84034,"0.0-4.0",NA,20,"74,68,220,21,54,66,4,168,15,232,14,144,57,69,92,193,96,130,129,130,15,226,178,79,30,82,51,173,230,175,29,213",10,"669a58f4f17d67c0aba4c4d3","5d4c78071b920f00198e8533","669a5c6f777f0ecd9e7b0369",1,0,0,"false",3,0,"",NA,"","","","","ZEBRA","E,M,D,H,B,Z,R,A",8,12,"false",NA,NA,NA,NA,NA,NA,"",NA,"",NA
"","instructions",6,96709,"0.0-5.0",NA,20,"74,68,220,21,54,66,4,168,15,232,14,144,57,69,92,193,96,130,129,130,15,226,178,79,30,82,51,173,230,175,29,213",10,"669a58f4f17d67c0aba4c4d3","5d4c78071b920f00198e8533","669a5c6f777f0ecd9e7b0369",1,0,0,"false",3,0,"[{""page_index"":0,""viewing_time"":1995.6000000000931},{""page_index"":1,""viewing_time"":10677}]",12673.3999999999,"","","","","","",NA,NA,"",NA,NA,NA,NA,NA,NA,"",NA,"",NA
"","survey-multi-choice",7,103211,"0.0-6.0",NA,20,"74,68,220,21,54,66,4,168,15,232,14,144,57,69,92,193,96,130,129,130,15,226,178,79,30,82,51,173,230,175,29,213",10,"669a58f4f17d67c0aba4c4d3","5d4c78071b920f00198e8533","669a5c6f777f0ecd9e7b0369",1,0,0,"false",3,0,"",6500,"{""Q0"":""...from <b>a previous session</b> that is part of the upcoming tournament.""}","[0]","false","multichoice_leaderboard","","",NA,NA,"",NA,NA,NA,NA,NA,NA,"",NA,"",NA
"","instructions",8,105328,"0.0-7.0-0.0",NA,20,"74,68,220,21,54,66,4,168,15,232,14,144,57,69,92,193,96,130,129,130,15,226,178,79,30,82,51,173,230,175,29,213",10,"669a58f4f17d67c0aba4c4d3","5d4c78071b920f00198e8533","669a5c6f777f0ecd9e7b0369",1,0,0,"false",3,0,"[{""page_index"":0,""viewing_time"":2116}]",2116.20000000019,"","","","","","",NA,NA,"",NA,NA,NA,NA,NA,NA,"",NA,"",NA
"","survey-multi-choice",9,111361,"0.0-7.0-1.0",NA,20,"74,68,220,21,54,66,4,168,15,232,14,144,57,69,92,193,96,130,129,130,15,226,178,79,30,82,51,173,230,175,29,213",10,"669a58f4f17d67c0aba4c4d3","5d4c78071b920f00198e8533","669a5c6f777f0ecd9e7b0369",1,0,0,"false",3,0,"",6031.40000000037,"{""Q0"":""...from <b>a previous session</b> that is part of the upcoming tournament.""}","[0]","false","multichoice_leaderboard","","",NA,NA,"",NA,NA,NA,NA,NA,NA,"",NA,"",NA
"","instructions",10,113209,"0.0-7.1-0.1",NA,20,"74,68,220,21,54,66,4,168,15,232,14,144,57,69,92,193,96,130,129,130,15,226,178,79,30,82,51,173,230,175,29,213",10,"669a58f4f17d67c0aba4c4d3","5d4c78071b920f00198e8533","669a5c6f777f0ecd9e7b0369",1,0,0,"false",3,0,"[{""page_index"":0,""viewing_time"":1845.2000000001863}]",1845.60000000009,"","","","","","",NA,NA,"",NA,NA,NA,NA,NA,NA,"",NA,"",NA
"","survey-multi-choice",11,117223,"0.0-7.1-1.1",NA,20,"74,68,220,21,54,66,4,168,15,232,14,144,57,69,92,193,96,130,129,130,15,226,178,79,30,82,51,173,230,175,29,213",10,"669a58f4f17d67c0aba4c4d3","5d4c78071b920f00198e8533","669a5c6f777f0ecd9e7b0369",1,0,0,"false",3,0,"",4012.60000000009,"{""Q0"":""...from the <b>upcoming tournament</b>.""}","[0]","false","multichoice_leaderboard","","",NA,NA,"",NA,NA,NA,NA,NA,NA,"",NA,"",NA
"","instructions",12,118752,"0.0-7.2-0.2",NA,20,"74,68,220,21,54,66,4,168,15,232,14,144,57,69,92,193,96,130,129,130,15,226,178,79,30,82,51,173,230,175,29,213",10,"669a58f4f17d67c0aba4c4d3","5d4c78071b920f00198e8533","669a5c6f777f0ecd9e7b0369",1,0,0,"false",3,0,"[{""page_index"":0,""viewing_time"":1527.5}]",1527.79999999981,"","","","","","",NA,NA,"",NA,NA,NA,NA,NA,NA,"",NA,"",NA
"","survey-multi-choice",13,121364,"0.0-7.2-1.2",NA,20,"74,68,220,21,54,66,4,168,15,232,14,144,57,69,92,193,96,130,129,130,15,226,178,79,30,82,51,173,230,175,29,213",10,"669a58f4f17d67c0aba4c4d3","5d4c78071b920f00198e8533","669a5c6f777f0ecd9e7b0369",1,0,0,"false",3,0,"",2610.20000000019,"{""Q0"":""...from <b>a previous session</b> that is not part of the upcoming tournament.""}","[0]","true","multichoice_leaderboard","","",NA,NA,"",NA,NA,NA,NA,NA,NA,"",NA,"",NA
"","instructions",14,131543,"0.0-8.0",NA,20,"74,68,220,21,54,66,4,168,15,232,14,144,57,69,92,193,96,130,129,130,15,226,178,79,30,82,51,173,230,175,29,213",10,"669a58f4f17d67c0aba4c4d3","5d4c78071b920f00198e8533","669a5c6f777f0ecd9e7b0369",1,0,0,"false",3,0,"[{""page_index"":0,""viewing_time"":10177.799999999814}]",10178.1000000001,"","","","","","",NA,NA,"",NA,NA,NA,NA,NA,NA,"",NA,"",NA
"","survey-multi-choice",15,135710,"0.0-9.0",NA,20,"74,68,220,21,54,66,4,168,15,232,14,144,57,69,92,193,96,130,129,130,15,226,178,79,30,82,51,173,230,175,29,213",10,"669a58f4f17d67c0aba4c4d3","5d4c78071b920f00198e8533","669a5c6f777f0ecd9e7b0369",1,0,0,"false",3,0,"",4165.20000000019,"{""Q0"":""...players' leaderboard position (in terms of <b>points</b>) in an <b>upcoming tournament.</b>""}","[0]","true","multichoice_tournament","","",NA,NA,"",NA,NA,NA,NA,NA,NA,"",NA,"",NA
"","instructions",16,156615,"0.0-11.0",NA,20,"74,68,220,21,54,66,4,168,15,232,14,144,57,69,92,193,96,130,129,130,15,226,178,79,30,82,51,173,230,175,29,213",10,"669a58f4f17d67c0aba4c4d3","5d4c78071b920f00198e8533","669a5c6f777f0ecd9e7b0369",1,0,0,"false",3,0,"[{""page_index"":0,""viewing_time"":20902.399999999907}]",20902.7999999998,"","","","","","",NA,NA,"",NA,NA,NA,NA,NA,NA,"",NA,"",NA
"","instructions",17,168294,"0.0-12.0-0.0",NA,20,"74,68,220,21,54,66,4,168,15,232,14,144,57,69,92,193,96,130,129,130,15,226,178,79,30,82,51,173,230,175,29,213",10,"669a58f4f17d67c0aba4c4d3","5d4c78071b920f00198e8533","669a5c6f777f0ecd9e7b0369",1,0,0,"false",3,0,"[{""page_index"":0,""viewing_time"":11677.200000000186}]",11677.5,"","","","","","",NA,NA,"",NA,NA,NA,NA,NA,NA,"",NA,"",NA
"","Hangman_replay",18,226537,"0.0-12.0-1.0",NA,20,"74,68,220,21,54,66,4,168,15,232,14,144,57,69,92,193,96,130,129,130,15,226,178,79,30,82,51,173,230,175,29,213",10,"669a58f4f17d67c0aba4c4d3","5d4c78071b920f00198e8533","669a5c6f777f0ecd9e7b0369",1,0,0,"false",3,0,"",NA,"","","","","KENTUCKY","A,I,E,K,N,T,U,C,Y",9,13,"false",NA,NA,NA,NA,NA,NA,"",NA,"",NA
"","instructions",19,230072,"0.0-12.0-2.0",NA,20,"74,68,220,21,54,66,4,168,15,232,14,144,57,69,92,193,96,130,129,130,15,226,178,79,30,82,51,173,230,175,29,213",10,"669a58f4f17d67c0aba4c4d3","5d4c78071b920f00198e8533","669a5c6f777f0ecd9e7b0369",1,0,0,"false",3,0,"[{""page_index"":0,""viewing_time"":3532.7999999998137}]",3533.90000000037,"","","","","","",NA,NA,"",NA,NA,NA,NA,NA,NA,"",NA,"",NA
"","Guess_leaderboard",20,242400,"0.0-12.0-3.0",NA,20,"74,68,220,21,54,66,4,168,15,232,14,144,57,69,92,193,96,130,129,130,15,226,178,79,30,82,51,173,230,175,29,213",10,"669a58f4f17d67c0aba4c4d3","5d4c78071b920f00198e8533","669a5c6f777f0ecd9e7b0369",1,0,0,"false",3,0,"",NA,"","","","","KENTUCKY","",NA,NA,"",11562.0999999996,15,5,0,8,7,"",NA,"",NA
"","instructions",21,247283,"0.0-12.0-0.1",NA,20,"74,68,220,21,54,66,4,168,15,232,14,144,57,69,92,193,96,130,129,130,15,226,178,79,30,82,51,173,230,175,29,213",10,"669a58f4f17d67c0aba4c4d3","5d4c78071b920f00198e8533","669a5c6f777f0ecd9e7b0369",1,0,0,"false",3,0,"[{""page_index"":0,""viewing_time"":4880.899999999441}]",4881.09999999963,"","","","","","",NA,NA,"",NA,NA,NA,NA,NA,NA,"",NA,"",NA
"","Hangman_replay",22,280335,"0.0-12.0-1.1",NA,20,"74,68,220,21,54,66,4,168,15,232,14,144,57,69,92,193,96,130,129,130,15,226,178,79,30,82,51,173,230,175,29,213",10,"669a58f4f17d67c0aba4c4d3","5d4c78071b920f00198e8533","669a5c6f777f0ecd9e7b0369",1,0,0,"false",3,0,"",NA,"","","","","SHAKIRA","E,A,S,H,K,I,R",7,14,"false",NA,NA,NA,NA,NA,NA,"",NA,"",NA
"","instructions",23,281671,"0.0-12.0-2.1",NA,20,"74,68,220,21,54,66,4,168,15,232,14,144,57,69,92,193,96,130,129,130,15,226,178,79,30,82,51,173,230,175,29,213",10,"669a58f4f17d67c0aba4c4d3","5d4c78071b920f00198e8533","669a5c6f777f0ecd9e7b0369",1,0,0,"false",3,0,"[{""page_index"":0,""viewing_time"":1334.3999999994412}]",1334.79999999981,"","","","","","",NA,NA,"",NA,NA,NA,NA,NA,NA,"",NA,"",NA
"","Guess_leaderboard",24,285567,"0.0-12.0-3.1",NA,20,"74,68,220,21,54,66,4,168,15,232,14,144,57,69,92,193,96,130,129,130,15,226,178,79,30,82,51,173,230,175,29,213",10,"669a58f4f17d67c0aba4c4d3","5d4c78071b920f00198e8533","669a5c6f777f0ecd9e7b0369",1,0,0,"false",3,0,"",NA,"","","","","SHAKIRA","",NA,NA,"",3140.79999999981,12,11,1,19,7,"",NA,"",NA
"","instructions",25,290136,"0.0-12.0-0.2",NA,20,"74,68,220,21,54,66,4,168,15,232,14,144,57,69,92,193,96,130,129,130,15,226,178,79,30,82,51,173,230,175,29,213",10,"669a58f4f17d67c0aba4c4d3","5d4c78071b920f00198e8533","669a5c6f777f0ecd9e7b0369",1,0,0,"false",3,0,"[{""page_index"":0,""viewing_time"":4566.600000000559}]",4566.90000000037,"","","","","","",NA,NA,"",NA,NA,NA,NA,NA,NA,"",NA,"",NA
"","Hangman_replay",26,333684,"0.0-12.0-1.2",NA,20,"74,68,220,21,54,66,4,168,15,232,14,144,57,69,92,193,96,130,129,130,15,226,178,79,30,82,51,173,230,175,29,213",10,"669a58f4f17d67c0aba4c4d3","5d4c78071b920f00198e8533","669a5c6f777f0ecd9e7b0369",1,0,0,"false",3,0,"",NA,"","","","","THIRTY FOUR","E,A,S,N,I,R,T,H,Y,F,O,U",12,11,"false",NA,NA,NA,NA,NA,NA,"",NA,"",NA
"","instructions",27,334691,"0.0-12.0-2.2",NA,20,"74,68,220,21,54,66,4,168,15,232,14,144,57,69,92,193,96,130,129,130,15,226,178,79,30,82,51,173,230,175,29,213",10,"669a58f4f17d67c0aba4c4d3","5d4c78071b920f00198e8533","669a5c6f777f0ecd9e7b0369",1,0,0,"false",3,0,"[{""page_index"":0,""viewing_time"":1005.4000000003725}]",1005.90000000037,"","","","","","",NA,NA,"",NA,NA,NA,NA,NA,NA,"",NA,"",NA
"","Guess_leaderboard",28,337201,"0.0-12.0-3.2",NA,20,"74,68,220,21,54,66,4,168,15,232,14,144,57,69,92,193,96,130,129,130,15,226,178,79,30,82,51,173,230,175,29,213",10,"669a58f4f17d67c0aba4c4d3","5d4c78071b920f00198e8533","669a5c6f777f0ecd9e7b0369",1,0,0,"false",3,0,"",NA,"","","","","THIRTY FOUR","",NA,NA,"",1754.79999999981,30,81,2,65,35,"",NA,"",NA
"","instructions",29,338418,"0.0-12.0-0.3",NA,20,"74,68,220,21,54,66,4,168,15,232,14,144,57,69,92,193,96,130,129,130,15,226,178,79,30,82,51,173,230,175,29,213",10,"669a58f4f17d67c0aba4c4d3","5d4c78071b920f00198e8533","669a5c6f777f0ecd9e7b0369",1,0,0,"false",3,0,"[{""page_index"":0,""viewing_time"":1215.699999999255}]",1216.09999999963,"","","","","","",NA,NA,"",NA,NA,NA,NA,NA,NA,"",NA,"",NA
"","Hangman_replay",30,358338,"0.0-12.0-1.3",NA,20,"74,68,220,21,54,66,4,168,15,232,14,144,57,69,92,193,96,130,129,130,15,226,178,79,30,82,51,173,230,175,29,213",10,"669a58f4f17d67c0aba4c4d3","5d4c78071b920f00198e8533","669a5c6f777f0ecd9e7b0369",1,0,0,"false",3,0,"",NA,"","","","","NECTARINE","B,A,N,R,S,T,L,E,C,I",10,12,"false",NA,NA,NA,NA,NA,NA,"",NA,"",NA
"","instructions",31,359334,"0.0-12.0-2.3",NA,20,"74,68,220,21,54,66,4,168,15,232,14,144,57,69,92,193,96,130,129,130,15,226,178,79,30,82,51,173,230,175,29,213",10,"669a58f4f17d67c0aba4c4d3","5d4c78071b920f00198e8533","669a5c6f777f0ecd9e7b0369",1,0,0,"false",3,0,"[{""page_index"":0,""viewing_time"":993.7999999998137}]",994.200000000186,"","","","","","",NA,NA,"",NA,NA,NA,NA,NA,NA,"",NA,"",NA
"","Guess_leaderboard",32,364068,"0.0-12.0-3.3",NA,20,"74,68,220,21,54,66,4,168,15,232,14,144,57,69,92,193,96,130,129,130,15,226,178,79,30,82,51,173,230,175,29,213",10,"669a58f4f17d67c0aba4c4d3","5d4c78071b920f00198e8533","669a5c6f777f0ecd9e7b0369",1,0,0,"false",3,0,"",NA,"","","","","NECTARINE","",NA,NA,"",3974.20000000019,19,33,3,72,53,"",NA,"",NA
"","instructions",33,365601,"0.0-12.0-0.4",NA,20,"74,68,220,21,54,66,4,168,15,232,14,144,57,69,92,193,96,130,129,130,15,226,178,79,30,82,51,173,230,175,29,213",10,"669a58f4f17d67c0aba4c4d3","5d4c78071b920f00198e8533","669a5c6f777f0ecd9e7b0369",1,0,0,"false",3,0,"[{""page_index"":0,""viewing_time"":1530.7999999998137}]",1531.09999999963,"","","","","","",NA,NA,"",NA,NA,NA,NA,NA,NA,"",NA,"",NA
"","Hangman_replay",34,417471,"0.0-12.0-1.4",NA,20,"74,68,220,21,54,66,4,168,15,232,14,144,57,69,92,193,96,130,129,130,15,226,178,79,30,82,51,173,230,175,29,213",10,"669a58f4f17d67c0aba4c4d3","5d4c78071b920f00198e8533","669a5c6f777f0ecd9e7b0369",1,0,0,"false",3,0,"",NA,"","","","","THUMB","A,I,E,O,U,T,R,H,M,B",10,10,"false",NA,NA,NA,NA,NA,NA,"",NA,"",NA
"","instructions",35,419301,"0.0-12.0-2.4",NA,20,"74,68,220,21,54,66,4,168,15,232,14,144,57,69,92,193,96,130,129,130,15,226,178,79,30,82,51,173,230,175,29,213",10,"669a58f4f17d67c0aba4c4d3","5d4c78071b920f00198e8533","669a5c6f777f0ecd9e7b0369",1,0,0,"false",3,0,"[{""page_index"":0,""viewing_time"":1828.0999999996275}]",1828.59999999963,"","","","","","",NA,NA,"",NA,NA,NA,NA,NA,NA,"",NA,"",NA
"","Guess_leaderboard",36,421552,"0.0-12.0-3.4",NA,20,"74,68,220,21,54,66,4,168,15,232,14,144,57,69,92,193,96,130,129,130,15,226,178,79,30,82,51,173,230,175,29,213",10,"669a58f4f17d67c0aba4c4d3","5d4c78071b920f00198e8533","669a5c6f777f0ecd9e7b0369",1,0,0,"false",3,0,"",NA,"","","","","THUMB","",NA,NA,"",1486.5,43,84,4,28,15,"",NA,"",NA
"","survey-text",37,428257,"0.0-13.0",NA,20,"74,68,220,21,54,66,4,168,15,232,14,144,57,69,92,193,96,130,129,130,15,226,178,79,30,82,51,173,230,175,29,213",10,"669a58f4f17d67c0aba4c4d3","5d4c78071b920f00198e8533","669a5c6f777f0ecd9e7b0369",1,0,0,"false",3,0,"",6701.20000000019,"{""Q0"":""thumb""}","","","","","",NA,NA,"",NA,NA,NA,NA,NA,NA,"thumb",NA,"",NA
"","survey-multi-choice",38,436827,"0.0-14.0",NA,20,"74,68,220,21,54,66,4,168,15,232,14,144,57,69,92,193,96,130,129,130,15,226,178,79,30,82,51,173,230,175,29,213",10,"669a58f4f17d67c0aba4c4d3","5d4c78071b920f00198e8533","669a5c6f777f0ecd9e7b0369",1,0,0,"false",3,0,"",8567.89999999944,"{""Q0"":""3. I would be <b>third</b> out of the six of us.""}","[0]","","self-rating","","",NA,NA,"",NA,3,NA,NA,NA,NA,"",NA,"",NA
"","html-slider-response",39,440881,"0.0-15.0",NA,20,"74,68,220,21,54,66,4,168,15,232,14,144,57,69,92,193,96,130,129,130,15,226,178,79,30,82,51,173,230,175,29,213",10,"669a58f4f17d67c0aba4c4d3","5d4c78071b920f00198e8533","669a5c6f777f0ecd9e7b0369",1,0,0,"false",3,0,"",4050.5,"","","","","","",NA,NA,"",NA,NA,NA,NA,NA,NA,"",0,"<p>Overall, how confident were you in your answer to this last question?</p>",0
"","survey-text",40,455174,"0.0-16.0",NA,20,"74,68,220,21,54,66,4,168,15,232,14,144,57,69,92,193,96,130,129,130,15,226,178,79,30,82,51,173,230,175,29,213",10,"669a58f4f17d67c0aba4c4d3","5d4c78071b920f00198e8533","669a5c6f777f0ecd9e7b0369",1,0,0,"false",3,0,"",14289.1999999993,"{""Q0"":""how smart these players are ""}","","","","","",NA,NA,"",NA,NA,NA,NA,NA,NA,"",NA,"",NA
"","survey-text",41,460576,"0.0-17.0",NA,20,"74,68,220,21,54,66,4,168,15,232,14,144,57,69,92,193,96,130,129,130,15,226,178,79,30,82,51,173,230,175,29,213",10,"669a58f4f17d67c0aba4c4d3","5d4c78071b920f00198e8533","669a5c6f777f0ecd9e7b0369",1,0,0,"false",3,0,"",5400.20000000019,"{""Q0"":""no""}","","","","","",NA,NA,"",NA,NA,NA,NA,NA,NA,"",NA,"",NA
"","instructions",42,490071,"0.0-18.0",NA,20,"74,68,220,21,54,66,4,168,15,232,14,144,57,69,92,193,96,130,129,130,15,226,178,79,30,82,51,173,230,175,29,213",10,"669a58f4f17d67c0aba4c4d3","5d4c78071b920f00198e8533","669a5c6f777f0ecd9e7b0369",1,0,0,"false",3,0,"[{""page_index"":0,""viewing_time"":29493.700000000186}]",29494.1000000006,"","","","","","",NA,NA,"",NA,NA,NA,NA,NA,NA,"",NA,"",NA
