[{"success":true,"trial_type":"fullscreen","trial_index":0,"time_elapsed":5483,"internal_node_id":"0.0-0.0","protocol_sum":"","subject_identifier":319,"subject_sum":[255,44,203,107,164,35,211,86,189,84,158,212,191,183,110,150,151,106,13,205,224,90,9,153,106,28,219,159,131,66,46,196],"subject_pair":159,"STUDY_ID":"66a0b3911f23dfc7665bb169","PROLIFIC_PID":"6653b7079f37e7ce5378b3dc","SESSION_ID":"66a14256d19625e8bc0c589f","practice_instructions":1,"leaderboard_instructions":0,"bonus":1,"reveal_word":true,"self_rating":"4","confidence":"46"},{"view_history":"[{\"page_index\":0,\"viewing_time\":8152.199999999255}]","rt":8152.60000000149,"trial_type":"instructions","trial_index":1,"time_elapsed":13637,"internal_node_id":"0.0-1.0","protocol_sum":"","subject_identifier":319,"subject_sum":[255,44,203,107,164,35,211,86,189,84,158,212,191,183,110,150,151,106,13,205,224,90,9,153,106,28,219,159,131,66,46,196],"subject_pair":159,"STUDY_ID":"66a0b3911f23dfc7665bb169","PROLIFIC_PID":"6653b7079f37e7ce5378b3dc","SESSION_ID":"66a14256d19625e8bc0c589f","practice_instructions":1,"leaderboard_instructions":0,"bonus":1,"reveal_word":true,"self_rating":"4","confidence":"46"},{"view_history":"[{\"page_index\":0,\"viewing_time\":27886.699999999255}]","rt":27887,"trial_type":"instructions","trial_index":2,"time_elapsed":41524,"internal_node_id":"0.0-2.0-0.0","protocol_sum":"","subject_identifier":319,"subject_sum":[255,44,203,107,164,35,211,86,189,84,158,212,191,183,110,150,151,106,13,205,224,90,9,153,106,28,219,159,131,66,46,196],"subject_pair":159,"STUDY_ID":"66a0b3911f23dfc7665bb169","PROLIFIC_PID":"6653b7079f37e7ce5378b3dc","SESSION_ID":"66a14256d19625e8bc0c589f","practice_instructions":1,"leaderboard_instructions":0,"bonus":1,"reveal_word":true,"self_rating":"4","confidence":"46"},{"rt":32208.800000000745,"responses":"{\"Q0\":\"... reveal the word with as <b>few letter guesses</b> as possible\"}","question_order":"[0]","trial_type":"survey-multi-choice","trial_index":3,"time_elapsed":73735,"internal_node_id":"0.0-2.0-1.0","protocol_sum":"","subject_identifier":319,"subject_sum":[255,44,203,107,164,35,211,86,189,84,158,212,191,183,110,150,151,106,13,205,224,90,9,153,106,28,219,159,131,66,46,196],"subject_pair":159,"correct":true,"test_part":"multichoice_nonpretend","STUDY_ID":"66a0b3911f23dfc7665bb169","PROLIFIC_PID":"6653b7079f37e7ce5378b3dc","SESSION_ID":"66a14256d19625e8bc0c589f","practice_instructions":1,"leaderboard_instructions":0,"bonus":1,"reveal_word":true,"self_rating":"4","confidence":"46"},{"view_history":"[{\"page_index\":0,\"viewing_time\":3741}]","rt":3741.2999999970198,"trial_type":"instructions","trial_index":4,"time_elapsed":77478,"internal_node_id":"0.0-3.0","protocol_sum":"","subject_identifier":319,"subject_sum":[255,44,203,107,164,35,211,86,189,84,158,212,191,183,110,150,151,106,13,205,224,90,9,153,106,28,219,159,131,66,46,196],"subject_pair":159,"STUDY_ID":"66a0b3911f23dfc7665bb169","PROLIFIC_PID":"6653b7079f37e7ce5378b3dc","SESSION_ID":"66a14256d19625e8bc0c589f","practice_instructions":1,"leaderboard_instructions":0,"bonus":1,"reveal_word":true,"self_rating":"4","confidence":"46"},{"word":"ZEBRA","click_log":{"letter":["","A","E","C","O","S","B","Z","R"],"t":[0,4221.300000000745,8397.10000000149,16358.900000002235,25304.5,29624.5,32679.900000002235,37577.60000000149,40513.800000000745],"hit":[null,1,1,0,0,0,1,1,1],"asked":["","A","AE","AEC","AECO","AECOS","AECOSB","AECOSBZ","AECOSBZR"],"word_state":["_____","____A","_E__A","_E__A","_E__A","_E__A","_EB_A","ZEB_A","ZEBRA"]},"hover_log":{"letter":["?","?","?","?","?","?","?","?","?","?","?","?","?","?","?","?","?","?","?","?","?","?","?","?","?","?","?","?","?","?","?","?","?","?","?","?","?","?","?","?","?","?","?","?","?","?","?","?","?","?","?","?","?","?","?","?","?","?","?","?","?","?","?","?","?","?","?","?","?","?","?","?","?","?","?","?","?","?","?","?","?","?","?","?","?","?","?","?","?","?","?","?","?","?","?","?","?","?","?","?","?","?","?","?","?","?","?","?","?","?","?","?","?","?","?","?","?","?","?","?","?","?","?","?","?","?","?","?","?","?","?","?","?","?","?","?","?","?","?","?","?","?","?","?","?","?","?","?","?","?","?","?","?","?","?","?","?","?","?","?","?","?","?","?","?","?","?","?","?","?","?","?","?","?","?","?","?","?","?","?","?","?","?","?","?","?","?","J","J","J","J","J","J","J","J","J","J","?","?","?","?","?","?","?","?","?","?","?","?","?","?","?","?","?","?","?","?","?","?","?","?","?","?","A","A","A","A","A","A","A","A","A","A","A","A","A","A","A","A","A","A","A","A","A","A","A","A","A","A","A","A","A","A","A","A","A","A","A","A","A","A","A","A","A","A","A","A","A","A","A","A","A","A","A","A","A","A","A","A","A","A","A","A","A","A","A","A","A","A","A","A","A","A","A","A","A","A","A","A","A","A","A","A","A","A","A","A","A","A","A","A","A","A","A","A","A","A","A","A","A","A","A","A","A","A","A","A","A","A","A","A","A","A","A","A","A","A","A","A","A","A","A","A","A","A","A","A","A","A","A","A","A","A","A","A","A","A","A","A","A","A","A","A","A","A","A","A","A","A","A","A","A","A","A","A","A","A","A","A","A","A","A","A","A","A","?","?","?","?","?","?","?","?","?","?","?","?","?","?","?","?","?","?","?","?","?","?","?","?","?","?","?","?","?","?","?","?","?","?","?","?","?","?","?","?","?","?","?","?","?","?","?","?","?","?","?","?","?","?","?","?","?","?","?","?","?","?","?","?","?","?","?","?","?","?","?","?","?","?","?","?","?","?","?","D","D","D","D","?","?","?","?","?","?","?","E","E","E","E","E","E","E","E","E","E","E","E","E","E","E","E","E","E","E","E","E","E","E","E","E","E","E","E","E","E","E","E","E","E","E","E","E","E","E","E","E","E","E","E","E","E","E","E","E","E","E","E","E","E","E","E","E","E","E","E","E","E","E","E","E","E","E","E","E","E","E","E","E","E","E","E","E","E","E","E","E","E","E","E","E","E","E","E","E","E","E","E","E","E","E","E","E","E","E","?","?","?","?","?","?","?","?","?","?","?","?","?","?","?","?","?","?","?","?","?","?","?","?","?","?","?","?","?","?","?","?","?","?","?","?","?","?","?","?","?","?","?","?","?","?","?","?","?","?","?","?","?","?","?","?","?","?","?","?","?","?","?","?","?","?","?","?","?","?","?","?","?","?","?","?","?","?","?","?","?","?","?","?","?","?","?","?","?","?","?","?","?","?","?","?","?","?","?","?","?","?","?","?","?","?","?","?","?","?","?","?","?","?","?","?","?","?","?","?","?","?","?","?","?","?","?","?","?","?","?","?","?","?","?","?","?","?","?","?","?","?","?","?","?","?","?","?","?","?","?","?","?","?","?","?","?","?","?","?","?","?","?","?","?","?","?","?","?","?","?","?","?","?","?","?","?","?","?","?","?","?","?","?","?","?","?","?","?","?","?","?","?","?","?","?","?","?","?","?","?","?","?","?","?","?","?","?","?","?","?","?","?","?","?","?","?","?","?","?","?","?","?","?","?","?","?","?","?","?","?","?","?","?","?","?","?","?","?","?","?","?","?","?","?","?","?","?","?","?","?","?","?","?","?","?","?","?","?","?","?","?","?","?","?","?","?","?","?","?","?","?","?","?","?","?","?","?","?","?","?","?","?","?","?","?","?","?","?","?","?","?","?","?","?","?","?","?","?","?","?","?","?","?","?","?","?","?","?","?","?","?","?","?","?","?","?","?","?","?","?","?","?","?","?","?","?","?","?","?","?","?","?","?","?","?","?","?","?","?","?","?","?","?","?","?","?","?","?","?","?","?","?","?","?","?","?","?","?","?","?","?","?","?","?","?","?","?","?","?","?","?","?","?","?","?","?","?","C","C","C","C","C","C","C","C","C","C","C","C","C","C","C","C","C","C","C","C","C","C","C","C","C","C","C","C","C","C","C","C","C","C","C","C","C","C","C","C","C","C","C","C","C","C","C","C","C","C","C","C","C","C","C","C","C","C","C","C","C","C","C","C","C","C","C","C","C","C","C","C","C","C","C","C","C","C","C","C","C","C","C","C","C","C","C","C","C","C","C","C","C","C","C","C","C","C","C","C","C","C","C","C","C","C","C","C","C","?","?","?","?","?","?","?","?","?","?","?","?","?","?","?","?","?","?","?","?","?","?","?","?","?","?","?","?","?","?","?","?","?","?","?","?","?","?","?","?","?","?","?","?","?","?","?","?","?","?","?","?","?","?","?","?","?","?","?","?","?","?","?","?","?","?","?","?","?","?","?","?","?","?","?","?","?","?","?","?","L","L","L","L","L","L","L","L","L","L","L","L","L","L","?","?","?","?","?","?","?","?","?","?","?","?","?","?","?","?","?","?","?","?","M","M","M","M","M","M","M","M","M","M","M","M","M","M","M","M","M","M","M","M","M","M","M","M","M","M","M","M","M","M","M","M","M","M","M","M","M","M","M","M","M","M","M","M","M","M","M","M","M","M","M","M","M","?","?","?","?","?","?","?","?","?","?","?","?","?","?","?","?","?","?","?","?","?","?","?","?","?","?","?","?","?","?","?","?","?","?","?","?","?","?","?","?","?","?","?","?","?","?","?","?","?","?","?","?","?","?","?","?","?","?","?","?","?","?","?","?","?","?","?","?","?","?","?","?","?","?","?","?","?","?","?","?","?","?","?","?","?","?","?","?","?","?","?","?","?","?","?","?","?","?","?","?","?","?","?","?","?","?","?","?","?","?","?","?","?","?","?","?","?","?","?","?","?","?","?","?","?","?","?","?","?","?","?","?","?","?","?","?","?","?","?","?","?","?","?","?","?","?","?","?","?","?","?","?","?","?","?","?","?","?","?","?","?","?","?","?","?","?","?","?","?","?","?","?","?","?","?","?","?","?","?","?","?","?","?","?","?","?","?","?","?","?","?","?","?","?","?","?","?","?","?","?","?","?","?","?","?","?","?","?","N","N","N","N","N","N","N","N","N","N","N","N","N","N","N","N","N","N","N","N","N","N","N","N","N","N","N","N","N","N","N","N","N","N","N","N","?","?","?","?","?","?","?","?","?","?","?","?","?","?","?","O","O","O","O","O","O","O","O","O","O","O","O","O","O","O","O","O","O","O","O","O","O","O","O","O","O","O","O","O","O","O","O","O","O","O","O","O","O","O","O","O","O","O","O","O","O","O","O","O","O","O","O","O","O","O","O","O","O","O","O","O","O","O","O","O","O","O","O","O","O","O","O","O","O","O","O","O","O","O","O","O","O","O","O","O","O","O","O","O","O","O","O","O","O","O","O","O","O","O","O","O","O","?","?","?","?","?","?","?","?","?","?","?","?","?","?","?","?","?","?","?","?","?","?","?","?","?","?","?","?","?","?","?","?","N","N","N","N","N","N","N","N","N","N","N","N","N","N","N","N","N","N","N","N","N","N","N","N","N","N","N","N","N","N","N","N","N","N","N","N","N","N","N","N","N","N","N","N","N","N","N","N","N","N","N","N","N","N","N","N","N","N","N","N","N","N","?","?","M","M","M","M","M","M","M","M","M","?","?","?","?","?","?","?","?","?","?","?","?","?","?","?","?","?","?","?","?","?","?","?","?","?","?","?","?","?","?","?","?","?","?","?","?","?","?","?","?","?","?","?","?","?","?","?","?","?","?","T","T","T","T","T","T","T","T","T","?","?","S","S","S","S","S","S","S","S","S","S","S","S","S","S","S","S","S","S","S","S","S","S","S","S","S","S","S","S","S","S","S","S","S","S","S","S","S","S","S","S","S","S","S","S","S","S","S","S","S","S","S","S","S","S","S","S","S","S","S","S","S","S","S","S","S","S","S","S","S","S","S","S","S","S","S","S","S","S","S","S","S","S","S","S","S","S","S","S","S","S","S","S","S","S","S","S","S","S","S","S","S","S","S","S","?","?","?","?","?","?","?","?","?","?","?","?","?","?","?","?","?","?","?","?","?","?","J","J","J","J","J","J","J","J","J","J","J","J","J","J","J","J","J","J","J","J","J","J","J","J","J","J","J","J","J","J","J","J","J","J","J","J","?","?","?","?","?","?","?","?","?","?","?","?","?","?","?","?","?","?","?","B","B","B","B","B","B","B","B","B","B","B","B","B","B","B","B","B","B","B","B","B","B","B","B","B","B","B","B","B","B","B","B","B","B","B","B","B","B","B","B","B","B","B","B","B","B","B","B","B","B","B","B","B","B","B","B","B","B","B","B","B","B","B","B","B","B","B","B","B","B","B","B","B","B","B","B","B","B","B","B","B","B","B","B","B","B","B","B","B","B","B","B","B","B","B","B","B","B","B","B","B","B","B","B","B","B","B","B","B","B","B","B","B","B","B","B","B","B","B","B","B","B","B","B","B","B","B","B","B","B","B","B","B","B","B","B","B","B","B","B","B","B","B","B","B","B","B","B","B","B","B","B","B","B","B","B","B","B","B","B","B","B","B","B","B","B","B","B","B","B","B","B","B","B","B","B","B","B","B","B","B","B","B","B","B","B","B","B","B","B","B","B","B","B","B","B","?","?","?","?","?","?","?","L","L","L","?","?","M","M","M","M","M","M","M","?","?","?","?","?","?","?","?","?","?","?","?","?","?","?","?","?","?","?","?","?","?","?","?","?","?","?","?","?","?","?","?","?","?","?","?","?","?","W","W","W","W","X","X","X","?","?","Y","Y","Y","Y","Y","Y","Y","Y","Y","Y","Y","Y","Y","Y","Y","?","?","?","?","?","?","?","?","?","?","Z","Z","Z","Z","Z","Z","Z","Z","Z","Z","Z","Z","Z","Z","Z","Z","Z","Z","Z","Z","Z","Z","Z","Z","Z","Z","Z","Z","Z","Z","Z","Z","Z","Z","Z","Z","Z","Z","Z","Z","Z","Z","Z","Z","Z","Z","Z","Z","Z","Z","Z","Z","Z","Z","Z","Z","Z","Z","Z","Z","Z","?","?","?","?","?","?","?","?","?","?","?","?","?","?","?","?","?","?","?","?","?","?","?","?","P","P","?","?","?","?","?","?","O","O","O","O","O","O","O","O","O","O","O","O","O","O","O","O","O","O","O","O","O","O","?","N","N","N","N","N","N","N","N","N","N","N","N","N","N","N","N","N","N","N","N","N","N","?","?","O","O","O","?","?","P","P","P","?","?","?","?","?","?","?","?","?","?","?","?","?","?","?","?","?","?","?","?","Q","Q","Q","Q","Q","Q","Q","Q","Q","Q","Q","?","R","R","R","R","R","R","R","R","R","R","R","R","R","R","R","R","R","R","R","R","R","R","R","R","R","R","R","R","R","R","R","R","R","R","R","R","R","R","R","R","R","R","R","R","R","R","R","R","R","R","R","R","?","?","?","?","?","?","?","?","?","Q","Q","Q","Q","Q","Q","Q","Q","Q","Q","Q","Q","Q","Q","Q","Q","Q","Q","Q","Q","Q","Q","Q","Q","Q","Q","Q","Q","Q","Q","Q","Q","Q","Q","Q","Q","Q","Q","Q","Q","Q","Q","?","?","?","?","?","?","?","?","?","?","?","P","P","P","P","P","P","P","P","P","P","P","P","P","P","P","P","P","P","P","P","P","P","P","P","P","P","P","P","P","P","P","P"],"t":[26,71,98,115,132,149,166,197,201,214,233,250,265,283,298,317,333,349,365,382,399,416,432,449,466,481,498,515,531,549,564,581,597,614,632,648,665,681,698,714,731,748,765,782,799,814,832,850,865,882,899,916,931,947,964,980,998,1015,1031,1048,1064,1080,1097,1114,1131,1148,1165,1182,1199,1214,1233,1249,1266,1282,1298,1316,1331,1348,1364,1381,1398,1416,1431,1448,1465,1480,1499,1513,1532,1547,1564,1582,1596,1614,1629,1647,1663,1680,1697,1714,1729,1747,1763,1781,1796,1812,1830,1846,1864,1880,1896,1912,1930,1948,1962,1980,1996,2013,2030,2046,2063,2079,2096,2113,2130,2145,2163,2180,2196,2213,2230,2246,2262,2280,2296,2312,2329,2346,2363,2379,2396,2413,2430,2446,2463,2478,2495,2513,2529,2546,2562,2579,2596,2612,2630,2646,2662,2679,2697,2713,2729,2747,2763,2783,2796,2817,2829,2848,2863,2879,2899,2913,2929,2946,2962,2978,2995,3012,3028,3046,3062,3079,3097,3113,3132,3146,3165,3186,3198,3212,3232,3246,3264,3279,3296,3314,3329,3345,3362,3379,3395,3412,3430,3445,3463,3478,3496,3512,3529,3547,3562,3579,3595,3612,3629,3646,3662,3679,3695,3713,3729,3746,3763,3779,3795,3812,3829,3846,3862,3879,3896,3913,3929,3945,3962,3978,3995,4012,4030,4045,4062,4078,4097,4113,4130,4147,4163,4180,4197,4213,4230,4245,4262,4280,4296,4313,4330,4346,4363,4379,4396,4412,4430,4446,4462,4479,4497,4513,4528,4545,4562,4580,4595,4613,4629,4646,4662,4680,4696,4713,4728,4746,4761,4779,4796,4814,4831,4850,4864,4882,4898,4914,4928,4946,4963,4980,4996,5011,5030,5045,5062,5078,5096,5113,5129,5145,5163,5180,5196,5211,5229,5246,5262,5278,5294,5312,5330,5345,5363,5379,5396,5413,5429,5445,5462,5478,5494,5513,5528,5545,5563,5577,5596,5612,5630,5645,5662,5679,5695,5712,5728,5745,5762,5779,5795,5812,5828,5844,5862,5879,5895,5913,5928,5943,5962,5981,5995,6014,6031,6046,6065,6079,6097,6116,6130,6147,6165,6180,6194,6211,6227,6245,6261,6278,6294,6312,6328,6344,6360,6377,6393,6410,6428,6446,6461,6479,6495,6512,6529,6545,6560,6579,6594,6611,6628,6644,6662,6677,6694,6710,6728,6743,6760,6775,6793,6811,6827,6842,6861,6878,6894,6911,6928,6942,6959,6978,6994,7011,7028,7044,7062,7079,7095,7113,7129,7148,7160,7178,7193,7210,7225,7244,7260,7277,7293,7311,7326,7344,7359,7376,7393,7411,7425,7443,7459,7477,7494,7509,7528,7543,7561,7577,7594,7610,7627,7643,7661,7677,7694,7708,7728,7743,7760,7775,7794,7809,7826,7844,7859,7877,7893,7910,7926,7946,7961,7977,7995,8013,8028,8046,8061,8077,8093,8110,8127,8143,8158,8175,8193,8210,8227,8245,8264,8277,8294,8311,8329,8344,8362,8378,8395,8412,8428,8444,8459,8476,8494,8509,8527,8544,8562,8575,8593,8610,8627,8644,8660,8678,8692,8708,8725,8743,8758,8775,8792,8808,8826,8842,8858,8877,8892,8910,8924,8943,8958,8975,8992,9010,9025,9043,9060,9075,9092,9108,9126,9144,9158,9174,9192,9208,9225,9244,9258,9277,9293,9309,9330,9342,9361,9377,9394,9410,9428,9442,9459,9474,9492,9509,9525,9544,9559,9577,9596,9610,9628,9643,9661,9675,9693,9709,9725,9742,9759,9775,9792,9808,9827,9844,9858,9876,9893,9910,9927,9941,9959,9975,9993,10009,10025,10044,10057,10075,10091,10109,10125,10141,10157,10174,10193,10209,10226,10243,10258,10275,10292,10310,10325,10341,10358,10375,10392,10408,10425,10442,10458,10474,10492,10508,10526,10542,10558,10575,10592,10608,10624,10641,10658,10675,10694,10709,10728,10743,10759,10777,10794,10809,10825,10843,10860,10877,10892,10908,10926,10943,10958,10975,10993,11009,11026,11043,11060,11074,11091,11108,11124,11141,11157,11173,11191,11209,11226,11242,11257,11276,11293,11308,11324,11341,11358,11373,11389,11406,11422,11440,11458,11474,11492,11507,11524,11542,11557,11572,11590,11606,11623,11641,11656,11672,11690,11705,11723,11742,11757,11773,11791,11806,11822,11839,11855,11873,11890,11908,11924,11940,11957,11974,11991,12007,12024,12040,12056,12073,12089,12106,12124,12139,12157,12173,12190,12206,12224,12240,12257,12275,12290,12308,12324,12341,12356,12373,12390,12407,12424,12441,12456,12474,12490,12507,12522,12541,12557,12574,12590,12606,12623,12638,12655,12673,12689,12706,12723,12739,12756,12773,12789,12807,12823,12840,12856,12873,12889,12906,12922,12940,12956,12972,12989,13006,13023,13040,13056,13074,13089,13106,13122,13139,13156,13172,13189,13205,13224,13240,13256,13273,13289,13307,13323,13341,13356,13373,13390,13405,13423,13439,13456,13473,13489,13506,13522,13540,13556,13573,13589,13606,13623,13640,13656,13672,13689,13705,13722,13739,13756,13773,13789,13806,13822,13839,13855,13872,13889,13906,13923,13938,13956,13971,13989,14005,14022,14039,14056,14073,14088,14106,14122,14138,14154,14172,14189,14203,14223,14238,14255,14272,14289,14305,14323,14338,14354,14372,14389,14404,14422,14438,14454,14473,14488,14505,14521,14539,14556,14573,14589,14604,14622,14638,14654,14672,14688,14706,14722,14739,14755,14772,14789,14805,14822,14839,14857,14872,14889,14906,14923,14939,14955,14972,14988,15005,15022,15039,15055,15071,15089,15105,15122,15137,15154,15172,15189,15205,15221,15238,15255,15272,15289,15304,15322,15338,15356,15372,15388,15405,15421,15438,15454,15471,15487,15505,15521,15538,15555,15570,15587,15603,15620,15638,15654,15671,15688,15705,15721,15738,15754,15772,15787,15805,15821,15837,15853,15871,15887,15904,15920,15937,15954,15971,15987,16004,16020,16037,16055,16070,16088,16103,16120,16137,16154,16170,16187,16204,16221,16241,16254,16269,16287,16304,16321,16336,16353,16371,16386,16404,16420,16437,16453,16470,16487,16505,16520,16537,16554,16571,16587,16604,16621,16639,16654,16671,16690,16704,16721,16736,16753,16771,16787,16804,16820,16839,16853,16870,16888,16905,16921,16938,16955,16970,16987,17003,17021,17037,17053,17071,17087,17103,17120,17138,17154,17172,17187,17203,17220,17237,17252,17269,17286,17303,17319,17337,17353,17370,17386,17403,17420,17437,17452,17470,17487,17503,17520,17537,17553,17570,17586,17603,17621,17636,17652,17669,17685,17704,17720,17736,17753,17770,17786,17803,17819,17838,17855,17872,17888,17903,17922,17937,17955,17970,17987,18003,18020,18035,18052,18069,18086,18102,18120,18136,18152,18169,18186,18202,18221,18238,18253,18271,18287,18304,18320,18336,18352,18370,18386,18402,18419,18436,18452,18470,18487,18503,18520,18536,18552,18569,18585,18602,18621,18637,18653,18671,18685,18703,18719,18735,18752,18769,18786,18802,18820,18834,18852,18869,18886,18902,18920,18936,18952,18970,18986,19001,19019,19037,19052,19071,19085,19101,19117,19135,19152,19169,19186,19201,19218,19236,19251,19269,19284,19301,19318,19336,19351,19369,19386,19402,19420,19435,19452,19469,19486,19503,19519,19536,19552,19569,19585,19602,19619,19634,19652,19668,19684,19700,19719,19736,19752,19769,19784,19802,19817,19835,19850,19869,19885,19901,19918,19934,19950,19968,19986,20002,20018,20035,20050,20068,20084,20103,20119,20136,20153,20168,20186,20203,20216,20234,20250,20268,20284,20301,20318,20334,20350,20368,20383,20401,20418,20434,20450,20469,20486,20501,20520,20534,20552,20567,20584,20600,20618,20635,20650,20669,20683,20700,20717,20733,20749,20766,20783,20801,20818,20833,20850,20868,20884,20900,20917,20933,20950,20967,20983,20999,21018,21033,21049,21066,21083,21099,21116,21133,21149,21166,21183,21200,21217,21233,21250,21268,21283,21301,21317,21332,21350,21366,21383,21400,21416,21433,21449,21466,21486,21499,21517,21533,21550,21567,21583,21602,21619,21635,21651,21668,21684,21700,21716,21733,21750,21767,21783,21799,21816,21833,21849,21867,21883,21900,21917,21932,21949,21966,21983,22000,22017,22034,22050,22066,22084,22099,22115,22132,22149,22165,22183,22199,22215,22233,22249,22265,22283,22300,22315,22332,22349,22365,22382,22399,22415,22432,22449,22466,22482,22498,22516,22532,22548,22566,22582,22599,22615,22632,22648,22665,22682,22698,22715,22732,22749,22765,22782,22799,22815,22832,22849,22865,22881,22898,22916,22932,22948,22965,22982,22998,23015,23032,23048,23065,23082,23098,23115,23132,23148,23165,23182,23198,23215,23232,23249,23265,23282,23298,23315,23332,23348,23365,23382,23399,23414,23431,23448,23465,23483,23499,23516,23532,23549,23565,23582,23597,23615,23632,23648,23664,23681,23698,23715,23732,23748,23765,23782,23798,23815,23832,23849,23865,23881,23898,23915,23932,23948,23965,23983,24000,24015,24033,24049,24065,24083,24098,24115,24132,24147,24166,24181,24199,24215,24231,24247,24265,24282,24298,24315,24331,24349,24365,24383,24398,24416,24432,24450,24466,24481,24497,24515,24531,24549,24564,24581,24598,24615,24632,24648,24665,24682,24697,24715,24734,24750,24767,24781,24799,24814,24832,24848,24864,24881,24898,24914,24931,24947,24964,24982,24999,25015,25032,25047,25065,25082,25098,25114,25132,25148,25165,25182,25197,25214,25232,25249,25265,25281,25299,25314,25332,25348,25364,25382,25398,25415,25432,25448,25465,25482,25498,25515,25532,25548,25566,25581,25598,25614,25630,25647,25663,25681,25698,25714,25730,25747,25763,25780,25799,25814,25832,25847,25863,25880,25896,25914,25931,25948,25964,25981,25997,26014,26031,26047,26064,26080,26098,26115,26131,26147,26165,26180,26198,26214,26231,26248,26264,26281,26297,26314,26331,26347,26365,26381,26397,26413,26430,26447,26463,26481,26498,26514,26530,26548,26563,26580,26597,26614,26631,26646,26664,26680,26697,26713,26730,26748,26763,26781,26797,26814,26831,26847,26863,26880,26897,26914,26931,26947,26964,26979,26997,27013,27029,27048,27063,27080,27097,27114,27131,27147,27163,27180,27196,27213,27231,27249,27264,27282,27298,27316,27332,27348,27364,27380,27397,27413,27430,27447,27464,27481,27498,27514,27531,27548,27564,27582,27598,27615,27631,27648,27665,27681,27698,27714,27731,27745,27763,27779,27796,27813,27829,27847,27862,27880,27895,27912,27929,27946,27963,27980,27997,28013,28030,28046,28062,28079,28095,28114,28129,28147,28162,28179,28195,28213,28229,28246,28264,28279,28296,28313,28330,28346,28363,28379,28396,28414,28429,28445,28463,28479,28497,28512,28530,28546,28563,28578,28595,28612,28629,28646,28663,28681,28696,28713,28730,28745,28763,28780,28797,28813,28830,28847,28862,28881,28895,28913,28929,28947,28962,28979,28995,29013,29030,29046,29063,29079,29096,29112,29128,29146,29164,29181,29196,29213,29229,29246,29262,29279,29295,29312,29331,29345,29363,29378,29395,29412,29429,29447,29462,29480,29497,29514,29531,29546,29564,29581,29597,29614,29629,29645,29662,29679,29694,29714,29729,29747,29762,29780,29796,29812,29830,29845,29864,29879,29897,29912,29929,29946,29962,29977,29994,30011,30029,30047,30062,30079,30097,30111,30130,30145,30162,30179,30195,30211,30229,30246,30262,30279,30294,30311,30328,30345,30364,30379,30396,30412,30430,30446,30462,30479,30495,30514,30529,30546,30562,30580,30595,30612,30631,30646,30665,30679,30698,30715,30730,30745,30763,30780,30794,30812,30827,30846,30861,30881,30896,30914,30930,30945,30964,30982,30998,31014,31030,31047,31064,31080,31095,31114,31129,31145,31163,31178,31194,31210,31230,31246,31263,31279,31295,31314,31331,31346,31364,31378,31393,31412,31426,31443,31462,31478,31494,31514,31529,31547,31563,31580,31595,31613,31627,31645,31662,31677,31693,31712,31726,31745,31761,31777,31795,31813,31828,31844,31862,31878,31893,31912,31929,31944,31961,31977,31997,32011,32031,32046,32063,32078,32094,32110,32128,32144,32160,32177,32194,32211,32229,32244,32259,32277,32294,32311,32328,32344,32360,32380,32395,32414,32427,32445,32462,32479,32495,32511,32529,32543,32561,32577,32591,32608,32627,32643,32660,32675,32692,32711,32726,32745,32759,32777,32795,32810,32827,32843,32860,32878,32894,32910,32928,32944,32959,32978,32995,33013,33028,33044,33060,33078,33096,33110,33127,33143,33159,33176,33194,33209,33227,33243,33262,33279,33294,33311,33328,33345,33361,33376,33393,33410,33427,33443,33460,33476,33493,33510,33526,33544,33560,33577,33592,33609,33628,33643,33660,33676,33694,33709,33726,33742,33759,33774,33791,33808,33825,33841,33857,33875,33891,33909,33926,33942,33959,33975,33991,34007,34024,34041,34057,34074,34091,34108,34124,34141,34157,34175,34191,34208,34228,34240,34258,34276,34292,34308,34325,34341,34358,34375,34390,34407,34424,34441,34457,34474,34491,34507,34523,34541,34557,34574,34591,34608,34624,34641,34657,34674,34691,34707,34723,34740,34757,34773,34790,34807,34824,34839,34856,34873,34891,34907,34923,34941,34957,34973,34991,35008,35026,35042,35058,35075,35092,35109,35124,35141,35158,35175,35192,35206,35224,35242,35259,35275,35292,35309,35325,35340,35358,35377,35391,35408,35425,35442,35458,35474,35492,35508,35524,35541,35559,35574,35591,35607,35623,35644,35659,35677,35692,35710,35725,35744,35758,35774,35791,35808,35825,35842,35858,35875,35890,35907,35923,35941,35957,35975,35991,36007,36023,36041,36057,36074,36091,36108,36125,36141,36157,36173,36192,36206,36223,36239,36257,36273,36289,36306,36322,36339,36356,36372,36390,36406,36423,36440,36455,36473,36489,36507,36524,36540,36556,36573,36590,36607,36624,36639,36656,36673,36689,36705,36722,36740,36756,36774,36791,36808,36824,36841,36855,36874,36893,36907,36927,36943,36961,36976,36992,37011,37025,37041,37063,37075,37096,37126,37140,37156,37174,37190,37206,37224,37238,37256,37273,37290,37306,37323,37340,37357,37373,37390,37407,37423,37439,37455,37473,37489,37507,37523,37540,37556,37573,37588,37607,37623,37639,37657,37672,37690,37706,37724,37738,37756,37772,37788,37806,37823,37840,37857,37872,37890,37905,37922,37939,37956,37972,37988,38006,38022,38038,38055,38072,38089,38105,38121,38138,38156,38173,38189,38205,38222,38239,38257,38272,38289,38305,38321,38340,38355,38372,38387,38406,38422,38439,38454,38473,38488,38504,38522,38539,38555,38572,38588,38605,38621,38639,38655,38672,38689,38706,38722,38739,38755,38772,38790,38804,38822,38839,38854,38872,38889,38905,38921,38938,38956,38971,38988,39005,39021,39037,39055,39072,39090,39105,39122,39138,39155,39172,39189,39205,39222,39239,39255,39271,39288,39305,39321,39338,39355,39372,39389,39405,39422,39439,39455,39471,39488,39504,39521,39537,39555,39571,39588,39604,39621,39639,39655,39671,39688,39705,39720,39737,39754,39770,39789,39804,39822,39838,39854,39871,39889,39905,39921,39939,39953,39972,39988,40005,40021,40038,40054,40072,40088,40103,40121,40138,40153,40171,40188,40204,40220,40238,40254,40271,40287,40305,40321,40337,40353,40371,40386,40404,40420,40439,40454,40471,40487,40504,40528,40537,40554,40571,40588,40604,40622,40636,40654,40670,40687,40704,40721,40738,40753,40770,40787,40804,40820,40837,40854,40872,40887,40905,40921,40938,40953,40970,40988,41005,41019,41036,41056,41070,41086,41103,41120,41137,41153,41169,41187,41204,41221,41236,41254,41270,41287,41304,41321,41337,41353,41369,41387,41405,41420,41436,41455,41469,41486,41503,41520,41537,41553,41570,41587,41603,41619,41636,41652,41669,41686,41703,41721,41737,41754,41770,41787,41804,41820,41837,41852,41869,41887,41902,41919,41938,41953,41969,41985,42003,42019,42036,42053,42070,42087,42103,42119,42136,42154,42169,42187,42202,42221,42236,42252,42268,42288,42302,42319,42336,42352,42369,42386,42403,42419,42436,42453,42469,42486,42503,42522],"hit":[null],"x":[-1.8775510204081634,-1.8775510204081634,-1.8775510204081634,-1.8775510204081634,-0.08163265306122448,-0.08163265306122448,-0.08163265306122448,-0.08163265306122448,-0.08163265306122448,-0.08163265306122448,-0.08163265306122448,-0.08163265306122448,-0.08163265306122448,-0.08163265306122448,-0.08163265306122448,-0.08163265306122448,-0.08163265306122448,-0.08163265306122448,-0.08163265306122448,-0.08163265306122448,-0.08163265306122448,-0.08163265306122448,-0.08503401360544217,-0.08503401360544217,-0.08503401360544217,-0.08503401360544217,-0.08503401360544217,-0.08503401360544217,-0.08503401360544217,-0.08503401360544217,-0.08503401360544217,-0.08503401360544217,-0.08843537414965986,-0.08843537414965986,-0.08843537414965986,-0.08843537414965986,-0.08843537414965986,-0.08843537414965986,-0.08843537414965986,-0.08843537414965986,-0.08843537414965986,-0.09183673469387756,-0.09183673469387756,-0.09183673469387756,-0.09183673469387756,-0.09183673469387756,-0.09183673469387756,-0.09183673469387756,-0.09183673469387756,-0.09183673469387756,-0.09183673469387756,-0.09183673469387756,-0.09183673469387756,-0.09183673469387756,-0.09183673469387756,-0.09183673469387756,-0.09183673469387756,-0.09183673469387756,-0.09183673469387756,-0.09183673469387756,-0.09183673469387756,-0.09183673469387756,-0.09183673469387756,-0.09183673469387756,-0.09183673469387756,-0.09183673469387756,-0.09183673469387756,-0.09183673469387756,-0.09183673469387756,-0.09183673469387756,-0.09183673469387756,-0.09183673469387756,-0.09183673469387756,-0.09183673469387756,-0.09183673469387756,-0.09183673469387756,-0.09183673469387756,-0.09183673469387756,-0.09183673469387756,-0.09183673469387756,-0.09183673469387756,-0.09183673469387756,-0.09183673469387756,-0.09183673469387756,-0.09183673469387756,-0.09183673469387756,-0.09183673469387756,-0.09183673469387756,-0.09183673469387756,-0.09523809523809523,-0.09523809523809523,-0.09523809523809523,-0.09523809523809523,-0.09523809523809523,-0.09523809523809523,-0.09523809523809523,-0.09523809523809523,-0.09523809523809523,-0.09523809523809523,-0.09523809523809523,-0.09523809523809523,-0.09523809523809523,-0.09523809523809523,-0.09523809523809523,-0.09523809523809523,-0.09523809523809523,-0.09523809523809523,-0.09523809523809523,-0.09523809523809523,-0.09523809523809523,-0.09523809523809523,-0.09523809523809523,-0.09523809523809523,-0.09523809523809523,-0.09523809523809523,-0.09523809523809523,-0.09523809523809523,-0.09523809523809523,-0.09523809523809523,-0.09523809523809523,-0.09523809523809523,-0.09523809523809523,-0.09523809523809523,-0.09523809523809523,-0.09523809523809523,-0.09523809523809523,-0.09523809523809523,-0.09523809523809523,-0.09523809523809523,-0.09523809523809523,-0.09523809523809523,-0.09523809523809523,-0.09523809523809523,-0.09523809523809523,-0.09523809523809523,-0.09523809523809523,-0.09523809523809523,-0.09523809523809523,-0.09523809523809523,-0.09523809523809523,-0.09523809523809523,-0.09523809523809523,-0.09523809523809523,-0.09523809523809523,-0.09523809523809523,-0.09523809523809523,-0.09523809523809523,-0.09523809523809523,-0.09523809523809523,-0.09523809523809523,-0.09523809523809523,-0.09523809523809523,-0.09523809523809523,-0.09523809523809523,-0.09523809523809523,-0.09523809523809523,-0.09523809523809523,-0.09523809523809523,-0.09523809523809523,-0.09523809523809523,-0.09523809523809523,-0.09183673469387756,-0.09183673469387756,-0.08843537414965986,-0.08503401360544217,-0.0782312925170068,-0.07482993197278912,-0.07142857142857142,-0.06802721088435375,-0.06802721088435375,-0.06802721088435375,-0.06802721088435375,-0.06462585034013606,-0.06462585034013606,-0.06462585034013606,-0.061224489795918366,-0.061224489795918366,-0.05782312925170068,-0.05782312925170068,-0.05442176870748299,-0.05442176870748299,-0.05442176870748299,-0.05102040816326531,-0.047619047619047616,-0.04081632653061224,-0.03741496598639456,-0.030612244897959183,-0.02040816326530612,-0.017006802721088437,0,0.003401360544217687,0.017006802721088437,0.02040816326530612,0.034013605442176874,0.04081632653061224,0.04421768707482993,0.04421768707482993,0.047619047619047616,0.047619047619047616,0.05102040816326531,0.05102040816326531,0.05102040816326531,0.05102040816326531,0.05102040816326531,0.05442176870748299,0.05442176870748299,0.05442176870748299,0.05782312925170068,0.05782312925170068,0.05782312925170068,0.05782312925170068,0.05782312925170068,0.05442176870748299,0.05442176870748299,0.05442176870748299,0.05442176870748299,0.05442176870748299,0.05442176870748299,0.05442176870748299,0.05442176870748299,0.05442176870748299,0.05102040816326531,0.05102040816326531,0.04421768707482993,0.03741496598639456,0.030612244897959183,0.02040816326530612,0.02040816326530612,0.02040816326530612,0.02040816326530612,0.02040816326530612,0.02040816326530612,0.02040816326530612,0.02040816326530612,0.02040816326530612,0.017006802721088437,0.017006802721088437,0.013605442176870748,0.013605442176870748,0.013605442176870748,0.013605442176870748,0.013605442176870748,0.013605442176870748,0.013605442176870748,0.013605442176870748,0.013605442176870748,0.013605442176870748,0.013605442176870748,0.013605442176870748,0.013605442176870748,0.013605442176870748,0.013605442176870748,0.013605442176870748,0.013605442176870748,0.013605442176870748,0.013605442176870748,0.013605442176870748,0.013605442176870748,0.01020408163265306,0.01020408163265306,0.01020408163265306,0.01020408163265306,0.01020408163265306,0.01020408163265306,0.01020408163265306,0.01020408163265306,0.01020408163265306,0.01020408163265306,0.01020408163265306,0.01020408163265306,0.006802721088435374,0.006802721088435374,0.006802721088435374,0.006802721088435374,0.006802721088435374,0.006802721088435374,0.006802721088435374,0.006802721088435374,0.006802721088435374,0.003401360544217687,0.003401360544217687,0.003401360544217687,0.003401360544217687,0.003401360544217687,0.003401360544217687,0,0,0,0,0,0,0,0,0,0,0,0,0,0,0,0,0,-0.003401360544217687,-0.003401360544217687,-0.003401360544217687,-0.003401360544217687,-0.003401360544217687,-0.003401360544217687,-0.003401360544217687,-0.003401360544217687,-0.003401360544217687,-0.003401360544217687,-0.003401360544217687,-0.003401360544217687,-0.003401360544217687,-0.003401360544217687,-0.003401360544217687,-0.003401360544217687,-0.003401360544217687,-0.003401360544217687,-0.003401360544217687,-0.003401360544217687,-0.003401360544217687,-0.003401360544217687,-0.003401360544217687,-0.003401360544217687,-0.003401360544217687,-0.003401360544217687,-0.003401360544217687,-0.003401360544217687,-0.003401360544217687,-0.003401360544217687,-0.003401360544217687,-0.003401360544217687,-0.003401360544217687,-0.003401360544217687,-0.003401360544217687,-0.003401360544217687,-0.003401360544217687,-0.003401360544217687,-0.003401360544217687,-0.003401360544217687,-0.003401360544217687,-0.003401360544217687,-0.003401360544217687,-0.003401360544217687,-0.003401360544217687,-0.003401360544217687,-0.003401360544217687,-0.003401360544217687,-0.003401360544217687,-0.003401360544217687,-0.003401360544217687,-0.003401360544217687,-0.003401360544217687,-0.003401360544217687,-0.003401360544217687,-0.003401360544217687,-0.003401360544217687,-0.003401360544217687,0,0,0,0,0,0,0.003401360544217687,0.003401360544217687,0.003401360544217687,0.006802721088435374,0.006802721088435374,0.01020408163265306,0.01020408163265306,0.01020408163265306,0.013605442176870748,0.013605442176870748,0.013605442176870748,0.013605442176870748,0.017006802721088437,0.017006802721088437,0.02040816326530612,0.02040816326530612,0.023809523809523808,0.027210884353741496,0.030612244897959183,0.030612244897959183,0.034013605442176874,0.034013605442176874,0.034013605442176874,0.034013605442176874,0.034013605442176874,0.034013605442176874,0.034013605442176874,0.034013605442176874,0.034013605442176874,0.034013605442176874,0.034013605442176874,0.03741496598639456,0.03741496598639456,0.04081632653061224,0.04081632653061224,0.04421768707482993,0.047619047619047616,0.047619047619047616,0.05102040816326531,0.05102040816326531,0.05102040816326531,0.05102040816326531,0.05102040816326531,0.05102040816326531,0.05102040816326531,0.05102040816326531,0.05102040816326531,0.05102040816326531,0.05102040816326531,0.05102040816326531,0.05442176870748299,0.05442176870748299,0.06462585034013606,0.06802721088435375,0.07142857142857142,0.0782312925170068,0.08163265306122448,0.08163265306122448,0.08503401360544217,0.08503401360544217,0.08843537414965986,0.08843537414965986,0.09183673469387756,0.09523809523809523,0.09523809523809523,0.10204081632653061,0.11224489795918367,0.11224489795918367,0.11904761904761904,0.13945578231292516,0.14625850340136054,0.15306122448979592,0.16326530612244897,0.17687074829931973,0.18027210884353742,0.19047619047619047,0.19387755102040816,0.20408163265306123,0.20408163265306123,0.20748299319727892,0.20748299319727892,0.22108843537414966,0.23469387755102042,0.24149659863945577,0.25510204081632654,0.2789115646258503,0.2857142857142857,0.30612244897959184,0.30952380952380953,0.3197278911564626,0.3197278911564626,0.3333333333333333,0.3401360544217687,0.3469387755102041,0.35374149659863946,0.37755102040816324,0.3843537414965986,0.3877551020408163,0.41156462585034015,0.42517006802721086,0.4421768707482993,0.45918367346938777,0.47278911564625853,0.47619047619047616,0.48639455782312924,0.4897959183673469,0.5,0.5034013605442177,0.5102040816326531,0.5238095238095238,0.5408163265306123,0.5510204081632653,0.5544217687074829,0.5544217687074829,0.5578231292517006,0.5578231292517006,0.5612244897959183,0.5612244897959183,0.5612244897959183,0.5612244897959183,0.564625850340136,0.564625850340136,0.564625850340136,0.564625850340136,0.564625850340136,0.564625850340136,0.564625850340136,0.564625850340136,0.564625850340136,0.564625850340136,0.564625850340136,0.564625850340136,0.564625850340136,0.564625850340136,0.564625850340136,0.564625850340136,0.564625850340136,0.564625850340136,0.564625850340136,0.564625850340136,0.564625850340136,0.564625850340136,0.564625850340136,0.564625850340136,0.564625850340136,0.564625850340136,0.564625850340136,0.564625850340136,0.564625850340136,0.564625850340136,0.564625850340136,0.5612244897959183,0.5612244897959183,0.5612244897959183,0.5612244897959183,0.5612244897959183,0.5578231292517006,0.5578231292517006,0.5578231292517006,0.5578231292517006,0.5578231292517006,0.5578231292517006,0.5544217687074829,0.5544217687074829,0.5510204081632653,0.5510204081632653,0.5510204081632653,0.5510204081632653,0.5510204081632653,0.5510204081632653,0.5510204081632653,0.5476190476190477,0.5476190476190477,0.5476190476190477,0.5476190476190477,0.5476190476190477,0.5476190476190477,0.5476190476190477,0.5476190476190477,0.5476190476190477,0.54421768707483,0.54421768707483,0.54421768707483,0.54421768707483,0.54421768707483,0.54421768707483,0.54421768707483,0.54421768707483,0.54421768707483,0.54421768707483,0.54421768707483,0.5408163265306123,0.5408163265306123,0.5408163265306123,0.5408163265306123,0.5408163265306123,0.5408163265306123,0.5408163265306123,0.5408163265306123,0.5374149659863946,0.5374149659863946,0.5374149659863946,0.5374149659863946,0.5374149659863946,0.5374149659863946,0.5374149659863946,0.5374149659863946,0.5374149659863946,0.5340136054421769,0.5340136054421769,0.5340136054421769,0.5340136054421769,0.5340136054421769,0.5340136054421769,0.5340136054421769,0.5340136054421769,0.5340136054421769,0.5340136054421769,0.5340136054421769,0.5340136054421769,0.5340136054421769,0.5340136054421769,0.5340136054421769,0.5340136054421769,0.5306122448979592,0.5306122448979592,0.5306122448979592,0.5306122448979592,0.5306122448979592,0.5306122448979592,0.5306122448979592,0.5306122448979592,0.5306122448979592,0.5306122448979592,0.5306122448979592,0.5306122448979592,0.5272108843537415,0.5272108843537415,0.5272108843537415,0.5272108843537415,0.5272108843537415,0.5272108843537415,0.5272108843537415,0.5272108843537415,0.5272108843537415,0.5272108843537415,0.5272108843537415,0.5272108843537415,0.5272108843537415,0.5272108843537415,0.5272108843537415,0.5272108843537415,0.5272108843537415,0.5272108843537415,0.5272108843537415,0.5272108843537415,0.5272108843537415,0.5272108843537415,0.5272108843537415,0.5272108843537415,0.5272108843537415,0.5272108843537415,0.5272108843537415,0.5272108843537415,0.5272108843537415,0.5272108843537415,0.5272108843537415,0.5272108843537415,0.5272108843537415,0.5272108843537415,0.5272108843537415,0.5272108843537415,0.5272108843537415,0.5272108843537415,0.5272108843537415,0.5272108843537415,0.5272108843537415,0.5238095238095238,0.5238095238095238,0.5238095238095238,0.5238095238095238,0.5238095238095238,0.5238095238095238,0.5238095238095238,0.5238095238095238,0.5238095238095238,0.5238095238095238,0.5238095238095238,0.5238095238095238,0.5238095238095238,0.5238095238095238,0.5238095238095238,0.5238095238095238,0.5238095238095238,0.5238095238095238,0.5204081632653061,0.5204081632653061,0.5204081632653061,0.5204081632653061,0.5204081632653061,0.5204081632653061,0.5204081632653061,0.5204081632653061,0.5204081632653061,0.5204081632653061,0.5204081632653061,0.5204081632653061,0.5204081632653061,0.5204081632653061,0.5204081632653061,0.5170068027210885,0.5170068027210885,0.5170068027210885,0.5170068027210885,0.5170068027210885,0.5136054421768708,0.5136054421768708,0.5136054421768708,0.5136054421768708,0.5136054421768708,0.5136054421768708,0.5136054421768708,0.5136054421768708,0.5136054421768708,0.5102040816326531,0.5102040816326531,0.5102040816326531,0.5102040816326531,0.5102040816326531,0.5102040816326531,0.5068027210884354,0.5068027210884354,0.5068027210884354,0.5068027210884354,0.5068027210884354,0.5068027210884354,0.5068027210884354,0.5068027210884354,0.5068027210884354,0.5034013605442177,0.5034013605442177,0.5034013605442177,0.5034013605442177,0.5,0.5,0.5,0.5,0.5,0.5,0.5,0.5,0.5,0.5,0.5,0.5,0.5,0.5,0.5,0.5,0.4965986394557823,0.4965986394557823,0.4965986394557823,0.4965986394557823,0.4965986394557823,0.4965986394557823,0.4965986394557823,0.4965986394557823,0.4965986394557823,0.4965986394557823,0.4965986394557823,0.4965986394557823,0.4965986394557823,0.4965986394557823,0.4931972789115646,0.4931972789115646,0.4931972789115646,0.4931972789115646,0.4931972789115646,0.4931972789115646,0.4931972789115646,0.4931972789115646,0.4931972789115646,0.4931972789115646,0.4931972789115646,0.4931972789115646,0.4931972789115646,0.4931972789115646,0.4931972789115646,0.4931972789115646,0.4931972789115646,0.4931972789115646,0.4931972789115646,0.4931972789115646,0.4931972789115646,0.4931972789115646,0.4931972789115646,0.4931972789115646,0.4931972789115646,0.4931972789115646,0.4931972789115646,0.4931972789115646,0.4931972789115646,0.4931972789115646,0.4931972789115646,0.4931972789115646,0.4931972789115646,0.4931972789115646,0.4931972789115646,0.4931972789115646,0.4931972789115646,0.4931972789115646,0.4931972789115646,0.4931972789115646,0.4931972789115646,0.4931972789115646,0.4931972789115646,0.4931972789115646,0.4931972789115646,0.4931972789115646,0.4931972789115646,0.4931972789115646,0.4931972789115646,0.4931972789115646,0.4931972789115646,0.4931972789115646,0.4931972789115646,0.4931972789115646,0.4931972789115646,0.4931972789115646,0.4931972789115646,0.4931972789115646,0.4931972789115646,0.4931972789115646,0.4931972789115646,0.4931972789115646,0.4931972789115646,0.4931972789115646,0.4897959183673469,0.4897959183673469,0.4897959183673469,0.4897959183673469,0.4897959183673469,0.4897959183673469,0.4897959183673469,0.4897959183673469,0.4897959183673469,0.4897959183673469,0.4897959183673469,0.4897959183673469,0.4897959183673469,0.4897959183673469,0.4897959183673469,0.4897959183673469,0.4897959183673469,0.4897959183673469,0.4897959183673469,0.4897959183673469,0.4897959183673469,0.4897959183673469,0.4897959183673469,0.4897959183673469,0.4897959183673469,0.4897959183673469,0.4897959183673469,0.4897959183673469,0.4897959183673469,0.4897959183673469,0.4897959183673469,0.4897959183673469,0.4897959183673469,0.4897959183673469,0.4897959183673469,0.4897959183673469,0.4897959183673469,0.4897959183673469,0.4897959183673469,0.4897959183673469,0.4897959183673469,0.48639455782312924,0.47619047619047616,0.46938775510204084,0.46938775510204084,0.46938775510204084,0.46938775510204084,0.46938775510204084,0.46938775510204084,0.46938775510204084,0.46938775510204084,0.46938775510204084,0.46938775510204084,0.46938775510204084,0.46938775510204084,0.46938775510204084,0.46938775510204084,0.46938775510204084,0.46938775510204084,0.46938775510204084,0.46938775510204084,0.46938775510204084,0.46938775510204084,0.46938775510204084,0.46938775510204084,0.46938775510204084,0.46938775510204084,0.46938775510204084,0.46938775510204084,0.46938775510204084,0.46938775510204084,0.46938775510204084,0.46938775510204084,0.46938775510204084,0.46938775510204084,0.46938775510204084,0.46938775510204084,0.46938775510204084,0.46938775510204084,0.46938775510204084,0.46938775510204084,0.46938775510204084,0.46938775510204084,0.46938775510204084,0.46938775510204084,0.46938775510204084,0.46938775510204084,0.46938775510204084,0.46938775510204084,0.46938775510204084,0.46938775510204084,0.46938775510204084,0.46938775510204084,0.46938775510204084,0.46938775510204084,0.46938775510204084,0.46938775510204084,0.46938775510204084,0.46938775510204084,0.46938775510204084,0.46938775510204084,0.46938775510204084,0.46938775510204084,0.46938775510204084,0.46938775510204084,0.46938775510204084,0.46938775510204084,0.46938775510204084,0.46938775510204084,0.46938775510204084,0.46938775510204084,0.46938775510204084,0.46938775510204084,0.46938775510204084,0.46938775510204084,0.46938775510204084,0.46938775510204084,0.46938775510204084,0.46938775510204084,0.46938775510204084,0.46938775510204084,0.46938775510204084,0.46938775510204084,0.46938775510204084,0.46938775510204084,0.46938775510204084,0.46938775510204084,0.46938775510204084,0.46938775510204084,0.46938775510204084,0.46938775510204084,0.46938775510204084,0.46938775510204084,0.46938775510204084,0.46938775510204084,0.46598639455782315,0.46598639455782315,0.46598639455782315,0.46598639455782315,0.46598639455782315,0.46258503401360546,0.46258503401360546,0.46258503401360546,0.45918367346938777,0.45918367346938777,0.4523809523809524,0.42857142857142855,0.3741496598639456,0.35034013605442177,0.29591836734693877,0.282312925170068,0.25510204081632654,0.25170068027210885,0.25170068027210885,0.25170068027210885,0.25170068027210885,0.25170068027210885,0.25170068027210885,0.25170068027210885,0.25170068027210885,0.25170068027210885,0.25170068027210885,0.25170068027210885,0.25170068027210885,0.25170068027210885,0.25170068027210885,0.25170068027210885,0.25510204081632654,0.25510204081632654,0.25510204081632654,0.25510204081632654,0.25510204081632654,0.25510204081632654,0.25510204081632654,0.25510204081632654,0.25510204081632654,0.25510204081632654,0.25510204081632654,0.25510204081632654,0.25510204081632654,0.25510204081632654,0.25510204081632654,0.25510204081632654,0.25510204081632654,0.25510204081632654,0.25510204081632654,0.25510204081632654,0.25510204081632654,0.25510204081632654,0.25510204081632654,0.25510204081632654,0.25510204081632654,0.25510204081632654,0.25510204081632654,0.25510204081632654,0.25510204081632654,0.25510204081632654,0.25510204081632654,0.25510204081632654,0.25510204081632654,0.25510204081632654,0.25510204081632654,0.25510204081632654,0.25510204081632654,0.25510204081632654,0.25510204081632654,0.25510204081632654,0.25510204081632654,0.25510204081632654,0.25510204081632654,0.25510204081632654,0.25510204081632654,0.25510204081632654,0.25510204081632654,0.25510204081632654,0.25510204081632654,0.25510204081632654,0.25510204081632654,0.25510204081632654,0.25510204081632654,0.25510204081632654,0.25510204081632654,0.25510204081632654,0.25510204081632654,0.25510204081632654,0.25510204081632654,0.25510204081632654,0.25510204081632654,0.25510204081632654,0.25510204081632654,0.25510204081632654,0.25510204081632654,0.25510204081632654,0.25510204081632654,0.25510204081632654,0.25510204081632654,0.25510204081632654,0.25510204081632654,0.25510204081632654,0.25510204081632654,0.25510204081632654,0.25170068027210885,0.25170068027210885,0.25170068027210885,0.25170068027210885,0.25170068027210885,0.24829931972789115,0.24829931972789115,0.24829931972789115,0.24829931972789115,0.24829931972789115,0.24829931972789115,0.24829931972789115,0.24829931972789115,0.24489795918367346,0.24489795918367346,0.24489795918367346,0.24489795918367346,0.24149659863945577,0.24149659863945577,0.24149659863945577,0.24149659863945577,0.24149659863945577,0.24149659863945577,0.24149659863945577,0.24149659863945577,0.23809523809523808,0.23809523809523808,0.23809523809523808,0.23809523809523808,0.23809523809523808,0.23809523809523808,0.23809523809523808,0.23809523809523808,0.23809523809523808,0.23469387755102042,0.23469387755102042,0.23469387755102042,0.23469387755102042,0.23469387755102042,0.23469387755102042,0.23469387755102042,0.23469387755102042,0.23469387755102042,0.23129251700680273,0.23129251700680273,0.23129251700680273,0.23129251700680273,0.23129251700680273,0.23129251700680273,0.23129251700680273,0.23129251700680273,0.23129251700680273,0.23129251700680273,0.23129251700680273,0.23129251700680273,0.23129251700680273,0.23129251700680273,0.23129251700680273,0.23129251700680273,0.23129251700680273,0.23129251700680273,0.23129251700680273,0.23129251700680273,0.23129251700680273,0.23129251700680273,0.23129251700680273,0.23129251700680273,0.23129251700680273,0.23469387755102042,0.23469387755102042,0.23469387755102042,0.23469387755102042,0.23469387755102042,0.23469387755102042,0.23469387755102042,0.23469387755102042,0.23809523809523808,0.23809523809523808,0.23809523809523808,0.24489795918367346,0.24829931972789115,0.25510204081632654,0.2619047619047619,0.2653061224489796,0.2653061224489796,0.2687074829931973,0.2687074829931973,0.272108843537415,0.272108843537415,0.272108843537415,0.272108843537415,0.272108843537415,0.272108843537415,0.2755102040816326,0.2789115646258503,0.2857142857142857,0.2857142857142857,0.2891156462585034,0.30272108843537415,0.30612244897959184,0.30952380952380953,0.3129251700680272,0.3129251700680272,0.3129251700680272,0.3129251700680272,0.3129251700680272,0.3163265306122449,0.3163265306122449,0.3197278911564626,0.3231292517006803,0.32653061224489793,0.3333333333333333,0.336734693877551,0.3401360544217687,0.3401360544217687,0.3401360544217687,0.3401360544217687,0.3401360544217687,0.3401360544217687,0.3401360544217687,0.3401360544217687,0.3401360544217687,0.3435374149659864,0.35374149659863946,0.35374149659863946,0.36054421768707484,0.36054421768707484,0.3673469387755102,0.3707482993197279,0.3707482993197279,0.3707482993197279,0.37755102040816324,0.37755102040816324,0.38095238095238093,0.38095238095238093,0.3843537414965986,0.3877551020408163,0.3877551020408163,0.3877551020408163,0.3877551020408163,0.3877551020408163,0.3877551020408163,0.391156462585034,0.3979591836734694,0.40816326530612246,0.41156462585034015,0.42517006802721086,0.43537414965986393,0.4387755102040816,0.4387755102040816,0.4421768707482993,0.4421768707482993,0.4421768707482993,0.445578231292517,0.4489795918367347,0.4489795918367347,0.4557823129251701,0.46598639455782315,0.46938775510204084,0.46938775510204084,0.46938775510204084,0.46938775510204084,0.46938775510204084,0.46938775510204084,0.46938775510204084,0.46938775510204084,0.46938775510204084,0.47278911564625853,0.47278911564625853,0.47278911564625853,0.47278911564625853,0.47619047619047616,0.47619047619047616,0.47959183673469385,0.47959183673469385,0.47959183673469385,0.47959183673469385,0.47959183673469385,0.47959183673469385,0.47959183673469385,0.47959183673469385,0.47959183673469385,0.47959183673469385,0.47959183673469385,0.48299319727891155,0.48639455782312924,0.48639455782312924,0.48639455782312924,0.4897959183673469,0.4897959183673469,0.4897959183673469,0.4897959183673469,0.4897959183673469,0.4897959183673469,0.4897959183673469,0.4897959183673469,0.4897959183673469,0.4897959183673469,0.4931972789115646,0.4965986394557823,0.5,0.5,0.5,0.5,0.5,0.5,0.5,0.5,0.5,0.5,0.5,0.5,0.5,0.5,0.5,0.5,0.5,0.5,0.5,0.5,0.5,0.5,0.5,0.5,0.5,0.5,0.5,0.5,0.5,0.5,0.5,0.5,0.5,0.5,0.5,0.5,0.5,0.5,0.5,0.5034013605442177,0.5034013605442177,0.5034013605442177,0.5034013605442177,0.5034013605442177,0.5034013605442177,0.5034013605442177,0.5034013605442177,0.5034013605442177,0.5034013605442177,0.5034013605442177,0.5068027210884354,0.5068027210884354,0.5068027210884354,0.5068027210884354,0.5068027210884354,0.5068027210884354,0.5068027210884354,0.5068027210884354,0.5068027210884354,0.5068027210884354,0.5068027210884354,0.5068027210884354,0.5068027210884354,0.5068027210884354,0.5068027210884354,0.5068027210884354,0.5068027210884354,0.5068027210884354,0.5068027210884354,0.5102040816326531,0.5136054421768708,0.5136054421768708,0.5136054421768708,0.5136054421768708,0.5136054421768708,0.5136054421768708,0.5136054421768708,0.5136054421768708,0.5136054421768708,0.5136054421768708,0.5136054421768708,0.5136054421768708,0.5136054421768708,0.5136054421768708,0.5136054421768708,0.5136054421768708,0.5136054421768708,0.5136054421768708,0.5136054421768708,0.5136054421768708,0.5136054421768708,0.5136054421768708,0.5136054421768708,0.5136054421768708,0.5136054421768708,0.5136054421768708,0.5136054421768708,0.5136054421768708,0.5136054421768708,0.5136054421768708,0.5136054421768708,0.5136054421768708,0.5136054421768708,0.5136054421768708,0.5136054421768708,0.5136054421768708,0.5136054421768708,0.5136054421768708,0.5136054421768708,0.5136054421768708,0.5136054421768708,0.5136054421768708,0.5136054421768708,0.5136054421768708,0.5136054421768708,0.5136054421768708,0.5136054421768708,0.5136054421768708,0.5136054421768708,0.5136054421768708,0.5136054421768708,0.5136054421768708,0.5136054421768708,0.5136054421768708,0.5136054421768708,0.5136054421768708,0.5136054421768708,0.5136054421768708,0.5136054421768708,0.5136054421768708,0.5136054421768708,0.5136054421768708,0.5136054421768708,0.5136054421768708,0.5136054421768708,0.5136054421768708,0.5136054421768708,0.5136054421768708,0.5136054421768708,0.5136054421768708,0.5136054421768708,0.5136054421768708,0.5136054421768708,0.5136054421768708,0.5136054421768708,0.5136054421768708,0.5136054421768708,0.5136054421768708,0.5136054421768708,0.5136054421768708,0.5136054421768708,0.5136054421768708,0.5136054421768708,0.5136054421768708,0.5136054421768708,0.5136054421768708,0.5136054421768708,0.5136054421768708,0.5136054421768708,0.5136054421768708,0.5136054421768708,0.5136054421768708,0.5136054421768708,0.5136054421768708,0.5136054421768708,0.5136054421768708,0.5136054421768708,0.5136054421768708,0.5136054421768708,0.5136054421768708,0.5136054421768708,0.5136054421768708,0.5136054421768708,0.5136054421768708,0.5136054421768708,0.5136054421768708,0.5136054421768708,0.5136054421768708,0.5136054421768708,0.5136054421768708,0.5136054421768708,0.5136054421768708,0.5136054421768708,0.5136054421768708,0.5136054421768708,0.5136054421768708,0.5136054421768708,0.5136054421768708,0.5170068027210885,0.5170068027210885,0.5170068027210885,0.5170068027210885,0.5238095238095238,0.5238095238095238,0.5306122448979592,0.5306122448979592,0.5306122448979592,0.5306122448979592,0.5306122448979592,0.5306122448979592,0.5306122448979592,0.5306122448979592,0.5306122448979592,0.5374149659863946,0.54421768707483,0.5476190476190477,0.5544217687074829,0.5578231292517006,0.5714285714285714,0.5748299319727891,0.5782312925170068,0.5816326530612245,0.5850340136054422,0.5952380952380952,0.6020408163265306,0.6054421768707483,0.6054421768707483,0.6054421768707483,0.608843537414966,0.6122448979591837,0.6190476190476191,0.6190476190476191,0.6190476190476191,0.6258503401360545,0.6258503401360545,0.6292517006802721,0.6292517006802721,0.6292517006802721,0.6326530612244898,0.6326530612244898,0.6360544217687075,0.6360544217687075,0.6394557823129252,0.6394557823129252,0.6428571428571429,0.6428571428571429,0.6462585034013606,0.6462585034013606,0.6462585034013606,0.6496598639455783,0.6496598639455783,0.6496598639455783,0.6530612244897959,0.6564625850340136,0.6564625850340136,0.6564625850340136,0.6598639455782312,0.6700680272108843,0.6768707482993197,0.6768707482993197,0.6768707482993197,0.6768707482993197,0.6768707482993197,0.6768707482993197,0.6768707482993197,0.6768707482993197,0.6802721088435374,0.6836734693877551,0.6870748299319728,0.6870748299319728,0.6904761904761905,0.6904761904761905,0.6904761904761905,0.6904761904761905,0.6904761904761905,0.6904761904761905,0.6904761904761905,0.6904761904761905,0.6904761904761905,0.6904761904761905,0.6904761904761905,0.6904761904761905,0.6904761904761905,0.6904761904761905,0.6904761904761905,0.6904761904761905,0.6904761904761905,0.6904761904761905,0.6904761904761905,0.6904761904761905,0.6904761904761905,0.6904761904761905,0.6904761904761905,0.6904761904761905,0.6904761904761905,0.6904761904761905,0.6904761904761905,0.6904761904761905,0.6904761904761905,0.6904761904761905,0.6904761904761905,0.6904761904761905,0.6870748299319728,0.6870748299319728,0.6870748299319728,0.6870748299319728,0.6870748299319728,0.6870748299319728,0.6870748299319728,0.6870748299319728,0.6870748299319728,0.6870748299319728,0.6870748299319728,0.6870748299319728,0.6836734693877551,0.6836734693877551,0.6836734693877551,0.6836734693877551,0.6836734693877551,0.6836734693877551,0.6836734693877551,0.6836734693877551,0.6836734693877551,0.6836734693877551,0.6836734693877551,0.6836734693877551,0.6836734693877551,0.6836734693877551,0.6802721088435374,0.6802721088435374,0.6802721088435374,0.6802721088435374,0.6802721088435374,0.6802721088435374,0.6802721088435374,0.6802721088435374,0.6802721088435374,0.6802721088435374,0.6802721088435374,0.6768707482993197,0.6768707482993197,0.6768707482993197,0.6768707482993197,0.6768707482993197,0.673469387755102,0.673469387755102,0.673469387755102,0.6700680272108843,0.6700680272108843,0.6700680272108843,0.6666666666666666,0.6666666666666666,0.6632653061224489,0.6632653061224489,0.6632653061224489,0.6598639455782312,0.6564625850340136,0.6564625850340136,0.6564625850340136,0.6564625850340136,0.6530612244897959,0.6530612244897959,0.6496598639455783,0.6496598639455783,0.6462585034013606,0.6462585034013606,0.6462585034013606,0.6428571428571429,0.6428571428571429,0.6428571428571429,0.6428571428571429,0.6428571428571429,0.6428571428571429,0.6428571428571429,0.6428571428571429,0.6394557823129252,0.6394557823129252,0.6394557823129252,0.6360544217687075,0.6326530612244898,0.6326530612244898,0.6326530612244898,0.6326530612244898,0.6326530612244898,0.6326530612244898,0.6292517006802721,0.6258503401360545,0.6224489795918368,0.6190476190476191,0.6156462585034014,0.6156462585034014,0.6156462585034014,0.6156462585034014,0.6156462585034014,0.6156462585034014,0.6156462585034014,0.6156462585034014,0.6122448979591837,0.6122448979591837,0.608843537414966,0.608843537414966,0.6054421768707483,0.6054421768707483,0.6054421768707483,0.6054421768707483,0.6054421768707483,0.6054421768707483,0.6054421768707483,0.6054421768707483,0.6020408163265306,0.5986394557823129,0.5952380952380952,0.5918367346938775,0.5918367346938775,0.5884353741496599,0.5850340136054422,0.5850340136054422,0.5850340136054422,0.5850340136054422,0.5850340136054422,0.5850340136054422,0.5850340136054422,0.5850340136054422,0.5850340136054422,0.5850340136054422,0.5850340136054422,0.5816326530612245,0.5782312925170068,0.5714285714285714,0.5680272108843537,0.564625850340136,0.5578231292517006,0.5544217687074829,0.5544217687074829,0.5544217687074829,0.5544217687074829,0.5544217687074829,0.5510204081632653,0.5510204081632653,0.5476190476190477,0.5476190476190477,0.5408163265306123,0.5408163265306123,0.5374149659863946,0.5374149659863946,0.5374149659863946,0.5374149659863946,0.5340136054421769,0.5272108843537415,0.5136054421768708,0.5068027210884354,0.47959183673469385,0.47619047619047616,0.4523809523809524,0.4489795918367347,0.43197278911564624,0.42857142857142855,0.4217687074829932,0.40476190476190477,0.4013605442176871,0.37755102040816324,0.3741496598639456,0.35034013605442177,0.3469387755102041,0.3333333333333333,0.3231292517006803,0.3231292517006803,0.3197278911564626,0.3197278911564626,0.3163265306122449,0.30272108843537415,0.29931972789115646,0.2857142857142857,0.282312925170068,0.272108843537415,0.2687074829931973,0.2619047619047619,0.25510204081632654,0.24829931972789115,0.24829931972789115,0.24489795918367346,0.24149659863945577,0.23469387755102042,0.23469387755102042,0.22448979591836735,0.22108843537414966,0.21768707482993196,0.21428571428571427,0.2108843537414966,0.2108843537414966,0.2108843537414966,0.2108843537414966,0.2108843537414966,0.2108843537414966,0.2108843537414966,0.2108843537414966,0.20748299319727892,0.20748299319727892,0.20408163265306123,0.20408163265306123,0.20408163265306123,0.20068027210884354,0.20068027210884354,0.20068027210884354,0.20068027210884354,0.19727891156462585,0.19387755102040816,0.19387755102040816,0.18027210884353742,0.17687074829931973,0.16666666666666666,0.1598639455782313,0.1564625850340136,0.14965986394557823,0.13945578231292516,0.13945578231292516,0.12585034013605442,0.12244897959183673,0.09183673469387756,0.08503401360544217,0.05782312925170068,0.03741496598639456,0.02040816326530612,0.006802721088435374,0.003401360544217687,0.003401360544217687,0.003401360544217687,0.003401360544217687,0.003401360544217687,0.003401360544217687,0.003401360544217687,0.003401360544217687,0.003401360544217687,0.003401360544217687,0.003401360544217687,0.003401360544217687,0.003401360544217687,0.003401360544217687,0.003401360544217687,0.003401360544217687,0.003401360544217687,0.003401360544217687,0.003401360544217687,0.003401360544217687,0.003401360544217687,0.003401360544217687,0.003401360544217687,0.003401360544217687,0.003401360544217687,0.003401360544217687,0.003401360544217687,0.003401360544217687,0.003401360544217687,0.003401360544217687,0.003401360544217687,0.003401360544217687,0.003401360544217687,0.003401360544217687,0.003401360544217687,0.003401360544217687,0.003401360544217687,0.003401360544217687,0.003401360544217687,0.003401360544217687,0.003401360544217687,0.003401360544217687,0.003401360544217687,0.003401360544217687,0.003401360544217687,0.003401360544217687,0.003401360544217687,0.003401360544217687,0.003401360544217687,0.003401360544217687,0.003401360544217687,0.003401360544217687,0.003401360544217687,0.003401360544217687,0.003401360544217687,0.003401360544217687,0.003401360544217687,0.003401360544217687,0.003401360544217687,0.003401360544217687,0.003401360544217687,0.003401360544217687,0.003401360544217687,0.003401360544217687,0.003401360544217687,0.003401360544217687,0.003401360544217687,0.003401360544217687,0.003401360544217687,0.003401360544217687,0.003401360544217687,0.003401360544217687,0.003401360544217687,0.003401360544217687,0.003401360544217687,0.003401360544217687,0.003401360544217687,0.003401360544217687,0.003401360544217687,0.003401360544217687,0.003401360544217687,0.003401360544217687,0.003401360544217687,0.003401360544217687,0.003401360544217687,0.003401360544217687,0.003401360544217687,0.003401360544217687,0.003401360544217687,0.003401360544217687,0.003401360544217687,0.003401360544217687,0.006802721088435374,0.006802721088435374,0.006802721088435374,0.006802721088435374,0.01020408163265306,0.01020408163265306,0.01020408163265306,0.013605442176870748,0.017006802721088437,0.02040816326530612,0.02040816326530612,0.02040816326530612,0.02040816326530612,0.02040816326530612,0.02040816326530612,0.02040816326530612,0.02040816326530612,0.02040816326530612,0.02040816326530612,0.02040816326530612,0.02040816326530612,0.02040816326530612,0.02040816326530612,0.02040816326530612,0.023809523809523808,0.023809523809523808,0.023809523809523808,0.023809523809523808,0.023809523809523808,0.023809523809523808,0.023809523809523808,0.023809523809523808,0.023809523809523808,0.023809523809523808,0.023809523809523808,0.023809523809523808,0.023809523809523808,0.023809523809523808,0.023809523809523808,0.023809523809523808,0.023809523809523808,0.023809523809523808,0.023809523809523808,0.023809523809523808,0.023809523809523808,0.023809523809523808,0.023809523809523808,0.023809523809523808,0.023809523809523808,0.023809523809523808,0.027210884353741496,0.027210884353741496,0.027210884353741496,0.027210884353741496,0.027210884353741496,0.027210884353741496,0.027210884353741496,0.027210884353741496,0.027210884353741496,0.027210884353741496,0.03741496598639456,0.04081632653061224,0.04421768707482993,0.04421768707482993,0.047619047619047616,0.047619047619047616,0.05102040816326531,0.05442176870748299,0.05442176870748299,0.05782312925170068,0.05782312925170068,0.061224489795918366,0.06802721088435375,0.07142857142857142,0.07482993197278912,0.0782312925170068,0.08163265306122448,0.08503401360544217,0.08503401360544217,0.08843537414965986,0.08843537414965986,0.09183673469387756,0.09183673469387756,0.1054421768707483,0.11224489795918367,0.11564625850340136,0.12585034013605442,0.1360544217687075,0.13945578231292516,0.14285714285714285,0.14625850340136054,0.15306122448979592,0.15306122448979592,0.1598639455782313,0.1598639455782313,0.1598639455782313,0.1598639455782313,0.1598639455782313,0.1598639455782313,0.1598639455782313,0.1598639455782313,0.1598639455782313,0.1598639455782313,0.1598639455782313,0.1598639455782313,0.1598639455782313,0.1598639455782313,0.1598639455782313,0.1598639455782313,0.1598639455782313,0.1598639455782313,0.1598639455782313,0.1598639455782313,0.1598639455782313,0.1598639455782313,0.1598639455782313,0.1598639455782313,0.1598639455782313,0.1598639455782313,0.1598639455782313,0.1598639455782313,0.1598639455782313,0.1598639455782313,0.1598639455782313,0.1598639455782313,0.1598639455782313,0.1598639455782313,0.1598639455782313,0.1598639455782313,0.1598639455782313,0.1598639455782313,0.1598639455782313,0.1598639455782313,0.1598639455782313,0.1598639455782313,0.1598639455782313,0.1598639455782313,0.1598639455782313,0.1598639455782313,0.1598639455782313,0.1598639455782313,0.1598639455782313,0.1598639455782313,0.1598639455782313,0.1598639455782313,0.1598639455782313,0.1598639455782313,0.1598639455782313,0.1564625850340136,0.1564625850340136,0.1564625850340136,0.1564625850340136,0.1564625850340136,0.1564625850340136,0.1564625850340136,0.1564625850340136,0.1564625850340136,0.1564625850340136,0.1564625850340136,0.1564625850340136,0.1564625850340136,0.1564625850340136,0.1564625850340136,0.1564625850340136,0.1564625850340136,0.1564625850340136,0.1564625850340136,0.1564625850340136,0.1564625850340136,0.1564625850340136,0.1564625850340136,0.1564625850340136,0.1564625850340136,0.1564625850340136,0.1564625850340136,0.1564625850340136,0.1564625850340136,0.1564625850340136,0.1564625850340136,0.1564625850340136,0.1564625850340136,0.1564625850340136,0.1564625850340136,0.1564625850340136,0.1564625850340136,0.1564625850340136,0.1564625850340136,0.1564625850340136,0.1564625850340136,0.1564625850340136,0.1564625850340136,0.1564625850340136,0.1564625850340136,0.1564625850340136,0.1564625850340136,0.15306122448979592,0.15306122448979592,0.15306122448979592,0.15306122448979592,0.15306122448979592,0.15306122448979592,0.15306122448979592,0.15306122448979592,0.15306122448979592,0.15306122448979592,0.15306122448979592,0.15306122448979592,0.15306122448979592,0.15306122448979592,0.15306122448979592,0.15306122448979592,0.15306122448979592,0.15306122448979592,0.15306122448979592,0.15306122448979592,0.15306122448979592,0.15306122448979592,0.15306122448979592,0.15306122448979592,0.15306122448979592,0.15306122448979592,0.15306122448979592,0.15306122448979592,0.15306122448979592,0.15306122448979592,0.15306122448979592,0.15306122448979592,0.15306122448979592,0.15306122448979592,0.15306122448979592,0.15306122448979592,0.15306122448979592,0.15306122448979592,0.15306122448979592,0.15306122448979592,0.15306122448979592,0.15306122448979592,0.15306122448979592,0.15306122448979592,0.15306122448979592,0.15306122448979592,0.15306122448979592,0.15306122448979592,0.15306122448979592,0.15306122448979592,0.15306122448979592,0.15306122448979592,0.15306122448979592,0.15306122448979592,0.15306122448979592,0.15306122448979592,0.15306122448979592,0.15306122448979592,0.15306122448979592,0.15306122448979592,0.15306122448979592,0.15306122448979592,0.15306122448979592,0.15306122448979592,0.15306122448979592,0.15306122448979592,0.15306122448979592,0.15306122448979592,0.15306122448979592,0.15306122448979592,0.15306122448979592,0.15306122448979592,0.15306122448979592,0.15306122448979592,0.15306122448979592,0.15306122448979592,0.15306122448979592,0.15306122448979592,0.15306122448979592,0.15306122448979592,0.15306122448979592,0.15306122448979592,0.15306122448979592,0.15306122448979592,0.15306122448979592,0.1564625850340136,0.1564625850340136,0.16666666666666666,0.18027210884353742,0.18027210884353742,0.19047619047619047,0.19387755102040816,0.22448979591836735,0.23809523809523808,0.2857142857142857,0.29591836734693877,0.3299319727891156,0.35374149659863946,0.36394557823129253,0.38095238095238093,0.3843537414965986,0.3877551020408163,0.3877551020408163,0.391156462585034,0.41156462585034015,0.41836734693877553,0.445578231292517,0.46258503401360546,0.47278911564625853,0.48299319727891155,0.48639455782312924,0.48639455782312924,0.48639455782312924,0.48639455782312924,0.48639455782312924,0.4931972789115646,0.4965986394557823,0.5068027210884354,0.5102040816326531,0.5102040816326531,0.5102040816326531,0.5102040816326531,0.5102040816326531,0.5102040816326531,0.5068027210884354,0.5068027210884354,0.5068027210884354,0.5034013605442177,0.5034013605442177,0.5034013605442177,0.5034013605442177,0.5,0.5,0.5,0.5,0.5,0.5,0.5,0.5,0.5,0.5,0.5034013605442177,0.5034013605442177,0.5068027210884354,0.5238095238095238,0.5476190476190477,0.6020408163265306,0.6258503401360545,0.673469387755102,0.6972789115646258,0.7585034013605442,0.7789115646258503,0.8197278911564626,0.8333333333333334,0.8333333333333334,0.8367346938775511,0.8435374149659864,0.8435374149659864,0.8435374149659864,0.8435374149659864,0.8435374149659864,0.8435374149659864,0.8435374149659864,0.8435374149659864,0.8435374149659864,0.8503401360544217,0.8537414965986394,0.8741496598639455,0.8843537414965986,0.9081632653061225,0.9319727891156463,0.935374149659864,0.9421768707482994,0.9421768707482994,0.9421768707482994,0.9421768707482994,0.9421768707482994,0.9455782312925171,0.9489795918367347,0.9489795918367347,0.9523809523809523,0.9523809523809523,0.9523809523809523,0.9523809523809523,0.9523809523809523,0.9523809523809523,0.9523809523809523,0.95578231292517,0.95578231292517,0.95578231292517,0.95578231292517,0.9591836734693877,0.9591836734693877,0.9591836734693877,0.9591836734693877,0.9591836734693877,0.9591836734693877,0.9591836734693877,0.9591836734693877,0.9591836734693877,0.9591836734693877,0.9625850340136054,0.9625850340136054,0.9625850340136054,0.9625850340136054,0.9625850340136054,0.9625850340136054,0.9625850340136054,0.9625850340136054,0.9625850340136054,0.9625850340136054,0.9625850340136054,0.9625850340136054,0.9625850340136054,0.9625850340136054,0.9625850340136054,0.9625850340136054,0.9625850340136054,0.9625850340136054,0.9625850340136054,0.9625850340136054,0.9625850340136054,0.9625850340136054,0.9625850340136054,0.9625850340136054,0.9625850340136054,0.9625850340136054,0.9625850340136054,0.9591836734693877,0.9591836734693877,0.9591836734693877,0.9591836734693877,0.95578231292517,0.95578231292517,0.9523809523809523,0.9523809523809523,0.9489795918367347,0.9489795918367347,0.9455782312925171,0.935374149659864,0.935374149659864,0.9217687074829932,0.9149659863945578,0.9013605442176871,0.8945578231292517,0.8945578231292517,0.8945578231292517,0.891156462585034,0.891156462585034,0.8843537414965986,0.8843537414965986,0.8775510204081632,0.8775510204081632,0.8741496598639455,0.8741496598639455,0.8707482993197279,0.8673469387755102,0.8673469387755102,0.8673469387755102,0.8673469387755102,0.8673469387755102,0.8605442176870748,0.8571428571428571,0.8333333333333334,0.8299319727891157,0.8027210884353742,0.782312925170068,0.7789115646258503,0.7755102040816326,0.7755102040816326,0.7721088435374149,0.7687074829931972,0.7687074829931972,0.7687074829931972,0.7687074829931972,0.7687074829931972,0.7687074829931972,0.7687074829931972,0.7653061224489796,0.7653061224489796,0.7585034013605442,0.7585034013605442,0.7551020408163265,0.7551020408163265,0.7551020408163265,0.7551020408163265,0.7517006802721088,0.7517006802721088,0.7380952380952381,0.7312925170068028,0.7278911564625851,0.6938775510204082,0.6666666666666666,0.6462585034013606,0.6292517006802721,0.608843537414966,0.6054421768707483,0.6054421768707483,0.6020408163265306,0.6020408163265306,0.6020408163265306,0.6020408163265306,0.6020408163265306,0.6020408163265306,0.6020408163265306,0.6020408163265306,0.6020408163265306,0.6020408163265306,0.6020408163265306,0.6020408163265306,0.6020408163265306,0.6020408163265306,0.6020408163265306,0.6054421768707483,0.6054421768707483,0.608843537414966,0.6326530612244898,0.6360544217687075,0.6700680272108843,0.6938775510204082,0.7346938775510204,0.7721088435374149,0.8061224489795918,0.8333333333333334,0.8741496598639455,0.8809523809523809,0.9183673469387755,0.9217687074829932,0.9285714285714286,0.9319727891156463,0.9387755102040817,0.9421768707482994,0.9455782312925171,0.9455782312925171,0.9455782312925171,0.9455782312925171,0.9455782312925171,0.9455782312925171,0.9523809523809523,0.9523809523809523,0.9591836734693877,0.9659863945578231,0.9727891156462585,0.9727891156462585,0.9727891156462585,0.9727891156462585,0.9761904761904762,0.9863945578231292,1.0068027210884354,1.0136054421768708,1.0272108843537415,1.0408163265306123,1.0442176870748299,1.0442176870748299,1.0442176870748299,1.0476190476190477,1.0510204081632653,1.064625850340136,1.0918367346938775,1.1054421768707483,1.1156462585034013,1.1156462585034013,1.1156462585034013,1.1156462585034013,1.1156462585034013,1.1156462585034013,1.1156462585034013,1.1156462585034013,1.1156462585034013,1.1156462585034013,1.1156462585034013,1.1156462585034013,1.1156462585034013,1.1156462585034013,1.1156462585034013,1.1156462585034013,1.1156462585034013,1.1156462585034013,1.1156462585034013,1.1156462585034013,1.1156462585034013,1.1156462585034013,1.1156462585034013,1.1156462585034013,1.1156462585034013,1.1156462585034013,1.1156462585034013,1.1156462585034013,1.1156462585034013,1.1156462585034013,1.1122448979591837,1.1122448979591837,1.1122448979591837,1.1122448979591837,1.1088435374149659,1.1088435374149659,1.1088435374149659,1.1088435374149659,1.1088435374149659,1.1054421768707483,1.1054421768707483,1.1054421768707483,1.1054421768707483,1.1020408163265305,1.1020408163265305,1.1020408163265305,1.098639455782313,1.098639455782313,1.0952380952380953,1.0918367346938775,1.08843537414966,1.0816326530612246,1.0816326530612246,1.0782312925170068,1.0782312925170068,1.0748299319727892,1.0680272108843538,1.064625850340136,1.054421768707483,1.0408163265306123,1.0408163265306123,1.0374149659863945,1.034013605442177,1.034013605442177,1.030612244897959,1.030612244897959,1.0272108843537415,1.0272108843537415,1.0238095238095237,1.0238095238095237,1.0170068027210883,1.0170068027210883,1.0136054421768708,1.0068027210884354,1.0068027210884354,1.0034013605442176,1.0034013605442176,1.0034013605442176,1.0034013605442176,1,0.9965986394557823,0.9965986394557823,0.9931972789115646,0.9931972789115646,0.9931972789115646,0.9931972789115646,0.9931972789115646,0.9931972789115646,0.9931972789115646,0.9897959183673469,0.9863945578231292,0.9863945578231292,0.9829931972789115,0.9795918367346939,0.9795918367346939,0.9795918367346939,0.9795918367346939,0.9795918367346939,0.9795918367346939,0.9727891156462585,0.9727891156462585,0.9523809523809523,0.9319727891156463,0.9217687074829932,0.9183673469387755,0.9183673469387755,0.9183673469387755,0.9183673469387755,0.9183673469387755,0.9149659863945578,0.9149659863945578,0.9149659863945578,0.9081632653061225,0.9081632653061225,0.9013605442176871,0.9013605442176871,0.8979591836734694,0.8945578231292517,0.8843537414965986,0.8843537414965986,0.8775510204081632,0.8707482993197279,0.8707482993197279,0.8707482993197279,0.8673469387755102,0.8673469387755102,0.8639455782312925,0.8639455782312925,0.8605442176870748,0.8571428571428571,0.8503401360544217,0.8367346938775511,0.8333333333333334,0.8231292517006803,0.8197278911564626,0.8197278911564626,0.8197278911564626,0.8163265306122449,0.8163265306122449,0.8129251700680272,0.8129251700680272,0.8095238095238095,0.8095238095238095,0.8061224489795918],"y":[-3.1626984126984126,-3.1626984126984126,-3.1626984126984126,-3.1626984126984126,0.7420634920634922,0.7420634920634922,0.7420634920634922,0.7420634920634922,0.7420634920634922,0.7420634920634922,0.7420634920634922,0.7420634920634922,0.7420634920634922,0.7420634920634922,0.7420634920634922,0.7420634920634922,0.7420634920634922,0.7420634920634922,0.7420634920634922,0.7420634920634922,0.7515873015873018,0.7515873015873018,0.7515873015873018,0.7515873015873018,0.7515873015873018,0.7515873015873018,0.7515873015873018,0.7515873015873018,0.7515873015873018,0.7515873015873018,0.7515873015873018,0.7611111111111113,0.7611111111111113,0.7611111111111113,0.7611111111111113,0.7611111111111113,0.7611111111111113,0.7611111111111113,0.7611111111111113,0.7611111111111113,0.7611111111111113,0.7611111111111113,0.7611111111111113,0.7611111111111113,0.7611111111111113,0.7706349206349208,0.7706349206349208,0.7706349206349208,0.7706349206349208,0.7706349206349208,0.7706349206349208,0.7706349206349208,0.7706349206349208,0.7706349206349208,0.7706349206349208,0.7706349206349208,0.7706349206349208,0.7706349206349208,0.7706349206349208,0.7706349206349208,0.7706349206349208,0.7706349206349208,0.7706349206349208,0.7706349206349208,0.7706349206349208,0.7706349206349208,0.7706349206349208,0.7706349206349208,0.7706349206349208,0.7706349206349208,0.7706349206349208,0.7706349206349208,0.7706349206349208,0.7706349206349208,0.7706349206349208,0.7706349206349208,0.7706349206349208,0.7706349206349208,0.7706349206349208,0.7706349206349208,0.7706349206349208,0.7706349206349208,0.7706349206349208,0.7706349206349208,0.7706349206349208,0.7706349206349208,0.7706349206349208,0.7706349206349208,0.7706349206349208,0.7706349206349208,0.7706349206349208,0.7706349206349208,0.7706349206349208,0.7706349206349208,0.7706349206349208,0.7706349206349208,0.7706349206349208,0.7706349206349208,0.7706349206349208,0.7706349206349208,0.7706349206349208,0.7706349206349208,0.7706349206349208,0.7706349206349208,0.7706349206349208,0.7706349206349208,0.7706349206349208,0.7706349206349208,0.7706349206349208,0.7706349206349208,0.7706349206349208,0.7706349206349208,0.7706349206349208,0.7706349206349208,0.7706349206349208,0.7706349206349208,0.7706349206349208,0.7706349206349208,0.7706349206349208,0.7706349206349208,0.7706349206349208,0.7706349206349208,0.7706349206349208,0.7706349206349208,0.7706349206349208,0.7706349206349208,0.7706349206349208,0.7706349206349208,0.7706349206349208,0.7706349206349208,0.7706349206349208,0.7706349206349208,0.7706349206349208,0.7706349206349208,0.7706349206349208,0.7706349206349208,0.7706349206349208,0.7706349206349208,0.7706349206349208,0.7706349206349208,0.7706349206349208,0.7706349206349208,0.7706349206349208,0.7706349206349208,0.7706349206349208,0.7706349206349208,0.7706349206349208,0.7706349206349208,0.7706349206349208,0.7706349206349208,0.7706349206349208,0.7706349206349208,0.7706349206349208,0.7706349206349208,0.7706349206349208,0.7706349206349208,0.7706349206349208,0.7706349206349208,0.7706349206349208,0.7706349206349208,0.7706349206349208,0.7706349206349208,0.7706349206349208,0.7611111111111113,0.7611111111111113,0.7420634920634922,0.7420634920634922,0.7325396825396827,0.7325396825396827,0.7325396825396827,0.7325396825396827,0.7325396825396827,0.7325396825396827,0.7230158730158732,0.7230158730158732,0.7230158730158732,0.7230158730158732,0.7230158730158732,0.7230158730158732,0.7134920634920636,0.7134920634920636,0.7134920634920636,0.7134920634920636,0.7039682539682541,0.6944444444444446,0.6849206349206352,0.6658730158730161,0.646825396825397,0.6373015873015875,0.5992063492063494,0.5896825396825398,0.5420634920634922,0.5325396825396828,0.46587301587301605,0.43730158730158747,0.41825396825396843,0.3992063492063494,0.38015873015873036,0.36111111111111127,0.33253968253968275,0.33253968253968275,0.31349206349206366,0.31349206349206366,0.2753968253968256,0.23730158730158749,0.23730158730158749,0.1992063492063494,0.18968253968253987,0.1706349206349208,0.1611111111111113,0.14206349206349225,0.14206349206349225,0.1325396825396827,0.1325396825396827,0.1325396825396827,0.1325396825396827,0.1325396825396827,0.1325396825396827,0.1325396825396827,0.1325396825396827,0.1325396825396827,0.12301587301587319,0.12301587301587319,0.10396825396825415,0.09444444444444462,0.0849206349206351,0.06587301587301606,0.06587301587301606,0.06587301587301606,0.06587301587301606,0.06587301587301606,0.06587301587301606,0.06587301587301606,0.06587301587301606,0.06587301587301606,0.06587301587301606,0.06587301587301606,0.06587301587301606,0.06587301587301606,0.06587301587301606,0.06587301587301606,0.06587301587301606,0.06587301587301606,0.06587301587301606,0.06587301587301606,0.06587301587301606,0.06587301587301606,0.06587301587301606,0.06587301587301606,0.06587301587301606,0.06587301587301606,0.06587301587301606,0.06587301587301606,0.06587301587301606,0.06587301587301606,0.06587301587301606,0.06587301587301606,0.06587301587301606,0.06587301587301606,0.06587301587301606,0.06587301587301606,0.06587301587301606,0.06587301587301606,0.06587301587301606,0.06587301587301606,0.06587301587301606,0.06587301587301606,0.06587301587301606,0.06587301587301606,0.06587301587301606,0.07539682539682557,0.07539682539682557,0.07539682539682557,0.07539682539682557,0.07539682539682557,0.07539682539682557,0.07539682539682557,0.07539682539682557,0.07539682539682557,0.07539682539682557,0.07539682539682557,0.07539682539682557,0.0849206349206351,0.0849206349206351,0.0849206349206351,0.0849206349206351,0.0849206349206351,0.0849206349206351,0.0849206349206351,0.0849206349206351,0.0849206349206351,0.0849206349206351,0.0849206349206351,0.0849206349206351,0.0849206349206351,0.0849206349206351,0.0849206349206351,0.0849206349206351,0.0849206349206351,0.0849206349206351,0.0849206349206351,0.0849206349206351,0.0849206349206351,0.0849206349206351,0.09444444444444462,0.09444444444444462,0.09444444444444462,0.09444444444444462,0.09444444444444462,0.09444444444444462,0.09444444444444462,0.09444444444444462,0.09444444444444462,0.09444444444444462,0.09444444444444462,0.09444444444444462,0.09444444444444462,0.09444444444444462,0.09444444444444462,0.09444444444444462,0.09444444444444462,0.09444444444444462,0.09444444444444462,0.09444444444444462,0.09444444444444462,0.09444444444444462,0.09444444444444462,0.09444444444444462,0.09444444444444462,0.09444444444444462,0.09444444444444462,0.09444444444444462,0.09444444444444462,0.09444444444444462,0.09444444444444462,0.09444444444444462,0.09444444444444462,0.09444444444444462,0.09444444444444462,0.09444444444444462,0.09444444444444462,0.09444444444444462,0.09444444444444462,0.09444444444444462,0.09444444444444462,0.09444444444444462,0.09444444444444462,0.09444444444444462,0.09444444444444462,0.09444444444444462,0.09444444444444462,0.09444444444444462,0.09444444444444462,0.09444444444444462,0.09444444444444462,0.09444444444444462,0.09444444444444462,0.10396825396825415,0.10396825396825415,0.10396825396825415,0.10396825396825415,0.10396825396825415,0.10396825396825415,0.10396825396825415,0.10396825396825415,0.10396825396825415,0.10396825396825415,0.11349206349206367,0.11349206349206367,0.11349206349206367,0.11349206349206367,0.11349206349206367,0.12301587301587319,0.12301587301587319,0.12301587301587319,0.12301587301587319,0.12301587301587319,0.12301587301587319,0.1325396825396827,0.1325396825396827,0.1325396825396827,0.14206349206349225,0.14206349206349225,0.14206349206349225,0.14206349206349225,0.15158730158730177,0.15158730158730177,0.15158730158730177,0.15158730158730177,0.15158730158730177,0.15158730158730177,0.15158730158730177,0.15158730158730177,0.15158730158730177,0.15158730158730177,0.15158730158730177,0.15158730158730177,0.15158730158730177,0.1611111111111113,0.1611111111111113,0.1611111111111113,0.1706349206349208,0.1706349206349208,0.18015873015873035,0.18015873015873035,0.18015873015873035,0.18015873015873035,0.18015873015873035,0.18015873015873035,0.18015873015873035,0.18015873015873035,0.18015873015873035,0.18015873015873035,0.18015873015873035,0.18015873015873035,0.18015873015873035,0.18015873015873035,0.18015873015873035,0.18968253968253987,0.18968253968253987,0.18968253968253987,0.1992063492063494,0.1992063492063494,0.1992063492063494,0.2087301587301589,0.2087301587301589,0.2087301587301589,0.2087301587301589,0.2087301587301589,0.2087301587301589,0.2087301587301589,0.2087301587301589,0.2087301587301589,0.21825396825396842,0.21825396825396842,0.21825396825396842,0.21825396825396842,0.21825396825396842,0.21825396825396842,0.22777777777777797,0.22777777777777797,0.22777777777777797,0.22777777777777797,0.22777777777777797,0.22777777777777797,0.22777777777777797,0.22777777777777797,0.21825396825396842,0.21825396825396842,0.21825396825396842,0.21825396825396842,0.2087301587301589,0.2087301587301589,0.1992063492063494,0.1992063492063494,0.18968253968253987,0.18968253968253987,0.18968253968253987,0.18015873015873035,0.18015873015873035,0.18015873015873035,0.1706349206349208,0.1611111111111113,0.1611111111111113,0.15158730158730177,0.14206349206349225,0.1325396825396827,0.1325396825396827,0.12301587301587319,0.12301587301587319,0.11349206349206367,0.11349206349206367,0.10396825396825415,0.10396825396825415,0.09444444444444462,0.09444444444444462,0.0849206349206351,0.0849206349206351,0.0849206349206351,0.0849206349206351,0.0849206349206351,0.07539682539682557,0.07539682539682557,0.07539682539682557,0.07539682539682557,0.07539682539682557,0.07539682539682557,0.07539682539682557,0.06587301587301606,0.06587301587301606,0.06587301587301606,0.06587301587301606,0.06587301587301606,0.06587301587301606,0.06587301587301606,0.06587301587301606,0.06587301587301606,0.06587301587301606,0.06587301587301606,0.06587301587301606,0.06587301587301606,0.06587301587301606,0.06587301587301606,0.06587301587301606,0.06587301587301606,0.06587301587301606,0.06587301587301606,0.06587301587301606,0.06587301587301606,0.06587301587301606,0.06587301587301606,0.06587301587301606,0.06587301587301606,0.06587301587301606,0.06587301587301606,0.06587301587301606,0.06587301587301606,0.07539682539682557,0.07539682539682557,0.07539682539682557,0.07539682539682557,0.07539682539682557,0.07539682539682557,0.0849206349206351,0.0849206349206351,0.0849206349206351,0.0849206349206351,0.0849206349206351,0.0849206349206351,0.0849206349206351,0.09444444444444462,0.09444444444444462,0.09444444444444462,0.09444444444444462,0.09444444444444462,0.09444444444444462,0.09444444444444462,0.10396825396825415,0.10396825396825415,0.10396825396825415,0.10396825396825415,0.10396825396825415,0.10396825396825415,0.10396825396825415,0.10396825396825415,0.10396825396825415,0.10396825396825415,0.11349206349206367,0.11349206349206367,0.11349206349206367,0.11349206349206367,0.11349206349206367,0.11349206349206367,0.11349206349206367,0.11349206349206367,0.11349206349206367,0.11349206349206367,0.11349206349206367,0.11349206349206367,0.11349206349206367,0.11349206349206367,0.11349206349206367,0.12301587301587319,0.12301587301587319,0.12301587301587319,0.12301587301587319,0.12301587301587319,0.12301587301587319,0.12301587301587319,0.12301587301587319,0.12301587301587319,0.1325396825396827,0.1325396825396827,0.1325396825396827,0.1325396825396827,0.1325396825396827,0.1325396825396827,0.1325396825396827,0.1325396825396827,0.1325396825396827,0.1325396825396827,0.1325396825396827,0.1325396825396827,0.1325396825396827,0.1325396825396827,0.1325396825396827,0.1325396825396827,0.1325396825396827,0.1325396825396827,0.1325396825396827,0.14206349206349225,0.14206349206349225,0.14206349206349225,0.14206349206349225,0.14206349206349225,0.14206349206349225,0.14206349206349225,0.14206349206349225,0.14206349206349225,0.14206349206349225,0.15158730158730177,0.15158730158730177,0.15158730158730177,0.15158730158730177,0.15158730158730177,0.15158730158730177,0.15158730158730177,0.15158730158730177,0.15158730158730177,0.15158730158730177,0.15158730158730177,0.15158730158730177,0.15158730158730177,0.15158730158730177,0.15158730158730177,0.15158730158730177,0.15158730158730177,0.15158730158730177,0.15158730158730177,0.15158730158730177,0.15158730158730177,0.15158730158730177,0.15158730158730177,0.15158730158730177,0.15158730158730177,0.15158730158730177,0.15158730158730177,0.15158730158730177,0.15158730158730177,0.15158730158730177,0.15158730158730177,0.15158730158730177,0.15158730158730177,0.15158730158730177,0.15158730158730177,0.15158730158730177,0.15158730158730177,0.15158730158730177,0.15158730158730177,0.15158730158730177,0.15158730158730177,0.1611111111111113,0.1611111111111113,0.1611111111111113,0.1611111111111113,0.1611111111111113,0.1611111111111113,0.1611111111111113,0.1611111111111113,0.1611111111111113,0.1611111111111113,0.1611111111111113,0.1611111111111113,0.1611111111111113,0.1611111111111113,0.1611111111111113,0.1611111111111113,0.1611111111111113,0.1611111111111113,0.1611111111111113,0.1706349206349208,0.1706349206349208,0.1706349206349208,0.1706349206349208,0.1706349206349208,0.1706349206349208,0.1706349206349208,0.1706349206349208,0.1706349206349208,0.18015873015873035,0.18015873015873035,0.18015873015873035,0.18015873015873035,0.18015873015873035,0.18015873015873035,0.18015873015873035,0.18015873015873035,0.18015873015873035,0.18968253968253987,0.18968253968253987,0.18968253968253987,0.18968253968253987,0.18968253968253987,0.18968253968253987,0.1992063492063494,0.1992063492063494,0.1992063492063494,0.1992063492063494,0.1992063492063494,0.1992063492063494,0.2087301587301589,0.2087301587301589,0.2087301587301589,0.2087301587301589,0.2087301587301589,0.2087301587301589,0.2087301587301589,0.21825396825396842,0.21825396825396842,0.21825396825396842,0.21825396825396842,0.21825396825396842,0.21825396825396842,0.21825396825396842,0.21825396825396842,0.22777777777777797,0.22777777777777797,0.22777777777777797,0.22777777777777797,0.23730158730158749,0.23730158730158749,0.23730158730158749,0.23730158730158749,0.23730158730158749,0.23730158730158749,0.23730158730158749,0.23730158730158749,0.23730158730158749,0.23730158730158749,0.23730158730158749,0.23730158730158749,0.23730158730158749,0.23730158730158749,0.23730158730158749,0.23730158730158749,0.23730158730158749,0.23730158730158749,0.246825396825397,0.246825396825397,0.246825396825397,0.246825396825397,0.246825396825397,0.246825396825397,0.246825396825397,0.246825396825397,0.246825396825397,0.246825396825397,0.246825396825397,0.246825396825397,0.246825396825397,0.246825396825397,0.246825396825397,0.246825396825397,0.246825396825397,0.246825396825397,0.246825396825397,0.246825396825397,0.246825396825397,0.246825396825397,0.246825396825397,0.246825396825397,0.246825396825397,0.246825396825397,0.246825396825397,0.246825396825397,0.246825396825397,0.25634920634920655,0.25634920634920655,0.25634920634920655,0.25634920634920655,0.25634920634920655,0.25634920634920655,0.25634920634920655,0.25634920634920655,0.25634920634920655,0.25634920634920655,0.25634920634920655,0.25634920634920655,0.25634920634920655,0.25634920634920655,0.25634920634920655,0.25634920634920655,0.25634920634920655,0.25634920634920655,0.25634920634920655,0.25634920634920655,0.25634920634920655,0.25634920634920655,0.25634920634920655,0.25634920634920655,0.25634920634920655,0.25634920634920655,0.25634920634920655,0.25634920634920655,0.25634920634920655,0.25634920634920655,0.25634920634920655,0.25634920634920655,0.25634920634920655,0.25634920634920655,0.25634920634920655,0.25634920634920655,0.25634920634920655,0.25634920634920655,0.25634920634920655,0.26587301587301604,0.26587301587301604,0.26587301587301604,0.26587301587301604,0.26587301587301604,0.26587301587301604,0.26587301587301604,0.26587301587301604,0.26587301587301604,0.26587301587301604,0.26587301587301604,0.26587301587301604,0.26587301587301604,0.26587301587301604,0.26587301587301604,0.26587301587301604,0.26587301587301604,0.26587301587301604,0.26587301587301604,0.26587301587301604,0.26587301587301604,0.26587301587301604,0.26587301587301604,0.26587301587301604,0.26587301587301604,0.26587301587301604,0.26587301587301604,0.26587301587301604,0.26587301587301604,0.26587301587301604,0.26587301587301604,0.26587301587301604,0.26587301587301604,0.26587301587301604,0.26587301587301604,0.26587301587301604,0.26587301587301604,0.26587301587301604,0.26587301587301604,0.26587301587301604,0.26587301587301604,0.26587301587301604,0.26587301587301604,0.26587301587301604,0.26587301587301604,0.26587301587301604,0.26587301587301604,0.26587301587301604,0.26587301587301604,0.26587301587301604,0.2753968253968256,0.2753968253968256,0.2753968253968256,0.2753968253968256,0.2753968253968256,0.2753968253968256,0.2753968253968256,0.2753968253968256,0.2753968253968256,0.2753968253968256,0.2753968253968256,0.2753968253968256,0.2753968253968256,0.2849206349206351,0.2849206349206351,0.2849206349206351,0.2849206349206351,0.2849206349206351,0.2849206349206351,0.2849206349206351,0.2849206349206351,0.2849206349206351,0.2849206349206351,0.2849206349206351,0.2849206349206351,0.2849206349206351,0.2849206349206351,0.2849206349206351,0.2849206349206351,0.2849206349206351,0.2849206349206351,0.2849206349206351,0.2849206349206351,0.2849206349206351,0.2849206349206351,0.2849206349206351,0.2849206349206351,0.2849206349206351,0.2849206349206351,0.2849206349206351,0.2849206349206351,0.2849206349206351,0.2849206349206351,0.2849206349206351,0.2849206349206351,0.2849206349206351,0.2849206349206351,0.2849206349206351,0.2849206349206351,0.2849206349206351,0.2849206349206351,0.2849206349206351,0.2849206349206351,0.2849206349206351,0.2849206349206351,0.2849206349206351,0.2849206349206351,0.2849206349206351,0.2849206349206351,0.2849206349206351,0.2849206349206351,0.2849206349206351,0.2849206349206351,0.2849206349206351,0.2849206349206351,0.2849206349206351,0.2849206349206351,0.2849206349206351,0.2849206349206351,0.2849206349206351,0.2849206349206351,0.2849206349206351,0.2849206349206351,0.2849206349206351,0.2849206349206351,0.2849206349206351,0.2849206349206351,0.2849206349206351,0.2849206349206351,0.2849206349206351,0.2849206349206351,0.2849206349206351,0.2849206349206351,0.2849206349206351,0.2849206349206351,0.2849206349206351,0.2849206349206351,0.2849206349206351,0.2849206349206351,0.2849206349206351,0.2849206349206351,0.2849206349206351,0.2849206349206351,0.2849206349206351,0.2849206349206351,0.2944444444444446,0.2944444444444446,0.2944444444444446,0.2944444444444446,0.2944444444444446,0.2944444444444446,0.2944444444444446,0.2944444444444446,0.2944444444444446,0.26587301587301604,0.2087301587301589,0.18015873015873035,0.11349206349206367,0.09444444444444462,0.046825396825397006,0.03730158730158748,0.03730158730158748,0.03730158730158748,0.03730158730158748,0.03730158730158748,0.03730158730158748,0.03730158730158748,0.03730158730158748,0.03730158730158748,0.03730158730158748,0.03730158730158748,0.03730158730158748,0.03730158730158748,0.03730158730158748,0.03730158730158748,0.03730158730158748,0.03730158730158748,0.03730158730158748,0.03730158730158748,0.03730158730158748,0.03730158730158748,0.03730158730158748,0.03730158730158748,0.03730158730158748,0.03730158730158748,0.03730158730158748,0.03730158730158748,0.03730158730158748,0.03730158730158748,0.03730158730158748,0.03730158730158748,0.03730158730158748,0.03730158730158748,0.03730158730158748,0.03730158730158748,0.03730158730158748,0.03730158730158748,0.03730158730158748,0.03730158730158748,0.03730158730158748,0.03730158730158748,0.03730158730158748,0.03730158730158748,0.03730158730158748,0.03730158730158748,0.03730158730158748,0.03730158730158748,0.03730158730158748,0.03730158730158748,0.03730158730158748,0.03730158730158748,0.03730158730158748,0.03730158730158748,0.03730158730158748,0.03730158730158748,0.03730158730158748,0.03730158730158748,0.03730158730158748,0.03730158730158748,0.03730158730158748,0.03730158730158748,0.03730158730158748,0.03730158730158748,0.03730158730158748,0.03730158730158748,0.03730158730158748,0.03730158730158748,0.03730158730158748,0.03730158730158748,0.03730158730158748,0.03730158730158748,0.03730158730158748,0.03730158730158748,0.03730158730158748,0.03730158730158748,0.03730158730158748,0.03730158730158748,0.03730158730158748,0.03730158730158748,0.03730158730158748,0.03730158730158748,0.046825396825397006,0.046825396825397006,0.046825396825397006,0.046825396825397006,0.05634920634920653,0.05634920634920653,0.05634920634920653,0.05634920634920653,0.05634920634920653,0.05634920634920653,0.06587301587301606,0.06587301587301606,0.06587301587301606,0.07539682539682557,0.07539682539682557,0.0849206349206351,0.0849206349206351,0.0849206349206351,0.0849206349206351,0.0849206349206351,0.0849206349206351,0.09444444444444462,0.09444444444444462,0.09444444444444462,0.10396825396825415,0.11349206349206367,0.11349206349206367,0.11349206349206367,0.11349206349206367,0.11349206349206367,0.12301587301587319,0.12301587301587319,0.12301587301587319,0.12301587301587319,0.12301587301587319,0.1325396825396827,0.1325396825396827,0.1325396825396827,0.1325396825396827,0.1325396825396827,0.1325396825396827,0.1325396825396827,0.14206349206349225,0.14206349206349225,0.15158730158730177,0.15158730158730177,0.15158730158730177,0.15158730158730177,0.1611111111111113,0.1611111111111113,0.1706349206349208,0.1706349206349208,0.1706349206349208,0.18015873015873035,0.18015873015873035,0.18015873015873035,0.18015873015873035,0.18015873015873035,0.18015873015873035,0.18968253968253987,0.18968253968253987,0.1992063492063494,0.1992063492063494,0.2087301587301589,0.2087301587301589,0.2087301587301589,0.2087301587301589,0.2087301587301589,0.2087301587301589,0.2087301587301589,0.2087301587301589,0.2087301587301589,0.2087301587301589,0.21825396825396842,0.21825396825396842,0.22777777777777797,0.22777777777777797,0.22777777777777797,0.23730158730158749,0.23730158730158749,0.23730158730158749,0.23730158730158749,0.23730158730158749,0.23730158730158749,0.246825396825397,0.246825396825397,0.246825396825397,0.26587301587301604,0.26587301587301604,0.2849206349206351,0.2944444444444446,0.30396825396825417,0.30396825396825417,0.31349206349206366,0.31349206349206366,0.31349206349206366,0.31349206349206366,0.31349206349206366,0.31349206349206366,0.31349206349206366,0.31349206349206366,0.31349206349206366,0.3230158730158732,0.33253968253968275,0.33253968253968275,0.34206349206349224,0.3515873015873018,0.3706349206349208,0.3706349206349208,0.38015873015873036,0.38015873015873036,0.38015873015873036,0.38015873015873036,0.38015873015873036,0.38015873015873036,0.38015873015873036,0.38015873015873036,0.38015873015873036,0.38968253968253985,0.3992063492063494,0.3992063492063494,0.3992063492063494,0.4087301587301589,0.4087301587301589,0.4087301587301589,0.4087301587301589,0.4087301587301589,0.4087301587301589,0.4087301587301589,0.4087301587301589,0.4087301587301589,0.41825396825396843,0.41825396825396843,0.427777777777778,0.427777777777778,0.43730158730158747,0.43730158730158747,0.43730158730158747,0.446825396825397,0.446825396825397,0.446825396825397,0.4563492063492065,0.4563492063492065,0.4563492063492065,0.4563492