[{"success":true,"trial_type":"fullscreen","trial_index":0,"time_elapsed":9117,"internal_node_id":"0.0-0.0","protocol_sum":"","subject_identifier":530,"subject_sum":[118,139,132,239,5,246,85,213,127,226,45,72,132,81,240,117,54,95,108,209,138,19,7,52,102,170,130,108,192,235,219,251],"subject_pair":265,"STUDY_ID":"66a3ed3c5d10d0e7d8a6b9da","PROLIFIC_PID":"66441c9e616f79e9d27738d3","SESSION_ID":"66a46a9e2a651831942096be","practice_instructions":1,"leaderboard_instructions":0,"bonus":0,"reveal_word":false,"self_rating":"6","confidence":"0"},{"view_history":"[{\"page_index\":0,\"viewing_time\":5520.70000000298}]","rt":5521.4000000059605,"trial_type":"instructions","trial_index":1,"time_elapsed":14640,"internal_node_id":"0.0-1.0","protocol_sum":"","subject_identifier":530,"subject_sum":[118,139,132,239,5,246,85,213,127,226,45,72,132,81,240,117,54,95,108,209,138,19,7,52,102,170,130,108,192,235,219,251],"subject_pair":265,"STUDY_ID":"66a3ed3c5d10d0e7d8a6b9da","PROLIFIC_PID":"66441c9e616f79e9d27738d3","SESSION_ID":"66a46a9e2a651831942096be","practice_instructions":1,"leaderboard_instructions":0,"bonus":0,"reveal_word":false,"self_rating":"6","confidence":"0"},{"view_history":"[{\"page_index\":0,\"viewing_time\":17710.5}]","rt":17711,"trial_type":"instructions","trial_index":2,"time_elapsed":32352,"internal_node_id":"0.0-2.0-0.0","protocol_sum":"","subject_identifier":530,"subject_sum":[118,139,132,239,5,246,85,213,127,226,45,72,132,81,240,117,54,95,108,209,138,19,7,52,102,170,130,108,192,235,219,251],"subject_pair":265,"STUDY_ID":"66a3ed3c5d10d0e7d8a6b9da","PROLIFIC_PID":"66441c9e616f79e9d27738d3","SESSION_ID":"66a46a9e2a651831942096be","practice_instructions":1,"leaderboard_instructions":0,"bonus":0,"reveal_word":false,"self_rating":"6","confidence":"0"},{"rt":6838.0999999940395,"responses":"{\"Q0\":\"... reveal the word with as <b>few letter guesses</b> as possible\"}","question_order":"[0]","trial_type":"survey-multi-choice","trial_index":3,"time_elapsed":39193,"internal_node_id":"0.0-2.0-1.0","protocol_sum":"","subject_identifier":530,"subject_sum":[118,139,132,239,5,246,85,213,127,226,45,72,132,81,240,117,54,95,108,209,138,19,7,52,102,170,130,108,192,235,219,251],"subject_pair":265,"correct":true,"test_part":"multichoice_nonpretend","STUDY_ID":"66a3ed3c5d10d0e7d8a6b9da","PROLIFIC_PID":"66441c9e616f79e9d27738d3","SESSION_ID":"66a46a9e2a651831942096be","practice_instructions":1,"leaderboard_instructions":0,"bonus":0,"reveal_word":false,"self_rating":"6","confidence":"0"},{"view_history":"[{\"page_index\":0,\"viewing_time\":1445.2000000029802}]","rt":1445.6000000089407,"trial_type":"instructions","trial_index":4,"time_elapsed":40640,"internal_node_id":"0.0-3.0","protocol_sum":"","subject_identifier":530,"subject_sum":[118,139,132,239,5,246,85,213,127,226,45,72,132,81,240,117,54,95,108,209,138,19,7,52,102,170,130,108,192,235,219,251],"subject_pair":265,"STUDY_ID":"66a3ed3c5d10d0e7d8a6b9da","PROLIFIC_PID":"66441c9e616f79e9d27738d3","SESSION_ID":"66a46a9e2a651831942096be","practice_instructions":1,"leaderboard_instructions":0,"bonus":0,"reveal_word":false,"self_rating":"6","confidence":"0"},{"word":"ZEBRA","click_log":{"letter":["","A","T","S","O","I","M","K","J","B","E","Z","R"],"t":[0,8292.70000000298,15551.5,16775.30000001192,20142.5,21390.60000000894,22406.60000000894,23262.70000000298,23950.60000000894,24662.20000000298,27582,29966.10000000894,32126.80000001192],"hit":[null,1,0,0,0,0,0,0,0,1,1,1,1],"asked":["","A","AT","ATS","ATSO","ATSOI","ATSOIM","ATSOIMK","ATSOIMKJ","ATSOIMKJB","ATSOIMKJBE","ATSOIMKJBEZ","ATSOIMKJBEZR"],"word_state":["_____","____A","____A","____A","____A","____A","____A","____A","____A","__B_A","_EB_A","ZEB_A","ZEBRA"]},"hover_log":{"letter":["?","?","?","?","?","?","?","?","?","?","?","?","?","?","?","?","?","?","?","?","?","?","?","?","?","?","?","?","U","X","Y","Y","Y","Y","Y","Y","?","Z","Z","Z","Z","Z","Z","Z","Z","Z","Z","Z","Z","Z","Z","Z","Y","Y","Y","Y","Y","Y","Y","Y","Y","Y","Y","Y","Y","Y","Y","Y","Y","Y","Y","Y","Y","Y","Y","Y","Y","Y","Y","?","?","?","?","?","?","?","?","?","?","?","?","?","?","?","?","?","?","?","?","?","?","?","?","?","?","?","?","?","?","?","?","?","?","?","?","?","?","?","?","?","?","?","?","?","?","?","?","?","?","?","?","?","?","?","?","?","?","?","?","?","?","?","?","?","?","?","?","?","?","?","?","?","?","?","?","?","?","?","?","?","?","?","?","?","?","?","?","?","?","?","?","?","?","?","P","?","?","P","P","P","?","?","?","?","?","?","?","?","?","?","?","?","?","?","?","?","?","?","?","?","?","?","?","?","?","O","N","N","?","?","?","?","?","?","?","?","?","?","?","?","?","?","?","?","?","?","?","?","?","?","?","?","?","?","?","?","?","?","?","N","N","?","?","?","?","?","?","?","?","?","?","?","F","F","?","?","?","?","?","?","?","?","?","?","?","?","?","?","?","?","?","?","?","?","?","?","?","?","?","?","?","?","?","?","?","?","?","?","?","?","?","F","F","F","F","?","?","?","?","?","?","?","?","?","?","?","?","?","?","?","?","?","?","?","?","?","?","?","?","?","?","?","?","?","?","?","?","?","?","?","?","?","?","?","?","?","?","?","?","?","?","?","?","?","?","?","?","N","?","M","M","M","M","?","?","U","U","U","U","U","U","U","U","U","U","U","U","U","U","U","U","U","U","U","U","U","U","U","U","U","U","U","U","U","U","?","?","?","?","?","?","?","?","?","?","?","?","?","?","?","?","?","?","?","?","?","?","?","?","?","?","?","?","?","?","?","?","?","?","?","?","?","?","?","?","?","T","T","T","T","T","T","T","T","T","T","T","T","T","T","T","T","T","T","T","T","T","T","T","T","T","T","T","T","T","T","T","T","T","?","?","?","?","K","K","K","?","?","?","?","?","?","?","?","?","?","?","?","A","A","A","A","A","A","A","A","A","A","A","A","A","A","A","A","A","A","A","A","A","A","A","A","A","A","A","A","A","A","A","A","A","A","A","?","?","?","?","?","?","?","?","?","?","?","?","?","?","?","?","?","T","T","T","T","T","T","T","T","T","T","T","T","T","T","T","T","T","T","T","T","T","T","T","T","T","T","T","T","T","T","T","T","T","T","T","T","T","T","T","T","T","T","T","T","T","T","T","T","T","T","T","T","T","T","T","T","T","T","T","?","?","?","?","?","M","?","N","N","?","F","?","?","?","?","?","?","?","?","?","?","?","?","?","?","?","?","?","?","?","?","?","?","?","?","?","?","?","?","?","?","?","?","?","?","?","?","?","?","?","?","?","?","?","?","?","?","?","?","?","?","?","?","?","?","?","?","?","?","?","?","?","?","?","?","?","?","?","?","?","?","?","?","?","?","?","?","?","?","?","?","?","?","?","?","?","?","?","?","?","?","?","?","?","?","?","?","?","?","?","?","?","?","?","?","?","?","?","?","?","?","?","?","?","?","?","?","?","?","?","?","?","?","?","?","?","?","?","?","?","?","?","?","?","?","?","?","?","?","?","?","?","?","?","?","?","?","?","?","?","?","?","?","?","?","?","?","?","?","?","?","?","?","?","?","?","?","?","?","?","?","?","H","H","H","?","?","?","?","Q","Q","Q","Q","Q","?","?","?","?","?","?","?","?","?","?","?","?","?","?","?","W","W","?","?","?","V","V","V","?","?","?","?","?","?","?","?","?","?","U","U","U","U","?","?","?","?","?","?","?","?","?","?","?","?","?","?","?","?","?","?","?","?","?","?","?","?","?","?","?","K","K","?","?","C","C","?","?","?","?","?","?","?","?","?","?","?","?","E","E","E","E","E","E","E","E","E","?","?","?","?","?","O","O","O","O","?","?","?","?","?","?","?","O","O","O","?","N","?","?","?","?","?","?","?","?","?","?","?","?","?","?","?","?","?","T","T","T","T","T","T","T","T","T","T","T","T","T","T","T","T","T","T","T","T","T","T","T","T","T","T","T","T","T","T","T","T","T","T","T","T","T","T","T","T","T","T","T","T","T","T","T","T","T","T","?","?","S","S","S","S","S","S","S","S","S","S","S","S","S","S","S","S","S","S","S","S","S","S","S","S","S","S","S","S","S","S","S","S","S","S","S","S","S","S","S","S","S","S","S","S","S","S","S","S","S","S","S","S","S","S","S","S","S","S","S","S","S","S","S","S","S","S","S","S","S","S","S","S","S","S","S","S","S","S","S","S","S","S","S","S","S","S","S","S","S","?","?","?","?","?","?","?","K","K","K","K","K","K","?","L","L","L","L","L","?","?","?","?","?","?","?","?","?","?","?","?","E","E","E","E","?","?","?","?","F","F","F","F","?","?","?","?","?","?","?","?","?","?","?","?","?","?","?","?","?","?","?","?","?","?","?","?","?","?","?","?","?","?","?","?","?","?","?","?","?","?","?","?","?","?","?","?","?","?","?","?","?","?","?","?","?","?","P","P","P","O","O","O","O","O","?","?","?","?","?","?","?","?","?","?","?","?","?","?","O","O","O","O","O","O","O","O","O","O","O","O","O","O","O","O","O","O","O","O","O","O","O","O","O","O","O","O","O","O","O","O","O","O","O","O","O","O","O","O","O","O","O","O","O","O","O","O","O","O","O","O","O","O","O","O","O","O","O","O","O","O","O","O","O","O","O","O","O","O","O","O","O","O","O","O","?","P","P","P","Q","Q","Q","?","?","?","I","I","I","I","I","I","I","I","I","I","I","I","I","I","I","I","I","I","I","I","I","I","I","I","I","I","I","?","?","?","?","?","?","?","?","?","?","Q","Q","Q","Q","Q","?","P","P","P","P","?","?","O","?","?","?","?","?","?","?","?","M","M","M","M","M","M","M","M","M","M","M","M","M","M","M","M","M","M","M","M","M","M","M","M","M","M","M","M","M","M","M","M","M","M","M","?","?","?","L","L","L","L","L","L","L","L","L","L","L","L","L","L","?","?","?","?","?","?","K","K","K","K","K","K","K","K","K","K","K","K","K","K","K","K","K","K","K","K","K","K","K","K","K","K","K","K","K","K","K","K","K","K","K","K","K","?","?","?","J","J","J","J","J","J","J","J","J","J","J","J","J","J","J","J","J","J","J","J","J","J","J","J","J","J","J","J","J","?","?","?","?","?","B","B","B","B","B","B","B","B","B","B","B","B","B","B","B","B","B","B","B","B","B","B","B","B","B","B","B","B","B","B","B","B","B","B","B","B","B","B","B","B","B","B","B","B","?","?","?","?","?","?","?","?","?","?","C","C","C","C","C","C","C","C","C","C","C","C","C","C","C","C","C","C","C","C","C","C","C","C","C","C","C","C","C","C","C","C","C","C","C","C","C","C","C","C","C","C","C","C","C","C","C","C","C","C","C","C","C","C","C","C","C","C","C","C","C","C","C","C","C","C","C","C","C","C","C","C","C","C","C","C","C","C","C","C","C","C","C","C","C","C","C","C","C","C","C","C","C","C","C","C","C","C","C","C","C","C","C","C","C","?","?","D","D","D","D","D","D","D","D","D","D","D","D","D","D","D","D","D","D","D","D","D","?","?","?","E","E","E","E","E","E","E","E","E","E","E","E","E","E","E","E","E","E","E","E","E","E","E","E","E","E","E","E","E","E","E","E","E","E","E","E","E","E","E","E","E","E","E","E","E","?","F","F","F","F","F","F","F","F","F","F","F","F","F","F","F","F","F","F","F","F","F","F","F","F","F","F","F","F","F","F","F","F","F","F","F","F","F","F","F","F","F","F","F","F","?","?","?","?","?","?","?","?","F","F","F","?","E","?","?","?","?","L","L","L","L","L","L","L","L","L","L","L","L","L","L","L","?","?","?","?","?","?","?","Y","Y","?","?","?","?","?","?","?","?","?","?","?","?","?","?","?","?","?","?","?","?","Z","Z","Z","Z","Z","Z","Z","Z","Z","Z","Z","Z","Z","Z","Z","Z","Z","Z","Z","Z","Z","Z","Z","Z","Z","Z","Z","Z","Z","Z","Z","Z","?","Y","Y","Y","Y","?","X","X","X","X","X","?","?","?","?","?","M","M","M","M","M","M","M","M","M","M","M","M","M","M","M","M","M","M","M","M","M","M","?","?","?","?","?","?","W","?","?","X","X","X","X","X","X","?","?","?","?","?","?","?","?","?","?","?","?","?","?","Q","Q","Q","Q","Q","Q","Q","Q","Q","Q","Q","Q","Q","?","?","?","?","?","R","R","R","R","R","R","R","R","R","R","R","R","R","R","R","R","R","R","R","R","R","R","R","R","R","R","R","R","R","R","R","R","R","R","R","R","R","R","R","R","R","R","R","R","R","R","R","R","R","R","R","?","Q","Q","Q","?","?","?","?","Y","?","X","?","?","?","?","?","?","?","?","?","?","?","?","?","?","?","?","?","?","?","?","?","?","?","?","?","?","?","?","?","?","?","?","?","?","?","?","?","?","?","?","?","?","?","?","?","?","?","?","?","?","?","?","?","?","?","?","?","?","?","?","?","?","?","?","?","?","?","?","?","?","?","?","?","?","?","?","?","?","?","?","?","?"],"t":[44,55,73,89,104,121,139,155,171,189,205,221,238,254,271,288,305,322,338,354,372,388,405,423,438,455,472,489,506,522,539,555,572,589,605,622,638,656,671,689,705,721,738,755,771,788,805,821,839,855,872,889,907,922,938,954,971,988,1005,1022,1038,1055,1071,1088,1105,1122,1138,1156,1171,1187,1206,1222,1238,1255,1271,1288,1306,1322,1339,1354,1372,1388,1405,1421,1439,1455,1475,1488,1505,1521,1538,1554,1571,1588,1606,1621,1637,1654,1672,1689,1705,1722,1739,1755,1771,1788,1805,1821,1837,1854,1871,1887,1905,1921,1937,1954,1971,1987,2004,2020,2037,2055,2071,2087,2105,2120,2138,2154,2172,2188,2204,2221,2237,2254,2272,2288,2304,2321,2338,2354,2371,2388,2404,2421,2437,2454,2470,2487,2504,2521,2539,2555,2571,2588,2605,2621,2638,2654,2671,2688,2705,2722,2738,2754,2771,2788,2804,2821,2838,2854,2871,2888,2904,2922,2946,2971,2989,3004,3021,3039,3054,3071,3087,3104,3121,3138,3155,3171,3187,3205,3221,3238,3254,3271,3287,3304,3321,3338,3354,3371,3387,3404,3420,3438,3455,3472,3488,3505,3521,3538,3554,3571,3587,3604,3621,3637,3654,3671,3688,3705,3721,3738,3753,3771,3788,3805,3821,3838,3854,3871,3887,3904,3921,3937,3954,3971,3988,4005,4022,4039,4054,4071,4088,4104,4120,4137,4153,4171,4190,4204,4221,4238,4254,4271,4288,4305,4322,4338,4354,4371,4388,4407,4422,4437,4454,4470,4487,4504,4520,4537,4553,4571,4588,4604,4620,4638,4654,4671,4687,4703,4720,4737,4754,4771,4789,4804,4820,4839,4854,4871,4888,4904,4921,4938,4955,4971,4988,5004,5021,5038,5055,5071,5087,5104,5121,5137,5154,5171,5188,5204,5221,5238,5254,5271,5289,5305,5321,5338,5354,5371,5387,5404,5420,5438,5454,5471,5490,5504,5521,5538,5554,5571,5588,5604,5620,5637,5655,5671,5688,5704,5721,5737,5754,5771,5788,5805,5822,5838,5855,5876,5887,5904,5921,5938,5954,5972,5988,6004,6021,6038,6055,6071,6087,6104,6121,6137,6155,6172,6187,6204,6221,6238,6254,6271,6288,6305,6322,6340,6354,6371,6387,6404,6421,6438,6454,6472,6488,6504,6521,6537,6554,6571,6590,6604,6621,6638,6654,6671,6688,6704,6721,6738,6754,6771,6788,6804,6821,6838,6855,6871,6889,6905,6920,6938,6955,6971,6990,7004,7022,7038,7056,7072,7087,7105,7123,7138,7155,7171,7189,7205,7221,7238,7254,7271,7289,7308,7321,7338,7355,7371,7388,7404,7421,7439,7454,7470,7487,7504,7521,7538,7555,7570,7587,7605,7621,7638,7655,7671,7688,7704,7721,7738,7755,7772,7788,7804,7822,7839,7855,7872,7888,7906,7921,7938,7955,7971,7988,8006,8021,8038,8055,8072,8088,8104,8121,8138,8155,8171,8189,8205,8221,8238,8255,8271,8290,8305,8323,8338,8355,8371,8388,8405,8423,8439,8455,8472,8489,8505,8522,8538,8555,8571,8588,8605,8622,8638,8656,8672,8689,8705,8721,8739,8759,8771,8789,8805,8822,8840,8855,8871,8889,8905,8922,8938,8955,8971,8988,9004,9021,9038,9055,9072,9088,9106,9123,9138,9155,9171,9188,9205,9222,9238,9254,9271,9288,9304,9321,9338,9354,9371,9387,9404,9422,9437,9455,9472,9489,9505,9523,9538,9555,9571,9588,9605,9622,9638,9655,9672,9688,9704,9722,9739,9755,9772,9789,9804,9822,9838,9855,9872,9890,9907,9922,9938,9955,9972,9989,10004,10022,10039,10056,10072,10088,10107,10122,10139,10159,10172,10188,10204,10221,10238,10255,10273,10289,10306,10323,10339,10354,10372,10388,10405,10422,10438,10455,10472,10488,10505,10524,10540,10555,10572,10589,10605,10622,10639,10655,10672,10688,10705,10721,10739,10755,10772,10789,10805,10822,10839,10856,10872,10889,10905,10922,10940,10955,10971,10989,11005,11021,11039,11055,11072,11088,11105,11121,11138,11155,11172,11188,11205,11221,11238,11255,11273,11289,11305,11321,11339,11355,11372,11389,11405,11421,11439,11455,11472,11489,11505,11522,11538,11555,11573,11590,11605,11622,11638,11654,11672,11688,11707,11721,11738,11755,11771,11789,11807,11822,11839,11855,11871,11889,11905,11922,11939,11955,11972,11988,12005,12022,12038,12055,12072,12089,12105,12122,12139,12155,12171,12189,12205,12222,12239,12255,12272,12289,12305,12322,12339,12355,12372,12389,12405,12422,12440,12457,12472,12488,12506,12522,12538,12556,12572,12589,12605,12623,12640,12655,12672,12689,12705,12722,12738,12755,12772,12788,12805,12822,12838,12856,12872,12890,12907,12923,12939,12957,12972,12989,13005,13022,13039,13055,13072,13090,13106,13122,13140,13155,13172,13189,13205,13224,13238,13255,13272,13289,13306,13322,13340,13356,13372,13389,13405,13423,13440,13456,13472,13489,13505,13522,13539,13556,13572,13588,13605,13622,13639,13655,13672,13689,13705,13722,13738,13756,13772,13788,13805,13822,13839,13856,13872,13889,13905,13923,13939,13955,13972,13989,14005,14022,14041,14055,14072,14088,14105,14121,14138,14155,14173,14190,14205,14222,14239,14256,14272,14289,14305,14323,14338,14355,14376,14394,14422,14440,14455,14472,14491,14506,14522,14539,14556,14572,14589,14606,14623,14639,14658,14672,14689,14705,14723,14739,14755,14772,14790,14805,14824,14840,14855,14872,14888,14905,14922,14938,14955,14973,14989,15007,15022,15039,15056,15073,15089,15105,15122,15139,15156,15172,15190,15206,15223,15240,15255,15273,15289,15305,15323,15339,15354,15372,15388,15405,15423,15439,15455,15472,15488,15505,15521,15539,15556,15573,15589,15605,15621,15640,15656,15672,15688,15705,15722,15740,15757,15772,15790,15806,15826,15839,15856,15872,15889,15907,15922,15939,15956,15973,15989,16006,16022,16039,16055,16073,16089,16106,16122,16140,16155,16172,16190,16206,16222,16239,16255,16272,16289,16306,16322,16338,16355,16372,16389,16406,16424,16439,16457,16473,16489,16505,16522,16540,16556,16572,16589,16605,16622,16639,16655,16671,16688,16705,16722,16739,16755,16771,16789,16806,16822,16840,16855,16872,16891,16905,16922,16939,16955,16972,16989,17005,17022,17039,17055,17072,17089,17105,17122,17140,17155,17172,17189,17205,17221,17239,17256,17273,17289,17305,17321,17340,17355,17373,17389,17405,17422,17439,17455,17472,17489,17505,17522,17540,17555,17573,17590,17606,17623,17639,17656,17673,17689,17705,17723,17739,17755,17774,17789,17806,17823,17839,17857,17872,17890,17906,17923,17939,17956,17972,17990,18006,18023,18040,18056,18072,18088,18108,18122,18140,18155,18172,18190,18205,18222,18240,18256,18272,18289,18306,18323,18339,18356,18374,18390,18407,18422,18439,18456,18472,18489,18505,18522,18538,18555,18572,18588,18605,18622,18639,18655,18679,18689,18705,18722,18739,18755,18772,18789,18805,18822,18840,18855,18872,18891,18906,18922,18939,18955,18972,18989,19007,19022,19039,19055,19072,19089,19106,19122,19139,19157,19172,19189,19206,19222,19239,19256,19272,19289,19306,19323,19339,19356,19372,19389,19407,19423,19440,19455,19472,19489,19505,19522,19539,19555,19572,19589,19607,19622,19639,19656,19672,19689,19705,19722,19739,19756,19772,19789,19806,19822,19840,19855,19872,19888,19906,19922,19940,19955,19972,19989,20005,20021,20039,20058,20076,20088,20105,20122,20138,20156,20172,20189,20206,20222,20239,20256,20273,20289,20305,20322,20339,20356,20373,20389,20406,20423,20439,20456,20472,20490,20506,20523,20539,20555,20572,20589,20606,20622,20639,20655,20674,20690,20706,20723,20740,20756,20774,20789,20805,20822,20839,20856,20872,20889,20906,20923,20939,20956,20975,20991,21007,21022,21040,21056,21073,21089,21105,21123,21139,21155,21172,21190,21205,21223,21239,21255,21272,21290,21306,21322,21339,21355,21372,21389,21406,21422,21440,21456,21473,21490,21506,21524,21540,21556,21573,21590,21606,21623,21640,21656,21673,21689,21707,21723,21740,21756,21773,21791,21807,21823,21840,21857,21872,21890,21905,21923,21939,21956,21973,21990,22006,22023,22040,22056,22073,22089,22105,22122,22140,22156,22173,22190,22206,22222,22239,22257,22272,22290,22306,22323,22340,22356,22373,22389,22406,22424,22439,22456,22473,22489,22505,22523,22541,22557,22573,22590,22607,22623,22640,22656,22673,22689,22706,22723,22739,22756,22773,22790,22806,22823,22840,22856,22873,22890,22907,22923,22939,22956,22974,22990,23007,23023,23039,23056,23073,23089,23106,23123,23140,23156,23172,23190,23206,23223,23240,23256,23273,23290,23306,23323,23341,23356,23372,23390,23406,23423,23440,23457,23473,23490,23506,23523,23540,23556,23573,23592,23606,23624,23640,23656,23673,23690,23706,23723,23739,23757,23773,23789,23806,23823,23840,23858,23873,23890,23906,23922,23940,23956,23973,23991,24007,24023,24041,24056,24073,24090,24106,24123,24140,24157,24173,24191,24208,24223,24240,24257,24273,24289,24305,24323,24340,24356,24373,24390,24406,24423,24441,24456,24472,24490,24506,24523,24540,24556,24573,24589,24607,24622,24639,24656,24673,24690,24706,24724,24739,24755,24773,24790,24806,24824,24840,24856,24873,24890,24907,24923,24940,24956,24973,24990,25006,25023,25040,25056,25073,25090,25106,25123,25140,25157,25173,25190,25207,25223,25240,25257,25272,25290,25306,25323,25340,25356,25373,25390,25406,25424,25440,25456,25473,25491,25506,25523,25540,25556,25573,25589,25607,25623,25639,25656,25673,25692,25706,25723,25739,25757,25775,25790,25806,25824,25840,25856,25873,25889,25906,25923,25939,25956,25973,25990,26006,26023,26040,26058,26073,26090,26106,26123,26139,26156,26173,26190,26207,26224,26240,26256,26273,26291,26307,26324,26340,26356,26373,26390,26406,26423,26440,26457,26474,26490,26506,26523,26540,26556,26573,26589,26606,26624,26640,26656,26673,26690,26706,26723,26740,26756,26773,26790,26806,26823,26842,26857,26873,26891,26908,26923,26940,26957,26973,26992,27008,27023,27041,27057,27073,27090,27106,27124,27140,27156,27173,27190,27206,27223,27241,27257,27274,27291,27307,27324,27339,27356,27373,27390,27406,27424,27440,27456,27473,27491,27506,27523,27540,27557,27573,27590,27607,27623,27639,27656,27673,27690,27707,27723,27740,27757,27773,27791,27806,27822,27840,27856,27873,27890,27906,27923,27940,27956,27974,27990,28007,28023,28040,28057,28073,28090,28107,28123,28140,28156,28173,28190,28207,28223,28240,28256,28273,28291,28307,28323,28341,28358,28374,28392,28407,28423,28440,28457,28473,28490,28506,28523,28540,28557,28574,28590,28606,28623,28640,28657,28673,28689,28706,28723,28740,28756,28774,28790,28806,28823,28840,28857,28874,28890,28907,28924,28940,28957,28973,28990,29007,29024,29040,29057,29073,29091,29109,29123,29140,29157,29173,29190,29206,29223,29240,29256,29274,29290,29307,29324,29340,29357,29374,29393,29407,29423,29440,29457,29473,29490,29507,29524,29540,29557,29574,29591,29607,29625,29640,29657,29673,29690,29707,29723,29741,29760,29773,29791,29808,29824,29841,29857,29874,29890,29907,29923,29940,29956,29973,29990,30008,30024,30040,30057,30073,30090,30107,30123,30141,30157,30173,30190,30207,30224,30241,30257,30273,30290,30307,30324,30340,30357,30374,30390,30409,30423,30440,30457,30474,30490,30508,30524,30540,30557,30573,30590,30607,30624,30640,30658,30673,30691,30706,30723,30741,30757,30774,30790,30807,30824,30841,30857,30874,30890,30907,30924,30941,30957,30974,30991,31008,31024,31041,31058,31074,31091,31107,31126,31140,31158,31174,31192,31208,31224,31241,31257,31274,31291,31307,31324,31340,31357,31375,31393,31407,31424,31440,31457,31473,31491,31507,31524,31540,31557,31574,31591,31608,31624,31641,31658,31674,31691,31707,31724,31741,31757,31773,31791,31808,31825,31840,31857,31874,31890,31907,31925,31941,31956,31974,31990,32010,32023,32042,32056,32073,32090,32107,32123,32144,32157,32174,32190,32207,32224,32241,32257,32274,32291,32307,32323,32341,32357,32374,32390,32407,32423,32443,32463,32474,32493,32507,32524,32541,32559,32574,32591,32609,32625,32641,32658,32674,32691,32707,32723,32740,32758,32775,32792,32807,32824,32842,32858,32874,32892,32907,32924,32940,32958,32974,32991,33007,33025,33040,33057,33074,33091,33107,33124,33140,33157,33173,33191,33208,33224,33241,33258,33274,33291,33308,33324,33341,33357,33374,33390,33408,33423,33441,33457,33474,33491,33507,33524,33541,33557,33574,33591,33607,33625,33641,33657,33674,33690,33707,33725,33741,33757,33774,33794,33808,33824,33841,33857,33874,33891,33908,33925,33941,33957,33975,33991,34007,34024,34042,34058,34074,34090,34107,34124,34143],"hit":[null],"x":[-2.693877551020408,-2.693877551020408,-2.693877551020408,-2.693877551020408,-2.693877551020408,-2.693877551020408,-2.693877551020408,-2.693877551020408,-2.693877551020408,-2.693877551020408,-2.693877551020408,-2.693877551020408,-2.693877551020408,-2.693877551020408,-2.693877551020408,-2.693877551020408,-2.693877551020408,-2.693877551020408,-2.693877551020408,-2.693877551020408,-2.693877551020408,-2.693877551020408,-0.8095238095238095,-0.7959183673469388,-0.7312925170068028,-0.6156462585034014,-0.37755102040816324,-0.04421768707482993,0.2925170068027211,0.6836734693877551,0.8197278911564626,0.8741496598639455,0.8843537414965986,0.8843537414965986,0.8979591836734694,0.9081632653061225,0.9217687074829932,0.9523809523809523,0.9727891156462585,0.9863945578231292,0.9897959183673469,0.9965986394557823,0.9965986394557823,0.9965986394557823,0.9965986394557823,0.9965986394557823,0.9965986394557823,0.9965986394557823,0.9965986394557823,0.9965986394557823,0.9829931972789115,0.9455782312925171,0.9013605442176871,0.8503401360544217,0.8333333333333334,0.8333333333333334,0.8333333333333334,0.8333333333333334,0.8333333333333334,0.8333333333333334,0.8333333333333334,0.8333333333333334,0.8333333333333334,0.8333333333333334,0.8333333333333334,0.8333333333333334,0.8333333333333334,0.8333333333333334,0.8333333333333334,0.8333333333333334,0.8299319727891157,0.8299319727891157,0.8333333333333334,0.8333333333333334,0.8333333333333334,0.8367346938775511,0.8435374149659864,0.8673469387755102,0.8809523809523809,0.8945578231292517,0.8979591836734694,0.8979591836734694,0.9013605442176871,0.9047619047619048,0.9115646258503401,0.9183673469387755,0.9251700680272109,0.9251700680272109,0.9251700680272109,0.9251700680272109,0.9251700680272109,0.9251700680272109,0.9251700680272109,0.9251700680272109,0.9251700680272109,0.9251700680272109,0.9251700680272109,0.9251700680272109,0.9251700680272109,0.9285714285714286,0.9285714285714286,0.9285714285714286,0.9285714285714286,0.9285714285714286,0.9285714285714286,0.9285714285714286,0.9285714285714286,0.9285714285714286,0.9285714285714286,0.9285714285714286,0.9285714285714286,0.9285714285714286,0.9285714285714286,0.9285714285714286,0.9285714285714286,0.9285714285714286,0.9285714285714286,0.9285714285714286,0.9285714285714286,0.9285714285714286,0.9285714285714286,0.9285714285714286,0.9285714285714286,0.9285714285714286,0.9285714285714286,0.9285714285714286,0.9285714285714286,0.9285714285714286,0.9285714285714286,0.9285714285714286,0.9285714285714286,0.9285714285714286,0.9285714285714286,0.9285714285714286,0.9285714285714286,0.9285714285714286,0.9285714285714286,0.9285714285714286,0.9285714285714286,0.9285714285714286,0.9285714285714286,0.9285714285714286,0.9285714285714286,0.9285714285714286,0.9285714285714286,0.9285714285714286,0.9285714285714286,0.9285714285714286,0.9285714285714286,0.9285714285714286,0.9285714285714286,0.9285714285714286,0.9319727891156463,0.9319727891156463,0.9319727891156463,0.9319727891156463,0.9319727891156463,0.9319727891156463,0.9319727891156463,0.9319727891156463,0.9319727891156463,0.9319727891156463,0.9319727891156463,0.9319727891156463,0.9319727891156463,0.9319727891156463,0.9319727891156463,0.9319727891156463,0.9319727891156463,0.9319727891156463,0.9319727891156463,0.9319727891156463,0.9319727891156463,0.9217687074829932,0.9013605442176871,0.8571428571428571,0.8435374149659864,0.826530612244898,0.8163265306122449,0.8231292517006803,0.8333333333333334,0.8333333333333334,0.8333333333333334,0.8333333333333334,0.8333333333333334,0.8333333333333334,0.8333333333333334,0.8333333333333334,0.8333333333333334,0.8333333333333334,0.8333333333333334,0.8333333333333334,0.8333333333333334,0.8333333333333334,0.8333333333333334,0.8333333333333334,0.8333333333333334,0.8333333333333334,0.8333333333333334,0.8333333333333334,0.8333333333333334,0.8333333333333334,0.8333333333333334,0.826530612244898,0.7925170068027211,0.6904761904761905,0.6156462585034014,0.6156462585034014,0.6360544217687075,0.6598639455782312,0.6666666666666666,0.6700680272108843,0.6700680272108843,0.673469387755102,0.673469387755102,0.673469387755102,0.6700680272108843,0.6530612244897959,0.6258503401360545,0.6020408163265306,0.5748299319727891,0.564625850340136,0.564625850340136,0.564625850340136,0.564625850340136,0.564625850340136,0.5612244897959183,0.5612244897959183,0.564625850340136,0.564625850340136,0.564625850340136,0.564625850340136,0.564625850340136,0.564625850340136,0.564625850340136,0.564625850340136,0.5544217687074829,0.5476190476190477,0.5374149659863946,0.5340136054421769,0.5374149659863946,0.5476190476190477,0.5510204081632653,0.5510204081632653,0.5510204081632653,0.5510204081632653,0.5510204081632653,0.5510204081632653,0.5544217687074829,0.5578231292517006,0.5782312925170068,0.6326530612244898,0.6870748299319728,0.7346938775510204,0.7857142857142857,0.8367346938775511,0.8469387755102041,0.8503401360544217,0.8503401360544217,0.8503401360544217,0.8503401360544217,0.8503401360544217,0.8469387755102041,0.8469387755102041,0.8469387755102041,0.8469387755102041,0.8469387755102041,0.8435374149659864,0.8435374149659864,0.8435374149659864,0.8435374149659864,0.8435374149659864,0.8435374149659864,0.8435374149659864,0.8435374149659864,0.8435374149659864,0.8435374149659864,0.8435374149659864,0.8435374149659864,0.8435374149659864,0.8435374149659864,0.8435374149659864,0.8435374149659864,0.8435374149659864,0.8435374149659864,0.8435374149659864,0.8435374149659864,0.8435374149659864,0.826530612244898,0.8027210884353742,0.7755102040816326,0.7517006802721088,0.7210884353741497,0.7074829931972789,0.6938775510204082,0.6870748299319728,0.6836734693877551,0.6802721088435374,0.6802721088435374,0.6802721088435374,0.6802721088435374,0.6802721088435374,0.6802721088435374,0.6802721088435374,0.6802721088435374,0.6802721088435374,0.6802721088435374,0.6802721088435374,0.6802721088435374,0.6802721088435374,0.6802721088435374,0.6802721088435374,0.6802721088435374,0.6802721088435374,0.6802721088435374,0.6802721088435374,0.6802721088435374,0.6802721088435374,0.6802721088435374,0.6802721088435374,0.6802721088435374,0.6802721088435374,0.6802721088435374,0.6802721088435374,0.6802721088435374,0.6802721088435374,0.6802721088435374,0.6802721088435374,0.6802721088435374,0.6802721088435374,0.6802721088435374,0.6836734693877551,0.6836734693877551,0.6836734693877551,0.6836734693877551,0.6836734693877551,0.6836734693877551,0.6836734693877551,0.6836734693877551,0.6836734693877551,0.6836734693877551,0.6836734693877551,0.6836734693877551,0.6836734693877551,0.6836734693877551,0.6700680272108843,0.6122448979591837,0.5544217687074829,0.5204081632653061,0.48299319727891155,0.46598639455782315,0.4387755102040816,0.3877551020408163,0.35374149659863946,0.3197278911564626,0.2789115646258503,0.24829931972789115,0.23809523809523808,0.23469387755102042,0.24829931972789115,0.2857142857142857,0.29591836734693877,0.29591836734693877,0.29591836734693877,0.29591836734693877,0.29591836734693877,0.29591836734693877,0.29591836734693877,0.29591836734693877,0.29591836734693877,0.29931972789115646,0.29931972789115646,0.29931972789115646,0.29591836734693877,0.2891156462585034,0.2857142857142857,0.282312925170068,0.282312925170068,0.282312925170068,0.282312925170068,0.282312925170068,0.282312925170068,0.282312925170068,0.282312925170068,0.282312925170068,0.282312925170068,0.2857142857142857,0.2925170068027211,0.29931972789115646,0.30612244897959184,0.30612244897959184,0.30612244897959184,0.30952380952380953,0.30952380952380953,0.30952380952380953,0.30952380952380953,0.30952380952380953,0.30952380952380953,0.30952380952380953,0.30952380952380953,0.3129251700680272,0.3129251700680272,0.3129251700680272,0.3129251700680272,0.3163265306122449,0.3163265306122449,0.3163265306122449,0.3163265306122449,0.3163265306122449,0.3197278911564626,0.3197278911564626,0.3129251700680272,0.30612244897959184,0.29931972789115646,0.2925170068027211,0.2857142857142857,0.272108843537415,0.2619047619047619,0.25510204081632654,0.24489795918367346,0.24149659863945577,0.23469387755102042,0.22789115646258504,0.21768707482993196,0.2108843537414966,0.20068027210884354,0.19047619047619047,0.1836734693877551,0.17346938775510204,0.17006802721088435,0.17006802721088435,0.17006802721088435,0.17006802721088435,0.17006802721088435,0.16666666666666666,0.16666666666666666,0.16666666666666666,0.16666666666666666,0.16666666666666666,0.16666666666666666,0.16666666666666666,0.16666666666666666,0.16666666666666666,0.16666666666666666,0.16666666666666666,0.16666666666666666,0.16666666666666666,0.16666666666666666,0.16666666666666666,0.16666666666666666,0.16666666666666666,0.16666666666666666,0.16666666666666666,0.16666666666666666,0.16666666666666666,0.16666666666666666,0.17346938775510204,0.17346938775510204,0.17346938775510204,0.16666666666666666,0.16326530612244897,0.1564625850340136,0.14965986394557823,0.1360544217687075,0.11224489795918367,0.09183673469387756,0.07482993197278912,0.06462585034013606,0.05442176870748299,0.04421768707482993,0.03741496598639456,0.030612244897959183,0.023809523809523808,0.023809523809523808,0.023809523809523808,0.017006802721088437,0.017006802721088437,0.017006802721088437,0.013605442176870748,0.013605442176870748,0.013605442176870748,0.01020408163265306,0.006802721088435374,0.006802721088435374,0.003401360544217687,0.003401360544217687,0.003401360544217687,0.003401360544217687,0.003401360544217687,0.003401360544217687,0.003401360544217687,0.003401360544217687,0.003401360544217687,0.003401360544217687,0.003401360544217687,0.003401360544217687,0.003401360544217687,0.003401360544217687,0.003401360544217687,0.003401360544217687,0.003401360544217687,0.003401360544217687,0.003401360544217687,0.003401360544217687,0.003401360544217687,0.003401360544217687,0.003401360544217687,0.003401360544217687,0.003401360544217687,0.003401360544217687,0.003401360544217687,0.006802721088435374,0.013605442176870748,0.017006802721088437,0.023809523809523808,0.034013605442176874,0.04081632653061224,0.047619047619047616,0.05782312925170068,0.06802721088435375,0.08163265306122448,0.09183673469387756,0.10204081632653061,0.10884353741496598,0.11564625850340136,0.11904761904761904,0.11904761904761904,0.12244897959183673,0.12585034013605442,0.12585034013605442,0.12585034013605442,0.1292517006802721,0.1292517006802721,0.1292517006802721,0.1326530612244898,0.1326530612244898,0.1360544217687075,0.1360544217687075,0.1360544217687075,0.1360544217687075,0.13945578231292516,0.13945578231292516,0.14285714285714285,0.14625850340136054,0.14625850340136054,0.14625850340136054,0.14625850340136054,0.14625850340136054,0.14625850340136054,0.14625850340136054,0.14625850340136054,0.14625850340136054,0.14625850340136054,0.14625850340136054,0.14625850340136054,0.14625850340136054,0.14625850340136054,0.14625850340136054,0.14625850340136054,0.14625850340136054,0.14625850340136054,0.14625850340136054,0.14625850340136054,0.14625850340136054,0.14625850340136054,0.14625850340136054,0.14625850340136054,0.14625850340136054,0.14625850340136054,0.14625850340136054,0.14625850340136054,0.14625850340136054,0.14625850340136054,0.14625850340136054,0.14625850340136054,0.14625850340136054,0.14285714285714285,0.14285714285714285,0.14285714285714285,0.14285714285714285,0.14285714285714285,0.14285714285714285,0.14285714285714285,0.14285714285714285,0.14625850340136054,0.15306122448979592,0.16666666666666666,0.17346938775510204,0.1836734693877551,0.20068027210884354,0.21768707482993196,0.23809523809523808,0.29591836734693877,0.35374149659863946,0.4217687074829932,0.4965986394557823,0.5612244897959183,0.6122448979591837,0.6632653061224489,0.7108843537414966,0.7585034013605442,0.7857142857142857,0.7925170068027211,0.7925170068027211,0.7755102040816326,0.7551020408163265,0.7346938775510204,0.7278911564625851,0.7278911564625851,0.7278911564625851,0.7278911564625851,0.7278911564625851,0.7278911564625851,0.7278911564625851,0.7278911564625851,0.7278911564625851,0.7346938775510204,0.7380952380952381,0.7380952380952381,0.7448979591836735,0.7448979591836735,0.7448979591836735,0.7448979591836735,0.7448979591836735,0.7448979591836735,0.7278911564625851,0.6802721088435374,0.6122448979591837,0.5782312925170068,0.5476190476190477,0.5238095238095238,0.5102040816326531,0.4931972789115646,0.47619047619047616,0.46598639455782315,0.4523809523809524,0.4421768707482993,0.42857142857142855,0.42517006802721086,0.41496598639455784,0.41496598639455784,0.40816326530612246,0.40476190476190477,0.3945578231292517,0.3843537414965986,0.3707482993197279,0.35714285714285715,0.3401360544217687,0.3299319727891156,0.3197278911564626,0.3163265306122449,0.3163265306122449,0.3163265306122449,0.3163265306122449,0.3163265306122449,0.3163265306122449,0.3163265306122449,0.3163265306122449,0.3163265306122449,0.3163265306122449,0.3163265306122449,0.3163265306122449,0.3129251700680272,0.3129251700680272,0.3129251700680272,0.3129251700680272,0.3129251700680272,0.3129251700680272,0.3129251700680272,0.3129251700680272,0.3129251700680272,0.3129251700680272,0.3129251700680272,0.3163265306122449,0.3197278911564626,0.3197278911564626,0.3197278911564626,0.3231292517006803,0.3231292517006803,0.32653061224489793,0.32653061224489793,0.3299319727891156,0.3333333333333333,0.336734693877551,0.3401360544217687,0.3469387755102041,0.35714285714285715,0.36394557823129253,0.3707482993197279,0.3741496598639456,0.38095238095238093,0.391156462585034,0.4013605442176871,0.40476190476190477,0.40816326530612246,0.40816326530612246,0.41156462585034015,0.41496598639455784,0.41496598639455784,0.41836734693877553,0.41836734693877553,0.4217687074829932,0.42857142857142855,0.43537414965986393,0.445578231292517,0.4557823129251701,0.46938775510204084,0.47619047619047616,0.47959183673469385,0.47959183673469385,0.48639455782312924,0.4897959183673469,0.4931972789115646,0.4965986394557823,0.5034013605442177,0.5068027210884354,0.5136054421768708,0.5170068027210885,0.5238095238095238,0.5340136054421769,0.5476190476190477,0.564625850340136,0.5816326530612245,0.608843537414966,0.6224489795918368,0.6360544217687075,0.6496598639455783,0.6598639455782312,0.673469387755102,0.6802721088435374,0.6938775510204082,0.7040816326530612,0.7142857142857143,0.7278911564625851,0.7414965986394558,0.7482993197278912,0.7482993197278912,0.7551020408163265,0.7619047619047619,0.7653061224489796,0.7755102040816326,0.7857142857142857,0.7959183673469388,0.7993197278911565,0.8231292517006803,0.8333333333333334,0.8435374149659864,0.8537414965986394,0.8639455782312925,0.8707482993197279,0.8843537414965986,0.8979591836734694,0.9115646258503401,0.9319727891156463,0.9455782312925171,0.9625850340136054,0.9795918367346939,0.9897959183673469,1.0034013605442176,1.0136054421768708,1.0204081632653061,1.0272108843537415,1.030612244897959,1.034013605442177,1.0374149659863945,1.0408163265306123,1.0408163265306123,1.0408163265306123,1.0408163265306123,1.0408163265306123,1.0272108843537415,1.0170068027210883,0.9965986394557823,0.9863945578231292,0.9795918367346939,0.9727891156462585,0.9659863945578231,0.9591836734693877,0.95578231292517,0.9523809523809523,0.9489795918367347,0.9455782312925171,0.9421768707482994,0.935374149659864,0.9319727891156463,0.9217687074829932,0.9149659863945578,0.9115646258503401,0.9047619047619048,0.891156462585034,0.8741496598639455,0.8537414965986394,0.8197278911564626,0.7755102040816326,0.7312925170068028,0.673469387755102,0.6428571428571429,0.6156462585034014,0.5952380952380952,0.5714285714285714,0.54421768707483,0.5170068027210885,0.48299319727891155,0.4523809523809524,0.42517006802721086,0.40476190476190477,0.3877551020408163,0.3741496598639456,0.3707482993197279,0.3673469387755102,0.36394557823129253,0.35714285714285715,0.3469387755102041,0.3401360544217687,0.32653061224489793,0.3197278911564626,0.30952380952380953,0.30272108843537415,0.2755102040816326,0.25510204081632654,0.23469387755102042,0.22108843537414966,0.20748299319727892,0.18027210884353742,0.15306122448979592,0.13945578231292516,0.1292517006802721,0.12244897959183673,0.11904761904761904,0.11564625850340136,0.10884353741496598,0.09863945578231292,0.09523809523809523,0.09183673469387756,0.09183673469387756,0.09183673469387756,0.08503401360544217,0.08503401360544217,0.08503401360544217,0.08503401360544217,0.08503401360544217,0.0782312925170068,0.0782312925170068,0.0782312925170068,0.0782312925170068,0.0782312925170068,0.08843537414965986,0.11224489795918367,0.14625850340136054,0.1870748299319728,0.23129251700680273,0.2687074829931973,0.3163265306122449,0.35374149659863946,0.391156462585034,0.40816326530612246,0.41496598639455784,0.41496598639455784,0.41836734693877553,0.4217687074829932,0.42857142857142855,0.4421768707482993,0.4557823129251701,0.46938775510204084,0.4965986394557823,0.5204081632653061,0.5476190476190477,0.5578231292517006,0.564625850340136,0.5714285714285714,0.5748299319727891,0.5816326530612245,0.5884353741496599,0.5952380952380952,0.6020408163265306,0.608843537414966,0.6190476190476191,0.6360544217687075,0.6564625850340136,0.6870748299319728,0.717687074829932,0.7448979591836735,0.7653061224489796,0.7755102040816326,0.7857142857142857,0.7891156462585034,0.7891156462585034,0.7891156462585034,0.7891156462585034,0.7857142857142857,0.7653061224489796,0.7278911564625851,0.6802721088435374,0.6326530612244898,0.5782312925170068,0.5272108843537415,0.47619047619047616,0.43537414965986393,0.4013605442176871,0.37755102040816324,0.3469387755102041,0.3231292517006803,0.2857142857142857,0.2585034013605442,0.24489795918367346,0.23469387755102042,0.22789115646258504,0.21768707482993196,0.20748299319727892,0.19727891156462585,0.1870748299319728,0.17687074829931973,0.16666666666666666,0.1564625850340136,0.14965986394557823,0.14285714285714285,0.14285714285714285,0.14285714285714285,0.14285714285714285,0.14285714285714285,0.14285714285714285,0.14285714285714285,0.14285714285714285,0.14285714285714285,0.14285714285714285,0.14285714285714285,0.14285714285714285,0.14285714285714285,0.14285714285714285,0.14285714285714285,0.14285714285714285,0.14285714285714285,0.14285714285714285,0.14285714285714285,0.14285714285714285,0.14285714285714285,0.14285714285714285,0.14285714285714285,0.14285714285714285,0.14285714285714285,0.14285714285714285,0.14285714285714285,0.14285714285714285,0.14285714285714285,0.14285714285714285,0.14285714285714285,0.14285714285714285,0.14285714285714285,0.14285714285714285,0.14285714285714285,0.14285714285714285,0.13945578231292516,0.1360544217687075,0.1326530612244898,0.1292517006802721,0.12585034013605442,0.12244897959183673,0.11904761904761904,0.11564625850340136,0.10884353741496598,0.09863945578231292,0.08843537414965986,0.07482993197278912,0.061224489795918366,0.05102040816326531,0.047619047619047616,0.04081632653061224,0.04081632653061224,0.03741496598639456,0.034013605442176874,0.034013605442176874,0.034013605442176874,0.030612244897959183,0.030612244897959183,0.030612244897959183,0.023809523809523808,0.023809523809523808,0.023809523809523808,0.02040816326530612,0.017006802721088437,0.013605442176870748,0.006802721088435374,0.003401360544217687,0,-0.003401360544217687,-0.01020408163265306,-0.01020408163265306,-0.01020408163265306,-0.01020408163265306,-0.01020408163265306,-0.01020408163265306,-0.01020408163265306,-0.01020408163265306,-0.01020408163265306,-0.01020408163265306,-0.01020408163265306,-0.01020408163265306,-0.01020408163265306,-0.01020408163265306,-0.01020408163265306,-0.01020408163265306,-0.01020408163265306,-0.01020408163265306,-0.01020408163265306,-0.01020408163265306,-0.01020408163265306,-0.01020408163265306,-0.01020408163265306,-0.01020408163265306,-0.01020408163265306,-0.01020408163265306,-0.01020408163265306,-0.01020408163265306,-0.01020408163265306,-0.01020408163265306,-0.01020408163265306,-0.01020408163265306,-0.01020408163265306,-0.01020408163265306,-0.01020408163265306,-0.01020408163265306,-0.01020408163265306,-0.01020408163265306,-0.01020408163265306,-0.01020408163265306,-0.01020408163265306,-0.01020408163265306,-0.01020408163265306,-0.01020408163265306,-0.01020408163265306,-0.01020408163265306,-0.01020408163265306,-0.01020408163265306,-0.01020408163265306,-0.01020408163265306,-0.01020408163265306,-0.01020408163265306,-0.01020408163265306,-0.01020408163265306,-0.01020408163265306,-0.01020408163265306,-0.01020408163265306,-0.01020408163265306,-0.01020408163265306,-0.01020408163265306,-0.01020408163265306,-0.01020408163265306,-0.01020408163265306,-0.006802721088435374,-0.006802721088435374,0,0.006802721088435374,0.013605442176870748,0.02040816326530612,0.027210884353741496,0.034013605442176874,0.047619047619047616,0.07142857142857142,0.08843537414965986,0.09863945578231292,0.11224489795918367,0.12585034013605442,0.1360544217687075,0.15306122448979592,0.17006802721088435,0.19727891156462585,0.21768707482993196,0.23809523809523808,0.25170068027210885,0.272108843537415,0.2857142857142857,0.29931972789115646,0.3163265306122449,0.3401360544217687,0.35714285714285715,0.38095238095238093,0.3979591836734694,0.41836734693877553,0.4387755102040816,0.4557823129251701,0.47278911564625853,0.4965986394557823,0.5102040816326531,0.5272108843537415,0.54421768707483,0.5612244897959183,0.5748299319727891,0.5918367346938775,0.608843537414966,0.6258503401360545,0.6462585034013606,0.6632653061224489,0.6836734693877551,0.7040816326530612,0.717687074829932,0.7346938775510204,0.7517006802721088,0.7721088435374149,0.7891156462585034,0.8061224489795918,0.8163265306122449,0.8231292517006803,0.826530612244898,0.826530612244898,0.826530612244898,0.826530612244898,0.826530612244898,0.826530612244898,0.826530612244898,0.826530612244898,0.826530612244898,0.826530612244898,0.826530612244898,0.826530612244898,0.826530612244898,0.826530612244898,0.826530612244898,0.826530612244898,0.826530612244898,0.826530612244898,0.826530612244898,0.826530612244898,0.826530612244898,0.826530612244898,0.826530612244898,0.826530612244898,0.826530612244898,0.826530612244898,0.826530612244898,0.826530612244898,0.826530612244898,0.8333333333333334,0.8367346938775511,0.8401360544217688,0.8435374149659864,0.8435374149659864,0.8469387755102041,0.8537414965986394,0.8537414965986394,0.8537414965986394,0.8537414965986394,0.8571428571428571,0.8571428571428571,0.8571428571428571,0.8605442176870748,0.8639455782312925,0.8639455782312925,0.8639455782312925,0.8605442176870748,0.8503401360544217,0.8367346938775511,0.8197278911564626,0.8027210884353742,0.7551020408163265,0.7244897959183674,0.7040816326530612,0.6836734693877551,0.6700680272108843,0.6598639455782312,0.6496598639455783,0.6394557823129252,0.6360544217687075,0.6360544217687075,0.6326530612244898,0.6326530612244898,0.6326530612244898,0.6326530612244898,0.6326530612244898,0.6292517006802721,0.6292517006802721,0.6394557823129252,0.6496598639455783,0.6598639455782312,0.6700680272108843,0.6802721088435374,0.6904761904761905,0.6904761904761905,0.6904761904761905,0.6904761904761905,0.6904761904761905,0.6904761904761905,0.6938775510204082,0.6972789115646258,0.6972789115646258,0.6972789115646258,0.6972789115646258,0.6972789115646258,0.6972789115646258,0.6972789115646258,0.6972789115646258,0.6972789115646258,0.6972789115646258,0.6972789115646258,0.6972789115646258,0.6972789115646258,0.6972789115646258,0.6972789115646258,0.6972789115646258,0.6972789115646258,0.6972789115646258,0.6972789115646258,0.6972789115646258,0.6972789115646258,0.6972789115646258,0.6972789115646258,0.6972789115646258,0.6972789115646258,0.6972789115646258,0.6972789115646258,0.6972789115646258,0.6972789115646258,0.6972789115646258,0.6972789115646258,0.6972789115646258,0.6972789115646258,0.6972789115646258,0.6972789115646258,0.6972789115646258,0.6972789115646258,0.6972789115646258,0.6972789115646258,0.6972789115646258,0.6972789115646258,0.6972789115646258,0.6972789115646258,0.6972789115646258,0.6972789115646258,0.6972789115646258,0.6972789115646258,0.6972789115646258,0.6972789115646258,0.6972789115646258,0.7006802721088435,0.7006802721088435,0.7040816326530612,0.7108843537414966,0.717687074829932,0.7278911564625851,0.7312925170068028,0.7414965986394558,0.7517006802721088,0.7551020408163265,0.7585034013605442,0.7585034013605442,0.7585034013605442,0.7619047619047619,0.7653061224489796,0.7687074829931972,0.7857142857142857,0.8061224489795918,0.8503401360544217,0.9013605442176871,0.9489795918367347,0.9863945578231292,1.0272108843537415,1.0612244897959184,1.08843537414966,1.1054421768707483,1.1156462585034013,1.1224489795918366,1.1258503401360545,1.1258503401360545,1.1258503401360545,1.129251700680272,1.129251700680272,1.129251700680272,1.129251700680272,1.129251700680272,1.129251700680272,1.129251700680272,1.129251700680272,1.129251700680272,1.129251700680272,1.129251700680272,1.129251700680272,1.129251700680272,1.129251700680272,1.129251700680272,1.129251700680272,1.129251700680272,1.129251700680272,1.129251700680272,1.1258503401360545,1.119047619047619,1.1054421768707483,1.0952380952380953,1.0850340136054422,1.0714285714285714,1.0612244897959184,1.0476190476190477,1.0408163265306123,1.030612244897959,1.0204081632653061,1.0136054421768708,1.0034013605442176,0.9897959183673469,0.9761904761904762,0.9693877551020408,0.9591836734693877,0.9455782312925171,0.9319727891156463,0.9115646258503401,0.891156462585034,0.8639455782312925,0.8333333333333334,0.8027210884353742,0.7653061224489796,0.7278911564625851,0.673469387755102,0.6360544217687075,0.6054421768707483,0.5748299319727891,0.5476190476190477,0.5204081632653061,0.5,0.47619047619047616,0.45918367346938777,0.445578231292517,0.42857142857142855,0.41496598639455784,0.4013605442176871,0.3945578231292517,0.3945578231292517,0.391156462585034,0.391156462585034,0.3877551020408163,0.3877551020408163,0.3877551020408163,0.3877551020408163,0.3877551020408163,0.3877551020408163,0.3877551020408163,0.3877551020408163,0.3877551020408163,0.3877551020408163,0.3877551020408163,0.391156462585034,0.391156462585034,0.391156462585034,0.391156462585034,0.391156462585034,0.391156462585034,0.391156462585034,0.391156462585034,0.391156462585034,0.391156462585034,0.391156462585034,0.391156462585034,0.3877551020408163,0.38095238095238093,0.3741496598639456,0.3673469387755102,0.36054421768707484,0.3469387755102041,0.3333333333333333,0.3197278911564626,0.30612244897959184,0.2925170068027211,0.282312925170068,0.2789115646258503,0.2755102040816326,0.2687074829931973,0.2653061224489796,0.2619047619047619,0.25510204081632654,0.25170068027210885,0.24489795918367346,0.24149659863945577,0.23129251700680273,0.22789115646258504,0.22108843537414966,0.21428571428571427,0.20408163265306123,0.20068027210884354,0.19387755102040816,0.19047619047619047,0.1836734693877551,0.18027210884353742,0.17687074829931973,0.17346938775510204,0.17006802721088435,0.17006802721088435,0.17006802721088435,0.17006802721088435,0.16666666666666666,0.16326530612244897,0.15306122448979592,0.14625850340136054,0.14625850340136054,0.14625850340136054,0.14625850340136054,0.14625850340136054,0.14625850340136054,0.14625850340136054,0.14625850340136054,0.14625850340136054,0.14625850340136054,0.14625850340136054,0.14625850340136054,0.14625850340136054,0.14625850340136054,0.14625850340136054,0.14625850340136054,0.14625850340136054,0.13945578231292516,0.1360544217687075,0.1292517006802721,0.11904761904761904,0.11224489795918367,0.10204081632653061,0.09183673469387756,0.0782312925170068,0.06462585034013606,0.05782312925170068,0.05102040816326531,0.047619047619047616,0.04421768707482993,0.04421768707482993,0.04081632653061224,0.03741496598639456,0.034013605442176874,0.034013605442176874,0.030612244897959183,0.027210884353741496,0.02040816326530612,0.017006802721088437,0.01020408163265306,0.003401360544217687,0.003401360544217687,0.003401360544217687,0.003401360544217687,0.003401360544217687,0.003401360544217687,0.003401360544217687,0.003401360544217687,0.003401360544217687,0.003401360544217687,0.003401360544217687,0.003401360544217687,0.003401360544217687,0.006802721088435374,0.013605442176870748,0.02040816326530612,0.034013605442176874,0.05102040816326531,0.06802721088435375,0.08163265306122448,0.08843537414965986,0.09523809523809523,0.10204081632653061,0.10884353741496598,0.10884353741496598,0.10884353741496598,0.10884353741496598,0.10884353741496598,0.10884353741496598,0.10884353741496598,0.10884353741496598,0.10884353741496598,0.10884353741496598,0.10884353741496598,0.11224489795918367,0.11224489795918367,0.11904761904761904,0.12585034013605442,0.1326530612244898,0.13945578231292516,0.13945578231292516,0.14285714285714285,0.14285714285714285,0.14625850340136054,0.14625850340136054,0.14625850340136054,0.14625850340136054,0.14625850340136054,0.14625850340136054,0.14625850340136054,0.14625850340136054,0.14965986394557823,0.1564625850340136,0.1598639455782313,0.1598639455782313,0.16326530612244897,0.16326530612244897,0.16666666666666666,0.17006802721088435,0.17346938775510204,0.17687074829931973,0.1836734693877551,0.1870748299319728,0.19047619047619047,0.19387755102040816,0.20068027210884354,0.20068027210884354,0.20408163265306123,0.20408163265306123,0.20748299319727892,0.2108843537414966,0.21428571428571427,0.22108843537414966,0.22448979591836735,0.22789115646258504,0.23129251700680273,0.23469387755102042,0.24149659863945577,0.24489795918367346,0.25170068027210885,0.25510204081632654,0.2619047619047619,0.272108843537415,0.2755102040816326,0.282312925170068,0.282312925170068,0.282312925170068,0.2857142857142857,0.2857142857142857,0.2891156462585034,0.29591836734693877,0.29591836734693877,0.29591836734693877,0.29931972789115646,0.30272108843537415,0.30272108843537415,0.30272108843537415,0.30272108843537415,0.30272108843537415,0.30272108843537415,0.30272108843537415,0.30272108843537415,0.30272108843537415,0.30272108843537415,0.30272108843537415,0.30272108843537415,0.30272108843537415,0.30272108843537415,0.30272108843537415,0.30272108843537415,0.30612244897959184,0.30612244897959184,0.30612244897959184,0.30612244897959184,0.30612244897959184,0.30612244897959184,0.30612244897959184,0.30612244897959184,0.30612244897959184,0.30612244897959184,0.30612244897959184,0.30612244897959184,0.30612244897959184,0.30612244897959184,0.30612244897959184,0.30612244897959184,0.30612244897959184,0.30612244897959184,0.30612244897959184,0.30612244897959184,0.30612244897959184,0.30612244897959184,0.30612244897959184,0.30612244897959184,0.30952380952380953,0.3129251700680272,0.3231292517006803,0.3231292517006803,0.3231292517006803,0.3231292517006803,0.3231292517006803,0.3231292517006803,0.3231292517006803,0.3231292517006803,0.3231292517006803,0.3231292517006803,0.3231292517006803,0.32653061224489793,0.32653061224489793,0.32653061224489793,0.32653061224489793,0.32653061224489793,0.3299319727891156,0.3299319727891156,0.3299319727891156,0.3299319727891156,0.3299319727891156,0.3299319727891156,0.3299319727891156,0.3299319727891156,0.3299319727891156,0.3299319727891156,0.3333333333333333,0.3333333333333333,0.3333333333333333,0.3333333333333333,0.3333333333333333,0.3333333333333333,0.3333333333333333,0.3333333333333333,0.3333333333333333,0.3333333333333333,0.3333333333333333,0.3333333333333333,0.3333333333333333,0.3333333333333333,0.3333333333333333,0.3333333333333333,0.3333333333333333,0.3401360544217687,0.35374149659863946,0.3673469387755102,0.37755102040816324,0.3843537414965986,0.391156462585034,0.3979591836734694,0.40816326530612246,0.40816326530612246,0.41156462585034015,0.41496598639455784,0.4217687074829932,0.42517006802721086,0.43197278911564624,0.4421768707482993,0.4489795918367347,0.4523809523809524,0.45918367346938777,0.46258503401360546,0.46598639455782315,0.47278911564625853,0.47619047619047616,0.47959183673469385,0.48639455782312924,0.4931972789115646,0.5034013605442177,0.5102040816326531,0.5170068027210885,0.5204081632653061,0.5272108843537415,0.5272108843537415,0.5272108843537415,0.5306122448979592,0.5306122448979592,0.5374149659863946,0.5408163265306123,0.5476190476190477,0.5476190476190477,0.5476190476190477,0.5476190476190477,0.5476190476190477,0.5476190476190477,0.5476190476190477,0.5476190476190477,0.5476190476190477,0.5476190476190477,0.5476190476190477,0.5476190476190477,0.5476190476190477,0.5476190476190477,0.5476190476190477,0.5476190476190477,0.5476190476190477,0.5476190476190477,0.5476190476190477,0.5476190476190477,0.5476190476190477,0.5476190476190477,0.5476190476190477,0.5476190476190477,0.5476190476190477,0.5476190476190477,0.5476190476190477,0.5476190476190477,0.5476190476190477,0.5476190476190477,0.5476190476190477,0.5476190476190477,0.5510204081632653,0.5612244897959183,0.5748299319727891,0.6054421768707483,0.6326530612244898,0.6632653061224489,0.7006802721088435,0.717687074829932,0.7346938775510204,0.7482993197278912,0.7585034013605442,0.7585034013605442,0.7619047619047619,0.7619047619047619,0.7619047619047619,0.7619047619047619,0.7653061224489796,0.7653061224489796,0.7653061224489796,0.7653061224489796,0.7653061224489796,0.7653061224489796,0.7653061224489796,0.7653061224489796,0.7653061224489796,0.7653061224489796,0.7653061224489796,0.7653061224489796,0.7653061224489796,0.7653061224489796,0.7653061224489796,0.7653061224489796,0.7653061224489796,0.7653061224489796,0.7653061224489796,0.7653061224489796,0.7653061224489796,0.7653061224489796,0.7653061224489796,0.7653061224489796,0.7653061224489796,0.7653061224489796,0.7653061224489796,0.7653061224489796,0.7653061224489796,0.7653061224489796,0.7653061224489796,0.7653061224489796,0.7653061224489796,0.7755102040816326,0.7789115646258503,0.7789115646258503,0.7789115646258503,0.7789115646258503,0.7789115646258503,0.7789115646258503,0.7789115646258503,0.7551020408163265,0.7074829931972789,0.6598639455782312,0.6394557823129252,0.5952380952380952,0.5374149659863946,0.47619047619047616,0.41156462585034015,0.35034013605442177,0.3163265306122449,0.29931972789115646,0.2857142857142857,0.2755102040816326,0.2755102040816326,0.2755102040816326,0.272108843537415,0.272108843537415,0.272108843537415,0.272108843537415,0.272108843537415,0.272108843537415,0.272108843537415,0.272108843537415,0.2789115646258503,0.3163265306122449,0.3707482993197279,0.4387755102040816,0.5272108843537415,0.6156462585034014,0.7040816326530612,0.7857142857142857,0.8469387755102041,0.8843537414965986,0.9013605442176871,0.9115646258503401,0.9251700680272109,0.9319727891156463,0.935374149659864,0.9421768707482994,0.9523809523809523,0.9625850340136054,0.9693877551020408,0.9829931972789115,0.9829931972789115,0.9829931972789115,0.9863945578231292,0.9863945578231292,0.9863945578231292,0.9863945578231292,0.9863945578231292,0.9863945578231292,0.9897959183673469,0.9897959183673469,0.9931972789115646,0.9931972789115646,0.9931972789115646,0.9965986394557823,0.9965986394557823,0.9965986394557823,0.9965986394557823,0.9965986394557823,0.9965986394557823,0.9965986394557823,0.9965986394557823,0.9965986394557823,0.9965986394557823,0.9931972789115646,0.9931972789115646,0.9897959183673469,0.9897959183673469,0.9897959183673469,0.9897959183673469,0.9863945578231292,0.9863945578231292,0.9829931972789115,0.9829931972789115,0.9795918367346939,0.9761904761904762,0.9761904761904762,0.9693877551020408,0.9659863945578231,0.9625850340136054,0.9591836734693877,0.9523809523809523,0.9455782312925171,0.9285714285714286,0.9115646258503401,0.891156462585034,0.8639455782312925,0.8299319727891157,0.7891156462585034,0.7482993197278912,0.6938775510204082,0.6802721088435374,0.673469387755102,0.6700680272108843,0.6564625850340136,0.6360544217687075,0.5952380952380952,0.5476190476190477,0.4931972789115646,0.4489795918367347,0.41496598639455784,0.4013605442176871,0.3945578231292517,0.3945578231292517,0.391156462585034,0.391156462585034,0.391156462585034,0.391156462585034,0.391156462585034,0.391156462585034,0.391156462585034,0.391156462585034,0.391156462585034,0.391156462585034,0.3945578231292517,0.40476190476190477,0.41156462585034015,0.41836734693877553,0.43197278911564624,0.445578231292517,0.46598639455782315,0.4931972789115646,0.5204081632653061,0.5340136054421769,0.54421768707483,0.5476190476190477,0.5612244897959183,0.5850340136054422,0.608843537414966,0.6394557823129252,0.6666666666666666,0.6802721088435374,0.6972789115646258,0.7142857142857143,0.7346938775510204,0.7551020408163265,0.7789115646258503,0.8027210884353742,0.8401360544217688,0.8537414965986394,0.8673469387755102,0.8775510204081632,0.8877551020408163,0.8945578231292517,0.9013605442176871,0.9081632653061225,0.9149659863945578,0.9217687074829932,0.9319727891156463,0.9387755102040817,0.9591836734693877,0.9795918367346939,0.9931972789115646,1.0034013605442176,1.010204081632653,1.0136054421768708,1.0204081632653061,1.0272108843537415,1.034013605442177,1.0408163265306123,1.0476190476190477,1.054421768707483,1.0578231292517006,1.0714285714285714,1.0748299319727892,1.0748299319727892,1.0782312925170068,1.0816326530612246,1.0850340136054422,1.0850340136054422,1.08843537414966,1.08843537414966,1.0952380952380953,1.098639455782313,1.1020408163265305,1.1088435374149659,1.1122448979591837,1.1156462585034013,1.1224489795918366,1.129251700680272,1.129251700680272,1.1326530612244898,1.1326530612244898,1.1326530612244898,1.1326530612244898,1.1326530612244898,1.1326530612244898,1.1326530612244898,1.1326530612244898,1.1326530612244898,1.1326530612244898,1.1326530612244898,1.1326530612244898,1.1326530612244898,1.1326530612244898,1.1326530612244898,1.1326530612244898,1.1326530612244898,1.1326530612244898,1.1326530612244898,1.1326530612244898,1.1326530612244898,1.1326530612244898,1.1326530612244898,1.1326530612244898,1.1326530612244898,1.1326530612244898,1.1326530612244898,1.1326530612244898,1.1326530612244898,1.1326530612244898,1.129251700680272,1.1258503401360545,1.1224489795918366,1.1224489795918366,1.119047619047619,1.1122448979591837,1.1020408163265305,1.0918367346938775,1.0782312925170068,1.0578231292517006,1.030612244897959,0.9829931972789115,0.9455782312925171,0.9251700680272109,0.8809523809523809,0.8571428571428571,0.8299319727891157,0.7891156462585034,0.7482993197278912,0.7006802721088435,0.6530612244897959,0.6020408163265306,0.5612244897959183,0.5204081632653061,0.46258503401360546,0.42517006802721086,0.38095238095238093,0.3401360544217687,0.2789115646258503,0.22108843537414966,0.20408163265306123,0.20408163265306123,0.20408163265306123,0.20408163265306123,0.20408163265306123,0.20408163265306123,0.20408163265306123,0.20408163265306123,0.20408163265306123,0.20408163265306123,0.20408163265306123,0.20408163265306123,0.20408163265306123,0.19727891156462585,0.19047619047619047,0.1836734693877551,0.17687074829931973,0.17687074829931973,0.17687074829931973,0.18027210884353742,0.21428571428571427,0.2585034013605442,0.2857142857142857,0.29591836734693877,0.29591836734693877,0.29591836734693877,0.29591836734693877,0.29591836734693877,0.29591836734693877,0.29591836734693877,0.29931972789115646,0.29931972789115646,0.29931972789115646,0.29931972789115646,0.29931972789115646,0.29931972789115646,0.29931972789115646,0.29931972789115646,0.29931972789115646,0.29931972789115646,0.29931972789115646,0.30612244897959184,0.30612244897959184,0.30612244897959184,0.30612244897959184,0.30612244897959184,0.30612244897959184,0.30612244897959184,0.30612244897959184,0.30612244897959184,0.30612244897959184,0.30612244897959184,0.30612244897959184,0.3129251700680272,0.32653061224489793,0.35714285714285715,0.3979591836734694,0.445578231292517,0.5204081632653061,0.6020408163265306,0.6904761904761905,0.7755102040816326,0.8707482993197279,0.9489795918367347,1.030612244897959,1.0578231292517006,1.064625850340136,1.064625850340136,1.064625850340136,1.064625850340136,1.064625850340136],"y":[-4.285714285714286,-4.285714285714286,-4.285714285714286,-4.285714285714286,-4.285714285714286,-4.285714285714286,-4.285714285714286,-4.285714285714286,-4.285714285714286,-4.285714285714286,-4.285714285714286,-4.285714285714286,-4.285714285714286,-4.285714285714286,-4.285714285714286,-4.285714285714286,-4.285714285714286,-4.285714285714286,-4.285714285714286,-4.285714285714286,-4.285714285714286,-4.285714285714286,0.6952380952380952,0.7047619047619048,0.7142857142857143,0.7333333333333333,0.8,0.8571428571428571,0.8952380952380953,0.9619047619047619,0.9809523809523809,0.9809523809523809,0.9809523809523809,0.9809523809523809,0.9809523809523809,0.9904761904761905,0.9904761904761905,1.0095238095238095,1.019047619047619,1.0380952380952382,1.0476190476190477,1.0571428571428572,1.0571428571428572,1.0571428571428572,1.0571428571428572,1.0571428571428572,1.0571428571428572,1.0571428571428572,1.0571428571428572,1.0666666666666667,1.0571428571428572,1.0380952380952382,1.019047619047619,1.0095238095238095,1.0095238095238095,1.0095238095238095,1.0095238095238095,1.0095238095238095,1.0095238095238095,1.0095238095238095,1.0095238095238095,1.0095238095238095,1.0095238095238095,1.0095238095238095,1.0095238095238095,1.0095238095238095,1.0095238095238095,1.0095238095238095,1.0095238095238095,1.0095238095238095,1,0.9619047619047619,0.9142857142857143,0.8952380952380953,0.8952380952380953,0.8857142857142857,0.8666666666666667,0.8666666666666667,0.8666666666666667,0.8666666666666667,0.8666666666666667,0.8666666666666667,0.8761904761904762,0.8761904761904762,0.8761904761904762,0.8761904761904762,0.8761904761904762,0.8761904761904762,0.8761904761904762,0.8761904761904762,0.8761904761904762,0.8761904761904762,0.8761904761904762,0.8761904761904762,0.8761904761904762,0.8761904761904762,0.8761904761904762,0.8761904761904762,0.8761904761904762,0.8666666666666667,0.8476190476190476,0.8285714285714286,0.780952380952381,0.7428571428571429,0.6952380952380952,0.6761904761904762,0.6571428571428571,0.6571428571428571,0.6571428571428571,0.6571428571428571,0.6571428571428571,0.6571428571428571,0.6571428571428571,0.6571428571428571,0.6571428571428571,0.6571428571428571,0.6571428571428571,0.6571428571428571,0.6571428571428571,0.6571428571428571,0.6571428571428571,0.6571428571428571,0.6571428571428571,0.6571428571428571,0.6571428571428571,0.6571428571428571,0.6571428571428571,0.6571428571428571,0.6571428571428571,0.6571428571428571,0.6571428571428571,0.6571428571428571,0.6571428571428571,0.6571428571428571,0.6571428571428571,0.6571428571428571,0.6571428571428571,0.6571428571428571,0.6571428571428571,0.6571428571428571,0.6571428571428571,0.6571428571428571,0.6571428571428571,0.6571428571428571,0.6571428571428571,0.6571428571428571,0.6571428571428571,0.6571428571428571,0.6571428571428571,0.6476190476190476,0.6285714285714286,0.6095238095238096,0.5904761904761905,0.5619047619047619,0.5333333333333333,0.5333333333333333,0.5333333333333333,0.5333333333333333,0.5333333333333333,0.5333333333333333,0.5333333333333333,0.5333333333333333,0.5333333333333333,0.5333333333333333,0.5333333333333333,0.5047619047619047,0.4857142857142857,0.4857142857142857,0.4857142857142857,0.4857142857142857,0.4857142857142857,0.4857142857142857,0.47619047619047616,0.5047619047619047,0.5619047619047619,0.6857142857142857,0.7047619047619048,0.6285714285714286,0.47619047619047616,0.37142857142857144,0.34285714285714286,0.34285714285714286,0.34285714285714286,0.34285714285714286,0.34285714285714286,0.34285714285714286,0.34285714285714286,0.34285714285714286,0.34285714285714286,0.34285714285714286,0.34285714285714286,0.34285714285714286,0.34285714285714286,0.34285714285714286,0.34285714285714286,0.34285714285714286,0.34285714285714286,0.34285714285714286,0.34285714285714286,0.34285714285714286,0.34285714285714286,0.34285714285714286,0.34285714285714286,0.3523809523809524,0.37142857142857144,0.4380952380952381,0.5142857142857142,0.5714285714285714,0.6285714285714286,0.6571428571428571,0.6571428571428571,0.6571428571428571,0.6571428571428571,0.6571428571428571,0.6571428571428571,0.6571428571428571,0.6666666666666666,0.7047619047619048,0.7523809523809524,0.780952380952381,0.8095238095238095,0.8095238095238095,0.8095238095238095,0.8095238095238095,0.8095238095238095,0.8095238095238095,0.8095238095238095,0.7904761904761904,0.780952380952381,0.780952380952381,0.780952380952381,0.780952380952381,0.780952380952381,0.780952380952381,0.7714285714285715,0.7619047619047619,0.7523809523809524,0.7238095238095238,0.6476190476190476,0.5619047619047619,0.4380952380952381,0.34285714285714286,0.3047619047619048,0.3047619047619048,0.3047619047619048,0.3047619047619048,0.3047619047619048,0.3142857142857143,0.3333333333333333,0.3333333333333333,0.3238095238095238,0.2571428571428571,0.14285714285714285,0,-0.1523809523809524,-0.29523809523809524,-0.34285714285714286,-0.38095238095238093,-0.38095238095238093,-0.38095238095238093,-0.38095238095238093,-0.38095238095238093,-0.3904761904761905,-0.3904761904761905,-0.3904761904761905,-0.3904761904761905,-0.3904761904761905,-0.3904761904761905,-0.3904761904761905,-0.3904761904761905,-0.3904761904761905,-0.3904761904761905,-0.3904761904761905,-0.3904761904761905,-0.3904761904761905,-0.3904761904761905,-0.3904761904761905,-0.3904761904761905,-0.3904761904761905,-0.3904761904761905,-0.3904761904761905,-0.3904761904761905,-0.3904761904761905,-0.3904761904761905,-0.3904761904761905,-0.3904761904761905,-0.3904761904761905,-0.38095238095238093,-0.3047619047619048,-0.2,-0.08571428571428572,0,0.0761904761904762,0.11428571428571428,0.14285714285714285,0.1619047619047619,0.17142857142857143,0.18095238095238095,0.18095238095238095,0.18095238095238095,0.18095238095238095,0.18095238095238095,0.18095238095238095,0.18095238095238095,0.18095238095238095,0.18095238095238095,0.18095238095238095,0.18095238095238095,0.18095238095238095,0.18095238095238095,0.18095238095238095,0.18095238095238095,0.18095238095238095,0.18095238095238095,0.18095238095238095,0.18095238095238095,0.18095238095238095,0.18095238095238095,0.18095238095238095,0.18095238095238095,0.18095238095238095,0.18095238095238095,0.18095238095238095,0.18095238095238095,0.18095238095238095,0.18095238095238095,0.18095238095238095,0.18095238095238095,0.18095238095238095,0.18095238095238095,0.18095238095238095,0.18095238095238095,0.18095238095238095,0.18095238095238095,0.18095238095238095,0.18095238095238095,0.18095238095238095,0.18095238095238095,0.18095238095238095,0.18095238095238095,0.18095238095238095,0.18095238095238095,0.18095238095238095,0.18095238095238095,0.19047619047619047,0.20952380952380953,0.2761904761904762,0.34285714285714286,0.38095238095238093,0.4380952380952381,0.44761904761904764,0.49523809523809526,0.6095238095238096,0.6857142857142857,0.780952380952381,0.8761904761904762,0.9619047619047619,1,1.019047619047619,1.0380952380952382,1.1047619047619048,1.1142857142857143,1.1142857142857143,1.1142857142857143,1.1142857142857143,1.1142857142857143,1.1142857142857143,1.1142857142857143,1.1142857142857143,1.1142857142857143,1.1238095238095238,1.1238095238095238,1.1238095238095238,1.0857142857142856,1.0095238095238095,0.9619047619047619,0.8857142857142857,0.8666666666666667,0.8571428571428571,0.8571428571428571,0.8571428571428571,0.8571428571428571,0.8571428571428571,0.8476190476190476,0.8380952380952381,0.819047619047619,0.8095238095238095,0.780952380952381,0.7523809523809524,0.7238095238095238,0.7142857142857143,0.7142857142857143,0.7047619047619048,0.6952380952380952,0.6952380952380952,0.6952380952380952,0.6952380952380952,0.6952380952380952,0.6952380952380952,0.6952380952380952,0.6952380952380952,0.6857142857142857,0.6857142857142857,0.6857142857142857,0.6857142857142857,0.6857142857142857,0.6857142857142857,0.6857142857142857,0.6857142857142857,0.6857142857142857,0.6857142857142857,0.7142857142857143,0.7333333333333333,0.7523809523809524,0.7619047619047619,0.780952380952381,0.7904761904761904,0.8095238095238095,0.819047619047619,0.8285714285714286,0.8285714285714286,0.8380952380952381,0.8476190476190476,0.8571428571428571,0.8761904761904762,0.8952380952380953,0.9142857142857143,0.9238095238095239,0.9333333333333333,0.9428571428571428,0.9428571428571428,0.9428571428571428,0.9428571428571428,0.9428571428571428,0.9523809523809523,0.9523809523809523,0.9523809523809523,0.9523809523809523,0.9619047619047619,0.9619047619047619,0.9619047619047619,0.9619047619047619,0.9619047619047619,0.9619047619047619,0.9619047619047619,0.9619047619047619,0.9619047619047619,0.9619047619047619,0.9619047619047619,0.9619047619047619,0.9619047619047619,0.9619047619047619,0.9619047619047619,0.9619047619047619,0.9619047619047619,0.9619047619047619,0.9619047619047619,0.9523809523809523,0.9047619047619048,0.8095238095238095,0.7714285714285715,0.7333333333333333,0.6761904761904762,0.6190476190476191,0.5238095238095238,0.44761904761904764,0.4,0.3619047619047619,0.34285714285714286,0.3047619047619048,0.26666666666666666,0.24761904761904763,0.20952380952380953,0.2,0.19047619047619047,0.18095238095238095,0.17142857142857143,0.1619047619047619,0.1523809523809524,0.1523809523809524,0.13333333333333333,0.12380952380952381,0.11428571428571428,0.09523809523809523,0.0761904761904762,0.06666666666666667,0.05714285714285714,0.05714285714285714,0.05714285714285714,0.05714285714285714,0.05714285714285714,0.05714285714285714,0.05714285714285714,0.05714285714285714,0.05714285714285714,0.05714285714285714,0.05714285714285714,0.05714285714285714,0.05714285714285714,0.05714285714285714,0.05714285714285714,0.05714285714285714,0.05714285714285714,0.05714285714285714,0.05714285714285714,0.05714285714285714,0.05714285714285714,0.05714285714285714,0.0761904761904762,0.08571428571428572,0.09523809523809523,0.11428571428571428,0.1619047619047619,0.2,0.24761904761904763,0.2857142857142857,0.3333333333333333,0.38095238095238093,0.42857142857142855,0.5142857142857142,0.5714285714285714,0.6190476190476191,0.6761904761904762,0.7238095238095238,0.7523809523809524,0.780952380952381,0.8,0.819047619047619,0.8285714285714286,0.8380952380952381,0.8476190476190476,0.8571428571428571,0.8761904761904762,0.8857142857142857,0.8952380952380953,0.8952380952380953,0.8952380952380953,0.9047619047619048,0.9047619047619048,0.9238095238095239,0.9333333333333333,0.9619047619047619,0.9904761904761905,1.0285714285714285,1.0476190476190477,1.0571428571428572,1.0666666666666667,1.0666666666666667,1.0666666666666667,1.0666666666666667,1.0666666666666667,1.0666666666666667,1.0666666666666667,1.0666666666666667,1.0666666666666667,1.0666666666666667,1.0666666666666667,1.0666666666666667,1.0666666666666667,1.0666666666666667,1.0666666666666667,1.0666666666666667,1.0666666666666667,1.0666666666666667,1.0666666666666667,1.0666666666666667,1.0666666666666667,1.0666666666666667,1.0666666666666667,1.0666666666666667,1.0666666666666667,1.0666666666666667,1.0666666666666667,1.0666666666666667,1.0571428571428572,1.0571428571428572,1.0476190476190477,1.0476190476190477,1.0380952380952382,1.0380952380952382,1.0380952380952382,1.0380952380952382,1.0285714285714285,1.019047619047619,0.9904761904761905,0.9714285714285714,0.9428571428571428,0.9333333333333333,0.9047619047619048,0.8857142857142857,0.8571428571428571,0.8285714285714286,0.7714285714285715,0.7047619047619048,0.6476190476190476,0.5714285714285714,0.5047619047619047,0.42857142857142855,0.3047619047619048,0.12380952380952381,-0.1619047619047619,-0.5142857142857142,-0.780952380952381,-1.1714285714285715,-1.4857142857142858,-1.723809523809524,-1.9142857142857144,-1.9904761904761905,-1.9904761904761905,-1.9904761904761905,-1.9904761904761905,-1.9904761904761905,-1.9904761904761905,-2.0095238095238095,-2.0095238095238095,-1.9619047619047618,-1.9428571428571428,-1.9238095238095239,-1.9238095238095239,-1.9142857142857144,-1.9142857142857144,-1.9142857142857144,-1.9142857142857144,-1.8952380952380952,-1.8761904761904762,-1.8476190476190477,-1.819047619047619,-1.7523809523809524,-1.7142857142857142,-1.6857142857142857,-1.6666666666666667,-1.6476190476190475,-1.638095238095238,-1.619047619047619,-1.6095238095238096,-1.6,-1.6,-1.5904761904761904,-1.5809523809523809,-1.5714285714285714,-1.5714285714285714,-1.5714285714285714,-1.5714285714285714,-1.5714285714285714,-1.5714285714285714,-1.5714285714285714,-1.5809523809523809,-1.6,-1.6095238095238096,-1.619047619047619,-1.619047619047619,-1.619047619047619,-1.619047619047619,-1.619047619047619,-1.619047619047619,-1.619047619047619,-1.619047619047619,-1.619047619047619,-1.619047619047619,-1.619047619047619,-1.619047619047619,-1.619047619047619,-1.6285714285714286,-1.6285714285714286,-1.6285714285714286,-1.6285714285714286,-1.6285714285714286,-1.6285714285714286,-1.6285714285714286,-1.6285714285714286,-1.6285714285714286,-1.6285714285714286,-1.6285714285714286,-1.6285714285714286,-1.6285714285714286,-1.6285714285714286,-1.6285714285714286,-1.6285714285714286,-1.6285714285714286,-1.6285714285714286,-1.6285714285714286,-1.6285714285714286,-1.6285714285714286,-1.6285714285714286,-1.6285714285714286,-1.6285714285714286,-1.6285714285714286,-1.6285714285714286,-1.6285714285714286,-1.6285714285714286,-1.6285714285714286,-1.6285714285714286,-1.6285714285714286,-1.6285714285714286,-1.6285714285714286,-1.6285714285714286,-1.6285714285714286,-1.6285714285714286,-1.6285714285714286,-1.6285714285714286,-1.6285714285714286,-1.6285714285714286,-1.619047619047619,-1.619047619047619,-1.619047619047619,-1.6,-1.6,-1.5904761904761904,-1.5904761904761904,-1.5904761904761904,-1.5809523809523809,-1.5809523809523809,-1.5809523809523809,-1.5809523809523809,-1.5809523809523809,-1.5809523809523809,-1.5809523809523809,-1.5809523809523809,-1.5809523809523809,-1.5809523809523809,-1.5809523809523809,-1.5809523809523809,-1.5809523809523809,-1.5809523809523809,-1.5809523809523809,-1.5809523809523809,-1.5809523809523809,-1.5809523809523809,-1.5809523809523809,-1.5809523809523809,-1.5809523809523809,-1.5809523809523809,-1.5809523809523809,-1.5809523809523809,-1.5809523809523809,-1.5904761904761904,-1.5904761904761904,-1.5904761904761904,-1.5904761904761904,-1.5904761904761904,-1.5904761904761904,-1.5904761904761904,-1.5904761904761904,-1.5904761904761904,-1.5904761904761904,-1.5904761904761904,-1.5904761904761904,-1.5904761904761904,-1.5904761904761904,-1.5809523809523809,-1.561904761904762,-1.5333333333333334,-1.5142857142857142,-1.4761904761904763,-1.4476190476190476,-1.4095238095238096,-1.380952380952381,-1.3428571428571427,-1.3047619047619048,-1.2571428571428571,-1.2095238095238094,-1.161904761904762,-1.0761904761904761,-0.9809523809523809,-0.8761904761904762,-0.7619047619047619,-0.6571428571428571,-0.5619047619047619,-0.49523809523809526,-0.41904761904761906,-0.2571428571428571,-0.13333333333333333,0,0.09523809523809523,0.18095238095238095,0.26666666666666666,0.3238095238095238,0.3619047619047619,0.3904761904761905,0.42857142857142855,0.45714285714285713,0.47619047619047616,0.5047619047619047,0.5428571428571428,0.5619047619047619,0.5904761904761905,0.6,0.6190476190476191,0.638095238095238,0.6571428571428571,0.6857142857142857,0.7047619047619048,0.7333333333333333,0.7714285714285715,0.8,0.819047619047619,0.8380952380952381,0.8380952380952381,0.8476190476190476,0.8476190476190476,0.8476190476190476,0.8476190476190476,0.8476190476190476,0.8476190476190476,0.8476190476190476,0.8476190476190476,0.8476190476190476,0.8476190476190476,0.8476190476190476,0.8476190476190476,0.8476190476190476,0.8476190476190476,0.8476190476190476,0.8476190476190476,0.8571428571428571,0.8571428571428571,0.8571428571428571,0.8571428571428571,0.8571428571428571,0.8571428571428571,0.8571428571428571,0.8380952380952381,0.8095238095238095,0.7714285714285715,0.7333333333333333,0.7047619047619048,0.6857142857142857,0.6857142857142857,0.6857142857142857,0.6857142857142857,0.6857142857142857,0.6952380952380952,0.7047619047619048,0.7047619047619048,0.7047619047619048,0.7047619047619048,0.7142857142857143,0.7142857142857143,0.7142857142857143,0.7238095238095238,0.7238095238095238,0.7333333333333333,0.7333333333333333,0.7333333333333333,0.7333333333333333,0.7333333333333333,0.7142857142857143,0.638095238095238,0.5047619047619047,0.37142857142857144,0.22857142857142856,0.11428571428571428,0,-0.08571428571428572,-0.18095238095238095,-0.2,-0.2,-0.20952380952380953,-0.20952380952380953,-0.20952380952380953,-0.20952380952380953,-0.2,-0.19047619047619047,-0.17142857142857143,-0.11428571428571428,-0.06666666666666667,-0.02857142857142857,-0.009523809523809525,0.009523809523809525,0.02857142857142857,0.047619047619047616,0.0761904761904762,0.10476190476190476,0.14285714285714285,0.18095238095238095,0.22857142857142856,0.2571428571428571,0.3142857142857143,0.3523809523809524,0.4,0.42857142857142855,0.4380952380952381,0.4380952380952381,0.4380952380952381,0.4380952380952381,0.4380952380952381,0.4380952380952381,0.4380952380952381,0.4380952380952381,0.4380952380952381,0.4666666666666667,0.5047619047619047,0.5428571428571428,0.580952380952381,0.6190476190476191,0.6476190476190476,0.6666666666666666,0.6761904761904762,0.6952380952380952,0.7047619047619048,0.7142857142857143,0.7142857142857143,0.7333333333333333,0.7428571428571429,0.7523809523809524,0.7619047619047619,0.7714285714285715,0.780952380952381,0.7904761904761904,0.8095238095238095,0.819047619047619,0.8380952380952381,0.8571428571428571,0.8761904761904762,0.8857142857142857,0.8952380952380953,0.8952380952380953,0.8952380952380953,0.8952380952380953,0.8952380952380953,0.8952380952380953,0.8952380952380953,0.8952380952380953,0.8952380952380953,0.8952380952380953,0.8952380952380953,0.8952380952380953,0.8952380952380953,0.8952380952380953,0.8952380952380953,0.8952380952380953,0.8952380952380953,0.8952380952380953,0.8952380952380953,0.8952380952380953,0.8952380952380953,0.8952380952380953,0.8952380952380953,0.8952380952380953,0.8952380952380953,0.8952380952380953,0.8952380952380953,0.8952380952380953,0.8952380952380953,0.8952380952380953,0.8952380952380953,0.8952380952380953,0.8952380952380953,0.8952380952380953,0.8952380952380953,0.9047619047619048,0.9142857142857143,0.9238095238095239,0.9428571428571428,0.9619047619047619,0.9714285714285714,0.9809523809523809,0.9904761904761905,1,1.0095238095238095,1.0285714285714285,1.0285714285714285,1.0476190476190477,1.0571428571428572,1.0571428571428572,1.0666666666666667,1.0666666666666667,1.0666666666666667,1.0666666666666667,1.0666666666666667,1.0666666666666667,1.0666666666666667,1.0666666666666667,1.0666666666666667,1.0666666666666667,1.0666666666666667,1.0666666666666667,1.0666666666666667,1.0666666666666667,1.0666666666666667,1.0666666666666667,1.0571428571428572,1.0380952380952382,1.019047619047619,1,0.9809523809523809,0.9809523809523809,0.9809523809523809,0.9714285714285714,0.9714285714285714,0.9714285714285714,0.9714285714285714,0.9714285714285714,0.9714285714285714,0.9714285714285714,0.9714285714285714,0.9714285714285714,0.9714285714285714,0.9714285714285714,0.9714285714285714,0.9714285714285714,0.9714285714285714,0.9714285714285714,0.9714285714285714,0.9714285714285714,0.9714285714285714,0.9714285714285714,0.9714285714285714,0.9714285714285714,0.9714285714285714,0.9714285714285714,0.9714285714285714,0.9714285714285714,0.9714285714285714,0.9714285714285714,0.9714285714285714,0.9714285714285714,0.9714285714285714,0.9714285714285714,0.9714285714285714,0.9714285714285714,0.9714285714285714,0.9714285714285714,0.9714285714285714,0.9714285714285714,0.9714285714285714,0.9714285714285714,0.9714285714285714,0.9714285714285714,0.9714285714285714,0.9714285714285714,0.9714285714285714,0.9714285714285714,0.9714285714285714,0.9714285714285714,0.9714285714285714,0.9714285714285714,0.9714285714285714,0.9714285714285714,0.9714285714285714,0.9714285714285714,0.9714285714285714,0.9714285714285714,0.9714285714285714,0.9714285714285714,0.9714285714285714,0.9619047619047619,0.9523809523809523,0.9428571428571428,0.9238095238095239,0.9047619047619048,0.8857142857142857,0.8666666666666667,0.8380952380952381,0.819047619047619,0.7904761904761904,0.7523809523809524,0.6952380952380952,0.6571428571428571,0.6285714285714286,0.6095238095238096,0.5904761904761905,0.5619047619047619,0.5428571428571428,0.5142857142857142,0.4857142857142857,0.45714285714285713,0.4380952380952381,0.41904761904761906,0.3904761904761905,0.38095238095238093,0.3619047619047619,0.34285714285714286,0.3142857142857143,0.3047619047619048,0.2761904761904762,0.24761904761904763,0.22857142857142856,0.20952380952380953,0.19047619047619047,0.18095238095238095,0.1523809523809524,0.1523809523809524,0.1523809523809524,0.14285714285714285,0.14285714285714285,0.14285714285714285,0.14285714285714285,0.14285714285714285,0.14285714285714285,0.14285714285714285,0.14285714285714285,0.14285714285714285,0.14285714285714285,0.14285714285714285,0.14285714285714285,0.14285714285714285,0.1523809523809524,0.17142857142857143,0.18095238095238095,0.2,0.2,0.2,0.2,0.2,0.2,0.2,0.2,0.2,0.2,0.2,0.2,0.2,0.2,0.2,0.2,0.2,0.2,0.2,0.2,0.2,0.2,0.2,0.2,0.2,0.2,0.2,0.2,0.2,0.2,0.2,0.2,0.2,0.2,0.2,0.2,0.2,0.2,0.2,0.2,0.2,0.2,0.2,0.2,0.20952380952380953,0.21904761904761905,0.22857142857142856,0.24761904761904763,0.2857142857142857,0.3333333333333333,0.37142857142857144,0.41904761904761906,0.45714285714285713,0.5047619047619047,0.5333333333333333,0.5523809523809524,0.5714285714285714,0.580952380952381,0.6,0.6,0.6,0.6095238095238096,0.6190476190476191,0.6190476190476191,0.6190476190476191,0.6190476190476191,0.6190476190476191,0.6190476190476191,0.6190476190476191,0.6095238095238096,0.5714285714285714,0.5428571428571428,0.5142857142857142,0.49523809523809526,0.4666666666666667,0.45714285714285713,0.44761904761904764,0.44761904761904764,0.44761904761904764,0.44761904761904764,0.44761904761904764,0.44761904761904764,0.44761904761904764,0.44761904761904764,0.44761904761904764,0.44761904761904764,0.44761904761904764,0.44761904761904764,0.44761904761904764,0.44761904761904764,0.44761904761904764,0.44761904761904764,0.44761904761904764,0.44761904761904764,0.44761904761904764,0.44761904761904764,0.44761904761904764,0.44761904761904764,0.44761904761904764,0.44761904761904764,0.44761904761904764,0.44761904761904764,0.44761904761904764,0.44761904761904764,0.44761904761904764,0.44761904761904764,0.44761904761904764,0.44761904761904764,0.44761904761904764,0.44761904761904764,0.44761904761904764,0.44761904761904764,0.44761904761904764,0.44761904761904764,0.44761904761904764,0.44761904761904764,0.44761904761904764,0.44761904761904764,0.44761904761904764,0.44761904761904764,0.44761904761904764,0.44761904761904764,0.44761904761904764,0.44761904761904764,0.44761904761904764,0.44761904761904764,0.44761904761904764,0.44761904761904764,0.44761904761904764,0.44761904761904764,0.44761904761904764,0.44761904761904764,0.44761904761904764,0.44761904761904764,0.44761904761904764,0.44761904761904764,0.44761904761904764,0.44761904761904764,0.44761904761904764,0.44761904761904764,0.45714285714285713,0.4666666666666667,0.4666666666666667,0.4666666666666667,0.4666666666666667,0.4666666666666667,0.47619047619047616,0.47619047619047616,0.4857142857142857,0.4857142857142857,0.4857142857142857,0.47619047619047616,0.44761904761904764,0.4095238095238095,0.3523809523809524,0.2857142857142857,0.20952380952380953,0.1523809523809524,0.13333333333333333,0.09523809523809523,0.0761904761904762,0.0761904761904762,0.0761904761904762,0.06666666666666667,0.06666666666666667,0.06666666666666667,0.06666666666666667,0.05714285714285714,0.05714285714285714,0.05714285714285714,0.05714285714285714,0.05714285714285714,0.05714285714285714,0.05714285714285714,0.05714285714285714,0.05714285714285714,0.05714285714285714,0.05714285714285714,0.05714285714285714,0.05714285714285714,0.05714285714285714,0.05714285714285714,0.05714285714285714,0.06666666666666667,0.10476190476190476,0.12380952380952381,0.1523809523809524,0.18095238095238095,0.20952380952380953,0.23809523809523808,0.24761904761904763,0.2761904761904762,0.29523809523809524,0.3238095238095238,0.3333333333333333,0.3619047619047619,0.38095238095238093,0.4,0.41904761904761906,0.4380952380952381,0.45714285714285713,0.4857142857142857,0.5142857142857142,0.5333333333333333,0.5619047619047619,0.580952380952381,0.6,0.6190476190476191,0.638095238095238,0.6571428571428571,0.6666666666666666,0.6666666666666666,0.6666666666666666,0.6666666666666666,0.6666666666666666,0.6571428571428571,0.638095238095238,0.6285714285714286,0.6190476190476191,0.6095238095238096,0.6095238095238096,0.5904761904761905,0.5904761904761905,0.5904761904761905,0.580952380952381,0.5523809523809524,0.5238095238095238,0.5142857142857142,0.4857142857142857,0.4666666666666667,0.44761904761904764,0.44761904761904764,0.44761904761904764,0.44761904761904764,0.44761904761904764,0.44761904761904764,0.44761904761904764,0.44761904761904764,0.44761904761904764,0.44761904761904764,0.44761904761904764,0.44761904761904764,0.44761904761904764,0.44761904761904764,0.44761904761904764,0.44761904761904764,0.44761904761904764,0.44761904761904764,0.44761904761904764,0.45714285714285713,0.4666666666666667,0.47619047619047616,0.4857142857142857,0.49523809523809526,0.5047619047619047,0.5238095238095238,0.5333333333333333,0.5428571428571428,0.5523809523809524,0.5523809523809524,0.5523809523809524,0.5523809523809524,0.5619047619047619,0.5619047619047619,0.5619047619047619,0.5619047619047619,0.5619047619047619,0.5619047619047619,0.5714285714285714,0.5714285714285714,0.5714285714285714,0.5714285714285714,0.5714285714285714,0.5714285714285714,0.5714285714285714,0.5714285714285714,0.5619047619047619,0.5619047619047619,0.5523809523809524,0.5523809523809524,0.5428571428571428,0.5428571428571428,0.5428571428571428,0.5428571428571428,0.5428571428571428,0.5428571428571428,0.5428571428571428,0.5428571428571428,0.5428571428571428,0.5428571428571428,0.5428571428571428,0.5428571428571428,0.5428571428571428,0.5428571428571428,0.5428571428571428,0.5428571428571428,0.5428571428571428,0.5428571428571428,0.5428571428571428,0.5428571428571428,0.5428571428571428,0.5428571428571428,0.5428571428571428,0.5428571428571428,0.5428571428571428,0.5428571428571428,0.5428571428571428,0.5428571428571428,0.5428571428571428,0.5428571428571428,0.5428571428571428,0.5428571428571428,0.5428571428571428,0.5428571428571428,0.5428571428571428,0.5333333333333333,0.5333333333333333,0.5333333333333333,0.5333333333333333,0.5333333333333333,0.5333333333333333,0.5333333333333333,0.5238095238095238,0.5238095238095238,0.5142857142857142,0.5142857142857142,0.5142857142857142,0.5047619047619047,0.5047619047619047,0.5047619047619047,0.5047619047619047,0.5047619047619047,0.5047619047619047,0.5047619047619047,0.5047619047619047,0.5047619047619047,0.5047619047619047,0.49523809523809526,0.4857142857142857,0.4666666666666667,0.4380952380952381,0.41904761904761906,0.4,0.34285714285714286,0.2857142857142857,0.20952380952380953,0.1619047619047619,0.10476190476190476,0.06666666666666667,0.02857142857142857,0,-0.009523809523809525,-0.009523809523809525,-0.009523809523809525,-0.009523809523809525,-0.009523809523809525,-0.009523809523809525,-0.009523809523809525,-0.009523809523809525,-0.009523809523809525,-0.009523809523809525,-0.01904761904761905,-0.01904761904761905,-0.01904761904761905,-0.02857142857142857,-0.0380952380952381,-0.047619047619047616,-0.047619047619047616,-0.047619047619047616,-0.047619047619047616,-0.047619047619047616,-0.047619047619047616,-0.047619047619047616,-0.047619047619047616,-0.047619047619047616,-0.047619047619047616,-0.047619047619047616,-0.047619047619047616,-0.047619047619047616,-0.047619047619047616,-0.047619047619047616,-0.047619047619047616,-0.047619047619047616,-0.047619047619047616,-0.047619047619047616,-0.047619047619047616,-0.047619047619047616,-0.047619047619047616,-0.047619047619047616,-0.047619047619047616,-0.047619047619047616,-0.047619047619047616,-0.047619047619047616,-0.047619047619047616,-0.047619047619047616,-0.047619047619047616,-0.047619047619047616,-0.047619047619047616,-0.047619047619047616,-0.047619047619047616,-0.047619047619047616,-0.047619047619047616,-0.047619047619047616,-0.047619047619047616,-0.047619047619047616,-0.047619047619047616,-0.047619047619047616,-0.047619047619047616,-0.05714285714285714,-0.06666666666666667,-0.06666666666666667,-0.0761904761904762,-0.0761904761904762,-0.0761904761904762,-0.0761904761904762,-0.0761904761904762,-0.0761904761904762,-0.0761904761904762,-0.0761904761904762,-0.0761904761904762,-0.0761904761904762,-0.0761904761904762,-0.0761904761904762,-0.0761904761904762,-0.0761904761904762,-0.0761904761904762,-0.0761904761904762,-0.0761904761904762,-0.0761904761904762,-0.0761904761904762,-0.0761904761904762,-0.0761904761904762,-0.0761904761904762,-0.0761904761904762,-0.0761904761904762,-0.0761904761904762,-0.0761904761904762,-0.0761904761904762,-0.0761904761904762,-0.0761904761904762,-0.0761904761904762,-0.0761904761904762,-0.0761904761904762,-0.0761904761904762,-0.0761904761904762,-0.0761904761904762,-0.0761904761904762,-0.0761904761904762,-0.0761904761904762,-0.0761904761904762,-0.0761904761904762,-0.0761904761904762,-0.0761904761904762,-0.0761904761904762,-0.0761904761904762,-0.0761904761904762,-0.0761904761904762,-0.0761904761904762,-0.0761904761904762,-0.0761904761904762,-0.0761904761904762,-0.0761904761904762,-0.0761904761904762,-0.06666666666666667,-0.06666666666666667,-0.06666666666666667,-0.06666666666666667,-0.06666666666666667,-0.06666666666666667,-0.06666666666666667,-0.06666666666666667,-0.06666666666666667,-0.06666666666666667,-0.06666666666666667,-0.06666666666666667,-0.06666666666666667,-0.06666666666666667,-0.06666666666666667,-0.06666666666666667,-0.05714285714285714,-0.05714285714285714,-0.05714285714285714,-0.05714285714285714,-0.047619047619047616,-0.0380952380952381,-0.0380952380952381,-0.02857142857142857,-0.02857142857142857,-0.02857142857142857,-0.02857142857142857,-0.02857142857142857,-0.02857142857142857,-0.02857142857142857,-0.02857142857142857,-0.02857142857142857,-0.02857142857142857,-0.02857142857142857,-0.02857142857142857,-0.01904761904761905,-0.01904761904761905,-0.01904761904761905,-0.01904761904761905,-0.01904761904761905,-0.01904761904761905,-0.01904761904761905,-0.01904761904761905,-0.01904761904761905,-0.01904761904761905,-0.01904761904761905,-0.01904761904761905,-0.01904761904761905,-0.01904761904761905,-0.01904761904761905,-0.01904761904761905,-0.01904761904761905,-0.01904761904761905,-0.01904761904761905,-0.01904761904761905,-0.01904761904761905,-0.01904761904761905,-0.02857142857142857,-0.02857142857142857,-0.02857142857142857,-0.0380952380952381,-0.0380952380952381,-0.0380952380952381,-0.0380952380952381,-0.0380952380952381,-0.0380952380952381,-0.0380952380952381,-0.047619047619047616,-0.047619047619047616,-0.05714285714285714,-0.05714285714285714,-0.06666666666666667,-0.06666666666666667,-0.06666666666666667,-0.06666666666666667,-0.06666666666666667,-0.06666666666666667,-0.0761904761904762,-0.0761904761904762,-0.08571428571428572,-0.08571428571428572,-0.08571428571428572,-0.08571428571428572,-0.08571428571428572,-0.08571428571428572,-0.08571428571428572,-0.08571428571428572,-0.08571428571428572,-0.08571428571428572,-0.08571428571428572,-0.08571428571428572,-0.08571428571428572,-0.08571428571428572,-0.08571428571428572,-0.08571428571428572,-0.08571428571428572,-0.08571428571428572,-0.08571428571428572,-0.08571428571428572,-0.08571428571428572,-0.08571428571428572,-0.08571428571428572,-0.08571428571428572,-0.08571428571428572,-0.08571428571428572,-0.08571428571428572,-0.08571428571428572,-0.08571428571428572,-0.08571428571428572,-0.08571428571428572,-0.08571428571428572,-0.08571428571428572,-0.08571428571428572,-0.08571428571428572,-0.0761904761904762,-0.06666666666666667,-0.047619047619047616,-0.01904761904761905,-0.009523809523809525,0,0,0.009523809523809525,0.009523809523809525,0.009523809523809525,0.009523809523809525,0.009523809523809525,0.009523809523809525,0.009523809523809525,0.009523809523809525,0.009523809523809525,0.009523809523809525,0.009523809523809525,0.009523809523809525,0.009523809523809525,0.009523809523809525,0.009523809523809525,0.009523809523809525,0.009523809523809525,0.009523809523809525,0.009523809523809525,0.009523809523809525,0.009523809523809525,0.009523809523809525,0.009523809523809525,0.009523809523809525,0.009523809523809525,0.009523809523809525,0.009523809523809525,0.009523809523809525,0.009523809523809525,0.009523809523809525,0.009523809523809525,0.009523809523809525,0.009523809523809525,0.009523809523809525,0.009523809523809525,0.009523809523809525,0.009523809523809525,0.009523809523809525,0,-0.02857142857142857,-0.02857142857142857,-0.02857142857142857,-0.02857142857142857,-0.02857142857142857,-0.02857142857142857,-0.02857142857142857,-0.02857142857142857,-0.02857142857142857,-0.01904761904761905,0.009523809523809525,0.02857142857142857,0.08571428571428572,0.14285714285714285,0.21904761904761905,0.3047619047619048,0.41904761904761906,0.5047619047619047,0.5619047619047619,0.6,0.6285714285714286,0.638095238095238,0.638095238095238,0.638095238095238,0.638095238095238,0.6476190476190476,0.6476190476190476,0.6476190476190476,0.6476190476190476,0.6476190476190476,0.6571428571428571,0.6571428571428571,0.6571428571428571,0.6666666666666666,0.6857142857142857,0.7333333333333333,0.780952380952381,0.8285714285714286,0.8571428571428571,0.8761904761904762,0.8761904761904762,0.8761904761904762,0.8761904761904762,0.8571428571428571,0.8380952380952381,0.8380952380952381,0.8285714285714286,0.8285714285714286,0.8285714285714286,0.8285714285714286,0.819047619047619,0.819047619047619,0.819047619047619,0.819047619047619,0.819047619047619,0.819047619047619,0.819047619047619,0.819047619047619,0.819047619047619,0.819047619047619,0.8285714285714286,0.8476190476190476,0.8666666666666667,0.8857142857142857,0.9047619047619048,0.9047619047619048,0.9047619047619048,0.9047619047619048,0.9047619047619048,0.9047619047619048,0.9047619047619048,0.9047619047619048,0.9047619047619048,0.9142857142857143,0.9142857142857143,0.9142857142857143,0.9238095238095239,0.9238095238095239,0.9238095238095239,0.9238095238095239,0.9238095238095239,0.9238095238095239,0.9238095238095239,0.9238095238095239,0.9238095238095239,0.9238095238095239,0.9238095238095239,0.9333333333333333,0.9428571428571428,0.9428571428571428,0.9523809523809523,0.9523809523809523,0.9619047619047619,0.9714285714285714,0.9809523809523809,0.9904761904761905,1,1,1,1,0.9714285714285714,0.9619047619047619,0.9619047619047619,0.9619047619047619,0.9428571428571428,0.9047619047619048,0.8380952380952381,0.7714285714285715,0.6857142857142857,0.6095238095238096,0.5428571428571428,0.5142857142857142,0.49523809523809526,0.49523809523809526,0.4857142857142857,0.4857142857142857,0.4857142857142857,0.4857142857142857,0.4857142857142857,0.4857142857142857,0.4857142857142857,0.47619047619047616,0.47619047619047616,0.47619047619047616,0.47619047619047616,0.47619047619047616,0.49523809523809526,0.5047619047619047,0.5333333333333333,0.5619047619047619,0.6,0.6666666666666666,0.7238095238095238,0.7619047619047619,0.7714285714285715,0.780952380952381,0.8095238095238095,0.8380952380952381,0.8666666666666667,0.9047619047619048,0.9238095238095239,0.9238095238095239,0.9238095238095239,0.9238095238095239,0.9238095238095239,0.9238095238095239,0.8952380952380953,0.8761904761904762,0.8285714285714286,0.8,0.7714285714285715,0.7523809523809524,0.7238095238095238,0.7142857142857143,0.6857142857142857,0.6571428571428571,0.6476190476190476,0.638095238095238,0.6285714285714286,0.6095238095238096,0.580952380952381,0.5619047619047619,0.5523809523809524,0.5428571428571428,0.5333333333333333,0.5238095238095238,0.5238095238095238,0.5238095238095238,0.5142857142857142,0.5142857142857142,0.5047619047619047,0.49523809523809526,0.49523809523809526,0.4857142857142857,0.4857142857142857,0.4857142857142857,0.4857142857142857,0.47619047619047616,0.4666666666666667,0.4666666666666667,0.4666666666666667,0.4666666666666667,0.45714285714285713,0.45714285714285713,0.44761904761904764,0.4380952380952381,0.4380952380952381,0.42857142857142855,0.42857142857142855,0.41904761904761906,0.41904761904761906,0.4095238095238095,0.4095238095238095,0.4095238095238095,0.4095238095238095,0.4095238095238095,0.4095238095238095,0.4095238095238095,0.4095238095238095,0.4095238095238095,0.4095238095238095,0.4095238095238095,0.4095238095238095,0.4095238095238095,0.4095238095238095,0.4095238095238095,0.4095238095238095,0.4095238095238095,0.4095238095238095,0.4095238095238095,0.4095238095238095,0.4095238095238095,0.4095238095238095,0.4095238095238095,0.4095238095238095,0.4095238095238095,0.4095238095238095,0.4095238095238095,0.4095238095238095,0.42857142857142855,0.42857142857142855,0.44761904761904764,0.45714285714285713,0.45714285714285713,0.4666666666666667,0.4666666666666667,0.47619047619047616,0.4857142857142857,0.5047619047619047,0.5047619047619047,0.5333333333333333,0.5619047619047619,0.6190476190476191,0.6571428571428571,0.6666666666666666,0.742857