[{"success":true,"trial_type":"fullscreen","trial_index":0,"time_elapsed":3655,"internal_node_id":"0.0-0.0","protocol_sum":"","subject_identifier":431,"subject_sum":[216,101,128,165,127,123,245,66,232,82,2,40,60,184,69,149,60,157,40,248,10,142,101,29,176,139,47,192,178,214,167,49],"subject_pair":215,"STUDY_ID":"66a22c0758a3d5c9d26873c6","PROLIFIC_PID":"601f5a82dc8ed94a9da4461e","SESSION_ID":"66a2d1571f689ec2112cc905","practice_instructions":1,"leaderboard_instructions":0,"bonus":0,"reveal_word":true,"self_rating":"6","confidence":"80"},{"view_history":"[{\"page_index\":0,\"viewing_time\":10918.199999988079}]","rt":10918.800000011921,"trial_type":"instructions","trial_index":1,"time_elapsed":14575,"internal_node_id":"0.0-1.0","protocol_sum":"","subject_identifier":431,"subject_sum":[216,101,128,165,127,123,245,66,232,82,2,40,60,184,69,149,60,157,40,248,10,142,101,29,176,139,47,192,178,214,167,49],"subject_pair":215,"STUDY_ID":"66a22c0758a3d5c9d26873c6","PROLIFIC_PID":"601f5a82dc8ed94a9da4461e","SESSION_ID":"66a2d1571f689ec2112cc905","practice_instructions":1,"leaderboard_instructions":0,"bonus":0,"reveal_word":true,"self_rating":"6","confidence":"80"},{"view_history":"[{\"page_index\":0,\"viewing_time\":63997.39999997616}]","rt":63997.69999998808,"trial_type":"instructions","trial_index":2,"time_elapsed":78575,"internal_node_id":"0.0-2.0-0.0","protocol_sum":"","subject_identifier":431,"subject_sum":[216,101,128,165,127,123,245,66,232,82,2,40,60,184,69,149,60,157,40,248,10,142,101,29,176,139,47,192,178,214,167,49],"subject_pair":215,"STUDY_ID":"66a22c0758a3d5c9d26873c6","PROLIFIC_PID":"601f5a82dc8ed94a9da4461e","SESSION_ID":"66a2d1571f689ec2112cc905","practice_instructions":1,"leaderboard_instructions":0,"bonus":0,"reveal_word":true,"self_rating":"6","confidence":"80"},{"rt":17272.399999976158,"responses":"{\"Q0\":\"... reveal the word with as <b>few letter guesses</b> as possible\"}","question_order":"[0]","trial_type":"survey-multi-choice","trial_index":3,"time_elapsed":95849,"internal_node_id":"0.0-2.0-1.0","protocol_sum":"","subject_identifier":431,"subject_sum":[216,101,128,165,127,123,245,66,232,82,2,40,60,184,69,149,60,157,40,248,10,142,101,29,176,139,47,192,178,214,167,49],"subject_pair":215,"correct":true,"test_part":"multichoice_nonpretend","STUDY_ID":"66a22c0758a3d5c9d26873c6","PROLIFIC_PID":"601f5a82dc8ed94a9da4461e","SESSION_ID":"66a2d1571f689ec2112cc905","practice_instructions":1,"leaderboard_instructions":0,"bonus":0,"reveal_word":true,"self_rating":"6","confidence":"80"},{"view_history":"[{\"page_index\":0,\"viewing_time\":1130}]","rt":1130.1000000238419,"trial_type":"instructions","trial_index":4,"time_elapsed":96981,"internal_node_id":"0.0-3.0","protocol_sum":"","subject_identifier":431,"subject_sum":[216,101,128,165,127,123,245,66,232,82,2,40,60,184,69,149,60,157,40,248,10,142,101,29,176,139,47,192,178,214,167,49],"subject_pair":215,"STUDY_ID":"66a22c0758a3d5c9d26873c6","PROLIFIC_PID":"601f5a82dc8ed94a9da4461e","SESSION_ID":"66a2d1571f689ec2112cc905","practice_instructions":1,"leaderboard_instructions":0,"bonus":0,"reveal_word":true,"self_rating":"6","confidence":"80"},{"word":"ZEBRA","click_log":{"letter":["","M","A","E","I","O","C","F","R","T","S","L","H","G","P","B","Z"],"t":[0,4206.300000011921,6650.800000011921,7891.800000011921,8621.300000011921,9739.900000035763,12160.700000047684,13824.800000011921,14847.800000011921,18298.400000035763,19840.200000047684,21295.700000047684,22966.900000035763,23639.5,24259.700000047684,25470.200000047684,27215.80000001192],"hit":[null,0,1,1,0,0,0,0,1,0,0,0,0,0,0,1,1],"asked":["","M","MA","MAE","MAEI","MAEIO","MAEIOC","MAEIOCF","MAEIOCFR","MAEIOCFRT","MAEIOCFRTS","MAEIOCFRTSL","MAEIOCFRTSLH","MAEIOCFRTSLHG","MAEIOCFRTSLHGP","MAEIOCFRTSLHGPB","MAEIOCFRTSLHGPBZ"],"word_state":["_____","_____","____A","_E__A","_E__A","_E__A","_E__A","_E__A","_E_RA","_E_RA","_E_RA","_E_RA","_E_RA","_E_RA","_E_RA","_EBRA","ZEBRA"]},"hover_log":{"letter":["?","?","S","S","S","S","S","S","S","S","S","S","S","S","S","S","S","S","S","S","S","S","S","S","S","S","?","?","?","?","L","L","L","?","?","?","?","?","?","?","?","?","?","?","?","?","?","?","D","D","D","D","D","D","D","D","D","D","D","D","D","D","D","D","D","D","D","D","D","D","D","D","D","D","D","D","D","D","D","D","D","D","D","D","D","D","D","D","D","D","D","D","?","?","?","?","?","?","?","?","?","?","?","?","?","?","?","?","?","?","?","?","?","?","?","?","?","?","?","?","?","?","?","?","?","?","?","?","?","D","D","D","D","D","D","D","D","?","?","?","?","?","?","?","?","?","?","?","?","?","?","?","?","?","?","?","?","?","?","?","?","?","?","?","?","?","?","?","?","?","?","?","?","?","?","?","?","?","?","?","D","D","D","D","D","D","D","D","D","D","D","D","D","?","?","?","?","?","?","?","?","?","?","?","?","?","M","M","M","M","M","M","M","M","M","M","M","M","M","M","M","M","M","M","M","M","M","M","M","M","M","M","M","M","M","M","M","M","M","M","M","M","M","M","M","M","M","M","M","M","M","M","M","M","M","M","M","M","M","M","M","M","M","M","M","M","?","?","?","?","W","W","W","?","?","?","?","?","?","?","?","?","?","?","?","?","?","?","?","?","?","Z","Z","Z","?","?","Q","Q","Q","Q","Q","Q","Q","?","?","?","?","?","?","?","?","G","G","G","G","G","G","G","G","G","G","G","G","G","G","G","G","G","G","G","G","G","G","G","G","G","G","G","G","G","G","G","G","G","G","G","G","G","?","?","?","F","F","F","?","E","E","?","D","D","C","C","?","B","B","B","B","B","B","B","B","B","B","B","B","B","B","B","B","B","?","?","?","?","A","A","A","A","A","A","A","A","A","A","A","A","A","A","A","A","A","A","?","B","B","?","?","?","?","?","?","D","D","D","D","D","D","D","D","D","D","D","D","D","D","D","D","D","D","D","?","?","?","?","?","?","?","?","?","?","?","?","?","?","?","?","?","?","?","?","?","?","?","E","E","E","E","E","E","E","E","E","E","E","E","E","E","E","E","E","E","E","E","E","E","E","E","E","E","E","E","?","?","?","?","?","?","?","?","?","?","?","?","?","?","?","?","I","I","I","I","I","I","I","I","I","I","I","I","I","I","I","I","I","I","I","I","I","I","I","I","I","I","I","I","I","I","I","?","?","?","?","?","?","?","?","?","?","?","?","Q","Q","Q","Q","Q","?","P","P","?","O","O","O","?","?","?","?","?","?","?","?","?","?","?","?","?","O","O","O","O","O","O","O","O","O","O","O","O","O","O","O","O","O","O","O","O","O","O","O","O","O","O","O","O","O","O","O","O","O","O","O","O","O","O","O","O","O","O","?","?","?","?","?","?","?","V","V","V","?","?","U","U","U","U","U","U","?","?","T","T","?","?","?","?","J","J","J","J","J","J","J","J","J","J","J","J","J","J","J","J","J","J","J","J","J","J","J","J","J","J","?","?","?","?","?","?","?","?","?","?","?","?","?","?","?","?","?","?","?","?","?","?","?","?","?","?","?","B","B","B","B","B","B","B","B","B","B","B","B","B","B","B","B","B","B","B","B","B","B","B","B","?","?","C","C","C","C","C","C","C","C","C","C","C","C","C","C","C","C","C","C","C","C","C","C","C","C","C","C","C","C","C","?","?","?","L","L","?","?","M","M","M","N","N","?","O","O","?","?","?","G","G","G","G","G","G","G","G","G","G","G","G","G","G","G","G","G","G","G","G","G","G","G","G","G","G","G","G","G","G","G","G","G","G","G","G","G","G","G","G","G","?","?","?","?","?","?","?","?","?","?","F","F","F","F","F","F","F","F","F","F","F","F","F","F","F","F","F","F","F","F","F","F","F","F","?","?","?","?","?","O","O","?","?","?","?","?","?","?","?","?","?","?","?","?","?","?","?","?","?","?","?","?","?","?","?","?","?","?","?","?","?","?","?","?","?","?","R","R","R","R","R","R","R","R","R","R","R","R","R","R","R","R","R","R","R","R","R","R","R","?","?","?","?","?","?","?","?","?","?","?","?","Y","Y","?","X","X","?","?","W","W","W","W","W","?","?","?","V","V","V","?","?","?","?","?","?","?","?","?","U","U","U","U","U","U","U","U","U","U","U","U","U","U","U","U","U","U","U","U","U","U","U","U","U","U","U","U","U","U","U","U","U","U","U","U","U","U","U","U","U","U","U","U","U","U","U","U","U","U","U","U","U","U","U","U","U","U","U","U","U","U","U","U","U","U","U","U","U","U","U","U","U","U","?","V","?","W","W","W","?","?","?","?","X","X","X","X","X","X","X","X","X","X","X","X","X","X","X","X","X","X","X","X","?","?","W","W","W","W","W","W","?","?","V","V","V","V","V","V","V","V","V","V","V","V","V","V","V","V","?","?","U","U","U","U","U","?","?","T","T","T","T","T","T","T","T","T","T","T","T","T","T","T","T","T","T","T","T","T","T","T","?","?","?","?","?","?","?","?","?","?","?","?","?","?","?","?","?","?","?","?","?","?","?","?","?","?","?","?","?","?","?","?","?","?","?","?","?","?","?","?","?","?","?","?","?","?","?","?","?","?","?","?","?","?","?","?","?","?","?","?","?","?","?","?","?","?","?","?","?","?","?","S","S","S","S","S","S","S","S","S","S","S","S","S","S","S","S","S","S","S","S","S","S","S","S","S","S","S","S","S","S","S","S","S","S","S","S","S","S","S","S","S","S","S","S","S","S","?","?","?","?","?","K","K","K","K","K","K","K","K","K","K","?","?","?","?","?","?","?","?","?","K","K","K","K","K","K","K","K","K","K","K","K","K","K","K","K","K","K","K","?","?","?","L","L","L","L","L","L","L","L","L","L","L","L","L","L","L","L","L","L","L","L","L","L","L","L","L","L","L","L","L","L","L","L","?","?","?","?","M","M","M","?","?","N","N","N","N","N","N","?","O","O","O","O","O","O","O","O","O","O","O","O","O","O","?","?","?","?","F","F","F","F","F","?","?","?","?","?","G","G","G","G","G","G","G","G","G","G","G","G","G","G","G","G","G","G","?","?","H","H","H","H","H","H","H","H","H","H","H","H","H","H","H","H","H","H","H","H","H","H","H","H","H","H","H","H","?","?","?","?","?","?","?","?","?","?","?","?","?","?","G","G","G","G","G","G","G","G","G","G","G","G","G","G","G","G","G","G","G","G","G","G","G","?","?","?","P","P","P","P","?","?","?","?","?","?","?","?","?","?","?","P","P","P","P","P","P","P","P","P","P","P","P","P","P","P","P","P","P","P","P","P","P","P","P","P","P","?","?","?","?","?","?","?","?","?","?","?","?","?","?","?","?","?","?","?","?","?","L","L","L","L","?","?","?","?","?","?","?","?","?","?","?","?","?","B","B","B","B","B","B","B","B","B","B","B","B","B","B","B","B","B","B","B","B","B","B","B","B","B","B","B","B","B","B","B","?","?","?","K","K","K","K","K","K","K","K","K","K","K","K","K","K","K","?","?","?","?","?","?","?","?","?","?","?","?","?","?","?","?","?","?","?","?","?","?","?","?","?","?","?","?","?","?","?","?","?","?","?","?","?","?","?","T","T","T","?","U","U","U","U","U","?","V","V","W","W","?","X","Y","Y","Z","Z","Z","Z","Z","Z","Z","Z","Z","Z","Z","Z","Z","Z","Z","Z","Z","Z","Z","Z","Z","Z","Z","Z","Z","Z","Z","Z","Z","Z","Z","Z","Z","Z","Z","Z","Z","Z","Z","Z","Z","Z","Z","Z","Z","Z","Y","?","?","W","V","?","?","?","?","?","?","?","?","?","?","?","?","?","?","?","?","?","?","?","?","?","?","?","?","?","?","?","?","?","?","?","?","?","?","?","?","?","?","?","?","?","?","?","?","?","?","?","?","?","?","?","?","?","?","?","?","?","?","?","?","?","?","?","?","?","?","?","?","?","?","?","?","?","?","?","?","?","?","?","?","?","?","?","?","?","?","?","?","?","?"],"t":[32,44,55,71,87,104,121,137,154,170,187,203,220,237,254,270,287,304,321,337,353,370,387,403,420,437,454,470,487,504,520,537,554,570,587,604,620,637,654,670,686,703,720,737,754,770,787,804,820,837,853,870,887,904,920,937,953,970,987,1003,1020,1037,1053,1070,1087,1103,1120,1137,1153,1170,1187,1204,1220,1237,1253,1270,1287,1303,1320,1337,1353,1370,1387,1404,1420,1437,1453,1470,1487,1504,1520,1537,1553,1570,1587,1603,1620,1637,1654,1670,1687,1704,1721,1737,1754,1770,1787,1803,1820,1837,1854,1870,1887,1903,1920,1937,1953,1970,1987,2003,2020,2037,2054,2070,2087,2104,2120,2137,2153,2170,2187,2203,2220,2237,2253,2270,2287,2304,2320,2336,2353,2370,2386,2403,2420,2436,2454,2470,2487,2503,2520,2536,2553,2570,2586,2603,2620,2637,2653,2670,2687,2703,2720,2736,2753,2770,2787,2803,2820,2837,2854,2870,2887,2903,2920,2937,2953,2970,2987,3003,3020,3037,3053,3070,3087,3104,3120,3137,3154,3170,3186,3204,3220,3237,3253,3270,3287,3303,3320,3337,3354,3370,3387,3403,3420,3437,3454,3470,3487,3503,3520,3536,3553,3570,3587,3604,3620,3636,3653,3670,3686,3703,3720,3737,3754,3770,3787,3803,3820,3837,3853,3870,3887,3904,3920,3937,3954,3970,3987,4004,4020,4037,4053,4070,4087,4104,4120,4137,4154,4170,4187,4205,4221,4237,4254,4271,4288,4304,4320,4337,4354,4371,4387,4404,4420,4437,4454,4470,4487,4504,4521,4537,4554,4571,4587,4604,4621,4637,4654,4670,4687,4704,4720,4737,4754,4770,4787,4804,4820,4837,4854,4871,4887,4904,4921,4937,4954,4970,4987,5004,5020,5037,5054,5070,5087,5104,5120,5137,5153,5170,5187,5204,5220,5237,5253,5270,5287,5303,5320,5337,5353,5370,5387,5403,5420,5437,5453,5470,5487,5503,5520,5537,5554,5570,5587,5603,5620,5637,5654,5670,5687,5703,5720,5738,5753,5771,5787,5804,5820,5837,5854,5871,5887,5904,5920,5937,5954,5970,5987,6004,6021,6037,6054,6071,6087,6104,6120,6137,6153,6170,6187,6204,6220,6237,6253,6270,6287,6303,6320,6337,6354,6370,6387,6404,6421,6437,6454,6470,6487,6503,6520,6537,6553,6570,6587,6603,6620,6637,6655,6670,6687,6704,6721,6737,6754,6771,6788,6804,6821,6837,6854,6871,6887,6904,6920,6937,6954,6970,6988,7004,7020,7037,7053,7070,7087,7103,7120,7137,7154,7170,7187,7204,7220,7238,7254,7271,7287,7304,7320,7337,7354,7370,7387,7404,7420,7437,7453,7471,7487,7504,7520,7537,7553,7570,7588,7604,7623,7637,7654,7670,7687,7704,7720,7737,7754,7770,7787,7803,7820,7837,7853,7870,7887,7904,7920,7937,7954,7970,7987,8004,8021,8037,8054,8071,8088,8104,8121,8137,8154,8171,8187,8204,8220,8237,8254,8270,8287,8304,8320,8337,8354,8370,8387,8404,8421,8437,8454,8470,8487,8504,8520,8537,8553,8571,8587,8604,8620,8637,8654,8670,8687,8704,8720,8737,8754,8771,8787,8804,8820,8837,8854,8870,8887,8904,8920,8937,8954,8970,8987,9004,9020,9037,9054,9070,9087,9104,9121,9137,9154,9171,9187,9204,9221,9237,9254,9270,9287,9304,9320,9337,9355,9370,9387,9404,9420,9437,9454,9470,9487,9504,9520,9537,9553,9570,9587,9604,9620,9637,9653,9671,9687,9704,9720,9737,9755,9770,9787,9804,9820,9838,9854,9870,9887,9904,9920,9937,9954,9970,9988,10004,10020,10037,10054,10070,10087,10104,10121,10137,10154,10170,10187,10204,10221,10237,10254,10271,10287,10304,10321,10337,10354,10371,10387,10404,10421,10437,10454,10471,10487,10504,10521,10537,10554,10571,10587,10604,10620,10637,10654,10670,10687,10704,10720,10737,10754,10770,10787,10804,10820,10837,10854,10870,10887,10904,10921,10938,10954,10970,10987,11004,11020,11037,11054,11070,11087,11104,11120,11137,11154,11170,11187,11204,11220,11237,11254,11270,11288,11304,11320,11337,11354,11371,11387,11404,11420,11437,11454,11470,11487,11504,11521,11537,11553,11570,11587,11604,11620,11638,11655,11670,11687,11705,11720,11737,11754,11770,11787,11804,11820,11837,11854,11870,11887,11904,11920,11937,11954,11970,11987,12004,12020,12037,12054,12070,12087,12104,12120,12137,12153,12171,12187,12204,12220,12237,12254,12271,12287,12304,12320,12337,12354,12371,12387,12405,12422,12438,12455,12471,12488,12504,12521,12538,12554,12571,12587,12604,12621,12638,12654,12671,12687,12704,12720,12738,12754,12770,12788,12804,12820,12837,12854,12870,12888,12904,12920,12937,12954,12971,12987,13004,13021,13037,13054,13071,13087,13104,13120,13137,13154,13171,13187,13204,13221,13237,13254,13271,13287,13304,13320,13337,13354,13371,13387,13404,13420,13437,13454,13470,13487,13504,13521,13537,13554,13570,13587,13604,13621,13638,13654,13670,13687,13704,13720,13737,13754,13770,13787,13803,13820,13837,13854,13871,13887,13904,13921,13937,13954,13971,13987,14004,14021,14037,14054,14071,14087,14104,14120,14137,14154,14171,14187,14204,14221,14237,14254,14271,14287,14304,14321,14337,14355,14371,14387,14404,14420,14437,14454,14471,14487,14504,14520,14537,14554,14570,14587,14604,14621,14637,14654,14671,14687,14704,14720,14737,14754,14770,14787,14804,14820,14837,14854,14870,14887,14904,14920,14937,14954,14971,14988,15005,15021,15037,15054,15071,15087,15104,15121,15137,15154,15171,15187,15204,15221,15237,15254,15271,15287,15304,15321,15337,15354,15371,15387,15404,15421,15437,15454,15471,15487,15504,15521,15537,15554,15570,15588,15604,15621,15637,15654,15671,15687,15704,15721,15737,15754,15770,15787,15803,15821,15837,15854,15870,15887,15904,15920,15938,15954,15971,15987,16004,16020,16037,16054,16070,16087,16104,16121,16137,16154,16170,16187,16204,16221,16237,16254,16270,16287,16304,16321,16337,16354,16370,16387,16404,16420,16438,16454,16470,16487,16504,16520,16537,16554,16570,16587,16604,16620,16638,16654,16670,16687,16704,16720,16737,16754,16770,16787,16804,16821,16837,16855,16871,16888,16904,16921,16938,16954,16971,16987,17004,17021,17037,17054,17071,17087,17104,17120,17137,17154,17170,17187,17204,17220,17238,17254,17270,17287,17304,17321,17337,17354,17371,17388,17405,17421,17437,17454,17471,17487,17504,17521,17537,17554,17571,17587,17604,17621,17637,17654,17672,17688,17704,17720,17737,17754,17771,17787,17804,17821,17838,17854,17871,17888,17904,17921,17938,17955,17971,17987,18004,18020,18037,18054,18071,18087,18104,18121,18138,18154,18171,18187,18204,18221,18238,18254,18270,18287,18305,18321,18338,18354,18371,18388,18404,18421,18437,18455,18470,18487,18505,18521,18537,18554,18571,18588,18604,18621,18637,18654,18671,18687,18704,18721,18737,18754,18771,18787,18804,18820,18838,18855,18870,18888,18904,18921,18937,18954,18970,18987,19004,19021,19038,19054,19071,19087,19104,19120,19137,19154,19171,19187,19204,19220,19238,19254,19271,19287,19304,19321,19337,19354,19371,19387,19404,19420,19438,19454,19471,19487,19504,19521,19537,19554,19571,19587,19604,19621,19637,19654,19671,19687,19704,19720,19737,19754,19770,19787,19804,19820,19837,19854,19871,19887,19904,19920,19937,19955,19970,19987,20004,20021,20037,20054,20071,20087,20104,20120,20137,20154,20171,20187,20204,20221,20237,20254,20271,20287,20304,20321,20337,20354,20372,20393,20405,20421,20437,20454,20471,20487,20504,20520,20537,20554,20570,20588,20604,20620,20637,20654,20670,20687,20704,20721,20738,20754,20771,20788,20804,20821,20837,20854,20870,20887,20904,20920,20937,20954,20971,20988,21004,21021,21038,21054,21071,21087,21104,21121,21137,21154,21170,21187,21204,21221,21238,21254,21270,21288,21304,21320,21337,21354,21371,21387,21404,21420,21437,21454,21470,21487,21504,21520,21537,21554,21571,21588,21604,21621,21637,21654,21671,21687,21704,21721,21738,21755,21775,21788,21804,21821,21837,21855,21871,21887,21904,21921,21938,21954,21971,21987,22004,22021,22037,22054,22071,22087,22104,22121,22137,22154,22171,22188,22204,22221,22238,22254,22271,22287,22304,22321,22337,22354,22371,22387,22405,22421,22437,22454,22471,22487,22504,22521,22537,22554,22571,22587,22604,22621,22637,22654,22671,22687,22704,22721,22738,22754,22771,22788,22804,22821,22837,22854,22870,22887,22904,22921,22937,22955,22971,22987,23004,23021,23038,23055,23071,23088,23104,23121,23138,23154,23171,23188,23204,23221,23237,23254,23271,23288,23305,23321,23337,23354,23371,23387,23404,23421,23438,23454,23471,23487,23504,23521,23537,23554,23571,23587,23604,23621,23637,23654,23672,23687,23705,23721,23738,23755,23771,23788,23804,23821,23838,23854,23871,23887,23904,23921,23937,23954,23971,23987,24004,24021,24038,24054,24071,24088,24104,24121,24137,24154,24171,24187,24204,24221,24238,24254,24271,24287,24304,24321,24337,24354,24371,24388,24404,24421,24438,24455,24472,24487,24504,24521,24538,24554,24571,24588,24604,24621,24638,24654,24671,24688,24704,24721,24738,24754,24771,24788,24804,24821,24838,24854,24871,24888,24904,24921,24938,24954,24971,24987,25004,25021,25037,25055,25071,25088,25104,25121,25138,25154,25171,25188,25204,25221,25237,25254,25271,25287,25304,25321,25337,25354,25371,25387,25404,25421,25437,25454,25472,25487,25504,25521,25537,25554,25571,25588,25604,25621,25638,25654,25671,25688,25704,25721,25738,25755,25772,25788,25804,25821,25837,25854,25871,25887,25905,25921,25938,25954,25971,25988,26004,26021,26037,26054,26071,26088,26105,26121,26137,26154,26171,26187,26204,26221,26238,26254,26271,26287,26304,26321,26338,26354,26371,26387,26404,26421,26438,26454,26471,26487,26504,26521,26538,26554,26571,26588,26605,26621,26638,26655,26671,26688,26704,26721,26738,26755,26771,26788,26804,26821,26838,26855,26871,26888,26905,26921,26938,26955,26971,26988,27004,27021,27038,27055,27074,27087,27104,27121,27137,27154,27171,27187,27204,27224,27238,27255,27271,27288,27304,27321,27337,27354,27371,27387,27404,27421,27437,27454,27471,27488,27504,27521,27537,27554,27571,27588,27604,27621,27638,27655,27671,27688,27704,27721,27738,27755,27771,27788,27804,27821,27838,27854,27871,27888,27905,27921,27938,27954,27971,27987,28005,28021,28037,28054,28071,28088,28104,28121,28138,28154,28171,28188,28204,28221,28238,28254,28271,28287,28305,28321,28339,28355,28371,28388,28404,28421,28438,28455,28471,28488,28505,28521,28538,28555,28571,28588,28605,28621,28638,28655,28671,28687,28704,28721,28738,28755,28771,28788,28805,28821,28838,28855,28871,28887,28904,28921,28938,28954,28971,28988,29004,29021,29038,29055,29071,29088,29105,29121,29138,29154,29171,29188,29204,29222],"hit":[null],"x":[-2.693877551020408,-2.693877551020408,0.02040816326530612,0.017006802721088437,0.017006802721088437,0.017006802721088437,0.017006802721088437,0.017006802721088437,0.017006802721088437,0.017006802721088437,0.017006802721088437,0.017006802721088437,0.017006802721088437,0.017006802721088437,0.017006802721088437,0.017006802721088437,0.017006802721088437,0.017006802721088437,0.017006802721088437,0.017006802721088437,0.017006802721088437,0.017006802721088437,0.017006802721088437,0.017006802721088437,0.017006802721088437,0.017006802721088437,0.03741496598639456,0.08503401360544217,0.13945578231292516,0.19727891156462585,0.23809523809523808,0.2687074829931973,0.30952380952380953,0.3469387755102041,0.3673469387755102,0.37755102040816324,0.3843537414965986,0.391156462585034,0.391156462585034,0.3945578231292517,0.3945578231292517,0.3945578231292517,0.3945578231292517,0.3945578231292517,0.3945578231292517,0.3945578231292517,0.3945578231292517,0.3945578231292517,0.3945578231292517,0.391156462585034,0.3877551020408163,0.3843537414965986,0.38095238095238093,0.38095238095238093,0.38095238095238093,0.38095238095238093,0.38095238095238093,0.38095238095238093,0.38095238095238093,0.38095238095238093,0.38095238095238093,0.38095238095238093,0.38095238095238093,0.38095238095238093,0.38095238095238093,0.38095238095238093,0.38095238095238093,0.38095238095238093,0.391156462585034,0.3979591836734694,0.3979591836734694,0.3979591836734694,0.3979591836734694,0.3979591836734694,0.3979591836734694,0.3979591836734694,0.3979591836734694,0.3979591836734694,0.3979591836734694,0.3979591836734694,0.3979591836734694,0.3979591836734694,0.3979591836734694,0.3979591836734694,0.3979591836734694,0.3979591836734694,0.3979591836734694,0.3979591836734694,0.3979591836734694,0.3979591836734694,0.4013605442176871,0.41156462585034015,0.41836734693877553,0.4217687074829932,0.4217687074829932,0.42517006802721086,0.42517006802721086,0.42517006802721086,0.42517006802721086,0.4217687074829932,0.41836734693877553,0.41836734693877553,0.41836734693877553,0.4217687074829932,0.4217687074829932,0.4217687074829932,0.4217687074829932,0.4217687074829932,0.4217687074829932,0.42857142857142855,0.46258503401360546,0.5034013605442177,0.5340136054421769,0.5544217687074829,0.564625850340136,0.564625850340136,0.564625850340136,0.564625850340136,0.5544217687074829,0.5340136054421769,0.5170068027210885,0.5034013605442177,0.4931972789115646,0.48299319727891155,0.47619047619047616,0.46258503401360546,0.4421768707482993,0.4217687074829932,0.41496598639455784,0.41156462585034015,0.40816326530612246,0.40476190476190477,0.40476190476190477,0.4013605442176871,0.4013605442176871,0.3979591836734694,0.38095238095238093,0.3673469387755102,0.36394557823129253,0.36394557823129253,0.36394557823129253,0.36394557823129253,0.36394557823129253,0.36394557823129253,0.36394557823129253,0.36394557823129253,0.36394557823129253,0.36394557823129253,0.36394557823129253,0.36394557823129253,0.36394557823129253,0.36394557823129253,0.36394557823129253,0.36394557823129253,0.36394557823129253,0.36394557823129253,0.36394557823129253,0.36394557823129253,0.36394557823129253,0.36394557823129253,0.36394557823129253,0.36394557823129253,0.36394557823129253,0.36394557823129253,0.36394557823129253,0.36394557823129253,0.36394557823129253,0.36394557823129253,0.36394557823129253,0.36394557823129253,0.36394557823129253,0.36394557823129253,0.36394557823129253,0.36394557823129253,0.36394557823129253,0.36394557823129253,0.36394557823129253,0.36394557823129253,0.36394557823129253,0.3707482993197279,0.38095238095238093,0.391156462585034,0.40476190476190477,0.4217687074829932,0.43537414965986393,0.4421768707482993,0.4421768707482993,0.445578231292517,0.4557823129251701,0.4557823129251701,0.4557823129251701,0.4557823129251701,0.4557823129251701,0.45918367346938777,0.45918367346938777,0.46258503401360546,0.46938775510204084,0.47619047619047616,0.48639455782312924,0.4897959183673469,0.4931972789115646,0.4931972789115646,0.4965986394557823,0.5,0.5034013605442177,0.5,0.48639455782312924,0.47959183673469385,0.47959183673469385,0.47959183673469385,0.47959183673469385,0.47959183673469385,0.47959183673469385,0.47959183673469385,0.47959183673469385,0.47959183673469385,0.47959183673469385,0.47959183673469385,0.47959183673469385,0.47959183673469385,0.47959183673469385,0.47959183673469385,0.47959183673469385,0.47959183673469385,0.47959183673469385,0.47959183673469385,0.47959183673469385,0.47959183673469385,0.47619047619047616,0.47278911564625853,0.47278911564625853,0.47278911564625853,0.47278911564625853,0.47278911564625853,0.47278911564625853,0.47278911564625853,0.47278911564625853,0.47278911564625853,0.47278911564625853,0.47278911564625853,0.47278911564625853,0.47278911564625853,0.47278911564625853,0.47278911564625853,0.47278911564625853,0.47278911564625853,0.47278911564625853,0.47278911564625853,0.47278911564625853,0.47278911564625853,0.47278911564625853,0.47278911564625853,0.47278911564625853,0.47278911564625853,0.47278911564625853,0.47278911564625853,0.47278911564625853,0.47278911564625853,0.47278911564625853,0.47278911564625853,0.47278911564625853,0.47278911564625853,0.47278911564625853,0.47278911564625853,0.47278911564625853,0.47959183673469385,0.4965986394557823,0.5102040816326531,0.5272108843537415,0.5374149659863946,0.54421768707483,0.5578231292517006,0.5714285714285714,0.5918367346938775,0.608843537414966,0.6292517006802721,0.6530612244897959,0.6802721088435374,0.7108843537414966,0.7346938775510204,0.7619047619047619,0.7925170068027211,0.826530612244898,0.8605442176870748,0.8775510204081632,0.891156462585034,0.9047619047619048,0.9183673469387755,0.9251700680272109,0.935374149659864,0.9455782312925171,0.9591836734693877,0.9693877551020408,0.9795918367346939,0.9863945578231292,0.9897959183673469,0.9965986394557823,0.9965986394557823,1,1,1,1,0.9931972789115646,0.9795918367346939,0.9659863945578231,0.95578231292517,0.9489795918367347,0.9387755102040817,0.935374149659864,0.9285714285714286,0.9217687074829932,0.9149659863945578,0.9115646258503401,0.9115646258503401,0.9081632653061225,0.9081632653061225,0.9047619047619048,0.9047619047619048,0.9047619047619048,0.9047619047619048,0.9047619047619048,0.9047619047619048,0.9047619047619048,0.9047619047619048,0.9047619047619048,0.9047619047619048,0.9047619047619048,0.9047619047619048,0.9047619047619048,0.9047619047619048,0.9047619047619048,0.9047619047619048,0.9047619047619048,0.9047619047619048,0.9047619047619048,0.9047619047619048,0.9047619047619048,0.9047619047619048,0.9047619047619048,0.9047619047619048,0.9047619047619048,0.9047619047619048,0.9047619047619048,0.9047619047619048,0.8979591836734694,0.8775510204081632,0.8503401360544217,0.8231292517006803,0.8027210884353742,0.782312925170068,0.7687074829931972,0.7517006802721088,0.7244897959183674,0.6904761904761905,0.6496598639455783,0.6054421768707483,0.5612244897959183,0.5204081632653061,0.46258503401360546,0.3877551020408163,0.3231292517006803,0.2687074829931973,0.22448979591836735,0.1836734693877551,0.15306122448979592,0.1326530612244898,0.12244897959183673,0.11904761904761904,0.11904761904761904,0.11564625850340136,0.1054421768707483,0.09863945578231292,0.09183673469387756,0.08843537414965986,0.08843537414965986,0.08843537414965986,0.08843537414965986,0.08843537414965986,0.08843537414965986,0.08843537414965986,0.08163265306122448,0.07482993197278912,0.06802721088435375,0.061224489795918366,0.05102040816326531,0.04081632653061224,0.03741496598639456,0.030612244897959183,0.027210884353741496,0.027210884353741496,0.027210884353741496,0.027210884353741496,0.027210884353741496,0.027210884353741496,0.027210884353741496,0.027210884353741496,0.027210884353741496,0.027210884353741496,0.027210884353741496,0.027210884353741496,0.034013605442176874,0.05442176870748299,0.0782312925170068,0.1054421768707483,0.13945578231292516,0.17006802721088435,0.20408163265306123,0.24489795918367346,0.29591836734693877,0.3469387755102041,0.3843537414965986,0.41836734693877553,0.43537414965986393,0.4489795918367347,0.4489795918367347,0.4489795918367347,0.4523809523809524,0.4523809523809524,0.4523809523809524,0.4523809523809524,0.4523809523809524,0.4523809523809524,0.4523809523809524,0.4523809523809524,0.4523809523809524,0.4523809523809524,0.4523809523809524,0.4523809523809524,0.45918367346938777,0.46598639455782315,0.47619047619047616,0.48639455782312924,0.4931972789115646,0.5,0.5034013605442177,0.5068027210884354,0.5136054421768708,0.5170068027210885,0.5170068027210885,0.5170068027210885,0.5204081632653061,0.5204081632653061,0.5204081632653061,0.5204081632653061,0.5204081632653061,0.5238095238095238,0.5238095238095238,0.5238095238095238,0.5238095238095238,0.5238095238095238,0.5238095238095238,0.5238095238095238,0.5238095238095238,0.5306122448979592,0.5374149659863946,0.5408163265306123,0.5510204081632653,0.5578231292517006,0.564625850340136,0.5680272108843537,0.5748299319727891,0.5816326530612245,0.5850340136054422,0.5884353741496599,0.5918367346938775,0.5918367346938775,0.5918367346938775,0.5918367346938775,0.5918367346938775,0.5918367346938775,0.5918367346938775,0.5918367346938775,0.5918367346938775,0.5918367346938775,0.5918367346938775,0.5918367346938775,0.5918367346938775,0.5918367346938775,0.5918367346938775,0.6020408163265306,0.6190476190476191,0.6496598639455783,0.6938775510204082,0.7517006802721088,0.8061224489795918,0.8809523809523809,0.9659863945578231,1.034013605442177,1.0816326530612246,1.1122448979591837,1.129251700680272,1.1360544217687074,1.1394557823129252,1.1394557823129252,1.1428571428571428,1.1428571428571428,1.1428571428571428,1.1462585034013606,1.1496598639455782,1.153061224489796,1.153061224489796,1.153061224489796,1.1564625850340136,1.1564625850340136,1.1564625850340136,1.1598639455782314,1.1598639455782314,1.1598639455782314,1.163265306122449,1.1666666666666667,1.1666666666666667,1.1666666666666667,1.1666666666666667,1.1666666666666667,1.1666666666666667,1.1666666666666667,1.1666666666666667,1.1666666666666667,1.1666666666666667,1.163265306122449,1.1598639455782314,1.153061224489796,1.1496598639455782,1.1462585034013606,1.1394557823129252,1.1360544217687074,1.1326530612244898,1.1326530612244898,1.1258503401360545,1.119047619047619,1.1156462585034013,1.1088435374149659,1.1020408163265305,1.0952380952380953,1.0918367346938775,1.0850340136054422,1.0816326530612246,1.0714285714285714,1.0612244897959184,1.0476190476190477,1.034013605442177,1.0238095238095237,1.0068027210884354,0.9829931972789115,0.95578231292517,0.9251700680272109,0.8945578231292517,0.8503401360544217,0.7891156462585034,0.7380952380952381,0.6904761904761905,0.6632653061224489,0.6496598639455783,0.6428571428571429,0.6428571428571429,0.6394557823129252,0.6394557823129252,0.6394557823129252,0.6394557823129252,0.6394557823129252,0.6394557823129252,0.6394557823129252,0.6394557823129252,0.6428571428571429,0.6496598639455783,0.6632653061224489,0.6768707482993197,0.6938775510204082,0.7040816326530612,0.7040816326530612,0.7074829931972789,0.7074829931972789,0.7074829931972789,0.7074829931972789,0.7074829931972789,0.7074829931972789,0.7074829931972789,0.7074829931972789,0.7074829931972789,0.7074829931972789,0.7074829931972789,0.7074829931972789,0.7074829931972789,0.7074829931972789,0.7074829931972789,0.7074829931972789,0.7074829931972789,0.7074829931972789,0.7074829931972789,0.7074829931972789,0.7074829931972789,0.7074829931972789,0.7074829931972789,0.7074829931972789,0.7074829931972789,0.7074829931972789,0.7074829931972789,0.7074829931972789,0.7074829931972789,0.7074829931972789,0.7074829931972789,0.7074829931972789,0.7074829931972789,0.7040816326530612,0.7006802721088435,0.6904761904761905,0.6802721088435374,0.6666666666666666,0.6428571428571429,0.6190476190476191,0.5952380952380952,0.5612244897959183,0.5272108843537415,0.5034013605442177,0.47278911564625853,0.42857142857142855,0.391156462585034,0.36394557823129253,0.3469387755102041,0.32653061224489793,0.3163265306122449,0.30612244897959184,0.29591836734693877,0.2755102040816326,0.24489795918367346,0.22448979591836735,0.20748299319727892,0.1870748299319728,0.16326530612244897,0.12585034013605442,0.08503401360544217,0.05442176870748299,0.04081632653061224,0.034013605442176874,0.030612244897959183,0.02040816326530612,0.017006802721088437,0.017006802721088437,0.017006802721088437,0.017006802721088437,0.017006802721088437,0.017006802721088437,0.017006802721088437,0.017006802721088437,0.017006802721088437,0.017006802721088437,0.017006802721088437,0.017006802721088437,0.017006802721088437,0.017006802721088437,0.017006802721088437,0.017006802721088437,0.017006802721088437,0.017006802721088437,0.017006802721088437,0.017006802721088437,0.017006802721088437,0.017006802721088437,0.04421768707482993,0.07142857142857142,0.07142857142857142,0.07142857142857142,0.07142857142857142,0.07142857142857142,0.07142857142857142,0.07142857142857142,0.07142857142857142,0.07142857142857142,0.07142857142857142,0.07142857142857142,0.07142857142857142,0.07142857142857142,0.07142857142857142,0.07142857142857142,0.07142857142857142,0.07142857142857142,0.07142857142857142,0.07142857142857142,0.07482993197278912,0.08503401360544217,0.08503401360544217,0.08503401360544217,0.08843537414965986,0.08843537414965986,0.09183673469387756,0.09183673469387756,0.09523809523809523,0.09523809523809523,0.09523809523809523,0.09523809523809523,0.09523809523809523,0.09523809523809523,0.09523809523809523,0.09523809523809523,0.09863945578231292,0.09863945578231292,0.10204081632653061,0.1054421768707483,0.11224489795918367,0.11904761904761904,0.12585034013605442,0.1292517006802721,0.1360544217687075,0.14965986394557823,0.16326530612244897,0.17346938775510204,0.17687074829931973,0.1836734693877551,0.19047619047619047,0.19727891156462585,0.2108843537414966,0.22448979591836735,0.23469387755102042,0.23809523809523808,0.24829931972789115,0.25170068027210885,0.2619047619047619,0.2687074829931973,0.2755102040816326,0.2755102040816326,0.2755102040816326,0.2789115646258503,0.2789115646258503,0.2789115646258503,0.2789115646258503,0.2789115646258503,0.2789115646258503,0.2789115646258503,0.2789115646258503,0.2789115646258503,0.2789115646258503,0.2789115646258503,0.2789115646258503,0.2789115646258503,0.2789115646258503,0.2789115646258503,0.2789115646258503,0.2789115646258503,0.2789115646258503,0.2789115646258503,0.282312925170068,0.2857142857142857,0.29591836734693877,0.30272108843537415,0.3129251700680272,0.32653061224489793,0.3435374149659864,0.36054421768707484,0.3877551020408163,0.41156462585034015,0.46258503401360546,0.5170068027210885,0.5918367346938775,0.6496598639455783,0.6972789115646258,0.7380952380952381,0.7687074829931972,0.7959183673469388,0.8231292517006803,0.8401360544217688,0.8571428571428571,0.8605442176870748,0.8639455782312925,0.8639455782312925,0.8605442176870748,0.8605442176870748,0.8605442176870748,0.8605442176870748,0.8605442176870748,0.8605442176870748,0.8605442176870748,0.8605442176870748,0.8605442176870748,0.8571428571428571,0.8571428571428571,0.8571428571428571,0.8571428571428571,0.8571428571428571,0.8537414965986394,0.8537414965986394,0.8537414965986394,0.8537414965986394,0.8571428571428571,0.8537414965986394,0.8537414965986394,0.8537414965986394,0.8537414965986394,0.8537414965986394,0.8537414965986394,0.8503401360544217,0.8469387755102041,0.8401360544217688,0.8333333333333334,0.8231292517006803,0.8163265306122449,0.8095238095238095,0.8061224489795918,0.8061224489795918,0.8027210884353742,0.7993197278911565,0.7925170068027211,0.7891156462585034,0.7891156462585034,0.7891156462585034,0.7891156462585034,0.7891156462585034,0.7857142857142857,0.7857142857142857,0.7857142857142857,0.7755102040816326,0.7721088435374149,0.7653061224489796,0.7585034013605442,0.7482993197278912,0.7482993197278912,0.7448979591836735,0.7448979591836735,0.7414965986394558,0.7380952380952381,0.7380952380952381,0.7380952380952381,0.7380952380952381,0.7380952380952381,0.7380952380952381,0.7380952380952381,0.7380952380952381,0.7380952380952381,0.7380952380952381,0.7380952380952381,0.7380952380952381,0.7380952380952381,0.7346938775510204,0.7312925170068028,0.7312925170068028,0.7312925170068028,0.7346938775510204,0.7414965986394558,0.7414965986394558,0.7482993197278912,0.7551020408163265,0.7687074829931972,0.7755102040816326,0.7891156462585034,0.8061224489795918,0.8231292517006803,0.8401360544217688,0.8469387755102041,0.8537414965986394,0.8639455782312925,0.8741496598639455,0.8945578231292517,0.9319727891156463,0.9727891156462585,1.0068027210884354,1.030612244897959,1.0476190476190477,1.0578231292517006,1.0612244897959184,1.064625850340136,1.064625850340136,1.0714285714285714,1.0748299319727892,1.0748299319727892,1.0748299319727892,1.0748299319727892,1.0748299319727892,1.0748299319727892,1.0748299319727892,1.0748299319727892,1.0748299319727892,1.0748299319727892,1.0748299319727892,1.0748299319727892,1.0748299319727892,1.0748299319727892,1.0816326530612246,1.0918367346938775,1.098639455782313,1.1088435374149659,1.1156462585034013,1.119047619047619,1.1224489795918366,1.1224489795918366,1.1258503401360545,1.1258503401360545,1.1258503401360545,1.1258503401360545,1.1258503401360545,1.1258503401360545,1.1258503401360545,1.1258503401360545,1.1258503401360545,1.1258503401360545,1.1224489795918366,1.1224489795918366,1.1122448979591837,1.1020408163265305,1.0918367346938775,1.08843537414966,1.0816326530612246,1.0748299319727892,1.064625850340136,1.054421768707483,1.0442176870748299,1.034013605442177,1.0238095238095237,1.010204081632653,0.9931972789115646,0.9727891156462585,0.9489795918367347,0.9251700680272109,0.891156462585034,0.8435374149659864,0.7925170068027211,0.7517006802721088,0.7074829931972789,0.6666666666666666,0.6292517006802721,0.6020408163265306,0.5782312925170068,0.5680272108843537,0.5578231292517006,0.54421768707483,0.5272108843537415,0.5034013605442177,0.47278911564625853,0.42857142857142855,0.3979591836734694,0.38095238095238093,0.3673469387755102,0.3673469387755102,0.36394557823129253,0.36394557823129253,0.36394557823129253,0.36054421768707484,0.36054421768707484,0.35714285714285715,0.3469387755102041,0.336734693877551,0.3299319727891156,0.32653061224489793,0.32653061224489793,0.32653061224489793,0.3231292517006803,0.3231292517006803,0.3231292517006803,0.3197278911564626,0.3197278911564626,0.3163265306122449,0.3129251700680272,0.3129251700680272,0.3129251700680272,0.3129251700680272,0.3129251700680272,0.3129251700680272,0.3129251700680272,0.3129251700680272,0.3129251700680272,0.3129251700680272,0.3129251700680272,0.3129251700680272,0.3129251700680272,0.3129251700680272,0.3129251700680272,0.3129251700680272,0.3129251700680272,0.3129251700680272,0.3129251700680272,0.3129251700680272,0.3129251700680272,0.3129251700680272,0.3129251700680272,0.30952380952380953,0.30952380952380953,0.30952380952380953,0.30612244897959184,0.30612244897959184,0.30612244897959184,0.30612244897959184,0.30612244897959184,0.30612244897959184,0.30612244897959184,0.30612244897959184,0.30612244897959184,0.30612244897959184,0.30612244897959184,0.30612244897959184,0.30612244897959184,0.30612244897959184,0.30612244897959184,0.30612244897959184,0.30612244897959184,0.30612244897959184,0.30612244897959184,0.30612244897959184,0.30612244897959184,0.30612244897959184,0.30612244897959184,0.30612244897959184,0.30612244897959184,0.30612244897959184,0.30612244897959184,0.30272108843537415,0.30272108843537415,0.30272108843537415,0.30272108843537415,0.30272108843537415,0.30272108843537415,0.30272108843537415,0.30952380952380953,0.3197278911564626,0.3333333333333333,0.36394557823129253,0.4217687074829932,0.4897959183673469,0.5476190476190477,0.5986394557823129,0.6258503401360545,0.6394557823129252,0.6428571428571429,0.6496598639455783,0.6530612244897959,0.6598639455782312,0.6700680272108843,0.673469387755102,0.6836734693877551,0.6836734693877551,0.6870748299319728,0.6870748299319728,0.6870748299319728,0.6870748299319728,0.6870748299319728,0.6870748299319728,0.6870748299319728,0.6870748299319728,0.6870748299319728,0.6870748299319728,0.6836734693877551,0.6768707482993197,0.673469387755102,0.6666666666666666,0.6598639455782312,0.6496598639455783,0.6428571428571429,0.6292517006802721,0.6156462585034014,0.5986394557823129,0.5782312925170068,0.5578231292517006,0.5272108843537415,0.5068027210884354,0.4931972789115646,0.47959183673469385,0.46598639455782315,0.4557823129251701,0.4489795918367347,0.4421768707482993,0.43537414965986393,0.42517006802721086,0.41836734693877553,0.41156462585034015,0.40476190476190477,0.3979591836734694,0.391156462585034,0.3877551020408163,0.3843537414965986,0.38095238095238093,0.37755102040816324,0.3673469387755102,0.35374149659863946,0.3299319727891156,0.30612244897959184,0.2891156462585034,0.272108843537415,0.24829931972789115,0.22448979591836735,0.19727891156462585,0.17346938775510204,0.1598639455782313,0.15306122448979592,0.14965986394557823,0.14625850340136054,0.13945578231292516,0.1292517006802721,0.12244897959183673,0.11224489795918367,0.1054421768707483,0.09863945578231292,0.09523809523809523,0.09183673469387756,0.09183673469387756,0.09183673469387756,0.09183673469387756,0.09183673469387756,0.09183673469387756,0.09183673469387756,0.09183673469387756,0.09183673469387756,0.09183673469387756,0.09183673469387756,0.09183673469387756,0.09523809523809523,0.09523809523809523,0.09523809523809523,0.09863945578231292,0.09863945578231292,0.10204081632653061,0.1054421768707483,0.10884353741496598,0.11224489795918367,0.11224489795918367,0.11224489795918367,0.11224489795918367,0.11224489795918367,0.11224489795918367,0.11224489795918367,0.11224489795918367,0.11224489795918367,0.11224489795918367,0.11224489795918367,0.10884353741496598,0.09863945578231292,0.09183673469387756,0.08503401360544217,0.0782312925170068,0.07142857142857142,0.06802721088435375,0.06462585034013606,0.06462585034013606,0.061224489795918366,0.061224489795918366,0.061224489795918366,0.05442176870748299,0.05102040816326531,0.047619047619047616,0.047619047619047616,0.047619047619047616,0.047619047619047616,0.047619047619047616,0.047619047619047616,0.047619047619047616,0.047619047619047616,0.047619047619047616,0.04421768707482993,0.04421768707482993,0.04421768707482993,0.04421768707482993,0.04421768707482993,0.04081632653061224,0.04081632653061224,0.04081632653061224,0.03741496598639456,0.03741496598639456,0.03741496598639456,0.03741496598639456,0.03741496598639456,0.034013605442176874,0.034013605442176874,0.034013605442176874,0.030612244897959183,0.030612244897959183,0.030612244897959183,0.030612244897959183,0.030612244897959183,0.030612244897959183,0.030612244897959183,0.030612244897959183,0.027210884353741496,0.027210884353741496,0.027210884353741496,0.023809523809523808,0.02040816326530612,0.01020408163265306,0.003401360544217687,0,-0.003401360544217687,-0.006802721088435374,-0.01020408163265306,-0.017006802721088437,-0.017006802721088437,-0.017006802721088437,-0.017006802721088437,-0.017006802721088437,-0.017006802721088437,-0.017006802721088437,-0.017006802721088437,-0.017006802721088437,-0.017006802721088437,-0.017006802721088437,-0.017006802721088437,-0.017006802721088437,-0.017006802721088437,-0.017006802721088437,-0.017006802721088437,-0.017006802721088437,-0.017006802721088437,-0.017006802721088437,-0.017006802721088437,-0.017006802721088437,-0.017006802721088437,-0.017006802721088437,-0.017006802721088437,-0.017006802721088437,-0.017006802721088437,-0.017006802721088437,-0.017006802721088437,-0.017006802721088437,-0.017006802721088437,-0.013605442176870748,-0.01020408163265306,-0.006802721088435374,-0.003401360544217687,-0.003401360544217687,0.003401360544217687,0.006802721088435374,0.01020408163265306,0.02040816326530612,0.030612244897959183,0.05782312925170068,0.09183673469387756,0.11904761904761904,0.14625850340136054,0.17006802721088435,0.17687074829931973,0.1836734693877551,0.19047619047619047,0.19047619047619047,0.19387755102040816,0.19387755102040816,0.19727891156462585,0.19727891156462585,0.20068027210884354,0.20748299319727892,0.20748299319727892,0.20748299319727892,0.20748299319727892,0.20748299319727892,0.20748299319727892,0.20748299319727892,0.20748299319727892,0.20748299319727892,0.20068027210884354,0.20068027210884354,0.19727891156462585,0.19047619047619047,0.1870748299319728,0.1836734693877551,0.17687074829931973,0.17006802721088435,0.16326530612244897,0.1598639455782313,0.1598639455782313,0.1598639455782313,0.1598639455782313,0.1598639455782313,0.1598639455782313,0.1598639455782313,0.1598639455782313,0.17006802721088435,0.1870748299319728,0.20408163265306123,0.21428571428571427,0.22448979591836735,0.23129251700680273,0.24149659863945577,0.24829931972789115,0.25170068027210885,0.25170068027210885,0.25170068027210885,0.25170068027210885,0.25170068027210885,0.25170068027210885,0.25170068027210885,0.25170068027210885,0.25170068027210885,0.25170068027210885,0.25170068027210885,0.25170068027210885,0.25170068027210885,0.25170068027210885,0.25170068027210885,0.25170068027210885,0.25170068027210885,0.25170068027210885,0.25170068027210885,0.25170068027210885,0.25170068027210885,0.25170068027210885,0.25170068027210885,0.25170068027210885,0.25170068027210885,0.25510204081632654,0.2653061224489796,0.2789115646258503,0.30272108843537415,0.3299319727891156,0.36054421768707484,0.38095238095238093,0.3979591836734694,0.41836734693877553,0.43197278911564624,0.4489795918367347,0.47619047619047616,0.5136054421768708,0.54421768707483,0.5782312925170068,0.5918367346938775,0.6054421768707483,0.6156462585034014,0.6292517006802721,0.6428571428571429,0.6700680272108843,0.6870748299319728,0.6938775510204082,0.6972789115646258,0.6972789115646258,0.6972789115646258,0.6972789115646258,0.6972789115646258,0.6972789115646258,0.6972789115646258,0.6972789115646258,0.6972789115646258,0.7040816326530612,0.7142857142857143,0.7210884353741497,0.7278911564625851,0.7312925170068028,0.7346938775510204,0.7414965986394558,0.7482993197278912,0.7517006802721088,0.7551020408163265,0.7619047619047619,0.7687074829931972,0.7755102040816326,0.7857142857142857,0.7925170068027211,0.7993197278911565,0.8027210884353742,0.8027210884353742,0.8061224489795918,0.8061224489795918,0.8129251700680272,0.8197278911564626,0.8197278911564626,0.8197278911564626,0.8197278911564626,0.8197278911564626,0.8231292517006803,0.8299319727891157,0.8333333333333334,0.8401360544217688,0.8469387755102041,0.8673469387755102,0.8877551020408163,0.9047619047619048,0.9285714285714286,0.9421768707482994,0.9523809523809523,0.95578231292517,0.9591836734693877,0.9591836734693877,0.9591836734693877,0.9591836734693877,0.9659863945578231,0.9727891156462585,0.9795918367346939,0.9829931972789115,0.9829931972789115,0.9829931972789115,0.9829931972789115,0.9829931972789115,0.9829931972789115,0.9829931972789115,0.9829931972789115,0.9795918367346939,0.9761904761904762,0.9761904761904762,0.9727891156462585,0.9727891156462585,0.9727891156462585,0.9727891156462585,0.9659863945578231,0.9625850340136054,0.9591836734693877,0.9591836734693877,0.95578231292517,0.9489795918367347,0.9421768707482994,0.935374149659864,0.9319727891156463,0.9251700680272109,0.9183673469387755,0.9149659863945578,0.9115646258503401,0.9081632653061225,0.9047619047619048,0.8979591836734694,0.8877551020408163,0.8843537414965986,0.8741496598639455,0.8707482993197279,0.8673469387755102,0.8673469387755102,0.8639455782312925,0.8605442176870748,0.8605442176870748,0.8605442176870748,0.8605442176870748,0.8605442176870748,0.8605442176870748,0.8605442176870748,0.8605442176870748,0.8605442176870748,0.8605442176870748,0.8605442176870748,0.8605442176870748,0.8605442176870748,0.8571428571428571,0.8571428571428571,0.8571428571428571,0.8469387755102041,0.8435374149659864,0.8367346938775511,0.8333333333333334,0.8231292517006803,0.8163265306122449,0.8129251700680272,0.8095238095238095,0.8095238095238095,0.8095238095238095,0.8095238095238095,0.8095238095238095,0.8095238095238095,0.8095238095238095,0.8095238095238095,0.8095238095238095,0.8095238095238095,0.8095238095238095,0.8095238095238095,0.8095238095238095,0.8095238095238095,0.8129251700680272,0.8197278911564626,0.8197278911564626,0.8231292517006803,0.8231292517006803,0.8231292517006803,0.8231292517006803,0.8231292517006803,0.8231292517006803,0.8231292517006803,0.8231292517006803,0.8231292517006803,0.8231292517006803,0.8231292517006803,0.8231292517006803,0.8231292517006803,0.8231292517006803,0.8231292517006803,0.8231292517006803,0.8231292517006803,0.8231292517006803,0.8231292517006803,0.8197278911564626,0.8129251700680272,0.8061224489795918,0.7993197278911565,0.7959183673469388,0.7857142857142857,0.782312925170068,0.7721088435374149,0.7687074829931972,0.7619047619047619,0.7517006802721088,0.7380952380952381,0.7278911564625851,0.7074829931972789,0.6870748299319728,0.6632653061224489,0.6292517006802721,0.5782312925170068,0.5306122448979592,0.47619047619047616,0.42517006802721086,0.391156462585034,0.3707482993197279,0.35374149659863946,0.3401360544217687,0.32653061224489793,0.3163265306122449,0.30952380952380953,0.30612244897959184,0.30272108843537415,0.29931972789115646,0.29931972789115646,0.29591836734693877,0.2891156462585034,0.2857142857142857,0.282312925170068,0.2755102040816326,0.2619047619047619,0.24489795918367346,0.22789115646258504,0.20068027210884354,0.17006802721088435,0.14285714285714285,0.12585034013605442,0.11564625850340136,0.11224489795918367,0.11224489795918367,0.11224489795918367,0.11224489795918367,0.11224489795918367,0.11224489795918367,0.11224489795918367,0.11224489795918367,0.11564625850340136,0.11904761904761904,0.12244897959183673,0.12244897959183673,0.12244897959183673,0.12244897959183673,0.12244897959183673,0.12244897959183673,0.12244897959183673,0.12244897959183673,0.12244897959183673,0.12244897959183673,0.12585034013605442,0.12585034013605442,0.12585034013605442,0.12585034013605442,0.12585034013605442,0.12585034013605442,0.12585034013605442,0.12585034013605442,0.12585034013605442,0.12585034013605442,0.12244897959183673,0.12244897959183673,0.12244897959183673,0.12244897959183673,0.12244897959183673,0.12244897959183673,0.12244897959183673,0.11904761904761904,0.11904761904761904,0.11904761904761904,0.11564625850340136,0.11224489795918367,0.10884353741496598,0.10884353741496598,0.10204081632653061,0.09183673469387756,0.08503401360544217,0.0782312925170068,0.07142857142857142,0.06802721088435375,0.061224489795918366,0.05782312925170068,0.05442176870748299,0.05102040816326531,0.047619047619047616,0.04421768707482993,0.04081632653061224,0.04081632653061224,0.04081632653061224,0.04081632653061224,0.04081632653061224,0.04081632653061224,0.04081632653061224,0.04081632653061224,0.04081632653061224,0.03741496598639456,0.03741496598639456,0.03741496598639456,0.03741496598639456,0.03741496598639456,0.03741496598639456,0.03741496598639456,0.03741496598639456,0.03741496598639456,0.03741496598639456,0.03741496598639456,0.03741496598639456,0.03741496598639456,0.03741496598639456,0.03741496598639456,0.04081632653061224,0.04081632653061224,0.05442176870748299,0.07482993197278912,0.09863945578231292,0.1360544217687075,0.1836734693877551,0.22448979591836735,0.25170068027210885,0.272108843537415,0.282312925170068,0.2891156462585034,0.30612244897959184,0.3469387755102041,0.3945578231292517,0.4489795918367347,0.5170068027210885,0.5748299319727891,0.6496598639455783,0.7346938775510204,0.826530612244898,0.9115646258503401,0.9727891156462585,1.010204081632653,1.0238095238095237,1.0272108843537415,1.0272108843537415,1.0272108843537415,1.0272108843537415,1.0272108843537415,1.0272108843537415,1.0272108843537415,1.0272108843537415,1.0272108843537415,1.0272108843537415,1.0272108843537415,1.0272108843537415,1.0272108843537415,1.0272108843537415,1.0272108843537415,1.0272108843537415,1.0272108843537415,1.0238095238095237,1.0204081632653061,1.0204081632653061,1.0170068027210883,1.0170068027210883,1.0136054421768708,1.0170068027210883,1.0170068027210883,1.0170068027210883,1.0170068027210883,1.0170068027210883,1.0170068027210883,1.0136054421768708,1.0136054421768708,1.0136054421768708,1.0136054421768708,1.0136054421768708,1.0136054421768708,1.0136054421768708,1.0136054421768708,1.010204081632653,1.010204081632653,1.010204081632653,1.0068027210884354,1,0.9625850340136054,0.8843537414965986,0.7857142857142857,0.6598639455782312,0.5408163265306123,0.445578231292517,0.3877551020408163,0.3469387755102041,0.30612244897959184,0.2789115646258503,0.2585034013605442,0.23809523809523808,0.2108843537414966,0.19387755102040816,0.18027210884353742,0.17346938775510204,0.17006802721088435,0.16666666666666666,0.16326530612244897,0.16326530612244897,0.16326530612244897,0.16326530612244897,0.16326530612244897,0.16326530612244897,0.16326530612244897,0.16326530612244897,0.16326530612244897,0.16326530612244897,0.16326530612244897,0.16326530612244897,0.16326530612244897,0.16326530612244897,0.16326530612244897,0.1598639455782313,0.14965986394557823,0.14625850340136054,0.13945578231292516,0.1360544217687075,0.1326530612244898,0.1326530612244898,0.1292517006802721,0.12244897959183673,0.11904761904761904,0.11224489795918367,0.1054421768707483,0.1054421768707483,0.10204081632653061,0.09863945578231292,0.09523809523809523,0.08843537414965986,0.08163265306122448,0.07482993197278912,0.06802721088435375,0.06462585034013606,0.05782312925170068,0.05782312925170068,0.05782312925170068,0.061224489795918366,0.06462585034013606,0.06462585034013606,0.06462585034013606,0.06462585034013606,0.06462585034013606,0.06462585034013606,0.06462585034013606,0.06462585034013606,0.06462585034013606,0.06462585034013606,0.06462585034013606,0.06462585034013606,0.06462585034013606,0.06462585034013606,0.06462585034013606,0.06462585034013606,0.06462585034013606,0.06462585034013606,0.06462585034013606,0.06462585034013606,0.06462585034013606,0.06462585034013606,0.06462585034013606,0.06462585034013606,0.06462585034013606,0.06462585034013606,0.06462585034013606,0.06462585034013606,0.06462585034013606,0.06462585034013606,0.06462585034013606,0.05782312925170068,0.05442176870748299,0.05442176870748299,0.05442176870748299,0.05442176870748299,0.05442176870748299,0.05442176870748299],"y":[-4.285714285714286,-4.285714285714286,0.9285714285714286,0.9095238095238095,0.8904761904761904,0.8809523809523809,0.8809523809523809,0.8809523809523809,0.8809523809523809,0.8809523809523809,0.8809523809523809,0.8809523809523809,0.8809523809523809,0.8809523809523809,0.8809523809523809,0.8809523809523809,0.8809523809523809,0.8809523809523809,0.8809523809523809,0.8809523809523809,0.8809523809523809,0.8809523809523809,0.8809523809523809,0.8809523809523809,0.8809523809523809,0.8809523809523809,0.8333333333333334,0.7571428571428571,0.680952380952381,0.5952380952380952,0.5571428571428572,0.5095238095238095,0.43333333333333335,0.35714285714285715,0.30952380952380953,0.3,0.28095238095238095,0.2714285714285714,0.2714285714285714,0.2714285714285714,0.2714285714285714,0.2714285714285714,0.2714285714285714,0.2714285714285714,0.2619047619047619,0.2523809523809524,0.20476190476190476,0.16666666666666666,0.10952380952380952,0.07142857142857142,0.04285714285714286,0.004761904761904762,-0.014285714285714285,-0.023809523809523808,-0.023809523809523808,-0.023809523809523808,-0.023809523809523808,-0.023809523809523808,-0.023809523809523808,-0.023809523809523808,-0.023809523809523808,-0.023809523809523808,-0.023809523809523808,-0.023809523809523808,-0.023809523809523808,-0.023809523809523808,-0.023809523809523808,-0.023809523809523808,-0.023809523809523808,-0.023809523809523808,-0.023809523809523808,-0.023809523809523808,-0.023809523809523808,-0.023809523809523808,-0.023809523809523808,-0.023809523809523808,-0.023809523809523808,-0.023809523809523808,-0.023809523809523808,-0.023809523809523808,-0.023809523809523808,-0.023809523809523808,-0.023809523809523808,-0.023809523809523808,-0.023809523809523808,-0.023809523809523808,-0.023809523809523808,-0.023809523809523808,-0.023809523809523808,-0.023809523809523808,-0.05238095238095238,-0.12857142857142856,-0.18571428571428572,-0.23333333333333334,-0.2904761904761905,-0.3476190476190476,-0.40476190476190477,-0.4523809523809524,-0.48095238095238096,-0.5190476190476191,-0.5476190476190477,-0.5666666666666667,-0.5857142857142857,-0.6333333333333333,-0.6619047619047619,-0.680952380952381,-0.6904761904761905,-0.6904761904761905,-0.6904761904761905,-0.6904761904761905,-0.6523809523809524,-0.5857142857142857,-0.5190476190476191,-0.4714285714285714,-0.4523809523809524,-0.44285714285714284,-0.43333333333333335,-0.4238095238095238,-0.4142857142857143,-0.38571428571428573,-0.3761904761904762,-0.36666666666666664,-0.35714285714285715,-0.3476190476190476,-0.3380952380952381,-0.30952380952380953,-0.2523809523809524,-0.20476190476190476,-0.1761904761904762,-0.15714285714285714,-0.1380952380952381,-0.11904761904761904,-0.1,-0.09047619047619047,-0.08095238095238096,-0.04285714285714286,0.004761904761904762,0.04285714285714286,0.05238095238095238,0.05238095238095238,0.05238095238095238,0.05238095238095238,0.05238095238095238,0.05238095238095238,0.05238095238095238,0.05238095238095238,0.05238095238095238,0.05238095238095238,0.05238095238095238,0.05238095238095238,0.05238095238095238,0.05238095238095238,0.05238095238095238,0.05238095238095238,0.05238095238095238,0.05238095238095238,0.05238095238095238,0.05238095238095238,0.05238095238095238,0.05238095238095238,0.05238095238095238,0.05238095238095238,0.05238095238095238,0.05238095238095238,0.05238095238095238,0.05238095238095238,0.05238095238095238,0.05238095238095238,0.05238095238095238,0.05238095238095238,0.05238095238095238,0.05238095238095238,0.05238095238095238,0.05238095238095238,0.05238095238095238,0.05238095238095238,0.05238095238095238,0.05238095238095238,0.05238095238095238,0.05238095238095238,0.05238095238095238,0.05238095238095238,0.05238095238095238,0.07142857142857142,0.09047619047619047,0.1,0.1,0.10952380952380952,0.1380952380952381,0.1380952380952381,0.1380952380952381,0.1380952380952381,0.1380952380952381,0.16666666666666666,0.18571428571428572,0.20476190476190476,0.23333333333333334,0.2714285714285714,0.3,0.319047619047619,0.3380952380952381,0.3476190476190476,0.36666666666666664,0.3952380952380952,0.44285714285714284,0.49047619047619045,0.5190476190476191,0.5285714285714286,0.5285714285714286,0.5285714285714286,0.5285714285714286,0.5285714285714286,0.5285714285714286,0.5285714285714286,0.5285714285714286,0.5285714285714286,0.5285714285714286,0.5285714285714286,0.5285714285714286,0.5285714285714286,0.5285714285714286,0.5285714285714286,0.5285714285714286,0.5285714285714286,0.5285714285714286,0.5285714285714286,0.5285714285714286,0.5285714285714286,0.5285714285714286,0.5380952380952381,0.5380952380952381,0.5380952380952381,0.5380952380952381,0.5380952380952381,0.5380952380952381,0.5380952380952381,0.5380952380952381,0.5380952380952381,0.5380952380952381,0.5380952380952381,0.5380952380952381,0.5380952380952381,0.5380952380952381,0.5380952380952381,0.5380952380952381,0.5380952380952381,0.5380952380952381,0.5380952380952381,0.5380952380952381,0.5380952380952381,0.5380952380952381,0.5380952380952381,0.5380952380952381,0.5380952380952381,0.5380952380952381,0.5380952380952381,0.5380952380952381,0.5380952380952381,0.5380952380952381,0.5380952380952381,0.5380952380952381,0.5380952380952381,0.5380952380952381,0.5380952380952381,0.5380952380952381,0.5761904761904761,0.6428571428571429,0.7095238095238096,0.7666666666666667,0.8333333333333334,0.8904761904761904,0.9857142857142858,1.0809523809523809,1.1857142857142857,1.2714285714285714,1.338095238095238,1.3857142857142857,1.4333333333333333,1.4619047619047618,1.4714285714285715,1.4714285714285715,1.4428571428571428,1.3952380952380952,1.3666666666666667,1.338095238095238,1.3095238095238095,1.2714285714285714,1.223809523809524,1.2047619047619047,1.1571428571428573,1.1,1.042857142857143,0.9571428571428572,0.8714285714285714,0.7666666666666667,0.680952380952381,0.6333333333333333,0.5952380952380952,0.5380952380952381,0.48095238095238096,0.43333333333333335,0.3952380952380952,0.3380952380952381,0.2714285714285714,0.21428571428571427,0.16666666666666666,0.1380952380952381,0.10952380952380952,0.08095238095238096,0.06190476190476191,0.04285714285714286,0.03333333333333333,0.023809523809523808,0.023809523809523808,0.023809523809523808,0.023809523809523808,0.023809523809523808,0.023809523809523808,0.023809523809523808,0.023809523809523808,0.023809523809523808,0.023809523809523808,0.023809523809523808,0.023809523809523808,0.023809523809523808,0.023809523809523808,0.023809523809523808,0.023809523809523808,0.023809523809523808,0.023809523809523808,0.023809523809523808,0.023809523809523808,0.023809523809523808,0.023809523809523808,0.023809523809523808,0.023809523809523808,0.023809523809523808,0.023809523809523808,0.023809523809523808,0.023809523809523808,0.023809523809523808,0.023809523809523808,0.023809523809523808,0.023809523809523808,0.023809523809523808,0.05238095238095238,0.08095238095238096,0.1,0.10952380952380952,0.11904761904761904,0.11904761904761904,0.12857142857142856,0.12857142857142856,0.12857142857142856,0.12857142857142856,0.11904761904761904,0.11904761904761904,0.11904761904761904,0.10952380952380952,0.1,0.1,0.09047619047619047,0.07142857142857142,0.05238095238095238,0.04285714285714286,0.03333333333333333,0.03333333333333333,0.023809523809523808,0.023809523809523808,0.014285714285714285,0.014285714285714285,0.004761904761904762,0.004761904761904762,0.004761904761904762,-0.004761904761904762,-0.004761904761904762,-0.004761904761904762,-0.004761904761904762,-0.004761904761904762,-0.004761904761904762,-0.004761904761904762,-0.004761904761904762,-0.014285714285714285,-0.014285714285714285,-0.014285714285714285,-0.014285714285714285,-0.014285714285714285,-0.023809523809523808,-0.023809523809523808,-0.023809523809523808,-0.023809523809523808,-0.023809523809523808,-0.023809523809523808,-0.023809523809523808,-0.023809523809523808,-0.023809523809523808,-0.023809523809523808,-0.023809523809523808,-0.023809523809523808,-0.023809523809523808,-0.023809523809523808,0.023809523809523808,0.07142857142857142,0.10952380952380952,0.15714285714285714,0.18571428571428572,0.21428571428571427,0.22380952380952382,0.22380952380952382,0.19523809523809524,0.16666666666666666,0.15714285714285714,0.1380952380952381,0.12857142857142856,0.12857142857142856,0.12857142857142856,0.12857142857142856,0.12857142857142856,0.12857142857142856,0.12857142857142856,0.12857142857142856,0.12857142857142856,0.12857142857142856,0.12857142857142856,0.12857142857142856,0.12857142857142856,0.12857142857142856,0.11904761904761904,0.11904761904761904,0.10952380952380952,0.10952380952380952,0.10952380952380952,0.11904761904761904,0.11904761904761904,0.11904761904761904,0.11904761904761904,0.11904761904761904,0.11904761904761904,0.11904761904761904,0.11904761904761904,0.11904761904761904,0.11904761904761904,0.10952380952380952,0.10952380952380952,0.10952380952380952,0.10952380952380952,0.10952380952380952,0.10952380952380952,0.10952380952380952,0.10952380952380952,0.10952380952380952,0.10952380952380952,0.10952380952380952,0.1,0.1,0.09047619047619047,0.08095238095238096,0.07142857142857142,0.06190476190476191,0.06190476190476191,0.06190476190476191,0.05238095238095238,0.04285714285714286,0.04285714285714286,0.03333333333333333,0.03333333333333333,0.03333333333333333,0.03333333333333333,0.03333333333333333,0.03333333333333333,0.03333333333333333,0.03333333333333333,0.03333333333333333,0.03333333333333333,0.03333333333333333,0.03333333333333333,0.03333333333333333,0.03333333333333333,0.04285714285714286,0.06190476190476191,0.09047619047619047,0.11904761904761904,0.15714285714285714,0.21428571428571427,0.2523809523809524,0.2714285714285714,0.2714285714285714,0.2714285714285714,0.2619047619047619,0.24285714285714285,0.23333333333333334,0.21428571428571427,0.19523809523809524,0.18571428571428572,0.18571428571428572,0.18571428571428572,0.1761904761904762,0.15714285714285714,0.12857142857142856,0.11904761904761904,0.10952380952380952,0.09047619047619047,0.08095238095238096,0.07142857142857142,0.05238095238095238,0.04285714285714286,0.03333333333333333,0.023809523809523808,0.004761904761904762,-0.014285714285714285,-0.023809523809523808,-0.03333333333333333,-0.03333333333333333,-0.03333333333333333,-0.03333333333333333,-0.03333333333333333,-0.03333333333333333,-0.03333333333333333,-0.023809523809523808,-0.004761904761904762,0.023809523809523808,0.04285714285714286,0.06190476190476191,0.08095238095238096,0.09047619047619047,0.10952380952380952,0.12857142857142856,0.14761904761904762,0.16666666666666666,0.18571428571428572,0.20476190476190476,0.22380952380952382,0.2523809523809524,0.2714285714285714,0.2904761904761905,0.3,0.319047619047619,0.32857142857142857,0.3476190476190476,0.3761904761904762,0.38571428571428573,0.40476190476190477,0.4238095238095238,0.44285714285714284,0.46190476190476193,0.48095238095238096,0.48095238095238096,0.49047619047619045,0.5,0.5,0.5,0.5,0.5,0.49047619047619045,0.49047619047619045,0.49047619047619045,0.49047619047619045,0.49047619047619045,0.49047619047619045,0.49047619047619045,0.49047619047619045,0.49047619047619045,0.49047619047619045,0.49047619047619045,0.49047619047619045,0.5,0.5095238095238095,0.5380952380952381,0.5380952380952381,0.5476190476190477,0.5476190476190477,0.5476190476190477,0.5476190476190477,0.5476190476190477,0.5476190476190477,0.5476190476190477,0.5476190476190477,0.5476190476190477,0.5476190476190477,0.5476190476190477,0.5476190476190477,0.5476190476190477,0.5476190476190477,0.5476190476190477,0.5476190476190477,0.5476190476190477,0.5476190476190477,0.5476190476190477,0.5476190476190477,0.5476190476190477,0.5476190476190477,0.5476190476190477,0.5476190476190477,0.5476190476190477,0.5476190476190477,0.5476190476190477,0.5476190476190477,0.5476190476190477,0.5476190476190477,0.5476190476190477,0.5476190476190477,0.5476190476190477,0.5476190476190477,0.5476190476190477,0.5666666666666667,0.5857142857142857,0.6238095238095238,0.6523809523809524,0.6904761904761905,0.7285714285714285,0.7666666666666667,0.8047619047619048,0.8428571428571429,0.8714285714285714,0.9095238095238095,0.9476190476190476,0.9666666666666667,0.9857142857142858,0.9952380952380953,0.9952380952380953,0.9952380952380953,0.9952380952380953,0.9952380952380953,0.9952380952380953,0.9666666666666667,0.9571428571428572,0.9380952380952381,0.9095238095238095,0.861904761904762,0.7857142857142857,0.7095238095238096,0.6619047619047619,0.6238095238095238,0.6047619047619047,0.5857142857142857,0.5571428571428572,0.5285714285714286,0.5190476190476191,0.5190476190476191,0.5190476190476191,0.5190476190476191,0.5190476190476191,0.5190476190476191,0.5190476190476191,0.5190476190476191,0.5190476190476191,0.5190476190476191,0.5190476190476191,0.5190476190476191,0.5190476190476191,0.5190476190476191,0.5190476190476191,0.5190476190476191,0.5190476190476191,0.5190476190476191,0.5190476190476191,0.5190476190476191,0.5190476190476191,0.48095238095238096,0.4523809523809524,0.4523809523809524,0.4523809523809524,0.4523809523809524,0.4523809523809524,0.4523809523809524,0.4523809523809524,0.4523809523809524,0.4523809523809524,0.4523809523809524,0.4523809523809524,0.4523809523809524,0.4523809523809524,0.4523809523809524,0.4523809523809524,0.4523809523809524,0.4523809523809524,0.4523809523809524,0.4523809523809524,0.43333333333333335,0.3761904761904762,0.3,0.2523809523809524,0.21428571428571427,0.18571428571428572,0.1380952380952381,0.1,0.07142857142857142,0.06190476190476191,0.05238095238095238,0.05238095238095238,0.05238095238095238,0.05238095238095238,0.05238095238095238,0.05238095238095238,0.05238095238095238,0.05238095238095238,0.05238095238095238,0.05238095238095238,0.05238095238095238,0.04285714285714286,0.03333333333333333,0.03333333333333333,0.023809523809523808,0.023809523809523808,0.023809523809523808,0.023809523809523808,0.023809523809523808,0.023809523809523808,0.023809523809523808,0.023809523809523808,0.023809523809523808,0.023809523809523808,0.023809523809523808,0.023809523809523808,0.023809523809523808,0.023809523809523808,0.023809523809523808,0.014285714285714285,0.014285714285714285,0.004761904761904762,0.004761904761904762,0.004761904761904762,0.004761904761904762,0.004761904761904762,0.004761904761904762,0.004761904761904762,0.004761904761904762,0.004761904761904762,0.004761904761904762,0.004761904761904762,-0.004761904761904762,-0.014285714285714285,-0.014285714285714285,-0.014285714285714285,-0.014285714285714285,-0.014285714285714285,-0.014285714285714285,0.014285714285714285,0.06190476190476191,0.1,0.15714285714285714,0.21428571428571427,0.2714285714285714,0.319047619047619,0.35714285714285715,0.3952380952380952,0.4238095238095238,0.44285714285714284,0.4523809523809524,0.4523809523809524,0.4523809523809524,0.43333333333333335,0.4238095238095238,0.40476190476190477,0.3761904761904762,0.3476190476190476,0.3,0.24285714285714285,0.18571428571428572,0.1380952380952381,0.09047619047619047,0.05238095238095238,0.004761904761904762,-0.04285714285714286,-0.09047619047619047,-0.10952380952380952,-0.11904761904761904,-0.11904761904761904,-0.11904761904761904,-0.11904761904761904,-0.11904761904761904,-0.11904761904761904,-0.11904761904761904,-0.11904761904761904,-0.11904761904761904,-0.11904761904761904,-0.10952380952380952,-0.09047619047619047,-0.06190476190476191,-0.04285714285714286,-0.03333333333333333,-0.03333333333333333,-0.03333333333333333,-0.03333333333333333,-0.03333333333333333,-0.03333333333333333,-0.03333333333333333,-0.03333333333333333,-0.023809523809523808,-0.023809523809523808,-0.014285714285714285,-0.004761904761904762,0.004761904761904762,0.004761904761904762,0.014285714285714285,0.023809523809523808,0.023809523809523808,0.023809523809523808,0.023809523809523808,0.023809523809523808,0.023809523809523808,0.023809523809523808,0.023809523809523808,0.023809523809523808,0.023809523809523808,0.023809523809523808,0.023809523809523808,0.023809523809523808,0.023809523809523808,0.023809523809523808,0.023809523809523808,0.014285714285714285,0.004761904761904762,-0.004761904761904762,-0.004761904761904762,-0.004761904761904762,-0.004761904761904762,-0.004761904761904762,-0.004761904761904762,-0.004761904761904762,-0.004761904761904762,-0.004761904761904762,-0.004761904761904762,-0.004761904761904762,-0.004761904761904762,-0.004761904761904762,-0.004761904761904762,-0.004761904761904762,-0.004761904761904762,-0.004761904761904762,-0.004761904761904762,0.023809523809523808,0.07142857142857142,0.1380952380952381,0.18571428571428572,0.23333333333333334,0.2714285714285714,0.30952380952380953,0.35714285714285715,0.4523809523809524,0.5095238095238095,0.5666666666666667,0.6238095238095238,0.6904761904761905,0.7476190476190476,0.7952380952380952,0.8142857142857143,0.8238095238095238,0.8238095238095238,0.8238095238095238,0.8238095238095238,0.8142857142857143,0.7761904761904762,0.7380952380952381,0.7,0.680952380952381,0.680952380952381,0.6714285714285714,0.6619047619047619,0.6523809523809524,0.6333333333333333,0.6238095238095238,0.6238095238095238,0.6238095238095238,0.6238095238095238,0.6238095238095238,0.6238095238095238,0.6238095238095238,0.6238095238095238,0.6238095238095238,0.6142857142857143,0.6142857142857143,0.6142857142857143,0.6047619047619047,0.5857142857142857,0.5666666666666667,0.5380952380952381,0.5,0.46190476190476193,0.43333333333333335,0.4142857142857143,0.40476190476190477,0.3952380952380952,0.3952380952380952,0.3952380952380952,0.3952380952380952,0.3952380952380952,0.3952380952380952,0.3952380952380952,0.3952380952380952,0.3952380952380952,0.3952380952380952,0.3952380952380952,0.3952380952380952,0.40476190476190477,0.43333333333333335,0.46190476190476193,0.48095238095238096,0.5,0.5285714285714286,0.5571428571428572,0.5761904761904761,0.6142857142857143,0.6333333333333333,0.6619047619047619,0.6904761904761905,0.719047619047619,0.7571428571428571,0.7857142857142857,0.8238095238095238,0.861904761904762,0.9095238095238095,0.9666666666666667,1.0047619047619047,1.042857142857143,1.0714285714285714,1.1,1.119047619047619,1.1285714285714286,1.138095238095238,1.1476190476190475,1.1476190476190475,1.1476190476190475,1.1476190476190475,1.1476190476190475,1.138095238095238,1.119047619047619,1.1,1.0809523809523809,1.0714285714285714,1.0714285714285714,1.0714285714285714,1.0714285714285714,1.0714285714285714,1.0714285714285714,1.0714285714285714,1.061904761904762,1.042857142857143,1.0238095238095237,1.0047619047619047,0.9952380952380953,0.9952380952380953,0.9952380952380953,0.9952380952380953,0.9952380952380953,0.9857142857142858,0.9857142857142858,0.9857142857142858,0.9857142857142858,0.9857142857142858,0.9761904761904762,0.9761904761904762,0.9761904761904762,0.9761904761904762,0.9761904761904762,0.9761904761904762,0.9761904761904762,0.9761904761904762,0.9761904761904762,0.9761904761904762,0.9761904761904762,0.9761904761904762,0.9761904761904762,0.9761904761904762,0.9761904761904762,0.9761904761904762,0.9666666666666667,0.9666666666666667,0.9666666666666667,0.9666666666666667,0.9666666666666667,0.9666666666666667,0.9571428571428572,0.9571428571428572,0.9476190476190476,0.9476190476190476,0.9476190476190476,0.9476190476190476,0.9476190476190476,0.9476190476190476,0.9476190476190476,0.9476190476190476,0.9476190476190476,0.9476190476190476,0.9476190476190476,0.9476190476190476,0.9476190476190476,0.9476190476190476,0.9476190476190476,0.9476190476190476,0.9476190476190476,0.9476190476190476,0.9476190476190476,0.9476190476190476,0.9476190476190476,0.9476190476190476,0.9476190476190476,0.9476190476190476,0.9476190476190476,0.9476190476190476,0.9476190476190476,0.9476190476190476,0.9476190476190476,0.9476190476190476,0.9476190476190476,0.9476190476190476,0.9476190476190476,0.9476190476190476,0.9476190476190476,0.9476190476190476,0.9476190476190476,0.9476190476190476,0.9380952380952381,0.9285714285714286,0.9285714285714286,0.9476190476190476,0.9761904761904762,0.9857142857142858,0.9952380952380953,0.9952380952380953,1.0047619047619047,1.0047619047619047,1.0142857142857142,1.0142857142857142,1.0238095238095237,1.0238095238095237,1.0238095238095237,1.0238095238095237,1.0238095238095237,1.0238095238095237,1.0238095238095237,1.0238095238095237,1.0238095238095237,1.0238095238095237,1.0238095238095237,1.0238095238095237,1.0238095238095237,1.0238095238095237,1.0238095238095237,1.0238095238095237,1.0238095238095237,1.0238095238095237,1.0142857142857142,1.0142857142857142,1.0047619047619047,0.9952380952380953,0.9952380952380953,0.9952380952380953,0.9952380952380953,0.9857142857142858,0.9857142857142858,0.9857142857142858,0.9857142857142858,0.9761904761904762,0.9761904761904762,0.9761904761904762,0.9761904761904762,0.9761904761904762,0.9761904761904762,0.9666666666666667,0.9666666666666667,0.9666666666666667,0.9666666666666667,0.9571428571428572,0.9571428571428572,0.9571428571428572,0.9476190476190476,0.9380952380952381,0.9285714285714286,0.919047619047619,0.9095238095238095,0.9,0.9,0.9,0.9,0.9,0.9,0.9,0.9,0.9,0.9,0.9095238095238095,0.919047619047619,0.9380952380952381,0.9380952380952381,0.9571428571428572,0.9666666666666667,0.9857142857142858,0.9857142857142858,0.9857142857142858,0.9952380952380953,0.9952380952380953,0.9952380952380953,0.9952380952380953,0.9952380952380953,0.9952380952380953,0.9952380952380953,0.9952380952380953,0.9666666666666667,0.9380952380952381,0.9095238095238095,0.8904761904761904,0.8714285714285714,0.8714285714285714,0.861904761904762,0.861904761904762,0.861904761904762,0.861904761904762,0.861904761904762,0.8523809523809524,0.8523809523809524,0.8523809523809524,0.8523809523809524,0.8523809523809524,0.8523809523809524,0.8523809523809524,0.8523809523809524,0.8523809523809524,0.8523809523809524,0.8523809523809524,0.8523809523809524,0.8523809523809524,0.8523809523809524,0.8523809523809524,0.8523809523809524,0.8523809523809524,0.8523809523809524,0.8523809523809524,0.8523809523809524,0.8523809523809524,0.8523809523809524,0.8523809523809524,0.8428571428571429,0.8333333333333334,0.8333333333333334,0.8333333333333334,0.8333333333333334,0.8333333333333334,0.8333333333333334,0.8333333333333334,0.8333333333333334,0.8333333333333334,0.8333333333333334,0.8333333333333334,0.8333333333333334,0.8333333333333334,0.8333333333333334,0.8333333333333334,0.8333333333333334,0.8333333333333334,0.8333333333333334,0.8333333333333334,0.8333333333333334,0.8238095238095238,0.8238095238095238,0.8238095238095238,0.8238095238095238,0.8238095238095238,0.8333333333333334,0.8333333333333334,0.8333333333333334,0.8333333333333334,0.8333333333333334,0.8333333333333334,0.8333333333333334,0.8333333333333334,0.8333333333333334,0.8428571428571429,0.8428571428571429,0.8428571428571429,0.8428571428571429,0.8523809523809524,0.861904761904762,0.8714285714285714,0.8714285714285714,0.8714285714285714,0.8809523809523809,0.8904761904761904,0.9,0.9,0.9,0.9,0.9,0.9,0.9,0.9,0.9,0.9,0.9,0.9,0.9,0.9,0.9,0.9,0.9,0.9,0.9,0.9,0.9,0.9,0.9,0.9,0.9,0.9,0.9,0.9,0.9,0.9,0.9,0.9,0.9,0.9,0.9,0.8904761904761904,0.8809523809523809,0.8809523809523809,0.8714285714285714,0.8523809523809524,0.8047619047619048,0.7571428571428571,0.719047619047619,0.6714285714285714,0.6238095238095238,0.5952380952380952,0.5761904761904761,0.5666666666666667,0.5571428571428572,0.5476190476190477,0.5380952380952381,0.5380952380952381,0.5380952380952381,0.5285714285714286,0.5285714285714286,0.5285714285714286,0.5285714285714286,0.5285714285714286,0.5285714285714286,0.5285714285714286,0.5285714285714286,0.5285714285714286,0.5285714285714286,0.5285714285714286,0.5285714285714286,0.5285714285714286,0.5285714285714286,0.5285714285714286,0.5285714285714286,0.5380952380952381,0.5380952380952381,0.5476190476190477,0.5476190476190477,0.5476190476190477,0.5476190476190477,0.5476190476190477,0.5476190476190477,0.5476190476190477,0.5476190476190477,0.5476190476190477,0.5476190476190477,0.5380952380952381,0.5380952380952381,0.5285714285714286,0.5285714285714286,0.5190476190476191,0.5095238095238095,0.5,0.5,0.5,0.5,0.5,0.5,0.5,0.5,0.5,0.5,0.5,0.5,0.5,0.5,0.5,0.5,0.5,0.5,0.5,0.5,0.5,0.5,0.5,0.5,0.5,0.5,0.5,0.5285714285714286,0.5571428571428572,0.5952380952380952,0.6142857142857143,0.6428571428571429,0.6523809523809524,0.6523809523809524,0.6619047619047619,0.6619047619047619,0.6523809523809524,0.6238095238095238,0.5952380952380952,0.5761904761904761,0.5476190476190477,0.5476190476190477,0.5380952380952381,0.5285714285714286,0.5095238095238095,0.49047619047619045,0.4523809523809524,0.4238095238095238,0.4142857142857143,0.40476190476190477,0.40476190476190477,0.40476190476190477,0.40476190476190477,0.40476190476190477,0.40476190476190477,0.40476190476190477,0.40476190476190477,0.40476190476190477,0.38571428571428573,0.3380952380952381,0.3,0.24285714285714285,0.20476190476190476,0.1761904761904762,0.14761904761904762,0.12857142857142856,0.10952380952380952,0.1,0.09047619047619047,0.08095238095238096,0.06190476190476191,0.06190476190476191,0.04285714285714286,0.04285714285714286,0.03333333333333333,0.03333333333333333,0.023809523809523808,0.023809523809523808,0.023809523809523808,0.023809523809523808,0.023809523809523808,0.014285714285714285,0.014285714285714285,0.014285714285714285,0.014285714285714285,0.014285714285714285,0.014285714285714285,0.014285714285714285,0.014285714285714285,0.014285714285714285,0.03333333333333333,0.04285714285714286,0.06190476190476191,0.07142857142857142,0.08095238095238096,0.08095238095238096,0.08095238095238096,0.08095238095238096,0.08095238095238096,0.08095238095238096,0.09047619047619047,0.09047619047619047,0.1,0.1,0.1,0.1,0.1,0.1,0.1,0.1,0.1,0.1,0.1,0.1,0.10952380952380952,0.10952380952380952,0.10952380952380952,0.10952380952380952,0.10952380952380952,0.10952380952380952,0.10952380952380952,0.11904761904761904,0.11904761904761904,0.11904761904761904,0.12857142857142856,0.1380952380952381,0.14761904761904762,0.15714285714285714,0.15714285714285714,0.16666666666666666,0.16666666666666666,0.16666666666666666,0.1761904761904762,0.1761904761904762,0.16666666666666666,0.15714285714285714,0.14761904761904762,0.11904761904761904,0.10952380952380952,0.09047619047619047,0.07142857142857142,0.06190476190476191,0.06190476190476191,0.06190476190476191,0.06190476190476191,0.06190476190476191,0.06190476190476191,0.06190476190476191,0.06190476190476191,0.06190476190476191,0.06190476190476191,0.06190476190476191,0.06190476190476191,0.06190476190476191,0.06190476190476191,0.06190476190476191,0.07142857142857142,0.10952380952380952,0.14761904761904762,0.19523809523809524,0.2619047619047619,0.3380952380952381,0.40476190476190477,0.4714285714285714,0.5380952380952381,0.5761904761904761,0.6047619047619047,0.6142857142857143,0.6142857142857143,0.6142857142857143,0.6142857142857143,0.6142857142857143,0.6142857142857143,0.6142857142857143,0.6142857142857143,0.6142857142857143,0.6142857142857143,0.5857142857142857,0.5666666666666667,0.5380952380952381,0.5285714285714286,0.5190476190476191,0.5095238095238095,0.5,0.5,0.5,0.5,0.5,0.5,0.5,0.5,0.5,0.5,0.5,0.5,0.5,0.5,0.5,0.5,0.5095238095238095,0.5285714285714286,0.5380952380952381,0.5476190476190477,0.5666666666666667,0.5857142857142857,0.6047619047619047,0.6238095238095238,0.6428571428571429,0.6523809523809524,0.6714285714285714,0.680952380952381,0.7095238095238096,0.719047619047619,0.7380952380952381,0.7476190476190476,0.7571428571428571,0.7761904761904762,0.7761904761904762,0.7571428571428571,0.719047619047619,0.680952380952381,0.6333333333333333,0.5857142857142857,0.5380952380952381,0.49047619047619045,0.4238095238095238,0.38571428571428573,0.35714285714285715,0.32857142857142857,0.3,0.28095238095238095,0.2523809523809524,0.23333333333333334,0.21428571428571427,0.19523809523809524,0.18571428571428572,0.16666666666666666,0.15714285714285714,0.1380952380952381,0.12857142857142856,0.12857142857142856,0.12857142857142856,0.12857142857142856,0.12857142857142856,0.11904761904761904,0.11904761904761904,0.10952380952380952,0.10952380952380952,0.10952380952380952,0.10952380952380952,0.10952380952380952,0.1,0.09047619047619047,0.05238095238095238,0.014285714285714285,0.004761904761904762,-0.004761904761904762,-0.004761904761904762,-0.004761904761904762,-0.004761904761904762,-0.004761904761904762,-0.004761904761904762,-0.004761904761904762,-0.004761904761904762,-0.004761904761904762,-0.004761904761904762,-0.004761904761904762,0.014285714285714285,0.04285714285714286,0.08095238095238096,0.11904761904761904,0.15714285714285714,0.21428571428571427,0.2619047619047619,0.30952380952380953,0.3476190476190476,0.3761904761904762,0.4142857142857143,0.4523809523809524,0.48095238095238096,0.5095238095238095,0.5285714285714286,0.5476190476190477,0.5571428571428572,0.5571428571428572,0.5666666666666667,0.5761904761904761,0.5857142857142857,0.5952380952380952,0.6142857142857143,0.6333333333333333,0.6428571428571429,0.6619047619047619,0.680952380952381,0.6904761904761905,0.7,0.719047619047619,0.719047619047619,0.7285714285714285,0.7476190476190476,0.7571428571428571,0.7666666666666667,0.7666666666666667,0.7666666666666667,0.7666666666666667,0.7666666666666667,0.7666666666666667,0.7666666666666667,0.7666666666666667,0.7666666666666667,0.7666666666666667,0.7666666666666667,0.7666666666666667,0.7666666666666667,0.7666666666666667,0.7666666666666667,0.7666666666666667,0.7666666666666667,0.7666666666666667,0.7666666666666667,0.7666666666666667,0.7666666666666667,0.7666666666666667,0.7666666666666667,0.7666666666666667,0.7761904761904762,0.7952380952380952,0.8142857142857143,0.8523809523809524,0.9,0.9476190476190476,0.9761904761904762,1.0047619047619047,1.0047619047619047,1.0047619047619047,1.0047619047619047,1.0047619047619047,1.0047619047619047,0.9952380952380953,0.9857142857142858,0.9761904761904762,0.9666666666666667,0.9761904761904762,0.9952380952380953,1.0142857142857142,1.0238095238095237,1.0333333333333334,1.0333333333333334,1.0333333333333334,1.0142857142857142,1.0047619047619047,1.0047619047619047,1.0047619047619047,1.0047619047619047,1.0047619047619047,1.0047619047619047,1.0047619047619047,1.0047619047619047,1.0047619047619047,1.0047619047619047,1.0047619047619047,1.0047619047619047,1.0047619047619047,1.0047619047619047,1.0047619047619047,1.0047619047619047,1.0047619047619047,1.0047619047619047,1.0047619047619047,1.0047619047619047,1.0047619047619047,1.0047619047619047,1.0142857142857142,1.0142857142857142,1.0142857142857142,1.0142857142857142,1.0142857142857142,1.0142857142857142,1.0142857142857142,1.0142857142857142,1.0142857142857142,1.0142857142857142,1.0142857142857142,1.0142857142857142,1.0047619047619047,1.0047619047619047,1.0047619047619047,1.0047619047619047,1.0047619047619047,1.0047619047619047,1.0047619047619047,1.0047619047619047,1.0238095238095237,1.042857142857143,1.0714285714285714,1.0809523809523809,1.0904761904761904,1.1095238095238096,1.138095238095238,1.1666666666666667,1.2047619047619047,1.223809523809524,1.2428571428571429,1.2619047619047619,1.2809523809523808,1.3,1.319047619047619,1.3285714285714285,1.338095238095238,1.3476190476190477,1.3476190476190477,1.3476190476190477,1.3476190476190477,1.3476190476190477,1.3476190476190477,1.3476190476190477,1.3476190476190477,1.3476190476190477,1.3476190476190477,1.3476190476190477,1.3476190476190477,1.3476190476190477,1.3476190476190477,1.3476190476190477,1.3476190476190477,1.3571428571428572,1.3857142857142857,1.3952380952380952,1.3952380952380952,1.4047619047619047,1.4047619047619047,1.4047619047619047,1.4142857142857144,1.4142857142857144,1.4142857142857144,1.4238095238095239,1.4238095238095239,1.4333333333333333,1.4333333333333333,1.4333333333333333,1.4523809523809523,1.4904761904761905,1.5666666666666667,1.6428571428571428,1.7190476190476192,1.8238095238095238,1.9476190476190476,2.080952380952381,2.2523809523809524,2.4047619047619047,2.538095238095238,2.6333333333333333,2.7,2.738095238095238,2.7476190476190476,2.7476190476190476,2.7476190476190476,2.7476190476190476,2.6904761904761907,2.6142857142857143,2.538095238095238,2.4523809523809526,2.395238095238095,2.3666666666666667,2.3380952380952382,2.3380952380952382,2.3380952380952382,2.3380952380952382,2.3380952380952382,2.3380952380952382,2.3380952380952382,2.3380952380952382,2.3380952380952382,2.3380952380952382,2.3380952380952382,2.3380952380952382,2.3380952380952382,2.3380952380952382,2.3380952380952382,2.3380952380952382,2.3285714285714287,2.3,2.280952380952381,2.261904761904762,2.261904761904762,2.2523809523809524,2.2523809523809524,2.2523809523809524]},"final_keyboard_state":["M","A","E","I","O","C","F","R","T","S","L","H","G","P","B","Z"],"num_clicks":16,"points":4,"cheat":false,"trial_type":"Hangman","trial_index":5,"time_elapsed":126209,"internal_node_id":"0.0-4.0","protocol_sum":"","subject_identifier":431,"subject_sum":[216,101,128,165,127,123,245,66,232,82,2,40,60,184,69,149,60,157,40,248,10,142,101,29,176,139,47,192,178,214,167,49],"subject_pair":215,"STUDY_ID":"66a22c0758a3d5c9d26873c6","PROLIFIC_PID":"601f5a82dc8ed94a9da4461e","SESSION_ID":"66a2d1571f689ec2112cc905","practice_instructions":1,"leaderboard_instructions":0,"bonus":0,"reveal_word":true,"self_rating":"6","confidence":"80"},{"view_history":"[{\"page_index\":0,\"viewing_time\":1882.3999999761581},{\"page_index\":1,\"viewing_time\":13354.600000023842}]","rt":15237.800000011921,"trial_type":"instructions","trial_index":6,"time_elapsed":141447,"internal_node_id":"0.0-5.0","protocol_sum":"","subject_identifier":431,"subject_sum":[216,101,128,165,127,123,245,66,232,82,2,40,60,184,69,149,60,157,40,248,10,142,101,29,176,139,47,192,178,214,167,49],"subject_pair":215,"STUDY_ID":"66a22c0758a3d5c9d26873c6","PROLIFIC_PID":"601f5a82dc8ed94a9da4461e","SESSION_ID":"66a2d1571f689ec2112cc905","practice_instructions":1,"leaderboard_instructions":0,"bonus":0,"reveal_word":true,"self_rating":"6","confidence":"80"},{"rt":8588.300000011921,"responses":"{\"Q0\":\"...from <b>a previous session</b> that is part of the upcoming tournament.\"}","question_order":"[0]","trial_type":"survey-multi-choice","trial_index":7,"time_elapsed":150037,"internal_node_id":"0.0-6.0","protocol_sum":"","subject_identifier":431,"subject_sum":[216,101,128,165,127,123,245,66,232,82,2,40,60,184,69,149,60,157,40,248,10,142,101,29,176,139,47,192,178,214,167,49],"subject_pair":215,"correct":false,"test_part":"multichoice_leaderboard","STUDY_ID":"66a22c0758a3d5c9d26873c6","PROLIFIC_PID":"601f5a82dc8ed94a9da4461e","SESSION_ID":"66a2d1571f689ec2112cc905","practice_instructions":1,"leaderboard_instructions":0,"bonus":0,"reveal_word":true,"self_rating":"6","confidence":"80"},{"view_history":"[{\"page_index\":0,\"viewing_time\":1236.699999988079}]","rt":1236.8999999761581,"trial_type":"instructions","trial_index":8,"time_elapsed":151275,"internal_node_id":"0.0-7.0-0.0","protocol_sum":"","subject_identifier":431,"subject_sum":[216,101,128,165,127,123,245,66,232,82,2,40,60,184,69,149,60,157,40,248,10,142,101,29,176,139,47,192,178,214,167,49],"subject_pair":215,"STUDY_ID":"66a22c0758a3d5c9d26873c6","PROLIFIC_PID":"601f5a82dc8ed94a9da4461e","SESSION_ID":"66a2d1571f689ec2112cc905","practice_instructions":1,"leaderboard_instructions":0,"bonus":0,"reveal_word":true,"self_rating":"6","confidence":"80"},{"rt":2690.099999964237,"responses":"{\"Q0\":\"...from <b>a previous session</b> that is not part of the upcoming tournament.\"}","question_order":"[0]","trial_type":"survey-multi-choice","trial_index":9,"time_elapsed":153966,"internal_node_id":"0.0-7.0-1.0","protocol_sum":"","subject_identifier":431,"subject_sum":[216,101,128,165,127,123,245,66,232,82,2,40,60,184,69,149,60,157,40,248,10,142,101,29,176,139,47,192,178,214,167,49],"subject_pair":215,"correct":true,"test_part":"multichoice_leaderboard","STUDY_ID":"66a22c0758a3d5c9d26873c6","PROLIFIC_PID":"601f5a82dc8ed94a9da4461e","SESSION_ID":"66a2d1571f689ec2112cc905","practice_instructions":1,"leaderboard_instructions":0,"bonus":0,"reveal_word":true,"self_rating":"6","confidence":"80"},{"view_history":"[{\"page_index\":0,\"viewing_time\":15001.300000011921}]","rt":15001.5,"trial_type":"instructions","trial_index":10,"time_elapsed":168970,"internal_node_id":"0.0-8.0","protocol_sum":"","subject_identifier":431,"subject_sum":[216,101,128,165,127,123,245,66,232,82,2,40,60,184,69,149,60,157,40,248,10,142,101,29,176,139,47,192,178,214,167,49],"subject_pair":215,"STUDY_ID":"66a22c0758a3d5c9d26873c6","PROLIFIC_PID":"601f5a82dc8ed94a9da4461e","SESSION_ID":"66a2d1571f689ec2112cc905","practice_instructions":1,"leaderboard_instructions":0,"bonus":0,"reveal_word":true,"self_rating":"6","confidence":"80"},{"rt":5472.599999964237,"responses":"{\"Q0\":\"...players' leaderboard position (in terms of <b>points</b>) in an <b>upcoming tournament.</b>\"}","question_order":"[0]","trial_type":"survey-multi-choice","trial_index":11,"time_elapsed":174444,"internal_node_id":"0.0-9.0","protocol_sum":"","subject_identifier":431,"subject_sum":[216,101,128,165,127,123,245,66,232,82,2,40,60,184,69,149,60,157,40,248,10,142,101,29,176,139,47,192,178,214,167,49],"subject_pair":215,"correct":true,"test_part":"multichoice_tournament","STUDY_ID":"66a22c0758a3d5c9d26873c6","PROLIFIC_PID":"601f5a82dc8ed94a9da4461e","SESSION_ID":"66a2d1571f689ec2112cc905","practice_instructions":1,"leaderboard_instructions":0,"bonus":0,"reveal_word":true,"self_rating":"6","confidence":"80"},{"view_history":"[{\"page_index\":0,\"viewing_time\":15204.399999976158}]","rt":15204.599999964237,"trial_type":"instructions","trial_index":12,"time_elapsed":189650,"internal_node_id":"0.0-11.0","protocol_sum":"","subject_identifier":431,"subject_sum":[216,101,128,165,127,123,245,66,232,82,2,40,60,184,69,149,60,157,40,248,10,142,101,29,176,139,47,192,178,214,167,49],"subject_pair":215,"STUDY_ID":"66a22c0758a3d5c9d26873c6","PROLIFIC_PID":"601f5a82dc8ed94a9da4461e","SESSION_ID":"66a2d1571f689ec2112cc905","practice_instructions":1,"leaderboard_instructions":0,"bonus":0,"reveal_word":true,"self_rating":"6","confidence":"80"},{"view_history":"[{\"page_index\":0,\"viewing_time\":6226.599999964237}]","rt":6226.899999976158,"trial_type":"instructions","trial_index":13,"time_elapsed":195878,"internal_node_id":"0.0-12.0-0.0","protocol_sum":"","subject_identifier":431,"subject_sum":[216,101,128,165,127,123,245,66,232,82,2,40,60,184,69,149,60,157,40,248,10,142,101,29,176,139,47,192,178,214,167,49],"subject_pair":215,"STUDY_ID":"66a22c0758a3d5c9d26873c6","PROLIFIC_PID":"601f5a82dc8ed94a9da4461e","SESSION_ID":"66a2d1571f689ec2112cc905","practice_instructions":1,"leaderboard_instructions":0,"bonus":0,"reveal_word":true,"self_rating":"6","confidence":"80"},{"rt":7635.599999964237,"response":"THUMB","responses":["THUMB"],"trial_type":"type-this","trial_index":14,"time_elapsed":204017,"internal_node_id":"0.0-12.0-1.0","protocol_sum":"","subject_identifier":431,"subject_sum":[216,101,128,165,127,123,245,66,232,82,2,40,60,184,69,149,60,157,40,248,10,142,101,29,176,139,47,192,178,214,167,49],"subject_pair":215,"STUDY_ID":"66a22c0758a3d5c9d26873c6","PROLIFIC_PID":"601f5a82dc8ed94a9da4461e","SESSION_ID":"66a2d1571f689ec2112cc905","practice_instructions":1,"leaderboard_instructions":0,"bonus":0,"reveal_word":true,"self_rating":"6","confidence":"80"},{"word":"THUMB","click_log":{"letter":["","A","B","E","G","H","Q","P","X","W","V","U","T","M"],"t":[0,2222,2921.900000035763,3788.5,5322,6088.5,6771.900000035763,7305.300000011921,8172,8672,9222,9738.700000047684,10122.100000023842,12488.900000035763],"hit":[null,0,1,0,0,1,0,0,0,0,0,1,1,1],"asked":["","A","AB","ABE","ABEG","ABEGH","ABEGHQ","ABEGHQP","ABEGHQPX","ABEGHQPXW","ABEGHQPXWV","ABEGHQPXWVU","ABEGHQPXWVUT","ABEGHQPXWVUTM"],"word_state":["_____","_____","____B","____B","____B","_H__B","_H__B","_H__B","_H__B","_H__B","_H__B","_HU_B","THU_B","THUMB"]},"hover_log":{"letter":["?","?","?","?","?","?","?","?","?","?","?","?","?","?","?","?","?","?","?","?","?","?","?","?","?","?","?","?","?","?","?","?","?","?","?","?","?","?","?","?","?","?","?","?","?","?","?","?","?","?","?","?","?","?","?","?","?","?","?","?","?","?","?","?","?","?","?","?","?","?","?","?","?","?","?","?","?","?","?","?","?","?","?","?","?","?","?","?","?","?","?","?","?","?","?","?","?","?","?","?","?","?","?","?","?","?","?","?","?","?","?","?","?","?","?","?","?","?","?","?","?","?","?","?","?","?","?","?","?","?","?","?","?","?","?","?","?","?","?","?","?","?","?","?","?","?","?","?","?","?","?","?","?","?","?","?","?","?","?","?","?","?","?","?","?","?","?","?","?","?","?","?","?","?","?","?","?","?","?","?","?","?","?","?","?","?","?","?","?","?","?","?","?","?","?","?","?","?","?","?","?","?","?","?","?","?","?","?","?","?","?","?","?","?","?","?","?","?","?","?","?","?","?","?","?","?","?","?","?","?","?","?","?","?","?","?","?","?","?","?","?","?","?","?","?","?","?","?","?","?","?","?","?","?","?","?","?","?","?","?","?","?","?","?","?","?","?","?","?","?","?","?","?","?","?","?","?","?","?","?","?","?","?","?","?","?","?","?","?","?","?","?","?","?","?","?","?","?","?","?","?","?","?","?","?","?","?","?","?","?","?","?","?","?","?","?","?","?","?","?","?","?","?","?","?","?","?","?","?","?","?","?","?","?","?","?","?","?","?","?","?","?","?","?","?","?","?","?","?","?","?","?","?","?","?","?","?","?","?","?","?","?","?","?","?","?","?","?","?","?","?","?","?","?","?","?","?","?","?","?","?","?","?","?","?","?","?","?","?","?","?","?","?","?","?","?","?","?","?","?","?","?","?","?","?","?","?","?","?","?","?","?","?","?","?","?","?","?","?","?","?","?","?","?","?","?","?","?","?","?","?","?","?","?","?","?","?","?","?","?","?","?","?","?","?","?","?","?","?","?","?","?","?","?","?","?","?","?","?","?","?","?","?","?","?","?","?","?","?","?","?","?","?","?","?","?","?","?","?","?","?","?","?","?","?","?","?","?","?","?","?","?","?","?","?","?","?","?","?","?","?","?","?","?","?","?","?","?","?","?","?","?","?","?","?","?","?","?","?","?","?","?","?","?","?","?","?","?","?","?","?","?","?","?","?","?","?","?","?","?","?","?","?","?","?","?","?","?","?","?","?","?","?","?","?","?","?","?","?","?","?","?","?","?","?","?","?","?","?","?","?","?","?","?","?","?","?","?","?","?","?","?","?","?","?","?","?","?","?","?","?","?","?","?","?","?","?","?","?","?","?","?","?","?","?","?","?","?","?","?","?","?","?","?","?","?","?","?","?","?","?","?","?","?","?","?","?","?","?","?","?","?","?","?","?","?","?","?","?","?","?","?","?","?","?","?","?","?","?","?","?","?","?","?","?","?","?","?","?","?","?","?","?","?","?","?","?","?","?","?","?","?","?","?","?","?","?","?","?","?","?","?","?","?","?","?","?","?","?","?","?","?","?","?","?","?","?","?","?","?","?","?","?","?","?","?","?","?","?","?","?","?","?","?","?","?","?","?","?","?","?","?","?","?","?","?","?","?","?","?","?","?","?","?","?","?","?","?","?","?","?","?","?","?","?","?","?","?","?","?","?","?","?","?","?","?","?","?","?","?","?","?","?","?","?","?","?","?","?","?","?","?","?","?","?","?","?","?","?","?","?","?","?","?","?","?","?","?","?","?","?","?","?","?","?","?","?","?","?","?","?","?","?","?","?","?","?","?","?","?","?","?","?","?","?","?","?","?","?","?","?","?","?","?","?","?","?","?","?","?","?","?","?","?","?","?","?","?","?","?","?","?","?","?","?","?","?","?","?","?","?","?","?","?","?","?","?","?","?","?","?","?","?","?","?","?","?","?","?","?","?","?","?","?","?","?","?","?","?","?","?","?","?","?","?","?","?","?","?","?","?","?","?","?","?","?","?","?","?","?","?","?","?","?","?","?","?","?","?","?","?","?","?","?","?","?","?","?","?","?","?","?","?","?","?","?","?","?","?","?","?","?","?","?","?","?","?","?","?","?","?","?","?","?","?","?","?","?","?","?","?","?","?","?","?","?","?","?","?","?","?","?","?","?","?","?","?","?","?","?","?","?","?","?","?","?","?","?","?","?","?","?","?","?","?","?","?","?","?","?","?","?","?","?","?","?","?","?","?","?","?","?","?","?","?","?","?","?","?","?","?","?","?","?","?","?","?","?","?","?","?","?","?","?","?","?","?","?","?","?","?","?","?","?","?","?","?","?","?","?","?","?","?","?","?","?","?","?","?","?","?","?","?","?","?","?","?","?","?","?","?","?","?","?","?","?","?","?","?","?","?","?","?","?","?","?","?","?","?","?","?","?","?","?","?","?","?","?","?","?","?","?","?","?","?","?","?","?","?","?","?","?","?","?","?","?","?","?","?","?","?","?","?","?","?","?","?","?","?","?","?","?","?","?","?","?","?","?","?","?","?","?","?","?","?","?","?","?","?","?","?","?","?","?","?","?","?","?","?","?","?","?","?","?","?","?","?","?","?","?","?","?","?","?","?","?","?","?","?","?","?","?","?","?","?","?","?","?","?","?","?","?","?","?","?","?","?","?","?","?","?","?","?","?","?","?","?","?","?","?","?","?","?","?","?","?","?","?","?","?","?","?","?","?","?","?","?","?","?","?","?","?","?","?","?","?","?","?","?","?","?","?","?","?","?","?","?","?","?","?","?","?","?","?","?","?","?","?","?","?","?","?","?","?","?","?","?","?","?","?","?","?","?","?","?","?","?","?","?","?","?","?","?","?","?","?","?","?","?","?","?","?","?","?","?","?","?","?","?","?","?","?","?","?","?","?","?","?","?","?","?","?","?","?","?","?","?","?","?","?","?","?","?","?","?","?","?","?","?","?","?","?","?","?","?","?","?","?","?","?","?","?","?","?","?","?","?","?","?","?","?","?","?","?","?","?","?","?","?","?","?","?","?","?","?","?","?","?","?","?","?","?","?","?","?","?","?","?","?","?","?","?","?","?","?","?","?","?","?","?","?","?","?","?","?","?","?","?","?","