[{"success":true,"trial_type":"fullscreen","trial_index":0,"time_elapsed":5940,"internal_node_id":"0.0-0.0","protocol_sum":"","subject_identifier":438,"subject_sum":[49,79,4,179,15,98,224,5,107,208,89,53,74,85,54,251,46,48,33,7,238,209,67,181,250,42,160,187,186,7,246,8],"subject_pair":219,"STUDY_ID":"66a22c0758a3d5c9d26873c6","PROLIFIC_PID":"665a7fc4fe1aa4041807cad1","SESSION_ID":"66a2eca99579d0f12372cf9e","practice_instructions":1,"leaderboard_instructions":0,"bonus":0,"reveal_word":false,"self_rating":"4","confidence":"4"},{"view_history":"[{\"page_index\":0,\"viewing_time\":10012.40000000596}]","rt":10012.90000000596,"trial_type":"instructions","trial_index":1,"time_elapsed":15955,"internal_node_id":"0.0-1.0","protocol_sum":"","subject_identifier":438,"subject_sum":[49,79,4,179,15,98,224,5,107,208,89,53,74,85,54,251,46,48,33,7,238,209,67,181,250,42,160,187,186,7,246,8],"subject_pair":219,"STUDY_ID":"66a22c0758a3d5c9d26873c6","PROLIFIC_PID":"665a7fc4fe1aa4041807cad1","SESSION_ID":"66a2eca99579d0f12372cf9e","practice_instructions":1,"leaderboard_instructions":0,"bonus":0,"reveal_word":false,"self_rating":"4","confidence":"4"},{"view_history":"[{\"page_index\":0,\"viewing_time\":186024.70000000298}]","rt":186025.20000000298,"trial_type":"instructions","trial_index":2,"time_elapsed":201982,"internal_node_id":"0.0-2.0-0.0","protocol_sum":"","subject_identifier":438,"subject_sum":[49,79,4,179,15,98,224,5,107,208,89,53,74,85,54,251,46,48,33,7,238,209,67,181,250,42,160,187,186,7,246,8],"subject_pair":219,"STUDY_ID":"66a22c0758a3d5c9d26873c6","PROLIFIC_PID":"665a7fc4fe1aa4041807cad1","SESSION_ID":"66a2eca99579d0f12372cf9e","practice_instructions":1,"leaderboard_instructions":0,"bonus":0,"reveal_word":false,"self_rating":"4","confidence":"4"},{"rt":22521.79999999702,"responses":"{\"Q0\":\"... reveal the word with as <b>few letter guesses</b> as possible\"}","question_order":"[0]","trial_type":"survey-multi-choice","trial_index":3,"time_elapsed":224508,"internal_node_id":"0.0-2.0-1.0","protocol_sum":"","subject_identifier":438,"subject_sum":[49,79,4,179,15,98,224,5,107,208,89,53,74,85,54,251,46,48,33,7,238,209,67,181,250,42,160,187,186,7,246,8],"subject_pair":219,"correct":true,"test_part":"multichoice_nonpretend","STUDY_ID":"66a22c0758a3d5c9d26873c6","PROLIFIC_PID":"665a7fc4fe1aa4041807cad1","SESSION_ID":"66a2eca99579d0f12372cf9e","practice_instructions":1,"leaderboard_instructions":0,"bonus":0,"reveal_word":false,"self_rating":"4","confidence":"4"},{"view_history":"[{\"page_index\":0,\"viewing_time\":3873.8999999910593}]","rt":3874.5999999940395,"trial_type":"instructions","trial_index":4,"time_elapsed":228385,"internal_node_id":"0.0-3.0","protocol_sum":"","subject_identifier":438,"subject_sum":[49,79,4,179,15,98,224,5,107,208,89,53,74,85,54,251,46,48,33,7,238,209,67,181,250,42,160,187,186,7,246,8],"subject_pair":219,"STUDY_ID":"66a22c0758a3d5c9d26873c6","PROLIFIC_PID":"665a7fc4fe1aa4041807cad1","SESSION_ID":"66a2eca99579d0f12372cf9e","practice_instructions":1,"leaderboard_instructions":0,"bonus":0,"reveal_word":false,"self_rating":"4","confidence":"4"},{"word":"ZEBRA","click_log":{"letter":["","R","H","A","B","C","Z","E"],"t":[0,51424,55087.20000000298,66632,72630,76001.39999999106,110045.20000000298,112004.70000000298],"hit":[null,1,0,1,1,0,1,1],"asked":["","R","RH","RHA","RHAB","RHABC","RHABCZ","RHABCZE"],"word_state":["_____","___R_","___R_","___RA","__BRA","__BRA","Z_BRA","ZEBRA"]},"hover_log":{"letter":["?","?","?","?","?","?","?","?","?","?","?","?","?","?","?","?","?","?","?","?","?","?","?","?","?","?","?","?","?","?","?","?","?","?","?","?","?","?","?","?","?","?","?","?","?","?","?","?","?","?","?","?","?","?","?","?","?","?","?","?","?","?","?","?","?","?","?","?","?","?","?","?","?","?","?","?","?","?","?","?","?","?","?","?","?","?","?","?","?","?","?","?","?","?","?","?","?","?","?","?","?","?","?","?","?","?","?","?","?","?","?","?","?","?","?","?","?","?","?","?","?","?","?","?","?","?","?","?","?","?","?","?","?","?","?","?","?","?","?","?","?","?","?","?","?","?","?","?","?","?","?","?","?","?","?","?","?","?","?","?","?","?","?","?","?","?","?","?","?","?","?","?","?","?","?","?","?","?","?","?","?","?","?","?","?","?","?","?","?","?","?","?","?","?","?","?","?","?","?","?","?","?","?","?","?","?","?","?","?","?","?","?","?","?","?","?","?","?","?","?","?","?","?","?","?","?","?","?","?","?","?","?","?","?","?","?","?","?","?","?","?","?","?","?","?","?","?","?","?","?","?","?","?","?","?","?","?","?","?","?","?","?","?","?","?","?","?","?","?","?","?","?","?","?","?","?","?","?","?","?","?","?","?","?","?","?","?","?","?","?","?","?","?","?","?","?","?","?","?","?","?","?","?","?","?","?","?","?","?","?","?","?","?","?","?","?","?","?","?","?","?","?","?","?","?","?","?","?","?","?","?","?","?","?","?","?","?","?","?","?","?","?","?","?","?","?","?","?","?","?","?","?","?","?","?","?","?","?","?","?","?","?","?","?","?","?","?","?","?","?","?","?","?","?","?","?","?","?","?","?","?","?","?","?","?","?","?","?","?","?","?","?","?","?","?","?","?","?","?","?","?","?","?","?","?","?","?","?","?","?","?","?","?","?","?","?","?","?","?","?","?","?","?","?","?","?","?","?","?","?","?","?","?","?","?","?","?","?","?","?","?","?","?","?","?","?","?","?","?","?","?","?","?","?","?","?","?","?","?","?","?","?","?","?","?","?","?","?","?","?","?","?","?","?","?","?","?","?","?","?","?","?","?","?","?","?","?","?","?","?","?","?","?","?","?","?","?","?","?","?","?","?","?","?","?","?","?","?","?","?","?","?","?","?","?","?","?","?","?","?","?","?","?","?","?","?","?","?","?","?","?","?","?","?","?","?","?","?","?","?","?","?","?","?","?","?","?","?","?","?","?","?","?","?","?","?","?","?","?","?","?","?","?","?","?","?","?","?","?","?","?","?","?","?","?","?","?","?","?","?","?","?","?","?","?","?","?","?","?","?","?","?","?","?","?","?","?","?","?","?","?","?","?","?","?","?","?","?","?","?","?","?","?","?","?","?","?","?","?","?","?","?","?","?","?","?","?","?","?","?","?","?","?","?","?","?","?","?","?","?","?","?","?","?","?","?","?","?","?","?","?","?","?","?","?","?","?","?","?","?","?","?","?","?","?","?","?","?","?","?","?","?","?","?","?","?","?","?","?","?","?","?","?","?","?","?","?","?","?","?","?","?","?","?","?","?","?","?","?","?","?","?","?","?","?","?","?","?","?","?","?","?","?","?","?","?","?","?","?","?","?","?","?","?","?","?","?","?","?","J","J","?","?","?","?","?","?","?","?","?","?","J","J","J","J","?","?","?","?","B","B","B","B","B","B","B","B","B","B","?","?","?","?","?","?","?","?","?","?","?","?","?","B","B","B","B","B","B","B","B","B","B","B","B","B","B","B","B","B","B","B","B","B","B","B","B","B","B","B","B","B","B","B","B","B","B","B","B","B","B","B","B","B","B","B","B","B","B","B","B","B","B","B","B","B","B","B","B","B","B","B","B","B","B","B","B","B","B","B","B","B","B","B","B","B","B","B","B","B","B","B","B","B","B","B","B","B","B","B","B","B","B","B","B","B","B","B","B","B","B","B","B","B","B","B","B","B","B","B","B","B","B","B","B","B","B","B","B","B","B","B","B","B","B","B","B","B","B","B","B","B","B","B","B","B","B","B","B","B","B","B","B","B","B","B","B","B","B","B","B","B","B","B","B","B","B","B","B","?","?","?","K","K","K","?","?","?","?","L","?","?","?","?","?","?","?","?","?","?","?","?","?","?","L","L","L","?","?","?","?","?","?","?","?","?","?","?","?","?","?","?","?","?","?","?","?","?","?","?","?","?","?","?","?","?","?","?","?","?","?","?","?","?","?","?","?","?","?","?","?","?","?","?","?","?","?","?","?","?","?","?","?","?","?","?","?","?","?","?","?","?","?","?","?","?","?","?","?","?","?","?","?","?","?","?","?","?","?","?","?","?","?","?","?","?","?","?","?","?","?","?","?","?","?","?","?","?","?","?","?","?","?","?","?","?","?","?","?","?","?","?","?","?","?","?","?","?","?","?","?","?","?","?","?","?","?","?","?","?","?","?","?","?","?","?","?","?","?","?","?","?","?","?","?","?","?","?","?","?","?","?","?","?","?","?","?","?","?","?","?","?","?","?","?","?","?","?","?","?","?","?","?","?","?","?","?","?","?","?","?","?","?","?","?","?","?","?","?","?","?","?","?","?","?","?","?","?","?","?","?","?","?","?","?","?","?","?","?","?","?","?","?","?","?","?","?","?","?","?","?","?","?","?","?","?","?","?","?","?","?","?","?","?","?","?","?","?","?","?","?","?","?","?","?","?","?","?","?","?","?","?","?","?","?","?","?","?","?","?","?","?","?","?","?","?","?","?","?","?","?","?","?","?","?","?","?","?","?","?","?","?","?","?","?","?","?","?","?","?","?","?","?","?","?","?","?","?","?","?","?","?","?","?","?","?","?","?","?","?","?","?","?","?","?","?","?","?","?","?","?","?","?","?","?","?","?","?","?","?","?","?","?","?","?","?","?","?","?","?","?","?","?","?","?","?","?","?","?","?","?","?","?","?","?","?","?","?","?","?","?","?","?","?","?","?","?","?","?","?","?","?","?","?","?","?","?","?","?","?","?","?","?","?","?","?","?","?","?","?","?","?","?","?","?","?","?","?","?","?","?","?","?","?","?","?","?","?","?","?","?","?","?","?","?","?","?","?","?","?","?","?","?","?","?","?","?","?","?","?","?","?","?","?","?","?","?","?","?","?","?","?","?","?","?","?","?","?","?","?","?","?","?","?","?","?","?","?","?","?","?","?","?","?","?","?","?","?","?","?","?","?","?","?","?","?","?","?","?","?","?","?","?","?","?","?","?","?","?","?","?","?","?","?","?","?","?","?","?","?","?","?","?","?","?","?","?","?","?","?","?","?","?","?","?","?","?","?","?","?","?","?","?","?","?","?","?","?","?","?","?","?","?","?","?","?","?","?","?","?","?","?","?","?","?","?","?","?","?","?","?","?","?","?","?","?","?","?","?","?","?","?","?","?","?","?","?","?","?","?","?","?","?","?","?","?","?","?","?","?","?","?","?","?","?","?","?","?","?","?","?","?","?","?","?","?","?","?","?","?","?","?","?","?","?","?","?","?","?","?","?","?","?","?","?","?","?","?","?","?","?","?","?","?","?","?","?","?","?","?","?","?","?","?","?","?","?","?","?","?","?","?","?","?","?","?","?","?","?","?","?","?","?","?","?","?","?","?","?","?","?","?","?","?","?","?","?","?","?","?","?","?","?","?","?","?","?","?","?","?","?","?","?","?","?","?","?","?","?","?","?","?","?","?","?","?","?","?","?","?","?","?","?","?","?","?","?","?","?","?","?","?","?","?","?","?","?","?","?","?","?","?","?","?","?","?","?","?","?","?","?","?","?","?","?","?","?","?","?","?","?","?","?","?","?","?","?","?","?","?","?","?","?","?","?","?","?","?","?","?","?","?","?","?","?","?","?","?","?","?","?","?","?","?","?","?","?","?","?","?","?","?","?","?","?","?","?","?","?","?","?","?","?","?","?","?","?","?","?","?","?","?","?","?","?","?","?","?","?","?","?","?","?","?","?","?","?","?","?","?","?","?","?","?","?","?","?","?","?","?","?","?","?","?","?","?","?","?","?","?","?","?","?","?","?","?","?","?","?","?","?","?","?","?","?","?","?","?","?","?","?","?","?","?","?","?","?","?","?","?","?","?","?","?","?","?","?","?","?","?","?","?","?","?","?","?","?","?","?","?","?","?","?","?","?","?","?","?","?","?","?","?","?","?","?","?","?","?","?","?","?","?","?","?","?","?","?","?","?","?","?","?","?","?","?","?","?","?","?","?","?","?","?","?","?","?","?","?","?","?","?","?","?","?","?","?","?","?","?","?","?","?","?","?","?","?","?","?","?","?","?","?","?","?","?","?","?","?","?","?","?","?","?","?","?","?","?","?","?","?","?","?","?","?","?","?","?","?","?","?","?","?","?","?","?","?","?","?","?","?","?","?","?","?","?","?","?","?","?","?","?","?","?","?","?","?","?","?","?","?","?","?","?","?","?","?","?","?","?","?","?","?","?","?","?","?","?","?","?","?","?","?","?","?","?","?","?","?","?","?","?","?","?","?","?","?","?","?","?","?","?","?","?","?","?","?","?","?","?","?","?","?","?","?","?","?","?","?","?","?","?","?","?","?","?","?","?","?","?","?","?","?","?","?","?","?","?","?","?","?","?","?","?","?","?","?","?","?","?","?","?","?","?","?","?","?","?","?","?","?","?","?","?","?","?","?","?","?","?","?","?","?","?","?","?","?","?","?","?","?","?","?","?","?","?","?","?","?","?","?","?","?","?","?","?","?","?","?","?","?","?","?","?","?","?","?","?","?","?","?","?","?","?","?","?","?","?","?","?","?","?","?","?","?","?","?","?","?","?","?","?","?","?","?","?","?","?","?","?","?","?","?","?","?","?","?","?","?","?","?","?","?","?","?","?","?","?","?","?","?","?","?","?","?","?","?","?","?","?","?","?","?","?","?","?","?","?","?","?","?","?","?","?","?","?","?","?","?","?","?","?","?","?","?","?","?","?","?","?","?","?","?","?","?","?","?","?","?","?","?","?","?","?","?","?","?","?","?","?","?","?","?","?","?","?","?","?","?","?","?","?","?","?","?","?","?","?","?","?","?","?","?","?","?","?","?","?","?","?","?","?","?","?","?","?","?","?","?","?","?","?","?","?","?","?","?","?","?","?","?","?","?","?","?","?","?","?","?","?","?","?","?","?","?","?","?","?","?","?","?","?","?","?","?","?","?","?","?","?","?","?","?","?","?","?","?","?","?","?","?","?","?","?","?","?","?","?","?","?","?","?","?","?","?","?","?","?","?","?","?","?","?","?","?","?","?","?","?","?","?","?","?","?","?","?","?","?","?","?","?","?","?","?","?","?","?","?","?","?","?","?","?","?","?","?","?","?","?","?","?","?","?","?","?","?","?","?","?","?","?","?","?","?","?","?","?","?","?","?","?","?","?","?","?","?","?","?","?","?","?","?","?","?","?","?","?","?","?","?","?","?","?","?","?","?","?","?","?","?","?","?","?","?","?","?","?","?","?","?","?","?","?","?","?","?","?","?","?","?","?","?","?","?","?","?","?","?","?","?","?","?","?","?","?","?","?","?","?","?","?","?","?","?","?","?","?","?","?","?","?","?","?","?","?","?","?","?","?","?","?","?","?","?","?","?","?","?","?","?","?","?","?","?","?","?","?","?","?","?","?","?","?","?","?","?","?","?","?","?","?","?","?","?","?","?","?","?","?","?","?","?","?","?","?","?","?","?","?","?","?","?","?","?","?","?","?","?","?","?","?","?","?","?","?","?","?","?","?","?","?","?","?","?","?","?","?","?","?","?","?","?","?","?","?","?","?","?","?","?","?","?","?","?","?","?","?","?","?","?","?","?","?","?","?","?","?","?","?","?","?","?","?","?","?","?","?","?","?","?","?","?","?","?","?","?","?","?","?","?","?","?","?","?","?","?","?","?","?","?","?","?","?","?","?","?","?","?","?","?","?","?","?","?","?","?","?","?","?","?","?","?","?","?","?","?","?","?","?","?","?","?","?","?","?","?","?","?","?","?","?","?","?","?","?","?","?","?","?","?","?","?","?","?","?","?","?","?","?","?","?","?","?","?","?","?","?","?","?","?","?","?","?","?","?","?","?","?","?","?","?","?","?","?","?","?","?","?","?","?","?","?","?","?","?","?","?","?","?","?","?","?","?","?","?","?","?","?","?","?","?","?","?","?","?","?","?","?","?","?","?","?","?","?","?","?","?","?","?","?","?","?","?","?","?","?","?","?","?","?","?","?","?","?","?","?","?","?","?","?","?","?","?","?","?","?","?","?","?","?","?","?","?","?","?","?","?","?","?","?","?","?","?","?","?","?","?","?","?","?","?","?","?","?","?","?","?","?","?","?","?","?","?","?","?","?","?","?","?","?","?","?","?","?","?","?","?","?","?","?","?","?","?","?","?","?","?","?","?","?","?","?","?","?","?","?","?","?","?","?","?","?","?","?","?","?","?","?","?","?","?","?","?","?","?","?","?","?","?","?","?","?","?","?","?","?","?","?","?","?","?","?","?","?","?","?","?","?","?","?","?","?","?","?","?","?","?","?","?","?","?","?","?","?","?","?","?","?","?","?","?","?","?","?","?","?","?","?","?","?","?","?","?","?","?","?","?","?","?","?","?","?","?","?","?","?","?","?","?","?","?","?","?","?","?","?","?","?","?","?","?","?","?","?","?","?","?","?","?","?","?","?","?","?","?","?","?","?","?","?","?","?","?","?","?","?","?","?","?","?","?","?","?","?","?","?","?","?","?","?","?","?","?","?","?","?","?","?","?","?","?","I","I","I","I","I","I","I","I","I","I","I","?","?","?","?","?","R","R","R","R","R","R","R","R","R","R","R","R","R","R","R","R","R","R","R","R","R","R","R","R","R","R","R","R","R","R","R","R","R","R","R","R","R","R","R","R","R","R","R","R","R","R","R","R","R","R","R","R","R","R","R","R","R","R","?","?","?","?","?","?","?","?","?","?","H","H","H","H","H","H","H","H","H","H","H","H","H","H","H","H","H","H","H","H","H","H","H","H","H","H","H","H","H","H","H","H","H","H","H","H","H","H","H","H","H","H","H","H","H","H","H","H","H","H","H","H","H","H","H","H","H","H","H","H","H","H","H","H","H","H","H","H","H","H","H","H","H","H","H","H","H","H","H","H","H","H","H","H","H","H","H","H","H","H","H","H","H","H","H","H","H","H","H","H","H","H","H","H","H","H","H","H","H","H","H","H","H","H","H","H","H","H","H","H","H","H","H","H","H","H","H","H","H","H","H","H","H","H","H","H","H","H","H","H","H","H","H","H","H","H","H","H","H","H","H","H","H","H","H","H","H","H","H","H","H","H","H","H","H","H","H","H","H","H","H","H","H","H","H","H","H","H","H","H","H","H","H","H","H","H","H","H","H","H","H","H","H","H","H","H","H","H","H","H","H","H","H","H","H","H","H","H","H","H","H","H","H","H","H","H","H","H","H","H","H","H","H","H","H","H","H","H","H","H","H","H","H","H","H","H","H","H","H","H","H","H","H","H","H","H","H","H","H","H","H","H","H","H","H","H","H","H","H","H","H","?","?","?","?","I","I","I","I","I","I","I","I","I","I","I","I","I","I","I","I","I","I","I","I","I","I","I","I","I","I","I","I","I","I","I","I","I","I","I","I","I","I","I","I","I","I","I","I","I","I","I","I","I","I","I","I","I","I","I","I","I","I","I","I","I","I","I","I","I","I","I","I","I","I","I","I","I","I","I","I","I","I","I","I","I","I","I","I","I","I","I","I","I","I","I","I","I","I","I","I","I","I","I","I","I","I","I","I","I","I","I","I","I","I","I","I","I","I","I","I","I","I","I","I","I","I","I","I","I","I","I","I","I","I","I","I","I","I","I","I","I","I","I","I","I","I","I","I","I","I","I","I","I","I","I","I","I","I","I","I","I","I","I","?","H","?","?","?","P","?","X","?","?","?","?","?","?","?","?","?","?","?","?","?","?","?","?","?","?","?","?","?","?","?","?","?","?","?","?","?","?","?","?","?","?","?","?","?","?","?","?","?","?","?","?","?","?","?","?","?","?","?","?","?","?","?","?","?","?","?","?","?","?","?","?","?","?","?","?","?","?","?","?","?","?","?","?","?","?","?","?","?","?","?","?","?","?","?","?","?","?","?","?","?","?","?","?","?","?","?","?","?","?","?","?","?","?","?","?","?","?","?","?","?","?","?","?","?","?","?","?","?","?","?","?","?","?","?","?","?","?","?","?","?","?","?","?","?","?","?","?","?","?","?","?","?","?","?","?","?","?","?","?","?","?","?","?","?","?","?","?","?","?","?","?","?","?","?","?","?","?","?","?","?","?","?","?","?","?","?","?","?","?","?","?","?","?","?","?","?","?","?","?","?","?","?","?","?","?","?","?","?","?","?","?","?","?","?","?","?","?","?","?","?","?","?","?","?","?","?","?","?","?","?","?","?","?","?","?","?","?","?","?","?","?","?","?","?","?","?","?","?","?","?","?","?","?","?","?","?","?","?","?","?","?","?","?","?","?","?","?","?","?","?","?","?","?","?","?","?","?","?","?","?","?","?","?","?","?","?","?","?","?","?","?","?","?","?","?","?","?","?","?","?","?","?","?","?","?","?","?","?","?","?","?","?","?","?","?","?","?","?","?","?","?","?","?","?","?","?","?","?","?","?","?","?","?","?","?","?","?","?","?","?","?","?","?","?","?","?","?","?","?","?","?","?","?","?","?","V","?","?","?","?","?","G","G","G","G","G","G","G","G","G","G","G","G","G","G","G","G","G","?","F","F","?","?","L","L","L","K","K","K","K","K","K","K","K","K","K","K","K","K","K","K","K","K","K","?","?","?","?","?","?","?","?","A","A","A","A","A","A","A","A","A","A","A","A","A","A","A","A","A","A","A","A","A","A","A","A","A","A","A","A","A","A","A","A","A","A","A","A","A","A","A","A","A","A","A","A","A","A","A","A","A","A","A","A","A","A","A","A","A","A","A","A","A","A","A","A","A","A","A","A","A","A","A","A","A","A","A","A","A","A","A","A","A","A","A","A","A","A","A","A","A","A","A","A","A","A","A","A","A","A","A","A","A","A","A","A","A","A","A","A","A","A","A","A","A","A","?","?","B","B","?","C","C","?","?","?","?","?","?","?","?","?","?","?","?","?","?","?","?","?","?","?","?","?","?","?","?","?","?","?","?","?","?","?","?","?","?","?","?","?","?","?","?","?","?","?","?","?","?","?","?","?","?","?","?","?","?","?","?","?","?","?","?","?","?","?","?","?","?","?","?","?","?","?","?","?","?","?","?","?","?","?","?","?","?","?","?","?","?","?","?","?","?","?","?","?","?","?","?","?","?","?","?","?","?","?","?","?","?","?","?","?","?","?","?","?","?","?","?","?","?","?","?","?","?","?","?","?","?","?","?","?","?","?","?","?","?","?","?","?","?","?","?","?","?","?","?","?","?","?","?","?","?","?","N","N","?","?","?","X","X","X","X","X","X","X","X","?","W","W","?","N","?","?","?","?","?","?","?","?","?","?","?","?","?","?","?","?","?","?","?","?","?","F","F","F","F","F","F","F","?","?","?","?","?","F","F","F","F","E","E","E","?","?","D","D","?","?","?","C","C","C","C","C","?","B","B","B","B","B","B","?","?","?","?","?","?","?","?","B","B","B","B","B","B","B","B","B","B","B","B","B","B","B","B","B","B","B","B","B","B","B","B","B","B","B","B","B","B","B","B","B","B","B","B","B","B","B","B","B","B","B","B","B","B","B","B","B","B","B","B","B","B","B","B","B","B","B","B","B","B","B","B","B","B","B","B","B","B","B","B","B","B","B","B","B","B","B","B","B","B","B","B","B","B","B","B","B","?","C","C","?","?","?","?","?","?","M","M","M","M","M","M","M","M","M","M","M","M","M","M","?","?","?","U","U","?","?","?","?","?","?","?","?","?","U","?","?","?","N","?","?","?","?","?","?","?","?","?","?","?","?","?","?","?","?","?","?","?","H","?","?","G","G","G","G","G","G","G","G","?","F","F","F","F","?","E","E","?","?","?","?","?","M","M","M","M","M","M","M","M","M","M","M","M","M","M","M","M","M","M","?","?","?","?","?","?","?","?","?","?","?","?","?","?","?","C","C","C","C","C","C","C","C","C","C","C","C","C","C","C","C","C","C","C","C","C","C","C","C","C","C","C","C","C","C","C","C","C","C","C","C","C","C","C","C","C","C","C","C","C","C","C","C","C","C","C","C","C","C","C","C","C","C","C","C","C","C","C","C","C","C","C","C","C","C","C","C","C","C","C","C","C","C","C","C","C","C","C","C","C","C","C","C","C","C","C","C","C","C","C","C","C","C","C","C","C","C","C","C","C","C","C","C","C","C","C","C","C","C","C","C","C","C","C","C","C","C","C","C","C","C","C","C","C","C","C","C","C","C","C","C","C","C","C","C","C","C","C","C","C","C","C","C","C","C","C","C","C","C","C","C","C","C","C","C","C","C","C","C","C","C","C","C","C","C","C","C","C","C","C","C","C","C","C","C","C","C","C","C","C","C","C","C","C","C","C","C","C","C","C","C","C","C","C","C","C","C","C","C","C","C","C","C","C","C","C","C","C","C","C","C","C","C","C","C","C","C","C","C","C","C","C","C","C","C","C","C","C","C","C","C","C","C","C","C","C","C","C","C","C","C","C","C","C","C","C","C","C","C","C","C","C","C","C","C","C","C","C","C","C","C","C","C","C","C","C","C","C","C","C","C","C","C","C","C","C","C","C","C","C","C","C","C","C","C","C","C","C","C","C","C","C","C","C","C","C","C","C","C","C","C","C","C","C","C","C","C","C","C","C","C","C","C","C","C","C","C","C","C","C","C","C","C","C","C","C","C","C","C","C","C","C","C","C","C","C","C","C","C","C","C","C","C","C","C","C","C","C","C","C","C","C","C","C","C","C","C","C","C","C","C","C","C","C","C","C","C","C","C","C","C","C","C","C","C","C","C","C","C","C","C","C","C","C","C","C","C","C","C","C","C","C","C","C","C","C","C","C","C","C","C","C","C","C","C","C","C","C","C","C","C","C","C","C","C","C","C","C","C","C","C","C","C","C","C","C","C","C","C","C","C","C","C","C","C","C","C","C","C","C","C","C","C","C","C","C","C","C","C","C","C","C","C","C","C","C","C","C","C","C","C","C","C","C","C","C","C","C","C","C","C","C","C","C","C","C","C","C","C","C","C","C","C","C","C","C","C","C","C","C","C","C","C","C","C","C","C","C","C","C","C","C","C","C","C","C","C","C","C","C","C","C","C","C","C","C","C","C","C","C","C","C","C","C","C","C","C","C","C","C","C","C","C","C","C","C","C","C","C","C","C","C","C","C","C","C","C","C","C","C","C","C","C","C","C","C","C","C","C","C","C","C","C","C","C","C","C","C","C","C","C","C","C","C","C","C","C","C","C","C","C","C","C","C","C","C","C","C","C","C","C","C","C","C","C","C","C","C","C","C","C","C","C","C","C","C","C","C","C","C","C","C","C","C","C","C","C","C","C","C","C","C","C","C","C","C","C","C","C","C","C","C","C","C","C","C","C","C","C","C","C","C","C","C","C","C","C","C","C","C","C","C","C","C","C","C","C","C","C","C","C","C","C","C","C","C","C","C","C","C","C","C","C","C","C","C","C","C","C","C","C","C","C","C","C","C","C","C","C","C","C","C","C","C","C","C","C","C","C","C","C","C","C","C","C","C","C","C","C","C","C","C","C","C","C","C","C","C","C","C","C","C","C","C","C","C","C","C","C","C","C","C","C","C","C","C","C","C","C","C","C","C","C","C","C","C","C","C","C","C","C","C","C","C","C","C","C","C","C","C","C","C","C","C","C","C","C","C","C","C","C","C","C","C","C","C","C","C","C","C","C","C","C","C","C","C","C","C","C","C","C","C","C","C","C","C","C","C","C","C","C","C","C","C","C","C","C","C","C","C","C","C","C","C","C","C","C","C","C","C","C","C","C","C","C","C","C","C","C","C","C","C","C","C","C","C","C","C","C","C","C","C","C","C","C","C","C","C","C","C","C","C","C","C","C","C","C","C","C","C","C","C","C","C","C","C","C","C","C","C","C","C","C","C","C","C","C","C","C","C","C","C","C","C","C","C","C","C","C","C","C","C","C","C","C","C","C","C","C","C","C","C","C","C","C","C","C","C","C","C","C","C","C","C","C","C","C","C","C","C","C","C","C","C","C","C","C","C","C","C","C","C","C","C","C","C","C","C","C","C","C","C","C","C","C","C","C","C","C","C","C","C","C","C","C","C","C","C","C","C","C","C","C","C","C","C","C","C","C","C","C","C","C","C","C","C","C","C","C","C","C","C","C","C","C","C","C","C","C","C","C","C","C","C","C","C","C","C","C","C","C","C","C","C","C","C","C","C","C","C","C","C","C","C","C","C","C","C","C","C","C","C","C","C","C","C","C","C","C","C","C","C","C","C","C","C","C","C","C","C","C","C","C","C","C","C","C","C","C","C","C","C","C","C","C","C","C","C","C","C","C","C","C","C","C","C","C","C","C","C","C","C","C","C","C","C","C","C","C","C","C","C","C","C","C","C","C","C","C","C","C","C","C","C","C","C","C","C","C","C","C","C","C","C","C","C","C","C","C","C","C","C","C","C","C","C","C","C","C","C","C","C","C","C","C","C","C","C","C","C","C","C","C","C","C","C","C","C","C","C","C","C","C","C","C","C","C","C","C","C","C","C","C","C","C","C","C","C","C","C","C","C","C","C","C","C","C","C","C","C","C","C","C","C","C","C","C","C","C","C","C","C","C","C","C","C","C","C","C","C","C","C","C","C","C","C","C","C","C","C","C","C","C","C","C","C","C","C","C","C","C","C","C","C","C","C","C","C","C","C","C","C","C","C","C","C","C","C","C","C","C","C","C","C","C","C","C","C","C","C","C","C","C","C","C","C","C","C","C","C","C","C","C","C","C","C","C","C","C","C","C","C","C","C","C","C","C","C","C","C","C","C","C","C","C","C","C","C","C","C","C","C","C","C","C","C","C","C","C","C","C","C","C","C","C","C","C","C","C","C","C","C","C","C","C","C","C","C","C","C","C","C","C","C","C","C","C","C","C","C","C","C","C","C","C","C","C","C","C","C","C","C","C","C","C","C","C","C","C","C","C","C","C","C","C","C","C","C","C","C","C","C","C","C","C","C","C","C","C","C","C","C","C","C","C","C","C","C","C","C","C","C","C","C","C","C","C","C","C","C","C","C","C","C","C","C","C","C","C","C","C","C","C","C","C","C","C","C","C","C","C","C","C","C","C","C","C","C","C","C","C","C","C","C","C","C","C","C","C","C","C","C","C","C","C","C","C","C","C","C","C","C","C","C","C","C","C","C","C","C","C","C","C","C","C","C","C","C","C","C","C","C","C","C","C","C","C","C","C","C","C","C","C","C","C","C","C","C","C","C","C","C","C","C","C","C","C","C","C","C","C","C","C","C","C","C","C","C","C","C","C","C","C","C","C","C","C","C","C","C","C","C","C","C","C","C","C","C","C","C","C","C","C","C","C","C","C","C","C","C","C","C","C","C","C","C","C","C","C","C","C","C","C","C","C","C","C","C","C","C","C","C","C","C","C","C","C","C","C","C","C","C","C","C","C","C","C","C","C","C","C","C","C","C","C","C","C","C","C","C","C","C","C","C","C","C","C","C","C","C","C","C","C","C","C","C","C","C","C","C","C","C","C","C","C","C","C","C","C","C","C","C","C","C","C","C","C","C","C","C","C","C","C","C","C","C","C","C","C","C","C","C","C","C","C","C","C","C","C","C","C","C","C","C","C","C","C","C","C","C","C","C","C","C","C","C","C","C","C","C","C","C","C","C","C","C","C","C","C","?","?","?","?","?","?","?","?","?","?","?","?","?","?","?","?","?","?","?","?","?","?","?","?","?","?","?","?","?","?","?","?","?","?","?","?","?","?","?","?","?","?","B","B","B","B","B","B","B","B","B","B","B","B","B","B","B","B","B","B","B","B","B","B","B","B","B","B","B","B","B","B","B","B","B","B","B","B","B","B","B","B","B","B","B","B","B","B","B","B","B","B","B","B","B","B","B","B","B","B","B","B","B","B","B","B","B","B","B","B","B","B","B","B","B","B","B","B","B","B","B","B","B","B","B","B","B","B","B","B","B","B","B","B","B","B","B","B","B","B","B","B","B","B","B","B","B","B","B","B","B","B","B","B","B","B","B","B","B","B","B","B","B","B","B","B","B","B","B","B","B","B","B","B","B","B","B","B","B","B","B","B","B","B","B","B","B","B","B","B","B","B","B","B","B","B","B","B","B","B","B","B","B","B","B","B","B","B","B","B","B","B","B","B","B","B","B","B","B","B","B","B","B","B","B","B","B","B","B","B","B","B","B","B","B","B","B","B","B","B","B","B","B","B","B","B","B","B","B","B","B","B","B","B","B","B","B","B","B","B","B","B","B","B","B","B","B","B","B","B","B","B","?","?","C","?","M","M","?","?","?","?","?","?","?","?","?","?","?","?","?","?","?","?","?","?","?","U","U","?","?","T","T","T","T","T","T","T","?","?","?","?","?","?","?","?","?","?","?","?","?","?","?","?","?","?","?","?","?","?","?","?","M","N","?","?","X","X","X","X","X","X","?","?","?","?","Y","Y","Y","Y","Y","Y","Y","Y","Y","Y","Y","Y","?","?","?","?","?","?","?","?","?","?","?","?","?","?","?","Z","Z","Z","Z","Z","Z","Z","Z","Z","Z","Z","Z","Z","Z","Z","Z","Z","Z","Z","Z","Z","Z","Z","Z","Z","Z","Z","Z","Z","Z","Z","Z","Z","Z","Z","Z","Z","Z","Z","Z","Z","Z","Z","Z","Z","Z","Z","Z","Z","Z","Z","Z","Z","Z","Z","Z","Z","Z","Z","Z","Z","Z","Z","Z","Z","Z","Z","Z","Z","Z","?","?","?","?","E","E","E","E","E","E","E","?","?","?","D","D","D","?","C","C","C","C","C","C","C","C","?","?","?","?","?","E","E","E","E","E","E","?","?","?","F","F","F","F","F","F","F","F","?","?","E","E","E","E","E","E","E","E","E","E","E","E","E","E","E","E","E","E","E","E","E","E","E","E","E","E","E","E","E","E","E","E","E","E","E","E","E","E","E","E","E","E","E","E","E","E","E","E","E","E","E","E","E","E","E","E","E","E","E","E","E","E","E","E","E","E","E","E","E","E","E","E","E","E","E","E","E","E","E","E","E","E","E","E","E","E","E","E","E","E","E","E","E","E","E","E","E","E","E","E","E","E","E","E","E","E","E","E","E","E","E","E","E","E","E","E","E","E","E","E","E","E","E","E","E","E","E","E","E","E","E","E","E","E","E","E","E","E","E","E","E","E","E","E","E","E","E","E","E","E","E","E","E","E","E","E","E"],"t":[54,65,97,120,136,153,170,186,203,222,237,252,272,285,307,325,342,358,376,391,408,425,441,458,475,492,511,525,541,557,573,591,608,625,641,657,676,691,707,724,741,759,779,793,808,824,841,859,874,890,907,924,940,957,975,992,1010,1025,1040,1058,1073,1091,1107,1125,1142,1160,1175,1192,1207,1227,1241,1259,1278,1293,1308,1325,1340,1357,1375,1391,1408,1425,1441,1457,1474,1491,1510,1527,1541,1558,1573,1594,1609,1624,1640,1657,1675,1691,1708,1724,1740,1762,1778,1793,1808,1825,1841,1858,1874,1890,1908,1925,1940,1957,1975,1990,2009,2041,2054,2064,2088,2103,2118,2137,2154,2169,2185,2201,2222,2235,2252,2271,2287,2302,2320,2334,2352,2369,2387,2401,2418,2435,2451,2470,2485,2501,2519,2537,2554,2568,2585,2601,2620,2636,2652,2669,2687,2701,2718,2735,2752,2770,2788,2803,2818,2835,2852,2869,2884,2904,2922,2934,2952,2970,2985,3003,3021,3039,3055,3071,3085,3101,3122,3136,3151,3168,3186,3204,3219,3235,3252,3270,3287,3303,3319,3335,3353,3368,3384,3402,3421,3436,3452,3469,3485,3503,3528,3543,3559,3585,3603,3618,3636,3651,3668,3685,3702,3718,3735,3751,3770,3786,3802,3820,3834,3851,3868,3885,3901,3919,3934,3953,3968,3984,4001,4021,4037,4055,4068,4086,4104,4118,4135,4152,4167,4186,4203,4219,4235,4254,4268,4287,4303,4319,4336,4352,4369,4384,4402,4418,4434,4451,4469,4484,4501,4521,4537,4553,4568,4585,4601,4619,4641,4655,4669,4688,4704,4719,4736,4752,4769,4786,4802,4819,4835,4853,4869,4885,4903,4919,4935,4952,4968,4985,5004,5019,5040,5058,5072,5085,5102,5118,5137,5154,5168,5186,5202,5219,5235,5251,5269,5287,5302,5319,5335,5352,5371,5385,5403,5420,5436,5453,5468,5485,5504,5519,5535,5553,5568,5585,5601,5617,5635,5652,5669,5685,5703,5718,5736,5753,5767,5785,5804,5822,5835,5851,5868,5885,5901,5918,5934,5951,5969,5984,6001,6018,6036,6053,6069,6084,6103,6117,6134,6151,6169,6186,6203,6218,6235,6253,6267,6286,6302,6318,6336,6351,6368,6384,6402,6418,6434,6451,6469,6485,6502,6519,6536,6557,6574,6587,6602,6618,6635,6651,6667,6684,6704,6718,6735,6753,6768,6786,6802,6819,6835,6852,6867,6884,6901,6919,6935,6951,6967,6984,7003,7019,7034,7053,7070,7084,7101,7117,7134,7152,7167,7185,7201,7218,7235,7252,7267,7286,7302,7319,7335,7352,7368,7384,7401,7419,7436,7451,7467,7484,7503,7518,7534,7554,7568,7584,7601,7618,7636,7654,7668,7685,7704,7719,7736,7752,7767,7785,7804,7818,7834,7852,7868,7884,7901,7918,7934,7953,7968,7984,8000,8019,8035,8054,8072,8088,8104,8118,8134,8151,8168,8184,8201,8218,8236,8253,8268,8285,8303,8321,8338,8354,8368,8384,8403,8418,8435,8450,8469,8484,8501,8517,8535,8551,8569,8587,8604,8620,8634,8651,8667,8684,8702,8718,8735,8753,8769,8785,8802,8818,8837,8854,8867,8884,8900,8918,8935,8951,8967,8985,9003,9018,9034,9051,9069,9084,9103,9118,9135,9153,9167,9184,9201,9219,9234,9252,9267,9285,9302,9318,9336,9353,9369,9385,9400,9418,9436,9451,9468,9484,9502,9519,9535,9552,9568,9586,9604,9618,9634,9652,9668,9683,9701,9717,9735,9751,9767,9785,9801,9818,9836,9852,9868,9885,9901,9917,9934,9952,9967,9984,10001,10018,10036,10051,10069,10085,10105,10119,10134,10151,10167,10184,10201,10218,10234,10252,10268,10285,10302,10317,10336,10353,10367,10384,10402,10419,10434,10451,10467,10485,10501,10517,10534,10551,10569,10584,10602,10617,10634,10652,10667,10684,10703,10719,10734,10751,10768,10786,10802,10817,10836,10854,10876,10889,10902,10918,10937,10953,10971,10988,11005,11026,11041,11055,11072,11091,11107,11122,11137,11154,11171,11186,11204,11221,11236,11254,11270,11285,11303,11321,11341,11356,11370,11387,11404,11419,11436,11453,11471,11486,11503,11520,11537,11554,11570,11585,11602,11619,11634,11650,11668,11684,11703,11719,11734,11753,11770,11787,11802,11819,11836,11852,11869,11885,11901,11918,11934,11951,11967,11985,12001,12017,12034,12052,12068,12085,12101,12119,12136,12152,12170,12185,12203,12220,12235,12257,12271,12286,12303,12320,12338,12354,12371,12385,12401,12420,12437,12454,12468,12487,12503,12519,12535,12553,12571,12588,12604,12623,12636,12651,12668,12686,12703,12720,12736,12752,12770,12786,12804,12818,12836,12854,12871,12887,12902,12918,12935,12953,12969,12986,13002,13019,13036,13053,13070,13085,13103,13121,13136,13150,13170,13185,13202,13218,13235,13253,13268,13286,13304,13322,13335,13354,13369,13387,13404,13418,13436,13452,13469,13486,13502,13518,13536,13553,13569,13585,13602,13620,13635,13652,13668,13686,13704,13721,13737,13753,13770,13785,13804,13818,13836,13853,13869,13891,13906,13921,13935,13952,13968,13987,14002,14018,14034,14052,14071,14085,14102,14120,14135,14152,14167,14184,14202,14219,14234,14252,14268,14285,14303,14318,14334,14353,14369,14386,14402,14417,14435,14451,14467,14484,14503,14518,14534,14551,14569,14585,14602,14620,14635,14653,14668,14684,14701,14717,14735,14752,14767,14784,14803,14817,14834,14852,14873,14884,14901,14917,14935,14953,14967,14985,15002,15018,15035,15053,15068,15087,15102,15119,15136,15152,15168,15185,15202,15218,15234,15251,15268,15286,15302,15318,15335,15359,15373,15388,15403,15418,15435,15454,15469,15487,15504,15520,15537,15554,15569,15587,15604,15620,15637,15654,15671,15687,15703,15721,15737,15752,15769,15785,15802,15819,15835,15852,15868,15885,15903,15918,15935,15952,15968,15987,16001,16017,16037,16053,16069,16086,16103,16121,16136,16153,16173,16188,16204,16219,16235,16252,16271,16286,16302,16319,16336,16354,16370,16385,16403,16420,16436,16454,16469,16487,16504,16519,16537,16554,16570,16587,16603,16619,16637,16653,16669,16686,16704,16721,16736,16752,16768,16789,16803,16823,16838,16852,16869,16885,16903,16919,16936,16954,16968,16986,17002,17019,17038,17053,17071,17089,17106,17122,17137,17156,17172,17187,17203,17220,17241,17267,17283,17301,17319,17335,17351,17367,17385,17401,17417,17433,17453,17469,17485,17501,17518,17535,17551,17567,17584,17601,17616,17634,17650,17669,17684,17701,17720,17736,17751,17768,17783,17801,17818,17834,17851,17867,17885,17902,17918,17933,17951,17969,17984,18002,18019,18034,18051,18069,18085,18104,18118,18135,18150,18169,18183,18200,18219,18235,18252,18268,18284,18302,18322,18339,18351,18368,18385,18401,18418,18433,18451,18469,18484,18501,18518,18535,18551,18567,18585,18601,18616,18634,18650,18668,18683,18700,18719,18734,18751,18767,18783,18800,18818,18833,18850,18867,18884,18901,18917,18933,18951,18968,18984,19000,19017,19034,19050,19067,19084,19101,19117,19134,19150,19169,19184,19200,19218,19235,19252,19268,19284,19300,19318,19333,19350,19367,19384,19401,19417,19433,19450,19468,19485,19500,19516,19535,19551,19567,19584,19601,19616,19634,19650,19667,19685,19700,19718,19736,19752,19768,19784,19801,19817,19834,19850,19867,19883,19902,19916,19933,19951,19968,19985,20000,20017,20034,20050,20067,20084,20101,20117,20134,20150,20167,20185,20200,20216,20234,20252,20268,20283,20300,20317,20334,20350,20367,20383,20402,20417,20433,20450,20468,20485,20500,20517,20533,20551,20567,20584,20601,20617,20634,20650,20666,20685,20701,20716,20735,20750,20768,20783,20800,20817,20834,20850,20867,20883,20901,20917,20933,20951,20967,20985,21002,21017,21033,21051,21067,21083,21100,21118,21134,21150,21167,21184,21201,21217,21234,21252,21269,21285,21301,21317,21333,21350,21367,21383,21400,21417,21433,21451,21467,21485,21502,21516,21533,21551,21567,21583,21600,21617,21634,21650,21666,21684,21701,21716,21734,21750,21767,21784,21800,21818,21833,21850,21867,21883,21900,21918,21933,21949,21967,21986,22003,22016,22033,22051,22068,22083,22100,22117,22135,22150,22166,22184,22200,22218,22235,22250,22266,22284,22300,22317,22333,22351,22367,22383,22400,22417,22434,22450,22466,22485,22503,22517,22533,22550,22566,22585,22600,22616,22634,22652,22666,22684,22700,22717,22736,22752,22767,22785,22801,22817,22833,22850,22868,22883,22900,22917,22934,22950,22966,22984,23001,23020,23035,23051,23066,23083,23100,23117,23133,23150,23166,23185,23200,23216,23235,23255,23271,23286,23300,23316,23333,23351,23367,23383,23399,23417,23433,23450,23468,23485,23502,23518,23533,23551,23567,23583,23600,23616,23634,23650,23666,23684,23701,23717,23735,23751,23767,23784,23800,23816,23834,23852,23869,23884,23900,23917,23934,23950,23967,23984,24001,24018,24033,24050,24066,24084,24100,24117,24133,24152,24166,24184,24200,24217,24237,24253,24267,24291,24318,24333,24350,24366,24384,24400,24416,24433,24450,24467,24483,24500,24517,24534,24550,24567,24583,24600,24618,24633,24650,24666,24685,24701,24716,24734,24750,24768,24784,24799,24816,24835,24850,24866,24883,24901,24918,24933,24950,24967,24984,25000,25018,25034,25051,25067,25084,25101,25118,25134,25150,25166,25183,25201,25216,25234,25250,25267,25286,25300,25316,25334,25350,25366,25383,25399,25418,25433,25450,25467,25486,25500,25517,25534,25551,25568,25583,25600,25616,25634,25650,25666,25683,25701,25718,25733,25759,25773,25786,25801,25816,25833,25849,25867,25883,25899,25917,25935,25950,25967,25984,26001,26018,26034,26050,26067,26084,26100,26116,26133,26151,26166,26183,26200,26216,26234,26250,26267,26284,26300,26316,26333,26350,26366,26385,26400,26416,26433,26451,26467,26483,26499,26518,26534,26552,26567,26584,26600,26616,26633,26650,26667,26683,26700,26717,26735,26750,26766,26784,26801,26817,26834,26849,26866,26884,26900,26916,26933,26951,26967,26983,26999,27018,27035,27051,27067,27083,27101,27117,27133,27150,27167,27183,27200,27225,27237,27251,27267,27283,27301,27317,27334,27350,27366,27384,27399,27416,27433,27451,27467,27483,27499,27517,27538,27551,27567,27583,27599,27617,27633,27651,27666,27684,27701,27716,27733,27750,27767,27783,27800,27816,27835,27850,27866,27883,27900,27917,27934,27949,27966,27984,28000,28017,28034,28051,28069,28084,28100,28117,28135,28151,28167,28183,28200,28219,28233,28250,28266,28284,28301,28316,28334,28350,28366,28384,28399,28417,28434,28449,28466,28484,28500,28517,28534,28553,28567,28583,28599,28616,28635,28650,28666,28691,28706,28721,28735,28752,28767,28784,28803,28820,28834,28850,28867,28885,28900,28916,28933,28950,28966,28984,28999,29017,29034,29051,29067,29084,29100,29116,29133,29149,29167,29183,29200,29216,29234,29250,29267,29284,29302,29317,29333,29350,29366,29384,29400,29416,29433,29450,29467,29483,29499,29517,29536,29552,29569,29583,29600,29617,29633,29649,29667,29684,29700,29716,29733,29752,29766,29783,29804,29819,29833,29850,29867,29884,29900,29916,29933,29949,29966,29983,30000,30016,30037,30051,30068,30083,30099,30117,30133,30156,30170,30185,30200,30217,30234,30251,30268,30283,30302,30316,30335,30349,30366,30384,30401,30417,30433,30450,30466,30484,30499,30516,30533,30552,30567,30583,30599,30616,30634,30649,30666,30683,30701,30716,30733,30751,30767,30784,30802,30816,30832,30851,30866,30883,30899,30916,30935,30950,30966,30984,31000,31016,31033,31051,31067,31084,31099,31116,31133,31150,31166,31183,31199,31217,31233,31250,31266,31284,31302,31318,31332,31350,31367,31383,31399,31416,31435,31449,31466,31483,31500,31516,31533,31550,31566,31584,31599,31623,31637,31650,31666,31683,31699,31717,31733,31749,31766,31783,31802,31818,31833,31850,31867,31883,31899,31916,31934,31950,31966,31983,31999,32016,32033,32051,32066,32085,32100,32116,32133,32150,32168,32183,32199,32217,32235,32249,32266,32283,32301,32317,32334,32350,32366,32384,32400,32416,32434,32450,32466,32483,32499,32516,32534,32551,32566,32583,32599,32616,32633,32649,32667,32684,32699,32716,32733,32751,32767,32783,32802,32818,32834,32850,32866,32883,32900,32916,32933,32950,32966,32985,33000,33016,33033,33054,33068,33086,33106,33121,33134,33149,33167,33184,33200,33218,33233,33249,33266,33284,33300,33316,33333,33350,33366,33382,33400,33417,33434,33449,33466,33483,33501,33516,33533,33550,33569,33585,33599,33616,33633,33650,33666,33683,33699,33717,33733,33749,33766,33783,33800,33817,33833,33850,33868,33882,33900,33916,33934,33950,33966,33983,33999,34016,34033,34049,34067,34084,34101,34116,34133,34149,34167,34183,34199,34217,34235,34250,34267,34285,34301,34320,34334,34349,34368,34386,34403,34417,34435,34451,34468,34484,34501,34517,34535,34555,34602,34619,34635,34651,34667,34684,34699,34717,34733,34749,34767,34784,34799,34817,34834,34851,34867,34883,34900,34916,34934,34949,34966,34982,34999,35016,35034,35050,35067,35086,35101,35116,35133,35149,35166,35183,35199,35215,35233,35249,35267,35283,35299,35319,35335,35349,35366,35384,35400,35416,35432,35451,35467,35482,35500,35516,35534,35550,35566,35584,35600,35615,35633,35649,35666,35684,35699,35716,35733,35749,35766,35783,35799,35817,35834,35849,35866,35884,35902,35916,35932,35950,35966,35983,35999,36016,36034,36052,36067,36084,36102,36117,36133,36149,36165,36185,36199,36216,36233,36250,36267,36283,36299,36317,36334,36350,36366,36384,36399,36417,36433,36450,36466,36484,36501,36517,36533,36550,36567,36585,36600,36615,36634,36649,36665,36683,36700,36716,36733,36749,36765,36783,36799,36816,36833,36849,36867,36882,36899,36916,36934,36949,36966,36983,37000,37015,37032,37049,37067,37084,37099,37115,37133,37150,37166,37183,37199,37218,37234,37249,37265,37284,37299,37316,37334,37349,37367,37382,37399,37416,37433,37450,37465,37482,37500,37518,37534,37550,37565,37585,37601,37616,37633,37650,37666,37683,37699,37717,37735,37749,37766,37784,37801,37816,37835,37850,37867,37883,37899,37916,37933,37949,37966,37982,37999,38016,38032,38050,38065,38083,38101,38117,38132,38149,38166,38183,38199,38216,38234,38251,38266,38284,38301,38317,38334,38350,38366,38383,38400,38416,38432,38449,38466,38482,38500,38516,38533,38549,38566,38583,38602,38618,38634,38649,38666,38683,38699,38715,38733,38749,38766,38783,38799,38815,38836,38851,38866,38882,38899,38916,38932,38949,38966,38992,39004,39016,39032,39049,39066,39083,39100,39116,39132,39150,39165,39184,39199,39218,39233,39249,39265,39284,39300,39316,39334,39350,39367,39384,39400,39417,39434,39451,39467,39483,39500,39516,39533,39550,39566,39583,39601,39616,39633,39649,39666,39685,39699,39716,39733,39749,39767,39783,39799,39815,39833,39850,39867,39883,39899,39916,39932,39948,39966,39983,39998,40015,40032,40050,40065,40082,40101,40116,40133,40149,40165,40184,40201,40216,40233,40249,40266,40283,40299,40315,40333,40351,40367,40384,40399,40417,40434,40450,40467,40485,40499,40516,40532,40549,40567,40583,40602,40616,40633,40650,40666,40682,40699,40716,40733,40749,40766,40784,40799,40815,40833,40850,40866,40885,40899,40916,40933,40950,40966,40983,40998,41017,41032,41049,41066,41084,41101,41115,41132,41149,41166,41182,41199,41215,41235,41249,41265,41283,41299,41316,41333,41350,41366,41383,41400,41416,41433,41450,41467,41483,41499,41516,41534,41549,41566,41583,41601,41616,41633,41650,41665,41683,41699,41716,41733,41749,41766,41784,41800,41816,41835,41850,41866,41883,41900,41918,41935,41949,41966,41984,41999,42016,42033,42051,42067,42083,42100,42118,42133,42150,42166,42183,42200,42217,42233,42249,42266,42284,42299,42315,42333,42350,42366,42383,42399,42415,42433,42449,42466,42482,42499,42516,42532,42549,42566,42583,42599,42618,42633,42650,42667,42683,42700,42717,42735,42749,42766,42783,42799,42815,42833,42849,42866,42883,42899,42915,42934,42949,42968,42984,42999,43017,43034,43049,43066,43082,43100,43117,43134,43150,43166,43185,43200,43216,43232,43250,43265,43282,43300,43316,43335,43349,43366,43386,43402,43417,43435,43449,43466,43483,43499,43516,43532,43549,43566,43583,43600,43620,43634,43651,43667,43684,43702,43717,43732,43750,43767,43783,43801,43817,43835,43851,43866,43884,43900,43917,43933,43949,43965,43983,44000,44017,44033,44049,44067,44084,44099,44117,44135,44151,44166,44182,44200,44215,44233,44250,44266,44283,44301,44316,44334,44350,44366,44384,44401,44416,44432,44450,44465,44483,44499,44517,44533,44549,44566,44583,44599,44616,44634,44650,44667,44683,44701,44716,44734,44752,44766,44783,44800,44816,44833,44849,44869,44886,44902,44917,44939,44956,44983,45000,45018,45034,45052,45067,45084,45099,45117,45133,45150,45167,45183,45202,45217,45233,45250,45267,45284,45300,45316,45332,45350,45366,45386,45400,45418,45435,45450,45467,45483,45500,45515,45533,45550,45566,45584,45599,45616,45634,45658,45683,45700,45716,45733,45750,45767,45783,45800,45818,45833,45849,45866,45883,45902,45917,45933,45949,45966,45984,46001,46016,46033,46051,46067,46083,46099,46116,46134,46151,46166,46182,46201,46216,46233,46249,46266,46284,46300,46316,46332,46351,46365,46384,46402,46422,46439,46465,46482,46498,46515,46532,46548,46567,46583,46599,46615,46632,46650,46667,46683,46698,46716,46732,46750,46766,46784,46800,46816,46832,46849,46867,46883,46902,46917,46934,46950,46965,46983,46999,47016,47033,47048,47066,47084,47099,47116,47134,47149,47167,47183,47199,47216,47233,47249,47266,47283,47300,47317,47332,47350,47366,47385,47401,47416,47433,47451,47467,47483,47499,47516,47534,47549,47565,47583,47600,47617,47633,47651,47668,47684,47699,47717,47733,47750,47766,47782,47799,47816,47833,47850,47866,47883,47901,47922,47936,47950,47965,47983,48000,48015,48033,48049,48066,48083,48099,48116,48135,48150,48166,48183,48199,48217,48233,48248,48266,48283,48300,48316,48332,48349,48366,48383,48400,48415,48434,48449,48466,48483,48500,48516,48533,48549,48565,48586,48598,48615,48634,48650,48667,48683,48699,48716,48734,48749,48766,48782,48800,48817,48833,48849,48866,48884,48900,48917,48932,48950,48966,48983,48999,49015,49034,49049,49066,49084,49099,49116,49135,49150,49166,49183,49199,49216,49233,49249,49266,49282,49298,49316,49332,49357,49382,49398,49415,49432,49448,49465,49481,49498,49514,49531,49548,49565,49581,49598,49615,49631,49648,49665,49682,49698,49715,49731,49748,49765,49781,49798,49814,49831,49848,49865,49883,49899,49917,49933,49949,49966,49985,50001,50018,50035,50052,50068,50085,50101,50117,50135,50152,50169,50184,50202,50218,50236,50251,50267,50285,50301,50317,50332,50351,50367,50384,50401,50418,50437,50452,50467,50483,50501,50517,50535,50555,50568,50586,50601,50616,50636,50652,50668,50686,50701,50718,50735,50750,50769,50785,50802,50825,50837,50850,50869,50885,50900,50917,50933,50950,50966,50985,51002,51019,51034,51049,51065,51084,51100,51115,51132,51149,51166,51184,51199,51216,51233,51250,51266,51283,51299,51316,51333,51348,51365,51384,51400,51417,51436,51451,51467,51483,51500,51515,51536,51550,51566,51584,51600,51616,51633,51649,51666,51685,51699,51715,51734,51751,51769,51786,51800,51818,51835,51850,51868,51883,51900,51921,51935,51953,51970,51985,52000,52016,52034,52051,52068,52085,52101,52118,52135,52150,52166,52185,52200,52217,52234,52255,52269,52293,52307,52319,52334,52350,52368,52385,52399,52416,52435,52452,52466,52483,52502,52517,52533,52550,52566,52585,52599,52615,52633,52649,52666,52684,52700,52717,52734,52749,52765,52783,52799,52816,52833,52849,52867,52882,52899,52916,52933,52953,52966,52982,52999,53018,53032,53049,53065,53084,53101,53115,53133,53150,53166,53185,53199,53215,53233,53248,53266,53282,53300,53317,53332,53348,53366,53384,53398,53416,53434,53451,53467,53483,53499,53516,53534,53549,53565,53582,53599,53615,53633,53650,53666,53684,53700,53715,53743,53754,53765,53783,53799,53816,53833,53849,53866,53883,53900,53916,53934,53950,53965,53984,54001,54016,54033,54050,54066,54082,54099,54116,54133,54149,54165,54184,54200,54215,54234,54249,54265,54282,54298,54316,54333,54348,54366,54383,54399,54417,54435,54449,54466,54484,54500,54515,54532,54550,54565,54582,54599,54616,54633,54649,54665,54684,54702,54716,54733,54749,54765,54785,54798,54815,54833,54851,54868,54883,54899,54918,54934,54950,54967,54982,55000,55016,55032,55049,55068,55084,55107,55117,55135,55151,55172,55192,55215,55233,55250,55266,55283,55301,55315,55333,55349,55367,55385,55400,55418,55434,55452,55467,55484,55500,55517,55535,55552,55567,55584,55600,55617,55633,55650,55666,55684,55704,55717,55734,55750,55766,55784,55800,55817,55834,55850,55866,55884,55900,55917,55934,55950,55968,55985,55999,56017,56033,56051,56067,56082,56102,56119,56134,56151,56167,56185,56202,56217,56235,56252,56268,56286,56301,56317,56335,56351,56367,56385,56401,56418,56433,56450,56468,56485,56500,56516,56535,56550,56568,56583,56600,56621,56636,56651,56668,56684,56702,56718,56735,56750,56767,56784,56800,56816,56833,56849,56867,56883,56899,56916,56939,56952,56967,56982,56999,57016,57034,57049,57065,57083,57101,57115,57132,57149,57166,57183,57201,57216,57234,57250,57265,57283,57299,57316,57333,57348,57365,57384,57398,57416,57433,57452,57469,57482,57499,57516,57533,57549,57565,57582,57599,57616,57632,57649,57665,57685,57700,57718,57733,57750,57766,57783,57798,57815,57834,57849,57865,57883,57899,57918,57933,57951,57967,57984,57998,58016,58033,58049,58070,58087,58100,58115,58134,58150,58165,58182,58201,58218,58233,58249,58266,58285,58299,58315,58333,58349,58366,58383,58398,58415,58435,58450,58466,58482,58500,58516,58532,58548,58566,58585,58599,58616,58634,58650,58666,58682,58700,58720,58733,58749,58765,58784,58800,58816,58833,58848,58867,58884,58898,58915,58932,58951,58967,58982,58999,59018,59034,59050,59067,59084,59101,59118,59133,59153,59168,59184,59202,59217,59236,59251,59267,59284,59300,59316,59333,59348,59365,59383,59399,59415,59433,59450,59467,59485,59500,59517,59535,59554,59581,59598,59615,59631,59648,59664,59681,59698,59715,59731,59748,59765,59781,59797,59815,59831,59848,59864,59881,59898,59915,59933,59950,59966,59984,60000,60016,60032,60048,60067,60082,60098,60116,60133,60150,60166,60183,60201,60218,60234,60249,60265,60283,60300,60315,60333,60349,60366,60383,60399,60415,60433,60450,60466,60483,60499,60517,60532,60549,60567,60584,60600,60616,60633,60649,60668,60683,60700,60716,60733,60750,60766,60781,60798,60816,60831,60849,60867,60884,60900,60915,60932,60949,60966,60984,61005,61020,61034,61049,61065,61082,61098,61116,61132,61148,61165,61183,61199,61216,61233,61249,61266,61282,61299,61314,61332,61348,61364,61382,61400,61416,61433,61449,61466,61483,61499,61514,61532,61548,61566,61582,61598,61615,61632,61648,61665,61682,61698,61717,61733,61750,61765,61783,61798,61815,61832,61850,61866,61882,61899,61915,61934,61949,61966,61984,61999,62016,62033,62048,62066,62083,62098,62115,62132,62150,62165,62183,62198,62217,62233,62251,62265,62282,62299,62315,62331,62348,62365,62384,62398,62422,62438,62454,62466,62484,62498,62514,62533,62548,62564,62582,62598,62616,62633,62648,62665,62683,62698,62716,62733,62749,62766,62781,62799,62815,62831,62850,62865,62882,62900,62917,62933,62949,62965,62983,63001,63015,63032,63048,63065,63082,63099,63115,63133,63148,63166,63183,63198,63217,63235,63250,63266,63284,63298,63315,63331,63349,63366,63381,63398,63414,63433,63448,63465,63483,63500,63515,63532,63548,63564,63583,63598,63615,63633,63648,63665,63683,63698,63716,63734,63750,63765,63782,63799,63817,63831,63849,63866,63884,63898,63915,63932,63948,63966,63985,63999,64015,64033,64048,64064,64082,64098,64116,64131,64147,64165,64183,64198,64216,64234,64250,64266,64282,64298,64315,64333,64348,64365,64382,64398,64416,64432,64449,64465,64483,64500,64516,64532,64550,64566,64585,64600,64617,64634,64649,64667,64683,64699,64718,64734,64749,64767,64785,64800,64816,64831,64848,64867,64883,64900,64916,64934,64951,64967,64984,65001,65019,65035,65052,65066,65085,65101,65115,65133,65148,65165,65182,65198,65215,65233,65249,65266,65282,65298,65319,65336,65350,65366,65386,65400,65417,65433,65449,65465,65485,65505,65519,65534,65550,65566,65584,65599,65616,65633,65648,65665,65682,65700,65717,65732,65749,65767,65783,65799,65817,65832,65852,65868,65882,65899,65917,65934,65950,65965,65985,66000,66016,66032,66048,66065,66084,66098,66114,66136,66152,66166,66182,66201,66219,66236,66251,66265,66285,66301,66317,66332,66349,66365,66383,66397,66415,66431,66448,66465,66482,66499,66516,66534,66548,66564,66582,66600,66614,66635,66649,66665,66682,66698,66715,66733,66757,66772,66798,66814,66831,66847,66864,66880,66897,66914,66931,66947,66965,66981,66998,67014,67031,67048,67064,67080,67097,67114,67131,67147,67164,67181,67198,67214,67231,67247,67264,67283,67297,67314,67330,67347,67364,67381,67397,67414,67432,67447,67464,67481,67498,67515,67531,67547,67564,67581,67597,67614,67630,67648,67664,67681,67697,67714,67731,67747,67764,67781,67798,67815,67831,67847,67864,67882,67900,67916,67933,67950,67966,67983,68000,68017,68035,68052,68064,68081,68098,68116,68132,68154,68171,68189,68214,68230,68247,68265,68284,68299,68315,68332,68348,68365,68381,68400,68417,68434,68449,68466,68484,68500,68517,68534,68550,68565,68582,68598,68617,68633,68648,68664,68681,68697,68715,68731,68748,68766,68784,68799,68817,68832,68849,68867,68882,68898,68916,68933,68950,68965,68982,69000,69017,69032,69049,69065,69083,69099,69115,69133,69149,69166,69182,69199,69215,69234,69250,69265,69282,69301,69318,69332,69350,69367,69382,69398,69415,69431,69448,69465,69481,69498,69517,69535,69549,69564,69582,69599,69617,69631,69648,69664,69682,69699,69714,69731,69749,69766,69783,69798,69815,69833,69848,69865,69882,69899,69915,69932,69950,69966,69984,69999,70016,70033,70050,70067,70081,70098,70115,70133,70148,70165,70183,70199,70215,70233,70248,70265,70284,70298,70316,70334,70349,70367,70384,70399,70418,70434,70448,70466,70485,70500,70516,70534,70550,70566,70582,70599,70616,70633,70649,70666,70682,70698,70716,70733,70750,70766,70786,70800,70817,70833,70849,70867,70885,70899,70916,70933,70949,70966,70984,71005,71019,71034,71052,71066,71083,71101,71115,71132,71151,71166,71183,71199,71217,71235,71250,71265,71284,71299,71314,71333,71349,71367,71385,71399,71417,71435,71451,71467,71483,71499,71516,71535,71549,71566,71582,71600,71616,71632,71649,71667,71682,71699,71715,71733,71751,71767,71784,71798,71817,71833,71849,71865,71884,71900,71917,71932,71949,71966,71983,71999,72015,72035,72052,72067,72082,72099,72115,72131,72149,72164,72182,72199,72215,72231,72248,72264,72283,72299,72316,72334,72347,72365,72384,72401,72417,72432,72447,72464,72482,72498,72515,72532,72548,72565,72580,72598,72614,72635,72649,72665,72681,72698,72715,72731,72749,72764,72783,72800,72815,72832,72847,72865,72883,72897,72915,72933,72950,72965,72983,72998,73016,73032,73049,73066,73082,73101,73116,73131,73148,73166,73181,73199,73214,73232,73249,73264,73283,73299,73322,73338,73354,73369,73385,73403,73420,73436,73451,73470,73486,73502,73517,73538,73554,73570,73586,73599,73616,73634,73649,73665,73681,73700,73717,73734,73750,73768,73785,73816,73833,73847,73868,73884,73900,73918,73933,73948,73966,73983,74001,74017,74034,74050,74067,74084,74102,74118,74136,74150,74167,74186,74202,74219,74236,74251,74268,74283,74300,74317,74334,74352,74367,74384,74400,74419,74435,74451,74467,74484,74501,74517,74534,74549,74567,74585,74600,74617,74633,74652,74669,74685,74701,74717,74735,74750,74767,74783,74801,74817,74835,74850,74865,74882,74900,74915,74932,74949,74965,74981,74998,75015,75033,75048,75065,75084,75100,75117,75134,75153,75173,75190,75202,75219,75233,75251,75267,75284,75301,75317,75335,75351,75367,75384,75399,75415,75435,75450,75466,75484,75500,75517,75533,75548,75567,75584,75598,75617,75632,75651,75667,75682,75699,75716,75733,75749,75765,75782,75799,75816,75833,75849,75868,75883,75899,75915,75933,75949,75965,75983,76000,76018,76034,76049,76066,76084,76101,76115,76133,76148,76167,76182,76200,76215,76235,76248,76266,76282,76299,76315,76331,76349,76366,76382,76400,76415,76432,76451,76467,76483,76500,76516,76539,76552,76566,76583,76599,76615,76632,76649,76667,76682,76698,76716,76731,76748,76764,76783,76797,76814,76830,76848,76864,76881,76897,76915,76934,76949,76964,76982,76998,77014,77031,77047,77065,77081,77097,77114,77132,77147,77165,77181,77198,77216,77230,77248,77264,77283,77298,77314,77330,77348,77364,77381,77397,77415,77434,77448,77464,77482,77498,77514,77532,77548,77565,77583,77598,77615,77633,77651,77667,77683,77699,77716,77732,77748,77765,77781,77798,77814,77830,77847,77864,77882,77898,77916,77934,77950,77965,77981,77997,78015,78033,78047,78065,78082,78098,78115,78131,78147,78165,78181,78202,78214,78230,78248,78264,78280,78297,78315,78331,78347,78364,78383,78397,78414,78432,78448,78464,78481,78497,78513,78532,78547,78564,78581,78598,78614,78631,78647,78664,78681,78698,78715,78730,78747,78763,78780,78797,78815,78830,78848,78864,78882,78897,78914,78933,78948,78964,78982,78997,79014,79031,79047,79063,79081,79099,79114,79130,79147,79166,79181,79201,79215,79231,79248,79264,79281,79307,79330,79346,79363,79380,79397,79413,79430,79447,79464,79480,79496,79513,79530,79547,79563,79580,79597,79613,79631,79646,79663,79681,79697,79713,79730,79747,79763,79780,79796,79813,79830,79846,79863,79880,79897,79913,79930,79947,79964,79980,79997,80013,80030,80047,80063,80080,80096,80113,80130,80146,80163,80180,80197,80214,80230,80246,80263,80280,80296,80313,80330,80347,80363,80380,80397,80413,80430,80447,80464,80482,80497,80513,80530,80549,80565,80581,80597,80614,80632,80647,80665,80683,80701,80715,80731,80746,80765,80780,80797,80814,80831,80848,80864,80881,80897,80916,80930,80948,80965,80980,80997,81013,81030,81046,81065,81080,81098,81114,81131,81147,81163,81181,81198,81217,81231,81247,81266,81281,81296,81313,81332,81349,81364,81380,81398,81414,81431,81448,81467,81480,81498,81514,81531,81548,81565,81580,81598,81614,81633,81647,81664,81681,81698,81715,81732,81747,81763,81781,81796,81813,81830,81847,81864,81881,81897,81913,81933,81950,81966,81981,81998,82013,82032,82048,82066,82081,82096,82114,82130,82147,82164,82181,82197,82214,82233,82247,82264,82280,82298,82313,82331,82347,82365,82380,82398,82413,82431,82449,82465,82482,82498,82516,82531,82547,82564,82582,82597,82614,82631,82647,82663,82680,82697,82717,82733,82747,82763,82780,82797,82815,82830,82847,82865,82880,82897,82914,82931,82948,82965,82983,82997,83014,83030,83046,83063,83083,83097,83113,83130,83148,83164,83180,83197,83214,83231,83248,83264,83280,83297,83316,83332,83347,83365,83381,83397,83415,83432,83448,83466,83481,83498,83513,83531,83546,83563,83581,83598,83614,83630,83648,83664,83681,83697,83714,83732,83747,83764,83781,83797,83813,83831,83847,83863,83880,83899,83916,83930,83948,83966,83987,84000,84015,84031,84048,84064,84081,84097,84114,84132,84147,84163,84180,84198,84213,84232,84247,84265,84281,84297,84315,84331,84347,84364,84380,84397,84415,84430,84447,84464,84481,84498,84514,84530,84547,84565,84580,84598,84614,84630,84648,84664,84680,84697,84713,84731,84748,84763,84781,84798,84815,84834,84850,84864,84880,84896,84913,84933,84950,84964,84981,84999,85015,85030,85046,85063,85080,85098,85113,85130,85147,85164,85180,85197,85213,85232,85247,85264,85280,85296,85313,85331,85347,85364,85381,85398,85413,85430,85447,85464,85480,85497,85515,85531,85546,85564,85580,85597,85614,85630,85647,85663,85681,85698,85713,85732,85747,85763,85780,85797,85814,85834,85846,85863,85882,85897,85913,85930,85946,85964,85982,85998,86015,86030,86048,86064,86080,86096,86116,86130,86147,86163,86180,86198,86214,86233,86248,86267,86281,86297,86313,86331,86347,86363,86380,86397,86415,86431,86447,86463,86481,86499,86514,86530,86546,86565,86580,86597,86613,86630,86647,86663,86680,86698,86714,86730,86748,86763,86781,86796,86813,86830,86848,86864,86881,86897,86913,86932,86947,86964,86981,86997,87015,87030,87046,87064,87081,87097,87113,87130,87149,87163,87180,87197,87214,87234,87248,87263,87280,87297,87313,87330,87347,87363,87381,87397,87413,87430,87447,87464,87480,87497,87516,87531,87547,87564,87580,87598,87615,87632,87646,87664,87680,87696,87713,87730,87747,87764,87781,87797,87814,87829,87846,87864,87881,87897,87914,87931,87946,87966,87980,87997,88015,88030,88047,88063,88080,88098,88115,88131,88147,88163,88181,88196,88214,88231,88247,88265,88280,88296,88313,88329,88347,88364,88380,88396,88415,88430,88446,88464,88484,88497,88514,88530,88546,88563,88580,88597,88613,88631,88646,88663,88681,88697,88714,88730,88749,88766,88781,88797,88813,88830,88848,88863,88880,88896,88915,88931,88946,88963,88982,88997,89019,89033,89051,89066,89081,89097,89114,89130,89148,89164,89180,89197,89215,89233,89248,89264,89280,89296,89313,89331,89346,89365,89383,89397,89415,89432,89447,89464,89480,89498,89516,89532,89547,89564,89580,89598,89614,89630,89647,89664,89681,89697,89714,89730,89749,89764,89782,89797,89814,89831,89846,89863,89881,89897,89913,89930,89946,89965,89981,89997,90015,90032,90047,90064,90080,90096,90116,90130,90147,90164,90180,90197,90215,90230,90247,90264,90281,90298,90314,90333,90348,90364,90381,90399,90414,90430,90447,90463,90481,90497,90515,90531,90546,90565,90580,90596,90614,90630,90647,90665,90680,90697,90714,90730,90748,90765,90782,90796,90813,90830,90846,90864,90881,90896,90913,90932,90946,90963,90981,90998,91015,91030,91046,91064,91080,91097,91114,91130,91149,91164,91179,91196,91216,91231,91249,91265,91281,91296,91313,91329,91346,91365,91380,91397,91413,91431,91446,91463,91480,91498,91516,91531,91547,91564,91580,91596,91613,91630,91648,91665,91680,91697,91713,91730,91747,91764,91781,91797,91814,91832,91848,91864,91881,91896,91913,91930,91948,91964,91980,91997,92016,92031,92048,92064,92080,92096,92113,92131,92147,92166,92181,92197,92214,92232,92246,92265,92280,92297,92313,92330,92346,92363,92381,92396,92413,92430,92446,92464,92480,92496,92515,92532,92547,92564,92580,92596,92613,92629,92646,92663,92682,92696,92713,92730,92747,92763,92780,92797,92815,92829,92846,92863,92880,92897,92914,92930,92948,92964,92980,92996,93013,93031,93050,93064,93080,93096,93114,93129,93146,93164,93180,93199,93214,93230,93250,93264,93281,93297,93313,93329,93347,93363,93379,93397,93414,93430,93446,93463,93480,93505,93513,93531,93547,93563,93580,93596,93613,93632,93646,93663,93680,93696,93716,93730,93746,93763,93784,93798,93813,93829,93846,93864,93879,93896,93913,93931,93947,93963,93980,93996,94013,94031,94046,94063,94081,94097,94114,94131,94147,94166,94181,94196,94214,94233,94251,94275,94283,94296,94313,94331,94347,94363,94385,94400,94414,94432,94447,94465,94483,94498,94514,94530,94546,94564,94580,94596,94613,94631,94647,94663,94680,94697,94713,94729,94746,94764,94780,94796,94813,94830,94847,94863,94881,94896,94914,94930,94946,94964,94980,94997,95013,95030,95046,95064,95079,95096,95113,95130,95147,95163,95180,95196,95214,95230,95246,95263,95280,95297,95313,95330,95347,95364,95379,95396,95414,95433,95448,95463,95481,95498,95515,95531,95546,95564,95583,95599,95615,95632,95647,95667,95683,95702,95716,95732,95747,95763,95781,95797,95813,95829,95846,95864,95881,95896,95913,95930,95948,95963,95982,95997,96015,96034,96050,96065,96081,96101,96117,96133,96149,96167,96183,96196,96215,96235,96251,96270,96281,96305,96319,96333,96348,96365,96380,96397,96416,96433,96447,96463,96481,96498,96515,96531,96547,96564,96580,96597,96613,96632,96649,96664,96681,96698,96715,96731,96748,96764,96781,96797,96813,96831,96849,96865,96880,96897,96914,96932,96946,96963,96980,96997,97013,97030,97046,97064,97081,97097,97114,97130,97148,97163,97181,97197,97217,97234,97252,97269,97285,97298,97323,97333,97352,97365,97385,97402,97418,97447,97464,97480,97496,97514,97530,97548,97563,97581,97597,97614,97632,97647,97663,97679,97697,97714,97730,97745,97765,97780,97796,97814,97832,97847,97864,97879,97896,97914,97930,97947,97963,97980,97995,98013,98029,98046,98063,98082,98096,98114,98131,98146,98163,98179,98196,98214,98230,98246,98264,98281,98295,98313,98330,98346,98365,98380,98396,98413,98432,98446,98464,98479,98497,98513,98529,98546,98564,98582,98596,98614,98630,98647,98663,98679,98696,98715,98730,98746,98764,98781,98799,98815,98831,98847,98863,98880,98896,98913,98929,98948,98963,98979,98997,99015,99029,99046,99063,99081,99097,99114,99130,99146,99163,99179,99196,99213,99231,99246,99262,99281,99295,99314,99330,99346,99364,99379,99395,99415,99429,99446,99463,99479,99496,99513,99530,99546,99562,99581,99602,99615,99632,99648,99663,99680,99697,99713,99730,99746,99763,99779,99796,99813,99831,99846,99863,99879,99897,99914,99929,99947,99963,99979,99996,100012,100030,100047,100062,100080,100096,100115,100130,100146,100162,100179,100206,100229,100245,100262,100279,100295,100312,100329,100346,100364,100379,100395,100412,100429,100445,100462,100478,100495,100512,100529,100545,100562,100580,100596,100612,100629,100645,100663,100678,100695,100712,100729,100745,100762,100779,100795,100812,100829,100846,100863,100879,100895,100912,100929,100946,100962,100979,100995,101012,101029,101045,101062,101078,101096,101112,101129,101145,101162,101179,101195,101212,101229,101246,101262,101279,101295,101312,101329,101346,101364,101379,101395,101412,101428,101446,101462,101479,101495,101512,101529,101545,101563,101579,101599,101613,101629,101646,101662,101679,101697,101713,101730,101746,101763,101779,101796,101814,101829,101847,101864,101882,101895,101913,101929,101946,101965,101979,101995,102013,102030,102045,102063,102081,102098,102113,102129,102145,102164,102179,102196,102212,102231,102246,102263,102279,102295,102313,102330,102347,102364,102381,102395,102414,102429,102446,102464,102479,102496,102512,102530,102546,102562,102579,102598,102613,102630,102646,102663,102680,102696,102712,102729,102746,102762,102779,102796,102813,102829,102846,102863,102879,102896,102913,102930,102947,102965,102979,102996,103012,103032,103048,103063,103080,103098,103116,103131,103147,103168,103182,103199,103218,103232,103248,103265,103282,103297,103314,103329,103347,103365,103381,103398,103417,103430,103447,103464,103479,103497,103515,103530,103546,103566,103581,103597,103614,103630,103646,103662,103679,103695,103714,103731,103747,103765,103780,103798,103815,103832,103848,103865,103880,103898,103915,103932,103946,103963,103982,103996,104014,104031,104047,104064,104079,104096,104114,104131,104147,104164,104179,104195,104212,104231,104245,104263,104279,104295,104318,104332,104347,104362,104381,104398,104414,104429,104446,104465,104481,104496,104512,104529,104546,104563,104579,104597,104612,104629,104646,104663,104679,104696,104714,104729,104747,104762,104779,104795,104813,104829,104845,104863,104881,104896,104914,104929,104945,104964,104979,104995,105016,105029,105046,105063,105079,105096,105114,105130,105146,105165,105179,105196,105212,105229,105247,105264,105279,105295,105312,105331,105345,105362,105379,105397,105415,105430,105445,105464,105480,105497,105514,105529,105546,105565,105579,105596,105614,105634,105647,105664,105678,105696,105714,105732,105748,105764,105781,105799,105813,105831,105846,105863,105881,105897,105913,105930,105946,105963,105980,105996,106014,106029,106045,106063,106080,106097,106112,106129,106147,106164,106180,106195,106213,106231,106246,106262,106279,106296,106312,106330,106346,106362,106380,106396,106414,106428,106447,106466,106479,106495,106513,106531,106545,106563,106580,106597,106613,106629,106648,106663,106679,106695,106713,106730,106746,106762,106779,106796,106813,106829,106845,106863,106880,106897,106913,106929,106946,106963,106979,106995,107012,107031,107045,107063,107081,107095,107120,107145,107162,107179,107195,107211,107228,107246,107262,107279,107295,107312,107329,107345,107362,107378,107397,107413,107428,107445,107462,107479,107495,107512,107528,107545,107562,107579,107595,107611,107629,107648,107662,107681,107698,107714,107730,107748,107764,107782,107797,107814,107834,107847,107864,107880,107897,107913,107930,107946,107962,107979,107997,108015,108031,108047,108064,108080,108097,108114,108134,108148,108165,108182,108199,108214,108232,108248,108265,108281,108297,108315,108330,108347,108366,108381,108397,108415,108431,108446,108463,108481,108500,108515,108529,108546,108563,108580,108595,108614,108631,108647,108665,108681,108698,108713,108731,108748,108763,108781,108798,108813,108830,108846,108864,108881,108898,108915,108932,108948,108964,108981,108996,109014,109030,109046,109064,109080,109097,109115,109132,109146,109166,109180,109196,109214,109230,109246,109262,109280,109296,109316,109330,109347,109365,109381,109399,109416,109431,109447,109465,109480,109497,109513,109531,109546,109563,109579,109596,109613,109629,109646,109664,109681,109697,109713,109729,109747,109764,109779,109797,109813,109830,109846,109863,109881,109901,109915,109930,109946,109962,109981,109996,110012,110029,110049,110063,110079,110095,110112,110129,110145,110164,110180,110198,110214,110229,110245,110262,110279,110296,110312,110329,110347,110363,110379,110395,110414,110429,110445,110462,110479,110496,110512,110529,110546,110566,110580,110597,110614,110637,110651,110665,110693,110713,110729,110745,110762,110778,110796,110812,110828,110845,110862,110879,110895,110912,110930,110946,110964,110981,110996,111013,111031,111047,111064,111082,111097,111115,111129,111147,111164,111181,111198,111216,111233,111248,111265,111279,111295,111314,111328,111345,111365,111380,111397,111415,111430,111448,111464,111480,111496,111514,111529,111545,111562,111579,111595,111613,111629,111645,111662,111679,111697,111713,111728,111745,111764,111779,111796,111813,111830,111847,111863,111880,111896,111917,111929,111947,111962,111980,111996,112017,112029,112047,112064,112080,112095,112113,112129,112146,112165,112183,112199,112216,112230,112245,112263,112278,112297,112313,112328,112346,112365,112379,112395,112412,112430,112447,112463,112478,112495,112513,112529,112545,112562,112579,112596,112612,112629,112645,112663,112682,112697,112713,112729,112747,112762,112779,112796,112813,112828,112846,112864,112879,112895,112913,112929,112947,112963,112981,112996,113012,113029,113047,113062,113079,113096,113114,113129,113145,113162,113181,113197,113213,113231,113246,113263,113278,113295,113312,113329,113346,113364,113379,113396,113414,113429,113447,113463,113479,113497,113513,113530,113547,113562,113579,113595,113612,113631,113646,113663,113681,113697,113714,113729,113745,113762,113779,113795,113813,113829,113850,113862,113879,113896,113915,113930,113948,113962,113978,113996,114015],"hit":[null],"x":[-1.751700680272109,-1.751700680272109,-1.751700680272109,-1.751700680272109,-1.751700680272109,-1.751700680272109,-1.751700680272109,-1.751700680272109,-1.751700680272109,-1.751700680272109,-1.751700680272109,-1.751700680272109,-1.751700680272109,-1.751700680272109,-1.751700680272109,-1.751700680272109,-1.751700680272109,-1.751700680272109,-1.751700680272109,-1.751700680272109,-1.751700680272109,-1.751700680272109,-1.751700680272109,-1.751700680272109,-1.751700680272109,-1.751700680272109,-1.751700680272109,-1.751700680272109,-1.751700680272109,-1.751700680272109,-1.751700680272109,-1.751700680272109,-1.751700680272109,-1.751700680272109,-1.751700680272109,-1.751700680272109,-1.751700680272109,-1.751700680272109,-1.751700680272109,-1.751700680272109,-1.751700680272109,-1.751700680272109,-1.751700680272109,-1.751700680272109,-1.751700680272109,-1.751700680272109,-1.751700680272109,-1.751700680272109,-1.751700680272109,-1.751700680272109,-1.751700680272109,-1.751700680272109,-1.751700680272109,-1.751700680272109,-1.751700680272109,-1.751700680272109,-1.751700680272109,-1.751700680272109,-1.751700680272109,-1.751700680272109,-1.751700680272109,-1.751700680272109,-1.751700680272109,-1.751700680272109,-1.751700680272109,-1.751700680272109,-1.751700680272109,-1.751700680272109,-1.751700680272109,-1.751700680272109,-1.751700680272109,-1.751700680272109,-1.751700680272109,-1.751700680272109,-1.751700680272109,-1.751700680272109,-1.751700680272109,-1.751700680272109,-1.751700680272109,-1.751700680272109,-1.751700680272109,-1.751700680272109,-1.751700680272109,-1.751700680272109,-1.751700680272109,-1.751700680272109,-1.751700680272109,-1.751700680272109,-1.751700680272109,-1.751700680272109,-1.751700680272109,-1.751700680272109,-1.751700680272109,-1.751700680272109,-1.751700680272109,-1.751700680272109,-1.751700680272109,-1.751700680272109,-1.751700680272109,-1.751700680272109,-1.751700680272109,-1.751700680272109,-1.751700680272109,-1.751700680272109,-1.751700680272109,-1.751700680272109,-1.751700680272109,-1.751700680272109,-1.751700680272109,-1.751700680272109,-1.751700680272109,-1.751700680272109,-1.751700680272109,-1.751700680272109,-1.751700680272109,-1.751700680272109,-1.751700680272109,-1.751700680272109,-1.751700680272109,-1.751700680272109,-1.751700680272109,-1.751700680272109,-1.751700680272109,-1.751700680272109,-1.751700680272109,-1.751700680272109,-1.751700680272109,-1.751700680272109,-1.751700680272109,-1.751700680272109,-1.751700680272109,-1.751700680272109,-1.751700680272109,-1.751700680272109,-1.751700680272109,-1.751700680272109,-1.751700680272109,-1.751700680272109,-1.751700680272109,-1.751700680272109,-1.751700680272109,-1.751700680272109,-1.751700680272109,-1.751700680272109,-1.751700680272109,-1.751700680272109,-1.751700680272109,-1.751700680272109,-1.751700680272109,-1.751700680272109,-1.751700680272109,-1.751700680272109,-1.751700680272109,-1.751700680272109,-1.751700680272109,-1.751700680272109,-1.751700680272109,-1.751700680272109,-1.751700680272109,-1.751700680272109,-1.751700680272109,-1.751700680272109,-1.751700680272109,-1.751700680272109,-1.751700680272109,-1.751700680272109,-1.751700680272109,-1.751700680272109,-1.751700680272109,-1.751700680272109,-1.751700680272109,-1.751700680272109,-1.751700680272109,-1.751700680272109,-1.751700680272109,-1.751700680272109,-1.751700680272109,-1.751700680272109,-1.751700680272109,-1.751700680272109,-1.751700680272109,-1.751700680272109,-1.751700680272109,-1.751700680272109,-1.751700680272109,-1.751700680272109,-1.751700680272109,-1.751700680272109,-1.751700680272109,-1.751700680272109,-1.751700680272109,-1.751700680272109,-1.751700680272109,-1.751700680272109,-1.751700680272109,-1.751700680272109,-1.751700680272109,-1.751700680272109,-1.751700680272109,-1.751700680272109,-1.751700680272109,-1.751700680272109,-1.751700680272109,-1.751700680272109,-1.751700680272109,-1.751700680272109,-1.751700680272109,-1.751700680272109,-1.751700680272109,-1.751700680272109,-1.751700680272109,-1.751700680272109,-1.751700680272109,-1.751700680272109,-1.751700680272109,-1.751700680272109,-1.751700680272109,-1.751700680272109,-1.751700680272109,-1.751700680272109,-1.751700680272109,-1.751700680272109,-1.751700680272109,-1.751700680272109,-1.751700680272109,-1.751700680272109,-1.751700680272109,-1.751700680272109,-1.751700680272109,-1.751700680272109,-1.751700680272109,-1.751700680272109,-1.751700680272109,-1.751700680272109,-1.751700680272109,-1.751700680272109,-1.751700680272109,-1.751700680272109,-1.751700680272109,-1.751700680272109,-1.751700680272109,-1.751700680272109,-1.751700680272109,-1.751700680272109,-1.751700680272109,-1.751700680272109,-1.751700680272109,-1.751700680272109,-1.751700680272109,-1.751700680272109,-1.751700680272109,-1.751700680272109,-1.751700680272109,-1.751700680272109,-1.751700680272109,-1.751700680272109,-1.751700680272109,-1.751700680272109,-1.751700680272109,-1.751700680272109,-1.751700680272109,-1.751700680272109,-1.751700680272109,-1.751700680272109,-1.751700680272109,-1.751700680272109,-1.751700680272109,-1.751700680272109,-1.751700680272109,-1.751700680272109,-1.751700680272109,-1.751700680272109,-1.751700680272109,-1.751700680272109,-1.751700680272109,-1.751700680272109,-1.751700680272109,-1.751700680272109,-1.751700680272109,-1.751700680272109,-1.751700680272109,-1.751700680272109,-1.751700680272109,-1.751700680272109,-1.751700680272109,-1.751700680272109,-1.751700680272109,-1.751700680272109,-1.751700680272109,-1.751700680272109,-1.751700680272109,-1.751700680272109,-1.751700680272109,-1.751700680272109,-1.751700680272109,-1.751700680272109,-1.751700680272109,-1.751700680272109,-1.751700680272109,-1.751700680272109,-1.751700680272109,-1.751700680272109,-1.751700680272109,-1.751700680272109,-1.751700680272109,-1.751700680272109,-1.751700680272109,-1.751700680272109,-1.751700680272109,-1.751700680272109,-1.751700680272109,-1.751700680272109,-1.751700680272109,-1.751700680272109,-1.751700680272109,-1.751700680272109,-1.751700680272109,-1.751700680272109,-1.751700680272109,-1.751700680272109,-1.751700680272109,-1.751700680272109,-1.751700680272109,-1.751700680272109,-1.751700680272109,-1.751700680272109,-1.751700680272109,-1.751700680272109,-1.751700680272109,-1.751700680272109,-1.751700680272109,-1.751700680272109,-1.751700680272109,-1.751700680272109,-1.751700680272109,-1.751700680272109,-1.751700680272109,-1.751700680272109,-1.751700680272109,-1.751700680272109,-1.751700680272109,-1.751700680272109,-1.751700680272109,-1.751700680272109,-1.751700680272109,-1.751700680272109,-1.751700680272109,-1.751700680272109,-1.751700680272109,-1.751700680272109,-1.751700680272109,-1.751700680272109,-1.751700680272109,-1.751700680272109,-1.751700680272109,-1.751700680272109,-1.751700680272109,-1.751700680272109,-1.751700680272109,-1.751700680272109,-1.751700680272109,-1.751700680272109,-1.751700680272109,-1.751700680272109,-1.751700680272109,-1.751700680272109,-1.751700680272109,-1.751700680272109,-1.751700680272109,-1.751700680272109,-1.751700680272109,-1.751700680272109,-1.751700680272109,-1.751700680272109,-1.751700680272109,-1.751700680272109,-1.751700680272109,-1.751700680272109,-1.751700680272109,-1.751700680272109,-1.751700680272109,-1.751700680272109,-1.751700680272109,-1.751700680272109,-1.751700680272109,-1.751700680272109,-1.751700680272109,-1.751700680272109,-1.751700680272109,-1.751700680272109,-1.751700680272109,-1.751700680272109,-1.751700680272109,-1.751700680272109,-1.751700680272109,-1.751700680272109,-1.751700680272109,-1.751700680272109,-1.751700680272109,-1.751700680272109,-1.751700680272109,-1.751700680272109,-1.751700680272109,-1.751700680272109,-1.751700680272109,-1.751700680272109,-1.751700680272109,-1.751700680272109,-1.751700680272109,-1.751700680272109,-1.751700680272109,-1.751700680272109,-1.751700680272109,-1.751700680272109,-1.751700680272109,-1.751700680272109,-1.751700680272109,-1.751700680272109,-1.751700680272109,-1.751700680272109,-1.751700680272109,-1.751700680272109,-1.751700680272109,-1.751700680272109,-1.751700680272109,-1.751700680272109,-1.751700680272109,-1.751700680272109,-1.751700680272109,-1.751700680272109,-1.751700680272109,-1.751700680272109,-1.751700680272109,-1.751700680272109,-1.751700680272109,-1.751700680272109,-1.751700680272109,-1.751700680272109,-1.751700680272109,-1.751700680272109,-1.751700680272109,-1.751700680272109,-1.751700680272109,-1.751700680272109,-1.751700680272109,-1.751700680272109,-1.751700680272109,-1.751700680272109,-1.751700680272109,-1.751700680272109,-1.751700680272109,-1.751700680272109,-1.751700680272109,-1.751700680272109,-1.751700680272109,-1.751700680272109,-1.751700680272109,-1.751700680272109,-1.751700680272109,-1.751700680272109,-1.751700680272109,-1.751700680272109,-1.751700680272109,-1.751700680272109,-1.751700680272109,-1.751700680272109,-1.751700680272109,-1.751700680272109,-1.751700680272109,-1.751700680272109,-1.751700680272109,-1.751700680272109,-1.751700680272109,-1.751700680272109,-1.751700680272109,-1.751700680272109,-1.751700680272109,-1.751700680272109,-1.751700680272109,-1.751700680272109,-1.751700680272109,-1.751700680272109,-1.751700680272109,-1.751700680272109,-1.751700680272109,-1.751700680272109,-1.751700680272109,-1.751700680272109,-1.751700680272109,-1.751700680272109,-1.751700680272109,-1.751700680272109,-1.751700680272109,-1.751700680272109,-1.751700680272109,-1.751700680272109,-1.751700680272109,-1.751700680272109,-1.751700680272109,-1.751700680272109,-1.751700680272109,-1.751700680272109,-1.751700680272109,-1.751700680272109,-1.751700680272109,-1.751700680272109,-1.751700680272109,-1.751700680272109,-1.751700680272109,-1.751700680272109,-1.751700680272109,-1.751700680272109,-1.751700680272109,-1.751700680272109,-1.751700680272109,-1.751700680272109,-1.751700680272109,-1.751700680272109,-1.751700680272109,-1.751700680272109,-1.751700680272109,-1.751700680272109,-1.751700680272109,-1.751700680272109,-1.751700680272109,-1.751700680272109,-1.751700680272109,-1.751700680272109,-1.751700680272109,-1.751700680272109,-1.751700680272109,-1.751700680272109,-1.751700680272109,-1.751700680272109,-1.751700680272109,-1.751700680272109,-1.751700680272109,-1.751700680272109,-1.751700680272109,-1.751700680272109,-1.751700680272109,-1.751700680272109,-1.751700680272109,-1.751700680272109,-1.751700680272109,-1.751700680272109,-1.751700680272109,-1.751700680272109,-1.751700680272109,-1.751700680272109,-1.751700680272109,-1.751700680272109,-1.751700680272109,-1.751700680272109,-1.751700680272109,-1.751700680272109,-1.751700680272109,-1.751700680272109,-1.751700680272109,-1.751700680272109,-1.751700680272109,-1.751700680272109,-1.751700680272109,-1.751700680272109,-1.751700680272109,-1.751700680272109,-1.751700680272109,-1.751700680272109,-1.751700680272109,-1.751700680272109,-1.751700680272109,-1.751700680272109,-1.751700680272109,-1.751700680272109,-1.751700680272109,-1.751700680272109,-1.751700680272109,-1.751700680272109,-1.751700680272109,-1.751700680272109,-1.751700680272109,-1.751700680272109,-1.751700680272109,-1.751700680272109,-1.751700680272109,-1.751700680272109,-1.751700680272109,-1.751700680272109,-1.751700680272109,-1.751700680272109,-1.751700680272109,-1.751700680272109,-1.751700680272109,-1.751700680272109,-1.751700680272109,-1.751700680272109,-1.751700680272109,-1.751700680272109,-1.751700680272109,-1.751700680272109,-1.751700680272109,-1.751700680272109,-1.751700680272109,-1.751700680272109,-1.751700680272109,-1.751700680272109,-1.751700680272109,-1.751700680272109,-1.751700680272109,-1.751700680272109,-1.751700680272109,-1.751700680272109,-1.751700680272109,-1.751700680272109,-1.751700680272109,-1.751700680272109,-1.751700680272109,-1.751700680272109,-1.751700680272109,-1.751700680272109,-1.751700680272109,-1.751700680272109,-1.751700680272109,-1.751700680272109,-1.751700680272109,-1.751700680272109,-1.751700680272109,-1.751700680272109,-1.751700680272109,-1.751700680272109,-1.751700680272109,-1.751700680272109,-1.751700680272109,-1.751700680272109,-1.751700680272109,-1.751700680272109,-1.751700680272109,-1.751700680272109,-1.751700680272109,-1.751700680272109,-1.751700680272109,-1.751700680272109,-1.751700680272109,-1.751700680272109,-1.751700680272109,-1.751700680272109,0.07482993197278912,0.0782312925170068,0.0782312925170068,0.0782312925170068,0.0782312925170068,0.0782312925170068,0.07482993197278912,0.05102040816326531,0.003401360544217687,-0.08163265306122448,-0.15306122448979592,-0.19387755102040816,-0.21428571428571427,-0.22789115646258504,-0.23469387755102042,-0.23129251700680273,-0.17006802721088435,-0.12585034013605442,-0.09863945578231292,-0.05782312925170068,-0.03741496598639456,-0.013605442176870748,0.047619047619047616,0.06802721088435375,0.08163265306122448,0.08843537414965986,0.08843537414965986,0.08843537414965986,0.08843537414965986,0.08843537414965986,0.09183673469387756,0.09183673469387756,0.09183673469387756,0.09863945578231292,0.1054421768707483,0.10884353741496598,0.1360544217687075,0.1598639455782313,0.1836734693877551,0.20408163265306123,0.2108843537414966,0.2108843537414966,0.2108843537414966,0.2108843537414966,0.2108843537414966,0.2108843537414966,0.2108843537414966,0.2108843537414966,0.2108843537414966,0.2108843537414966,0.2108843537414966,0.2108843537414966,0.2108843537414966,0.21768707482993196,0.22108843537414966,0.22448979591836735,0.22789115646258504,0.22789115646258504,0.22789115646258504,0.22789115646258504,0.22789115646258504,0.22789115646258504,0.22789115646258504,0.22789115646258504,0.22789115646258504,0.22789115646258504,0.22789115646258504,0.22789115646258504,0.22789115646258504,0.22789115646258504,0.22789115646258504,0.22789115646258504,0.22789115646258504,0.22789115646258504,0.22789115646258504,0.22789115646258504,0.22448979591836735,0.21428571428571427,0.19387755102040816,0.1292517006802721,0.09523809523809523,0.06802721088435375,0.04421768707482993,0.034013605442176874,0.027210884353741496,0.027210884353741496,0.027210884353741496,0.027210884353741496,0.027210884353741496,0.027210884353741496,0.027210884353741496,0.027210884353741496,0.027210884353741496,0.027210884353741496,0.030612244897959183,0.034013605442176874,0.04081632653061224,0.04421768707482993,0.047619047619047616,0.05782312925170068,0.0782312925170068,0.08843537414965986,0.10204081632653061,0.1054421768707483,0.1054421768707483,0.10884353741496598,0.10884353741496598,0.10884353741496598,0.10884353741496598,0.11224489795918367,0.11904761904761904,0.1326530612244898,0.13945578231292516,0.14625850340136054,0.14965986394557823,0.14965986394557823,0.15306122448979592,0.15306122448979592,0.15306122448979592,0.1564625850340136,0.1598639455782313,0.1598639455782313,0.1598639455782313,0.1598639455782313,0.1598639455782313,0.1598639455782313,0.1598639455782313,0.1598639455782313,0.1598639455782313,0.1598639455782313,0.1598639455782313,0.1564625850340136,0.1564625850340136,0.1564625850340136,0.1564625850340136,0.15306122448979592,0.15306122448979592,0.15306122448979592,0.15306122448979592,0.15306122448979592,0.15306122448979592,0.15306122448979592,0.15306122448979592,0.15306122448979592,0.15306122448979592,0.15306122448979592,0.15306122448979592,0.14965986394557823,0.14965986394557823,0.14965986394557823,0.14965986394557823,0.14965986394557823,0.14965986394557823,0.14965986394557823,0.14965986394557823,0.14965986394557823,0.14965986394557823,0.14965986394557823,0.14965986394557823,0.14965986394557823,0.14965986394557823,0.14965986394557823,0.14965986394557823,0.14965986394557823,0.14965986394557823,0.14965986394557823,0.14965986394557823,0.14965986394557823,0.14965986394557823,0.14965986394557823,0.14965986394557823,0.14965986394557823,0.14965986394557823,0.14965986394557823,0.14965986394557823,0.14965986394557823,0.14965986394557823,0.14965986394557823,0.14965986394557823,0.14965986394557823,0.14965986394557823,0.14965986394557823,0.14965986394557823,0.14965986394557823,0.14965986394557823,0.14965986394557823,0.14965986394557823,0.14965986394557823,0.14965986394557823,0.14965986394557823,0.14965986394557823,0.14965986394557823,0.14965986394557823,0.14965986394557823,0.14965986394557823,0.14965986394557823,0.14965986394557823,0.14965986394557823,0.14965986394557823,0.14965986394557823,0.14965986394557823,0.14965986394557823,0.14965986394557823,0.14965986394557823,0.14965986394557823,0.14965986394557823,0.14965986394557823,0.14965986394557823,0.14965986394557823,0.14965986394557823,0.14965986394557823,0.14965986394557823,0.14965986394557823,0.14965986394557823,0.14965986394557823,0.14965986394557823,0.14965986394557823,0.14965986394557823,0.14965986394557823,0.14965986394557823,0.14965986394557823,0.14965986394557823,0.14965986394557823,0.14965986394557823,0.14965986394557823,0.14965986394557823,0.14965986394557823,0.14965986394557823,0.14965986394557823,0.14965986394557823,0.14965986394557823,0.14965986394557823,0.14965986394557823,0.14965986394557823,0.14965986394557823,0.14965986394557823,0.14965986394557823,0.14965986394557823,0.14965986394557823,0.14965986394557823,0.14965986394557823,0.14965986394557823,0.14965986394557823,0.14965986394557823,0.14965986394557823,0.14965986394557823,0.14965986394557823,0.14965986394557823,0.14965986394557823,0.14965986394557823,0.14965986394557823,0.14965986394557823,0.14965986394557823,0.14965986394557823,0.14965986394557823,0.14965986394557823,0.14965986394557823,0.14965986394557823,0.14965986394557823,0.14965986394557823,0.14965986394557823,0.14965986394557823,0.14965986394557823,0.14965986394557823,0.14965986394557823,0.14965986394557823,0.14965986394557823,0.14965986394557823,0.14965986394557823,0.14965986394557823,0.14965986394557823,0.14965986394557823,0.14965986394557823,0.14965986394557823,0.14965986394557823,0.14965986394557823,0.14965986394557823,0.14965986394557823,0.14965986394557823,0.14965986394557823,0.14965986394557823,0.15306122448979592,0.1564625850340136,0.1564625850340136,0.16326530612244897,0.17346938775510204,0.1870748299319728,0.19387755102040816,0.2108843537414966,0.21768707482993196,0.21768707482993196,0.22448979591836735,0.22789115646258504,0.22789115646258504,0.22789115646258504,0.22789115646258504,0.22789115646258504,0.22789115646258504,0.22789115646258504,0.22789115646258504,0.22789115646258504,0.22789115646258504,0.22789115646258504,0.22789115646258504,0.22789115646258504,0.22789115646258504,0.22789115646258504,0.23129251700680273,0.23129251700680273,0.23129251700680273,0.23129251700680273,0.22789115646258504,0.22108843537414966,0.22108843537414966,0.22108843537414966,0.22108843537414966,0.22108843537414966,0.22789115646258504,0.23809523809523808,0.24829931972789115,0.24829931972789115,0.24829931972789115,0.24829931972789115,0.24829931972789115,0.24829931972789115,0.25170068027210885,0.25170068027210885,0.25170068027210885,0.2755102040816326,0.29931972789115646,0.3333333333333333,0.35374149659863946,0.3843537414965986,0.42517006802721086,0.48639455782312924,0.5034013605442177,0.5374149659863946,0.5510204081632653,0.5578231292517006,0.5748299319727891,0.5816326530612245,0.5884353741496599,0.5986394557823129,0.6020408163265306,0.6054421768707483,0.6156462585034014,0.6224489795918368,0.6292517006802721,0.6360544217687075,0.6394557823129252,0.6462585034013606,0.6462585034013606,0.6462585034013606,0.6462585034013606,0.6462585034013606,0.6462585034013606,0.6462585034013606,0.6462585034013606,0.6462585034013606,0.6462585034013606,0.6462585034013606,0.6462585034013606,0.6462585034013606,0.6462585034013606,0.6462585034013606,0.6462585034013606,0.6462585034013606,0.6462585034013606,0.6462585034013606,0.6462585034013606,0.6462585034013606,0.6462585034013606,0.6598639455782312,0.6666666666666666,0.6938775510204082,0.717687074829932,0.7346938775510204,0.7585034013605442,0.7687074829931972,0.7721088435374149,0.7789115646258503,0.7789115646258503,0.7789115646258503,0.7789115646258503,0.7789115646258503,0.7789115646258503,0.7789115646258503,0.7789115646258503,0.7789115646258503,0.7789115646258503,0.7789115646258503,0.7789115646258503,0.7789115646258503,0.7789115646258503,0.7789115646258503,0.7789115646258503,0.7789115646258503,0.7789115646258503,0.7789115646258503,0.7789115646258503,0.7789115646258503,0.7789115646258503,0.7789115646258503,0.7789115646258503,0.7789115646258503,0.7789115646258503,0.7789115646258503,0.7789115646258503,0.7789115646258503,0.7789115646258503,0.7789115646258503,0.7789115646258503,0.7789115646258503,0.7789115646258503,0.7789115646258503,0.7789115646258503,0.7789115646258503,0.7789115646258503,0.7789115646258503,0.7789115646258503,0.7789115646258503,0.7789115646258503,0.7789115646258503,0.7789115646258503,0.7789115646258503,0.7789115646258503,0.7789115646258503,0.7789115646258503,0.7789115646258503,0.7789115646258503,0.7789115646258503,0.7789115646258503,0.7789115646258503,0.7789115646258503,0.7789115646258503,0.7789115646258503,0.7789115646258503,0.7789115646258503,0.7789115646258503,0.7789115646258503,0.7789115646258503,0.7789115646258503,0.7789115646258503,0.7789115646258503,0.7789115646258503,0.7789115646258503,0.7789115646258503,0.7789115646258503,0.7789115646258503,0.7789115646258503,0.7789115646258503,0.7789115646258503,0.7789115646258503,0.7789115646258503,0.7789115646258503,0.7789115646258503,0.7789115646258503,0.7789115646258503,0.7789115646258503,0.7789115646258503,0.7789115646258503,0.7789115646258503,0.7789115646258503,0.7789115646258503,0.7789115646258503,0.7789115646258503,0.7789115646258503,0.7789115646258503,0.7789115646258503,0.7789115646258503,0.7789115646258503,0.7789115646258503,0.7789115646258503,0.7789115646258503,0.7789115646258503,0.7789115646258503,0.7789115646258503,0.7789115646258503,0.7789115646258503,0.7789115646258503,0.7789115646258503,0.7789115646258503,0.7789115646258503,0.7789115646258503,0.7789115646258503,0.7789115646258503,0.7789115646258503,0.7789115646258503,0.7789115646258503,0.7789115646258503,0.7789115646258503,0.7789115646258503,0.7789115646258503,0.7789115646258503,0.7789115646258503,0.7789115646258503,0.7789115646258503,0.7789115646258503,0.7789115646258503,0.7789115646258503,0.7789115646258503,0.7789115646258503,0.7789115646258503,0.7789115646258503,0.7789115646258503,0.7789115646258503,0.7789115646258503,0.7789115646258503,0.7789115646258503,0.7789115646258503,0.7789115646258503,0.7789115646258503,0.7789115646258503,0.7789115646258503,0.7789115646258503,0.7789115646258503,0.7789115646258503,0.7789115646258503,0.7789115646258503,0.7789115646258503,0.7789115646258503,0.7789115646258503,0.7789115646258503,0.7789115646258503,0.7789115646258503,0.7789115646258503,0.7789115646258503,0.7789115646258503,0.7789115646258503,0.7789115646258503,0.7789115646258503,0.7789115646258503,0.7789115646258503,0.7789115646258503,0.7789115646258503,0.7789115646258503,0.7789115646258503,0.7789115646258503,0.7789115646258503,0.7789115646258503,0.7789115646258503,0.7789115646258503,0.7789115646258503,0.7789115646258503,0.7789115646258503,0.7789115646258503,0.7789115646258503,0.7789115646258503,0.7789115646258503,0.7789115646258503,0.7789115646258503,0.7789115646258503,0.7789115646258503,0.7789115646258503,0.7789115646258503,0.7789115646258503,0.7789115646258503,0.7789115646258503,0.7789115646258503,0.7789115646258503,0.7789115646258503,0.7789115646258503,0.7789115646258503,0.7789115646258503,0.7789115646258503,0.7789115646258503,0.7789115646258503,0.7789115646258503,0.7789115646258503,0.7789115646258503,0.7789115646258503,0.7789115646258503,0.7789115646258503,0.7789115646258503,0.7789115646258503,0.7789115646258503,0.7789115646258503,0.7789115646258503,0.7789115646258503,0.7789115646258503,0.7789115646258503,0.7789115646258503,0.7789115646258503,0.7789115646258503,0.7789115646258503,0.7789115646258503,0.7789115646258503,0.7789115646258503,0.7789115646258503,0.7789115646258503,0.7789115646258503,0.7789115646258503,0.7789115646258503,0.7789115646258503,0.7789115646258503,0.7789115646258503,0.7789115646258503,0.7789115646258503,0.7789115646258503,0.7789115646258503,0.7789115646258503,0.7789115646258503,0.7789115646258503,0.7789115646258503,0.7789115646258503,0.7789115646258503,0.7789115646258503,0.7789115646258503,0.7789115646258503,0.7789115646258503,0.7789115646258503,0.7789115646258503,0.7789115646258503,0.7789115646258503,0.7789115646258503,0.7789115646258503,0.7789115646258503,0.7789115646258503,0.7789115646258503,0.7789115646258503,0.7789115646258503,0.7789115646258503,0.7789115646258503,0.7789115646258503,0.7789115646258503,0.7789115646258503,0.7789115646258503,0.7789115646258503,0.7789115646258503,0.7789115646258503,0.7789115646258503,0.7789115646258503,0.7789115646258503,0.7789115646258503,0.7789115646258503,0.7789115646258503,0.7789115646258503,0.7789115646258503,0.7789115646258503,0.7789115646258503,0.7789115646258503,0.7789115646258503,0.7789115646258503,0.7789115646258503,0.7789115646258503,0.7789115646258503,0.7789115646258503,0.7789115646258503,0.7789115646258503,0.7789115646258503,0.7789115646258503,0.7789115646258503,0.7789115646258503,0.7789115646258503,0.7789115646258503,0.7789115646258503,0.7789115646258503,0.7789115646258503,0.7789115646258503,0.7789115646258503,0.7789115646258503,0.7789115646258503,0.7789115646258503,0.7789115646258503,0.7789115646258503,0.7789115646258503,0.7789115646258503,0.7789115646258503,0.7789115646258503,0.7789115646258503,0.7789115646258503,0.7789115646258503,0.7789115646258503,0.7789115646258503,0.7789115646258503,0.7789115646258503,0.7789115646258503,0.7789115646258503,0.7789115646258503,0.7789115646258503,0.7789115646258503,0.7789115646258503,0.7789115646258503,0.7789115646258503,0.7789115646258503,0.7789115646258503,0.7789115646258503,0.7789115646258503,0.7789115646258503,0.7789115646258503,0.7789115646258503,0.7789115646258503,0.7789115646258503,0.7789115646258503,0.7789115646258503,0.7789115646258503,0.7789115646258503,0.7789115646258503,0.7789115646258503,0.7789115646258503,0.7789115646258503,0.7789115646258503,0.7789115646258503,0.7789115646258503,0.7789115646258503,0.7789115646258503,0.7789115646258503,0.7789115646258503,0.7789115646258503,0.7789115646258503,0.7789115646258503,0.7789115646258503,0.7789115646258503,0.7789115646258503,0.7789115646258503,0.7789115646258503,0.7789115646258503,0.7789115646258503,0.7789115646258503,0.7789115646258503,0.7789115646258503,0.7789115646258503,0.7789115646258503,0.7789115646258503,0.7789115646258503,0.7789115646258503,0.7789115646258503,0.7789115646258503,0.7789115646258503,0.7789115646258503,0.7789115646258503,0.7789115646258503,0.7789115646258503,0.7789115646258503,0.7789115646258503,0.7789115646258503,0.7789115646258503,0.7789115646258503,0.7789115646258503,0.7789115646258503,0.7789115646258503,0.7789115646258503,0.7789115646258503,0.7789115646258503,0.7789115646258503,0.7789115646258503,0.7789115646258503,0.7789115646258503,0.7789115646258503,0.7789115646258503,0.7789115646258503,0.7789115646258503,0.7789115646258503,0.7789115646258503,0.7789115646258503,0.7789115646258503,0.7789115646258503,0.7789115646258503,0.7789115646258503,0.7789115646258503,0.7789115646258503,0.7789115646258503,0.7789115646258503,0.7789115646258503,0.7789115646258503,0.7789115646258503,0.7789115646258503,0.7789115646258503,0.7789115646258503,0.7789115646258503,0.7789115646258503,0.7789115646258503,0.7789115646258503,0.7789115646258503,0.7789115646258503,0.7789115646258503,0.7789115646258503,0.7789115646258503,0.7789115646258503,0.7789115646258503,0.7789115646258503,0.7789115646258503,0.7789115646258503,0.7789115646258503,0.7789115646258503,0.7789115646258503,0.7789115646258503,0.7789115646258503,0.7789115646258503,0.7789115646258503,0.7789115646258503,0.7789115646258503,0.7789115646258503,0.7789115646258503,0.7789115646258503,0.7789115646258503,0.7789115646258503,0.7789115646258503,0.7789115646258503,0.7789115646258503,0.7789115646258503,0.7789115646258503,0.7789115646258503,0.7789115646258503,0.7789115646258503,0.7789115646258503,0.7789115646258503,0.7789115646258503,0.7789115646258503,0.7789115646258503,0.7789115646258503,0.7789115646258503,0.7789115646258503,0.7789115646258503,0.7789115646258503,0.7789115646258503,0.7789115646258503,0.7789115646258503,0.77891156462