[{"success":true,"trial_type":"fullscreen","trial_index":0,"time_elapsed":7743,"internal_node_id":"0.0-0.0","protocol_sum":"","subject_identifier":536,"subject_sum":[139,73,107,249,107,188,201,229,172,17,192,104,182,207,176,12,50,249,209,99,187,138,61,90,241,7,33,116,153,222,153,122],"subject_pair":268,"STUDY_ID":"66a3ed3c5d10d0e7d8a6b9da","PROLIFIC_PID":"5c3820ee1ede2b0001155929","SESSION_ID":"66a47f4d88fcd5395dea05b7","practice_instructions":1,"leaderboard_instructions":2,"bonus":0,"reveal_word":false,"self_rating":"3","confidence":"39"},{"view_history":"[{\"page_index\":0,\"viewing_time\":5438.79999999702}]","rt":5439,"trial_type":"instructions","trial_index":1,"time_elapsed":13184,"internal_node_id":"0.0-1.0","protocol_sum":"","subject_identifier":536,"subject_sum":[139,73,107,249,107,188,201,229,172,17,192,104,182,207,176,12,50,249,209,99,187,138,61,90,241,7,33,116,153,222,153,122],"subject_pair":268,"STUDY_ID":"66a3ed3c5d10d0e7d8a6b9da","PROLIFIC_PID":"5c3820ee1ede2b0001155929","SESSION_ID":"66a47f4d88fcd5395dea05b7","practice_instructions":1,"leaderboard_instructions":2,"bonus":0,"reveal_word":false,"self_rating":"3","confidence":"39"},{"view_history":"[{\"page_index\":0,\"viewing_time\":19601.79999999702}]","rt":19602,"trial_type":"instructions","trial_index":2,"time_elapsed":32786,"internal_node_id":"0.0-2.0-0.0","protocol_sum":"","subject_identifier":536,"subject_sum":[139,73,107,249,107,188,201,229,172,17,192,104,182,207,176,12,50,249,209,99,187,138,61,90,241,7,33,116,153,222,153,122],"subject_pair":268,"STUDY_ID":"66a3ed3c5d10d0e7d8a6b9da","PROLIFIC_PID":"5c3820ee1ede2b0001155929","SESSION_ID":"66a47f4d88fcd5395dea05b7","practice_instructions":1,"leaderboard_instructions":2,"bonus":0,"reveal_word":false,"self_rating":"3","confidence":"39"},{"rt":9405.20000000298,"responses":"{\"Q0\":\"... reveal the word with as <b>few letter guesses</b> as possible\"}","question_order":"[0]","trial_type":"survey-multi-choice","trial_index":3,"time_elapsed":42193,"internal_node_id":"0.0-2.0-1.0","protocol_sum":"","subject_identifier":536,"subject_sum":[139,73,107,249,107,188,201,229,172,17,192,104,182,207,176,12,50,249,209,99,187,138,61,90,241,7,33,116,153,222,153,122],"subject_pair":268,"correct":true,"test_part":"multichoice_nonpretend","STUDY_ID":"66a3ed3c5d10d0e7d8a6b9da","PROLIFIC_PID":"5c3820ee1ede2b0001155929","SESSION_ID":"66a47f4d88fcd5395dea05b7","practice_instructions":1,"leaderboard_instructions":2,"bonus":0,"reveal_word":false,"self_rating":"3","confidence":"39"},{"view_history":"[{\"page_index\":0,\"viewing_time\":1716.7000000029802}]","rt":1716.800000011921,"trial_type":"instructions","trial_index":4,"time_elapsed":43910,"internal_node_id":"0.0-3.0","protocol_sum":"","subject_identifier":536,"subject_sum":[139,73,107,249,107,188,201,229,172,17,192,104,182,207,176,12,50,249,209,99,187,138,61,90,241,7,33,116,153,222,153,122],"subject_pair":268,"STUDY_ID":"66a3ed3c5d10d0e7d8a6b9da","PROLIFIC_PID":"5c3820ee1ede2b0001155929","SESSION_ID":"66a47f4d88fcd5395dea05b7","practice_instructions":1,"leaderboard_instructions":2,"bonus":0,"reveal_word":false,"self_rating":"3","confidence":"39"},{"word":"ZEBRA","click_log":{"letter":["","A","E","R","Z","B"],"t":[0,2752.5999999940395,13991.5,21492.5,24252.39999999106,25386.09999999404],"hit":[null,1,1,1,1,1],"asked":["","A","AE","AER","AERZ","AERZB"],"word_state":["_____","____A","_E__A","_E_RA","ZE_RA","ZEBRA"]},"hover_log":{"letter":["?","?","?","?","?","?","?","?","?","?","?","J","J","J","J","J","J","J","J","J","J","?","?","?","?","?","?","?","?","?","?","?","?","?","?","?","?","?","?","?","?","?","?","?","?","?","?","?","?","?","?","?","?","?","?","?","?","?","?","?","?","?","?","?","?","?","?","?","?","?","?","?","?","?","?","?","?","?","?","?","?","?","?","?","?","?","?","?","?","?","?","?","?","?","?","?","?","?","?","?","?","?","?","?","?","?","?","?","?","?","?","?","?","?","?","?","?","?","?","?","?","?","?","?","?","?","?","?","?","?","?","?","?","?","?","J","J","J","J","J","J","J","J","J","J","?","?","?","?","?","?","?","?","?","A","A","A","A","A","A","A","A","A","A","A","A","A","A","A","A","A","A","A","A","A","A","A","A","A","A","A","A","A","A","A","A","A","A","A","A","A","A","A","A","A","A","A","A","A","A","A","A","A","A","A","A","A","A","A","A","A","A","A","A","A","A","A","A","A","A","A","A","A","A","A","A","A","A","A","A","A","A","A","A","A","A","?","?","?","J","J","J","?","?","?","?","?","S","S","S","?","?","?","?","?","?","?","?","?","?","?","?","?","?","?","?","?","?","?","?","?","?","?","?","?","?","?","?","?","?","?","?","?","?","?","?","?","?","?","?","?","?","?","?","?","?","?","?","?","?","?","?","?","?","?","?","?","?","?","?","?","?","?","?","?","?","?","?","?","?","?","?","?","?","?","?","?","?","?","?","?","?","?","?","?","?","?","?","?","?","?","?","?","?","?","?","?","?","?","?","?","?","?","?","?","?","?","?","?","?","?","?","?","?","?","?","?","?","?","?","?","?","?","?","?","?","?","?","?","?","?","?","?","?","?","?","?","?","?","?","?","?","?","?","?","?","?","?","?","?","?","?","?","?","?","?","?","?","?","?","?","?","?","?","?","?","?","?","?","?","?","?","?","?","?","?","?","?","?","?","?","?","?","?","?","?","?","?","?","?","?","?","?","?","?","?","?","?","?","?","?","?","?","?","?","?","?","?","?","?","?","?","?","?","?","?","?","?","?","?","?","?","?","?","?","?","?","?","?","?","?","?","?","?","?","?","?","?","?","?","?","?","?","?","?","?","?","?","?","?","?","?","?","?","?","?","?","?","?","?","?","?","?","?","?","?","?","?","?","?","?","?","?","?","?","?","?","?","?","?","?","?","?","?","?","?","?","?","?","?","?","?","?","?","?","?","?","?","?","?","?","?","?","?","?","?","?","?","?","?","?","?","?","?","?","?","?","?","?","?","?","?","?","?","?","?","?","?","?","?","?","?","?","?","?","?","?","?","?","?","?","?","?","?","?","?","?","?","?","?","?","?","?","?","?","?","?","?","?","?","?","?","?","?","?","?","?","?","?","?","?","?","?","?","?","?","?","?","?","?","?","?","?","?","?","?","?","?","?","?","?","?","?","?","?","?","?","?","?","?","?","?","?","?","?","?","?","?","?","?","?","?","?","?","?","?","?","?","?","?","?","?","?","?","?","?","?","?","?","?","?","?","?","?","?","?","?","?","?","?","?","?","?","?","?","?","?","?","?","?","?","?","?","?","?","?","?","?","?","?","?","?","?","?","?","?","?","?","?","?","?","?","?","?","?","?","?","?","?","?","?","?","?","?","?","?","?","?","?","?","?","?","?","?","?","?","?","?","?","?","?","?","?","?","?","?","?","?","?","?","?","?","?","?","?","?","?","?","?","?","?","?","?","?","?","?","?","?","?","?","?","?","?","?","?","?","?","?","?","?","?","?","?","?","?","?","?","?","?","?","?","?","?","?","?","?","?","?","?","?","?","?","?","?","?","?","?","?","?","?","?","?","?","?","?","?","?","?","?","?","?","?","?","?","?","?","?","?","?","?","?","?","?","?","?","?","?","?","?","?","?","?","?","?","?","?","?","?","?","?","?","?","?","?","?","?","?","?","?","?","?","?","?","?","?","?","?","?","?","?","?","?","?","?","?","?","?","?","?","?","?","?","?","?","?","?","?","?","?","?","?","?","?","?","?","?","?","?","?","?","?","?","?","?","?","?","?","?","?","?","?","?","?","?","?","?","?","?","?","?","?","?","?","?","?","?","?","?","?","?","?","?","?","?","?","?","?","?","?","?","?","?","?","?","?","?","?","?","?","?","?","?","?","?","?","?","?","?","?","?","?","?","?","?","?","?","?","?","?","?","?","?","?","?","?","?","?","?","?","?","?","?","?","?","?","?","?","?","?","?","?","?","?","?","?","?","?","?","?","?","?","?","?","?","?","?","?","?","?","?","?","?","?","U","U","U","U","U","U","?","?","M","N","N","?","?","?","?","?","?","?","?","?","?","?","?","?","?","?","?","?","?","E","E","E","E","E","E","E","E","E","E","E","E","E","E","E","E","E","E","E","E","E","E","E","E","E","E","E","E","E","E","E","E","E","E","E","E","E","E","E","E","E","E","E","E","E","E","E","E","E","E","E","?","?","?","?","?","?","?","N","N","N","N","N","N","?","?","?","?","?","?","?","?","?","?","?","W","W","W","W","W","W","W","W","W","W","W","W","W","W","W","W","W","W","W","W","W","W","W","W","W","W","W","W","W","W","W","W","W","?","?","?","?","?","?","?","?","?","?","?","?","?","?","?","?","?","?","?","?","?","?","?","?","?","?","?","?","?","?","?","?","?","?","?","?","?","?","?","?","?","?","?","?","?","?","?","?","?","?","?","?","?","?","?","?","?","?","?","?","?","?","?","?","?","?","?","?","?","?","?","?","?","?","?","?","?","?","?","?","?","?","?","?","?","?","?","?","?","?","?","?","?","?","?","?","?","?","?","?","?","?","?","?","?","?","?","?","?","?","?","?","?","?","?","?","?","?","?","?","?","?","?","?","?","?","?","?","?","?","?","?","?","?","?","?","?","?","?","?","?","?","?","?","?","?","?","?","?","?","?","?","?","?","?","?","?","?","?","?","?","?","?","?","?","?","?","?","?","?","?","?","?","?","?","?","?","?","?","?","?","?","?","?","?","?","?","?","?","?","?","W","W","W","W","W","W","W","W","W","W","W","W","W","W","W","W","W","W","W","W","W","W","W","W","W","W","W","W","W","W","W","W","W","W","W","W","W","W","W","W","W","W","W","W","W","W","W","W","W","W","W","W","W","W","W","W","W","W","W","W","W","W","W","W","W","W","W","W","W","W","W","W","W","W","W","W","W","W","W","W","W","W","W","W","W","W","W","W","W","W","W","W","W","W","W","W","W","W","W","W","W","W","W","W","W","W","W","W","W","W","W","W","W","W","W","W","W","W","W","W","W","W","W","W","W","W","W","W","W","W","W","W","W","W","W","W","?","?","?","?","?","?","?","?","?","?","?","?","?","?","?","?","?","?","?","?","?","?","?","?","?","?","?","?","?","?","?","?","?","?","?","?","?","?","?","?","?","?","?","?","?","?","?","?","?","X","X","X","X","?","?","?","Q","?","?","?","?","?","?","?","?","?","?","?","?","?","?","?","?","?","?","?","?","?","?","?","?","?","?","?","?","?","?","?","?","?","?","?","?","?","?","?","?","?","?","?","?","?","?","?","?","?","?","?","?","?","?","?","?","?","?","?","?","?","?","?","?","?","?","?","?","?","?","?","?","?","?","?","?","?","?","?","?","?","?","?","?","?","?","?","?","?","?","?","?","?","?","?","?","?","R","R","R","R","R","R","R","R","R","R","R","R","R","R","R","R","R","R","R","R","R","R","R","R","R","R","?","?","?","?","?","?","?","?","?","?","?","?","?","?","?","?","?","?","?","?","?","?","?","?","?","?","?","?","?","?","?","?","?","?","?","?","?","?","?","?","?","?","?","?","?","?","?","?","?","?","?","?","?","?","?","?","?","?","?","?","?","?","?","?","?","?","?","?","?","?","?","?","?","?","?","?","?","?","?","?","?","?","?","?","?","?","?","?","?","?","?","?","?","?","?","?","?","?","?","?","?","?","?","?","?","?","?","?","?","?","?","?","?","?","?","?","?","?","Y","?","X","W","W","W","?","V","V","V","V","V","V","V","V","V","?","U","U","U","U","U","U","U","U","U","U","U","U","U","U","U","U","U","?","V","?","W","?","X","X","?","?","Y","Y","Y","Y","Y","Y","Y","Y","Y","Y","Y","Y","Y","Y","Y","Y","Y","Z","Z","Z","Z","Z","Z","Z","Z","Z","Z","Z","Z","Z","Z","Z","Z","Z","Z","Z","Z","Z","Z","Z","Z","Z","Z","Z","Z","Z","Z","Z","Z","Z","Z","Z","Z","Z","Z","Z","Z","Z","Z","Z","Z","Z","Z","Z","Z","Z","Z","Z","Z","Z","Z","Z","?","Y","Y","Y","X","X","X","?","W","W","?","?","?","?","?","?","?","?","M","M","M","M","M","M","?","?","?","?","?","?","C","C","C","C","C","C","C","C","C","C","C","C","C","?","?","?","B","B","B","B","B","B","B","B","B","B","B","B","B","B","B","B","B","B","B","B","B","B","B","B","B","B","B","B","B","B","B","B","B","B","B","B","B","B","B","?","?","L","M","?","?","X","Y","?","?","?","?","?","?","?","?","?","?","?","?","?","?","?","?","?","?","?","?","?","?","?","?","?","?","?","?","?","?","?","?","?","?","?","?","?","?","?","?","?","?","?","?","?","?","?","?","?","?","?","?","?","?","?","?","?","?","?","?","?","?","?","?","?","?","?","?","?","?","?","?","?","?","?","?","?","?","?","?","?","?","?","?","?","?","?","?","?","?","?","?","?","?","?","?","?","?","?","?","?","?","?","?","?","?","?","?","?","?","?","?","?","?","?","?","?","?","?","?","?","?","?","?","?","?","?","?","?","?","?","?","?"],"t":[22,31,43,56,69,85,97,109,126,135,147,160,172,185,197,211,227,239,255,267,280,292,305,318,330,343,355,368,380,393,405,420,432,445,456,468,480,493,505,518,530,542,555,567,582,595,607,619,630,645,659,672,684,698,713,726,738,751,765,780,792,805,817,830,842,855,867,880,893,905,919,934,946,959,971,984,996,1009,1022,1034,1046,1060,1073,1085,1098,1113,1126,1138,1150,1164,1176,1189,1201,1213,1226,1238,1250,1263,1275,1288,1300,1313,1326,1342,1355,1369,1382,1392,1405,1417,1431,1447,1459,1472,1485,1497,1511,1524,1536,1546,1558,1571,1583,1596,1610,1621,1633,1646,1658,1671,1684,1696,1710,1726,1742,1754,1767,1779,1792,1804,1817,1829,1842,1854,1867,1879,1892,1904,1917,1929,1942,1954,1968,1983,1996,2008,2021,2035,2050,2064,2079,2093,2106,2119,2129,2142,2154,2167,2179,2191,2204,2217,2229,2242,2254,2267,2279,2292,2304,2318,2331,2346,2358,2371,2383,2398,2409,2421,2435,2447,2460,2473,2484,2496,2508,2521,2533,2545,2559,2575,2587,2600,2612,2625,2637,2650,2663,2676,2694,2707,2719,2730,2742,2754,2766,2779,2793,2808,2821,2835,2850,2863,2879,2892,2907,2923,2935,2947,2959,2970,2983,2995,3008,3022,3034,3049,3062,3074,3087,3100,3112,3124,3137,3150,3162,3174,3187,3200,3212,3225,3237,3250,3262,3274,3288,3303,3316,3329,3341,3353,3366,3378,3392,3408,3420,3434,3449,3463,3478,3493,3506,3516,3528,3543,3555,3566,3580,3593,3603,3617,3631,3647,3663,3677,3689,3703,3718,3733,3745,3758,3774,3789,3801,3813,3828,3841,3854,3867,3880,3891,3904,3916,3928,3941,3953,3967,3983,3995,4007,4021,4037,4053,4067,4078,4091,4103,4116,4128,4140,4154,4170,4182,4195,4209,4224,4236,4249,4262,4274,4288,4300,4313,4325,4340,4353,4367,4379,4395,4408,4421,4433,4449,4462,4475,4491,4503,4515,4530,4544,4557,4569,4582,4595,4607,4621,4636,4649,4662,4674,4687,4700,4713,4726,4741,4754,4766,4780,4792,4804,4815,4828,4841,4853,4865,4878,4890,4903,4915,4928,4942,4955,4967,4979,4992,5007,5021,5036,5049,5061,5074,5086,5098,5112,5128,5140,5153,5165,5179,5191,5205,5222,5234,5246,5258,5271,5283,5295,5307,5319,5332,5344,5357,5369,5382,5394,5407,5419,5432,5444,5457,5470,5482,5496,5511,5523,5539,5553,5565,5578,5590,5603,5615,5627,5640,5655,5667,5679,5690,5704,5715,5727,5741,5754,5766,5782,5794,5807,5820,5833,5844,5857,5870,5883,5896,5911,5923,5936,5948,5961,5973,5986,5998,6011,6025,6037,6048,6062,6074,6087,6102,6115,6129,6146,6158,6171,6182,6194,6206,6220,6235,6249,6260,6273,6287,6299,6317,6329,6340,6353,6365,6378,6391,6408,6423,6435,6448,6460,6474,6487,6500,6512,6525,6535,6548,6561,6577,6591,6604,6614,6627,6639,6652,6664,6677,6690,6704,6719,6733,6745,6758,6770,6784,6798,6810,6823,6835,6847,6860,6873,6887,6900,6912,6924,6939,6952,6964,6977,6989,7004,7018,7031,7044,7056,7068,7081,7094,7106,7118,7132,7148,7160,7173,7187,7198,7211,7224,7239,7251,7264,7276,7289,7302,7315,7327,7339,7353,7370,7381,7394,7407,7419,7435,7447,7460,7474,7487,7501,7514,7526,7540,7552,7565,7577,7591,7601,7614,7627,7639,7652,7664,7676,7689,7701,7714,7726,7739,7751,7764,7777,7789,7801,7814,7826,7839,7851,7864,7876,7892,7907,7920,7932,7944,7956,7969,7981,7993,8006,8019,8031,8043,8056,8068,8080,8093,8105,8118,8130,8143,8155,8168,8182,8199,8211,8223,8235,8248,8264,8276,8289,8301,8315,8330,8343,8355,8368,8380,8394,8406,8418,8430,8443,8455,8468,8481,8493,8505,8518,8530,8543,8555,8568,8580,8592,8605,8618,8630,8644,8659,8672,8684,8697,8709,8724,8734,8747,8759,8772,8786,8798,8815,8828,8839,8852,8864,8876,8890,8902,8913,8927,8940,8952,8964,8976,8989,9001,9014,9032,9044,9056,9068,9082,9097,9110,9127,9140,9156,9171,9184,9197,9209,9221,9236,9250,9265,9277,9291,9305,9318,9334,9346,9359,9372,9384,9397,9409,9423,9434,9446,9460,9472,9484,9497,9509,9523,9540,9555,9568,9581,9596,9609,9623,9635,9647,9661,9673,9689,9702,9717,9730,9743,9759,9773,9788,9801,9814,9827,9839,9855,9867,9879,9892,9904,9917,9929,9942,9954,9968,9984,9996,10009,10021,10033,10046,10059,10071,10084,10098,10109,10121,10134,10146,10159,10171,10184,10196,10209,10222,10239,10252,10264,10276,10292,10305,10318,10329,10343,10355,10368,10383,10398,10411,10425,10439,10452,10463,10476,10492,10504,10516,10529,10542,10554,10566,10579,10593,10609,10623,10634,10646,10659,10675,10687,10700,10712,10727,10739,10750,10762,10775,10788,10802,10814,10826,10838,10850,10863,10876,10888,10902,10914,10927,10939,10951,10962,10975,10987,11000,11012,11025,11037,11050,11063,11078,11092,11104,11116,11129,11142,11155,11167,11179,11192,11204,11217,11229,11242,11254,11267,11279,11292,11304,11318,11331,11342,11355,11367,11385,11398,11413,11426,11438,11450,11464,11479,11493,11508,11520,11533,11545,11558,11570,11583,11595,11608,11622,11634,11646,11660,11670,11683,11695,11709,11721,11733,11745,11758,11770,11783,11795,11808,11822,11834,11846,11858,11870,11883,11895,11908,11920,11933,11945,11958,11970,11983,11995,12008,12022,12037,12050,12062,12074,12088,12103,12116,12128,12141,12154,12166,12179,12193,12207,12220,12232,12245,12257,12270,12282,12295,12309,12322,12333,12347,12359,12372,12383,12397,12412,12424,12437,12449,12461,12474,12488,12505,12517,12529,12541,12555,12570,12584,12597,12608,12624,12637,12649,12663,12677,12691,12703,12718,12732,12744,12757,12770,12782,12796,12809,12820,12832,12845,12858,12870,12883,12895,12907,12920,12932,12947,12959,12970,12982,12995,13008,13021,13033,13045,13057,13070,13082,13094,13107,13120,13132,13144,13157,13170,13182,13196,13209,13221,13232,13245,13257,13270,13282,13295,13307,13319,13332,13345,13361,13374,13386,13398,13411,13423,13436,13450,13465,13478,13490,13504,13515,13529,13541,13557,13569,13582,13594,13607,13620,13632,13644,13657,13669,13682,13694,13707,13719,13732,13744,13757,13769,13782,13795,13806,13819,13832,13845,13861,13874,13887,13902,13915,13928,13940,13952,13965,13977,13990,14002,14015,14027,14040,14054,14070,14083,14099,14112,14124,14142,14157,14169,14182,14194,14206,14219,14232,14245,14257,14269,14282,14294,14306,14319,14331,14344,14356,14369,14381,14395,14410,14423,14436,14448,14462,14477,14489,14502,14515,14527,14539,14553,14569,14583,14598,14610,14623,14635,14648,14660,14673,14685,14698,14710,14723,14735,14748,14760,14773,14786,14798,14810,14823,14835,14849,14864,14877,14890,14903,14916,14931,14944,14958,14970,14986,14998,15010,15023,15037,15049,15064,15077,15090,15102,15115,15128,15143,15157,15169,15183,15195,15210,15224,15240,15252,15265,15277,15290,15303,15316,15328,15339,15353,15366,15378,15390,15402,15414,15427,15440,15452,15464,15477,15490,15503,15515,15528,15541,15554,15566,15578,15590,15603,15614,15627,15639,15652,15664,15677,15689,15702,15715,15731,15743,15756,15770,15785,15797,15810,15823,15837,15847,15860,15873,15889,15903,15920,15932,15943,15957,15972,15985,15997,16012,16024,16035,16047,16060,16072,16085,16097,16110,16122,16135,16147,16160,16172,16187,16199,16212,16225,16235,16247,16260,16274,16289,16303,16318,16330,16343,16357,16369,16382,16394,16406,16418,16430,16443,16455,16468,16480,16493,16505,16521,16538,16553,16565,16577,16590,16603,16614,16626,16639,16651,16663,16676,16689,16701,16714,16726,16740,16755,16770,16782,16793,16805,16817,16830,16843,16855,16868,16880,16893,16905,16920,16936,16948,16960,16974,16986,16997,17009,17022,17036,17051,17063,17077,17088,17101,17113,17126,17138,17151,17163,17176,17188,17201,17213,17226,17238,17251,17263,17278,17290,17303,17313,17326,17339,17351,17364,17376,17388,17401,17413,17426,17438,17451,17466,17481,17493,17507,17518,17530,17542,17555,17567,17580,17592,17605,17618,17630,17644,17659,17671,17686,17699,17710,17721,17734,17747,17759,17771,17785,17797,17815,17826,17838,17851,17863,17875,17890,17904,17917,17930,17942,17954,17968,17980,17993,18005,18018,18030,18042,18055,18067,18080,18092,18105,18117,18130,18142,18155,18168,18186,18198,18210,18222,18235,18247,18259,18271,18284,18297,18309,18321,18334,18346,18359,18371,18384,18396,18408,18421,18434,18446,18459,18474,18488,18500,18515,18525,18537,18550,18562,18575,18587,18600,18612,18625,18637,18650,18663,18675,18687,18700,18713,18725,18737,18750,18762,18775,18787,18800,18812,18825,18837,18850,18862,18875,18887,18900,18912,18925,18937,18950,18962,18975,18987,19000,19012,19025,19037,19050,19062,19075,19087,19100,19112,19125,19137,19150,19163,19175,19188,19204,19216,19229,19241,19254,19266,19279,19291,19304,19316,19329,19342,19354,19366,19379,19391,19404,19416,19429,19442,19454,19466,19479,19491,19504,19516,19529,19541,19554,19566,19579,19591,19604,19616,19628,19641,19654,19666,19679,19691,19705,19720,19733,19745,19758,19772,19787,19800,19812,19824,19837,19850,19862,19874,19887,19900,19913,19924,19937,19949,19962,19974,19987,19999,20012,20024,20037,20049,20062,20074,20087,20099,20112,20124,20137,20150,20163,20178,20191,20203,20216,20228,20241,20253,20266,20278,20291,20304,20322,20333,20346,20362,20374,20387,20399,20413,20430,20442,20455,20466,20478,20491,20505,20517,20532,20545,20558,20571,20586,20599,20612,20624,20638,20654,20666,20678,20691,20703,20717,20733,20746,20759,20776,20790,20803,20816,20828,20840,20853,20866,20880,20892,20904,20917,20929,20942,20954,20966,20978,20991,21005,21021,21036,21049,21061,21074,21087,21099,21112,21124,21137,21149,21162,21174,21186,21199,21211,21224,21236,21249,21261,21274,21286,21299,21311,21324,21336,21349,21361,21374,21386,21399,21411,21424,21436,21449,21461,21474,21486,21499,21511,21524,21536,21549,21563,21578,21590,21603,21615,21628,21640,21654,21669,21682,21694,21709,21723,21736,21750,21765,21778,21790,21802,21815,21828,21840,21853,21865,21878,21890,21903,21915,21928,21941,21957,21969,21982,21994,22007,22019,22033,22048,22063,22078,22090,22102,22115,22129,22146,22158,22171,22182,22194,22207,22219,22232,22244,22257,22271,22283,22296,22308,22320,22332,22345,22357,22371,22386,22398,22411,22423,22437,22450,22462,22474,22486,22499,22511,22523,22536,22548,22561,22574,22590,22602,22615,22627,22640,22652,22665,22677,22690,22702,22715,22727,22740,22752,22766,22777,22790,22802,22815,22827,22840,22852,22865,22877,22890,22902,22917,22929,22943,22956,22969,22981,22994,23007,23019,23031,23044,23056,23069,23081,23094,23106,23118,23131,23144,23156,23169,23183,23198,23211,23223,23235,23248,23260,23273,23285,23297,23310,23323,23335,23348,23360,23373,23385,23401,23415,23427,23439,23452,23465,23477,23489,23502,23514,23527,23539,23552,23564,23577,23589,23602,23614,23627,23639,23652,23665,23677,23689,23702,23716,23731,23743,23756,23768,23781,23793,23806,23818,23831,23843,23856,23868,23881,23893,23906,23918,23931,23943,23956,23968,23981,23993,24006,24018,24031,24043,24056,24068,24081,24093,24106,24118,24133,24147,24160,24172,24185,24197,24210,24222,24235,24248,24261,24276,24289,24301,24314,24327,24341,24352,24368,24381,24394,24406,24418,24431,24443,24456,24468,24481,24493,24506,24518,24530,24543,24555,24568,24581,24593,24607,24623,24639,24651,24664,24676,24689,24701,24713,24726,24739,24751,24764,24776,24788,24801,24814,24826,24839,24851,24864,24876,24888,24901,24914,24926,24939,24951,24964,24976,24988,25001,25013,25026,25039,25051,25064,25076,25088,25101,25114,25126,25138,25151,25163,25176,25188,25201,25213,25226,25238,25251,25264,25276,25289,25305,25318,25330,25344,25355,25367,25380,25395,25405,25418,25430,25443,25455,25467,25480,25493,25505,25517,25530,25543,25555,25568,25580,25592,25605,25618,25630,25642,25655,25667,25680,25692,25705,25717,25730,25742,25755,25768,25780,25792,25805,25817,25830,25842,25855,25867,25880,25892,25905,25917,25930,25942,25955,25967,25982,25994,26005,26017,26032,26044,26057,26068,26081,26092,26107,26119,26132,26144,26155,26168,26180,26193,26207,26219,26230,26243,26257,26269,26281,26292,26305,26317,26330,26342,26355,26368,26380,26392,26405,26417,26430,26442,26455,26471,26486,26498,26509,26521,26536,26549,26560,26572,26584,26598,26613,26627,26642,26655,26668,26684,26698,26711,26722,26734,26746,26761,26775,26788,26800,26813,26825,26839,26852,26867,26880,26895,26909,26922,26940,26952,26965,26977,26988,27000,27013,27025,27039,27052,27064,27079,27094,27108,27121,27135,27150,27163,27176,27189,27201,27214,27227,27239,27250,27263,27275,27288,27300,27313,27327,27340,27352,27363,27375,27388],"hit":[null],"x":[-1.8775510204081634,-1.8775510204081634,-1.8775510204081634,-1.8775510204081634,-1.8775510204081634,-1.8775510204081634,-1.8775510204081634,-1.8775510204081634,-1.8775510204081634,-1.8775510204081634,-1.8775510204081634,-0.006802721088435374,-0.006802721088435374,-0.003401360544217687,-0.003401360544217687,0.003401360544217687,0.006802721088435374,0.01020408163265306,0.017006802721088437,0.02040816326530612,0.023809523809523808,0.030612244897959183,0.034013605442176874,0.034013605442176874,0.03741496598639456,0.04081632653061224,0.04421768707482993,0.047619047619047616,0.047619047619047616,0.047619047619047616,0.047619047619047616,0.047619047619047616,0.047619047619047616,0.047619047619047616,0.047619047619047616,0.047619047619047616,0.047619047619047616,0.047619047619047616,0.047619047619047616,0.047619047619047616,0.05102040816326531,0.05102040816326531,0.05102040816326531,0.05102040816326531,0.05102040816326531,0.05102040816326531,0.05102040816326531,0.05102040816326531,0.05102040816326531,0.05102040816326531,0.05442176870748299,0.05442176870748299,0.05442176870748299,0.05442176870748299,0.05782312925170068,0.05782312925170068,0.05782312925170068,0.05782312925170068,0.05782312925170068,0.05782312925170068,0.05782312925170068,0.061224489795918366,0.061224489795918366,0.061224489795918366,0.061224489795918366,0.06462585034013606,0.06462585034013606,0.06462585034013606,0.06462585034013606,0.06462585034013606,0.06802721088435375,0.06802721088435375,0.07142857142857142,0.07142857142857142,0.07142857142857142,0.07142857142857142,0.07142857142857142,0.07142857142857142,0.07482993197278912,0.07482993197278912,0.07482993197278912,0.07482993197278912,0.07482993197278912,0.07482993197278912,0.07482993197278912,0.07482993197278912,0.07482993197278912,0.07482993197278912,0.07482993197278912,0.07482993197278912,0.07482993197278912,0.07482993197278912,0.0782312925170068,0.0782312925170068,0.0782312925170068,0.0782312925170068,0.0782312925170068,0.0782312925170068,0.0782312925170068,0.0782312925170068,0.0782312925170068,0.0782312925170068,0.0782312925170068,0.0782312925170068,0.0782312925170068,0.0782312925170068,0.0782312925170068,0.0782312925170068,0.0782312925170068,0.0782312925170068,0.0782312925170068,0.0782312925170068,0.0782312925170068,0.0782312925170068,0.0782312925170068,0.0782312925170068,0.0782312925170068,0.0782312925170068,0.0782312925170068,0.0782312925170068,0.0782312925170068,0.0782312925170068,0.0782312925170068,0.0782312925170068,0.0782312925170068,0.07142857142857142,0.06802721088435375,0.061224489795918366,0.05442176870748299,0.047619047619047616,0.04081632653061224,0.034013605442176874,0.034013605442176874,0.034013605442176874,0.034013605442176874,0.034013605442176874,0.034013605442176874,0.034013605442176874,0.034013605442176874,0.034013605442176874,0.034013605442176874,0.034013605442176874,0.034013605442176874,0.034013605442176874,0.034013605442176874,0.034013605442176874,0.034013605442176874,0.027210884353741496,0.023809523809523808,0.02040816326530612,0.013605442176870748,0.01020408163265306,0.006802721088435374,0,-0.003401360544217687,-0.003401360544217687,-0.006802721088435374,-0.006802721088435374,-0.013605442176870748,-0.013605442176870748,-0.013605442176870748,-0.013605442176870748,-0.013605442176870748,-0.013605442176870748,-0.013605442176870748,-0.013605442176870748,-0.013605442176870748,-0.013605442176870748,-0.013605442176870748,-0.013605442176870748,-0.013605442176870748,-0.013605442176870748,-0.013605442176870748,-0.01020408163265306,-0.01020408163265306,-0.01020408163265306,-0.01020408163265306,-0.01020408163265306,-0.01020408163265306,-0.01020408163265306,-0.01020408163265306,-0.01020408163265306,-0.01020408163265306,-0.006802721088435374,-0.006802721088435374,-0.006802721088435374,-0.006802721088435374,-0.006802721088435374,-0.006802721088435374,-0.006802721088435374,-0.006802721088435374,-0.006802721088435374,-0.006802721088435374,-0.006802721088435374,-0.006802721088435374,-0.006802721088435374,-0.006802721088435374,-0.006802721088435374,-0.006802721088435374,-0.006802721088435374,-0.006802721088435374,-0.006802721088435374,-0.006802721088435374,-0.006802721088435374,-0.006802721088435374,-0.006802721088435374,-0.006802721088435374,-0.006802721088435374,-0.006802721088435374,-0.006802721088435374,-0.006802721088435374,-0.006802721088435374,-0.006802721088435374,-0.006802721088435374,-0.006802721088435374,-0.006802721088435374,-0.006802721088435374,-0.006802721088435374,-0.006802721088435374,-0.006802721088435374,-0.006802721088435374,-0.006802721088435374,-0.006802721088435374,-0.006802721088435374,-0.006802721088435374,-0.006802721088435374,-0.006802721088435374,-0.006802721088435374,-0.006802721088435374,-0.006802721088435374,-0.006802721088435374,-0.006802721088435374,-0.006802721088435374,-0.006802721088435374,-0.006802721088435374,-0.003401360544217687,-0.003401360544217687,0.003401360544217687,0.006802721088435374,0.01020408163265306,0.017006802721088437,0.023809523809523808,0.030612244897959183,0.034013605442176874,0.04081632653061224,0.047619047619047616,0.05102040816326531,0.05442176870748299,0.05442176870748299,0.05782312925170068,0.061224489795918366,0.061224489795918366,0.061224489795918366,0.06462585034013606,0.06802721088435375,0.07142857142857142,0.07142857142857142,0.07142857142857142,0.07142857142857142,0.07142857142857142,0.07482993197278912,0.07482993197278912,0.07482993197278912,0.07482993197278912,0.07482993197278912,0.07482993197278912,0.07482993197278912,0.07482993197278912,0.07482993197278912,0.07482993197278912,0.07482993197278912,0.07482993197278912,0.07482993197278912,0.07482993197278912,0.07482993197278912,0.07482993197278912,0.07482993197278912,0.07482993197278912,0.07482993197278912,0.07482993197278912,0.07482993197278912,0.07482993197278912,0.07482993197278912,0.07482993197278912,0.07482993197278912,0.07482993197278912,0.07482993197278912,0.07482993197278912,0.07482993197278912,0.07482993197278912,0.07482993197278912,0.07482993197278912,0.07482993197278912,0.07482993197278912,0.07482993197278912,0.07482993197278912,0.07482993197278912,0.07482993197278912,0.07482993197278912,0.07482993197278912,0.07482993197278912,0.07482993197278912,0.07482993197278912,0.07482993197278912,0.07482993197278912,0.07482993197278912,0.07482993197278912,0.07482993197278912,0.07482993197278912,0.07482993197278912,0.07482993197278912,0.07482993197278912,0.07482993197278912,0.07482993197278912,0.07482993197278912,0.0782312925170068,0.0782312925170068,0.08163265306122448,0.08163265306122448,0.08163265306122448,0.08163265306122448,0.08163265306122448,0.08163265306122448,0.08163265306122448,0.08503401360544217,0.08503401360544217,0.08503401360544217,0.08503401360544217,0.08503401360544217,0.08503401360544217,0.08503401360544217,0.08503401360544217,0.08503401360544217,0.08503401360544217,0.08503401360544217,0.08503401360544217,0.08503401360544217,0.08503401360544217,0.08503401360544217,0.08503401360544217,0.08503401360544217,0.08503401360544217,0.08503401360544217,0.08503401360544217,0.08503401360544217,0.08503401360544217,0.08503401360544217,0.08503401360544217,0.08503401360544217,0.08503401360544217,0.08503401360544217,0.08503401360544217,0.08503401360544217,0.08503401360544217,0.08503401360544217,0.08503401360544217,0.08503401360544217,0.08503401360544217,0.08503401360544217,0.08503401360544217,0.08503401360544217,0.08503401360544217,0.08503401360544217,0.08503401360544217,0.08503401360544217,0.08503401360544217,0.08503401360544217,0.08503401360544217,0.08503401360544217,0.08503401360544217,0.08503401360544217,0.08503401360544217,0.08503401360544217,0.08503401360544217,0.08503401360544217,0.08503401360544217,0.08843537414965986,0.08843537414965986,0.08843537414965986,0.08843537414965986,0.08843537414965986,0.09183673469387756,0.09183673469387756,0.09183673469387756,0.09183673469387756,0.09183673469387756,0.09183673469387756,0.09183673469387756,0.09183673469387756,0.09183673469387756,0.09183673469387756,0.09183673469387756,0.09183673469387756,0.09183673469387756,0.09183673469387756,0.09183673469387756,0.09183673469387756,0.09183673469387756,0.09183673469387756,0.09183673469387756,0.09183673469387756,0.09183673469387756,0.09183673469387756,0.09183673469387756,0.09183673469387756,0.09183673469387756,0.09183673469387756,0.09183673469387756,0.09183673469387756,0.09183673469387756,0.09183673469387756,0.09183673469387756,0.09183673469387756,0.09183673469387756,0.09183673469387756,0.09183673469387756,0.09183673469387756,0.09183673469387756,0.09183673469387756,0.09183673469387756,0.09183673469387756,0.09183673469387756,0.09183673469387756,0.09183673469387756,0.09523809523809523,0.09523809523809523,0.09523809523809523,0.09523809523809523,0.09523809523809523,0.09523809523809523,0.09523809523809523,0.09523809523809523,0.09523809523809523,0.09523809523809523,0.09523809523809523,0.09523809523809523,0.09523809523809523,0.09863945578231292,0.09863945578231292,0.09863945578231292,0.09863945578231292,0.09863945578231292,0.09863945578231292,0.09863945578231292,0.09863945578231292,0.09863945578231292,0.09863945578231292,0.09863945578231292,0.10204081632653061,0.10204081632653061,0.10204081632653061,0.10204081632653061,0.10204081632653061,0.10204081632653061,0.10204081632653061,0.10204081632653061,0.10204081632653061,0.10204081632653061,0.10204081632653061,0.10204081632653061,0.10204081632653061,0.10204081632653061,0.10204081632653061,0.10204081632653061,0.10204081632653061,0.1054421768707483,0.1054421768707483,0.1054421768707483,0.1054421768707483,0.1054421768707483,0.1054421768707483,0.1054421768707483,0.1054421768707483,0.1054421768707483,0.1054421768707483,0.1054421768707483,0.1054421768707483,0.10884353741496598,0.10884353741496598,0.10884353741496598,0.10884353741496598,0.10884353741496598,0.10884353741496598,0.10884353741496598,0.10884353741496598,0.10884353741496598,0.10884353741496598,0.10884353741496598,0.10884353741496598,0.10884353741496598,0.10884353741496598,0.10884353741496598,0.10884353741496598,0.10884353741496598,0.10884353741496598,0.10884353741496598,0.10884353741496598,0.10884353741496598,0.10884353741496598,0.10884353741496598,0.10884353741496598,0.10884353741496598,0.10884353741496598,0.10884353741496598,0.10884353741496598,0.10884353741496598,0.10884353741496598,0.10884353741496598,0.10884353741496598,0.10884353741496598,0.10884353741496598,0.10884353741496598,0.10884353741496598,0.10884353741496598,0.10884353741496598,0.10884353741496598,0.10884353741496598,0.10884353741496598,0.10884353741496598,0.11224489795918367,0.11224489795918367,0.11224489795918367,0.11224489795918367,0.11224489795918367,0.11224489795918367,0.11564625850340136,0.11564625850340136,0.11564625850340136,0.11564625850340136,0.11564625850340136,0.11564625850340136,0.11564625850340136,0.11564625850340136,0.11564625850340136,0.11564625850340136,0.11564625850340136,0.11564625850340136,0.11564625850340136,0.11564625850340136,0.11564625850340136,0.11564625850340136,0.11564625850340136,0.11564625850340136,0.11564625850340136,0.11564625850340136,0.11564625850340136,0.11564625850340136,0.11564625850340136,0.11564625850340136,0.11564625850340136,0.11564625850340136,0.11564625850340136,0.11564625850340136,0.11564625850340136,0.11564625850340136,0.11564625850340136,0.11564625850340136,0.11564625850340136,0.11564625850340136,0.11564625850340136,0.11564625850340136,0.11564625850340136,0.11564625850340136,0.11564625850340136,0.11564625850340136,0.11564625850340136,0.11564625850340136,0.11564625850340136,0.11564625850340136,0.11564625850340136,0.11564625850340136,0.11564625850340136,0.11564625850340136,0.11564625850340136,0.11564625850340136,0.11564625850340136,0.11564625850340136,0.11564625850340136,0.11564625850340136,0.11564625850340136,0.11564625850340136,0.11564625850340136,0.11564625850340136,0.11564625850340136,0.11564625850340136,0.11564625850340136,0.11564625850340136,0.11564625850340136,0.11564625850340136,0.11564625850340136,0.11564625850340136,0.11564625850340136,0.11564625850340136,0.11564625850340136,0.11564625850340136,0.11564625850340136,0.11564625850340136,0.11564625850340136,0.11564625850340136,0.11564625850340136,0.11564625850340136,0.11564625850340136,0.11564625850340136,0.11564625850340136,0.11564625850340136,0.11564625850340136,0.11564625850340136,0.11564625850340136,0.11564625850340136,0.11564625850340136,0.11564625850340136,0.11564625850340136,0.11564625850340136,0.11564625850340136,0.11564625850340136,0.11564625850340136,0.11564625850340136,0.11564625850340136,0.11564625850340136,0.11564625850340136,0.11564625850340136,0.11564625850340136,0.11564625850340136,0.11564625850340136,0.11564625850340136,0.11564625850340136,0.11564625850340136,0.11564625850340136,0.11564625850340136,0.11564625850340136,0.11564625850340136,0.11564625850340136,0.11564625850340136,0.11564625850340136,0.11564625850340136,0.11564625850340136,0.11564625850340136,0.11564625850340136,0.11564625850340136,0.11564625850340136,0.11564625850340136,0.11564625850340136,0.11564625850340136,0.11564625850340136,0.11564625850340136,0.11564625850340136,0.11564625850340136,0.11564625850340136,0.11564625850340136,0.11564625850340136,0.11564625850340136,0.11564625850340136,0.11564625850340136,0.11564625850340136,0.11564625850340136,0.11564625850340136,0.11564625850340136,0.11564625850340136,0.11564625850340136,0.11564625850340136,0.11564625850340136,0.11564625850340136,0.11564625850340136,0.11564625850340136,0.11564625850340136,0.11564625850340136,0.11564625850340136,0.11564625850340136,0.11564625850340136,0.11564625850340136,0.11564625850340136,0.11564625850340136,0.11564625850340136,0.12244897959183673,0.12244897959183673,0.12244897959183673,0.12244897959183673,0.12244897959183673,0.12244897959183673,0.12244897959183673,0.12244897959183673,0.12244897959183673,0.12244897959183673,0.12244897959183673,0.12244897959183673,0.12244897959183673,0.12244897959183673,0.12244897959183673,0.12244897959183673,0.12244897959183673,0.12244897959183673,0.12244897959183673,0.12244897959183673,0.12244897959183673,0.12244897959183673,0.12244897959183673,0.12244897959183673,0.12244897959183673,0.12244897959183673,0.12244897959183673,0.12244897959183673,0.12244897959183673,0.12244897959183673,0.12244897959183673,0.12244897959183673,0.12244897959183673,0.12244897959183673,0.12244897959183673,0.12244897959183673,0.12244897959183673,0.12244897959183673,0.12244897959183673,0.12244897959183673,0.12244897959183673,0.12244897959183673,0.12244897959183673,0.12244897959183673,0.12244897959183673,0.12585034013605442,0.12585034013605442,0.12585034013605442,0.12585034013605442,0.12585034013605442,0.12585034013605442,0.12585034013605442,0.12585034013605442,0.12585034013605442,0.12585034013605442,0.12585034013605442,0.12585034013605442,0.12585034013605442,0.12585034013605442,0.12585034013605442,0.12585034013605442,0.12585034013605442,0.12585034013605442,0.12585034013605442,0.12585034013605442,0.12585034013605442,0.12585034013605442,0.12585034013605442,0.12585034013605442,0.12585034013605442,0.12585034013605442,0.12585034013605442,0.12585034013605442,0.12585034013605442,0.12585034013605442,0.12585034013605442,0.1292517006802721,0.1292517006802721,0.1292517006802721,0.1292517006802721,0.1292517006802721,0.1292517006802721,0.1292517006802721,0.1292517006802721,0.1292517006802721,0.1292517006802721,0.1292517006802721,0.1292517006802721,0.1292517006802721,0.1292517006802721,0.1292517006802721,0.1292517006802721,0.1292517006802721,0.1292517006802721,0.1292517006802721,0.1292517006802721,0.1292517006802721,0.1292517006802721,0.1326530612244898,0.1326530612244898,0.1326530612244898,0.1326530612244898,0.1326530612244898,0.1326530612244898,0.1360544217687075,0.1360544217687075,0.1360544217687075,0.1360544217687075,0.1360544217687075,0.1360544217687075,0.1360544217687075,0.1360544217687075,0.1360544217687075,0.1360544217687075,0.1360544217687075,0.1360544217687075,0.1360544217687075,0.1360544217687075,0.1360544217687075,0.1360544217687075,0.1360544217687075,0.1360544217687075,0.1360544217687075,0.1360544217687075,0.1360544217687075,0.1360544217687075,0.1360544217687075,0.1360544217687075,0.1360544217687075,0.1360544217687075,0.1360544217687075,0.1360544217687075,0.1360544217687075,0.1360544217687075,0.1360544217687075,0.1360544217687075,0.1360544217687075,0.1360544217687075,0.1360544217687075,0.1360544217687075,0.1360544217687075,0.13945578231292516,0.13945578231292516,0.13945578231292516,0.14285714285714285,0.14285714285714285,0.14285714285714285,0.14285714285714285,0.14285714285714285,0.14285714285714285,0.14285714285714285,0.14285714285714285,0.14285714285714285,0.14285714285714285,0.14285714285714285,0.14285714285714285,0.14285714285714285,0.14285714285714285,0.14285714285714285,0.14285714285714285,0.14285714285714285,0.14285714285714285,0.14285714285714285,0.14285714285714285,0.14285714285714285,0.14285714285714285,0.14285714285714285,0.14285714285714285,0.14285714285714285,0.14285714285714285,0.14285714285714285,0.14285714285714285,0.14285714285714285,0.14285714285714285,0.14285714285714285,0.14285714285714285,0.14285714285714285,0.14285714285714285,0.14285714285714285,0.14285714285714285,0.14285714285714285,0.14285714285714285,0.14285714285714285,0.14285714285714285,0.14285714285714285,0.14285714285714285,0.14285714285714285,0.14285714285714285,0.14285714285714285,0.14285714285714285,0.14285714285714285,0.14285714285714285,0.14285714285714285,0.14285714285714285,0.14285714285714285,0.14285714285714285,0.14285714285714285,0.14625850340136054,0.14625850340136054,0.14625850340136054,0.14625850340136054,0.14625850340136054,0.14625850340136054,0.14625850340136054,0.14965986394557823,0.14965986394557823,0.14965986394557823,0.14965986394557823,0.14965986394557823,0.14965986394557823,0.14965986394557823,0.15306122448979592,0.15306122448979592,0.15306122448979592,0.15306122448979592,0.15306122448979592,0.15306122448979592,0.15306122448979592,0.15306122448979592,0.15306122448979592,0.15306122448979592,0.15306122448979592,0.15306122448979592,0.15306122448979592,0.15306122448979592,0.15306122448979592,0.15306122448979592,0.15306122448979592,0.15306122448979592,0.15306122448979592,0.15306122448979592,0.15306122448979592,0.15306122448979592,0.15306122448979592,0.15306122448979592,0.15306122448979592,0.15306122448979592,0.15306122448979592,0.15306122448979592,0.15306122448979592,0.15306122448979592,0.15306122448979592,0.15306122448979592,0.15306122448979592,0.1564625850340136,0.1564625850340136,0.1564625850340136,0.1598639455782313,0.16326530612244897,0.16326530612244897,0.16326530612244897,0.16326530612244897,0.16666666666666666,0.16666666666666666,0.17006802721088435,0.17006802721088435,0.17006802721088435,0.17006802721088435,0.17346938775510204,0.17346938775510204,0.17346938775510204,0.17687074829931973,0.18027210884353742,0.1836734693877551,0.19387755102040816,0.20068027210884354,0.2108843537414966,0.21768707482993196,0.22108843537414966,0.22448979591836735,0.22789115646258504,0.23129251700680273,0.23469387755102042,0.23469387755102042,0.23469387755102042,0.23469387755102042,0.23469387755102042,0.23469387755102042,0.23469387755102042,0.23469387755102042,0.23469387755102042,0.23469387755102042,0.23469387755102042,0.23469387755102042,0.23469387755102042,0.23469387755102042,0.23469387755102042,0.23469387755102042,0.23469387755102042,0.23469387755102042,0.23469387755102042,0.23469387755102042,0.23469387755102042,0.23469387755102042,0.23469387755102042,0.23469387755102042,0.23469387755102042,0.23469387755102042,0.23469387755102042,0.23469387755102042,0.23469387755102042,0.23469387755102042,0.23469387755102042,0.23469387755102042,0.23469387755102042,0.23469387755102042,0.23469387755102042,0.23469387755102042,0.23469387755102042,0.23469387755102042,0.23469387755102042,0.23469387755102042,0.23469387755102042,0.23469387755102042,0.23469387755102042,0.23469387755102042,0.23469387755102042,0.23469387755102042,0.23469387755102042,0.23469387755102042,0.23469387755102042,0.23469387755102042,0.23469387755102042,0.23469387755102042,0.23469387755102042,0.23469387755102042,0.23469387755102042,0.23469387755102042,0.23469387755102042,0.23469387755102042,0.23469387755102042,0.23469387755102042,0.23469387755102042,0.23469387755102042,0.23469387755102042,0.23469387755102042,0.23469387755102042,0.23469387755102042,0.23469387755102042,0.23469387755102042,0.23469387755102042,0.23469387755102042,0.23469387755102042,0.23469387755102042,0.23469387755102042,0.23469387755102042,0.23469387755102042,0.23469387755102042,0.23469387755102042,0.23809523809523808,0.24149659863945577,0.24149659863945577,0.25170068027210885,0.2653061224489796,0.2891156462585034,0.3129251700680272,0.36054421768707484,0.41836734693877553,0.47619047619047616,0.5238095238095238,0.5748299319727891,0.5986394557823129,0.6156462585034014,0.6258503401360545,0.6292517006802721,0.6292517006802721,0.6292517006802721,0.6292517006802721,0.6292517006802721,0.6292517006802721,0.6292517006802721,0.6292517006802721,0.6326530612244898,0.6326530612244898,0.6360544217687075,0.6360544217687075,0.6360544217687075,0.6360544217687075,0.6292517006802721,0.6258503401360545,0.6224489795918368,0.6190476190476191,0.6190476190476191,0.6190476190476191,0.6190476190476191,0.6190476190476191,0.6156462585034014,0.6122448979591837,0.608843537414966,0.6020408163265306,0.5952380952380952,0.5918367346938775,0.5850340136054422,0.5850340136054422,0.5850340136054422,0.5850340136054422,0.5850340136054422,0.5850340136054422,0.5850340136054422,0.5850340136054422,0.5850340136054422,0.5850340136054422,0.5850340136054422,0.5850340136054422,0.5850340136054422,0.5850340136054422,0.5850340136054422,0.5850340136054422,0.5850340136054422,0.5850340136054422,0.5850340136054422,0.5850340136054422,0.5850340136054422,0.5850340136054422,0.5850340136054422,0.5850340136054422,0.5850340136054422,0.5850340136054422,0.5850340136054422,0.5850340136054422,0.5850340136054422,0.5884353741496599,0.5884353741496599,0.5884353741496599,0.5884353741496599,0.5884353741496599,0.5918367346938775,0.5952380952380952,0.5952380952380952,0.5952380952380952,0.5986394557823129,0.6020408163265306,0.6054421768707483,0.6054421768707483,0.608843537414966,0.608843537414966,0.608843537414966,0.6122448979591837,0.6156462585034014,0.6156462585034014,0.6156462585034014,0.6156462585034014,0.6156462585034014,0.6156462585034014,0.6156462585034014,0.6156462585034014,0.6190476190476191,0.6190476190476191,0.6190476190476191,0.6190476190476191,0.6190476190476191,0.6190476190476191,0.6190476190476191,0.6190476190476191,0.6190476190476191,0.6190476190476191,0.6224489795918368,0.6224489795918368,0.6224489795918368,0.6224489795918368,0.6224489795918368,0.6224489795918368,0.6224489795918368,0.6224489795918368,0.6258503401360545,0.6258503401360545,0.6258503401360545,0.6258503401360545,0.6258503401360545,0.6258503401360545,0.6258503401360545,0.6258503401360545,0.6258503401360545,0.6258503401360545,0.6258503401360545,0.6258503401360545,0.6258503401360545,0.6258503401360545,0.6258503401360545,0.6258503401360545,0.6258503401360545,0.6258503401360545,0.6258503401360545,0.6258503401360545,0.6292517006802721,0.6292517006802721,0.6292517006802721,0.6326530612244898,0.6326530612244898,0.6326530612244898,0.6326530612244898,0.6326530612244898,0.6326530612244898,0.6326530612244898,0.6326530612244898,0.6326530612244898,0.6326530612244898,0.6326530612244898,0.6326530612244898,0.6326530612244898,0.6326530612244898,0.6326530612244898,0.6326530612244898,0.6326530612244898,0.6326530612244898,0.6326530612244898,0.6326530612244898,0.6326530612244898,0.6326530612244898,0.6326530612244898,0.6326530612244898,0.6326530612244898,0.6326530612244898,0.6326530612244898,0.6326530612244898,0.6326530612244898,0.6326530612244898,0.6326530612244898,0.6326530612244898,0.6326530612244898,0.6326530612244898,0.6326530612244898,0.6326530612244898,0.6326530612244898,0.6326530612244898,0.6326530612244898,0.6326530612244898,0.6326530612244898,0.6326530612244898,0.6326530612244898,0.6326530612244898,0.6326530612244898,0.6326530612244898,0.6326530612244898,0.6326530612244898,0.6326530612244898,0.6326530612244898,0.6326530612244898,0.6326530612244898,0.6326530612244898,0.6326530612244898,0.6326530612244898,0.6326530612244898,0.6326530612244898,0.6326530612244898,0.6326530612244898,0.6326530612244898,0.6326530612244898,0.6326530612244898,0.6326530612244898,0.6326530612244898,0.6326530612244898,0.6326530612244898,0.6326530612244898,0.6326530612244898,0.6326530612244898,0.6326530612244898,0.6326530612244898,0.6326530612244898,0.6326530612244898,0.6326530612244898,0.6326530612244898,0.6326530612244898,0.6326530612244898,0.6326530612244898,0.6326530612244898,0.6326530612244898,0.6326530612244898,0.6326530612244898,0.6326530612244898,0.6326530612244898,0.6326530612244898,0.6326530612244898,0.6326530612244898,0.6326530612244898,0.6326530612244898,0.6326530612244898,0.6326530612244898,0.6326530612244898,0.6326530612244898,0.6326530612244898,0.6326530612244898,0.6326530612244898,0.6326530612244898,0.6326530612244898,0.6326530612244898,0.6326530612244898,0.6326530612244898,0.6326530612244898,0.6326530612244898,0.6326530612244898,0.6326530612244898,0.6326530612244898,0.6326530612244898,0.6326530612244898,0.6326530612244898,0.6326530612244898,0.6326530612244898,0.6326530612244898,0.6326530612244898,0.6326530612244898,0.6326530612244898,0.6326530612244898,0.6326530612244898,0.6326530612244898,0.6326530612244898,0.6326530612244898,0.6326530612244898,0.6326530612244898,0.6326530612244898,0.6326530612244898,0.6326530612244898,0.6326530612244898,0.6326530612244898,0.6326530612244898,0.6326530612244898,0.6326530612244898,0.6326530612244898,0.6326530612244898,0.6326530612244898,0.6326530612244898,0.6326530612244898,0.6326530612244898,0.6326530612244898,0.6326530612244898,0.6326530612244898,0.6326530612244898,0.6326530612244898,0.6326530612244898,0.6326530612244898,0.6326530612244898,0.6326530612244898,0.6326530612244898,0.6326530612244898,0.6326530612244898,0.6326530612244898,0.6326530612244898,0.6326530612244898,0.6326530612244898,0.6326530612244898,0.6326530612244898,0.6326530612244898,0.6326530612244898,0.6326530612244898,0.6326530612244898,0.6326530612244898,0.6326530612244898,0.6326530612244898,0.6326530612244898,0.6326530612244898,0.6326530612244898,0.6326530612244898,0.6326530612244898,0.6326530612244898,0.6326530612244898,0.6326530612244898,0.6326530612244898,0.6326530612244898,0.6326530612244898,0.6326530612244898,0.6326530612244898,0.6326530612244898,0.6326530612244898,0.6326530612244898,0.6326530612244898,0.6326530612244898,0.6326530612244898,0.6326530612244898,0.6326530612244898,0.6326530612244898,0.6326530612244898,0.6326530612244898,0.6326530612244898,0.6326530612244898,0.6326530612244898,0.6326530612244898,0.6326530612244898,0.6326530612244898,0.6292517006802721,0.6292517006802721,0.6258503401360545,0.6224489795918368,0.6224489795918368,0.6224489795918368,0.6224489795918368,0.6190476190476191,0.6190476190476191,0.6190476190476191,0.6190476190476191,0.6190476190476191,0.6190476190476191,0.6190476190476191,0.6190476190476191,0.6190476190476191,0.6190476190476191,0.6190476190476191,0.6190476190476191,0.6190476190476191,0.6190476190476191,0.6190476190476191,0.6190476190476191,0.6190476190476191,0.6190476190476191,0.6190476190476191,0.6190476190476191,0.6190476190476191,0.6190476190476191,0.6190476190476191,0.6190476190476191,0.6190476190476191,0.6190476190476191,0.6190476190476191,0.6190476190476191,0.6190476190476191,0.6190476190476191,0.6190476190476191,0.6190476190476191,0.6190476190476191,0.6190476190476191,0.6190476190476191,0.6190476190476191,0.6190476190476191,0.6190476190476191,0.6156462585034014,0.6122448979591837,0.6122448979591837,0.6122448979591837,0.6122448979591837,0.6122448979591837,0.6122448979591837,0.6122448979591837,0.6122448979591837,0.6122448979591837,0.6122448979591837,0.6122448979591837,0.6122448979591837,0.6122448979591837,0.6122448979591837,0.6122448979591837,0.6122448979591837,0.6122448979591837,0.6122448979591837,0.6122448979591837,0.6122448979591837,0.6122448979591837,0.6122448979591837,0.6122448979591837,0.6122448979591837,0.6122448979591837,0.6122448979591837,0.6122448979591837,0.6122448979591837,0.6122448979591837,0.6122448979591837,0.6122448979591837,0.6122448979591837,0.6122448979591837,0.6122448979591837,0.6122448979591837,0.6122448979591837,0.6122448979591837,0.6122448979591837,0.6122448979591837,0.6122448979591837,0.6122448979591837,0.6122448979591837,0.6122448979591837,0.6122448979591837,0.6122448979591837,0.6122448979591837,0.6122448979591837,0.6122448979591837,0.6122448979591837,0.6122448979591837,0.6122448979591837,0.6122448979591837,0.6122448979591837,0.6122448979591837,0.6122448979591837,0.6122448979591837,0.6122448979591837,0.6122448979591837,0.6122448979591837,0.6122448979591837,0.6122448979591837,0.6122448979591837,0.6122448979591837,0.6122448979591837,0.6122448979591837,0.6122448979591837,0.6122448979591837,0.6122448979591837,0.6122448979591837,0.6122448979591837,0.6156462585034014,0.6156462585034014,0.6190476190476191,0.6190476190476191,0.6190476190476191,0.6190476190476191,0.6190476190476191,0.6190476190476191,0.6224489795918368,0.6224489795918368,0.6258503401360545,0.6292517006802721,0.6292517006802721,0.6292517006802721,0.6292517006802721,0.6292517006802721,0.6292517006802721,0.6292517006802721,0.6292517006802721,0.6292517006802721,0.6326530612244898,0.6326530612244898,0.6326530612244898,0.6326530612244898,0.6326530612244898,0.6326530612244898,0.6326530612244898,0.6360544217687075,0.6360544217687075,0.6360544217687075,0.6360544217687075,0.6360544217687075,0.6360544217687075,0.6394557823129252,0.6394557823129252,0.6394557823129252,0.6428571428571429,0.6428571428571429,0.6428571428571429,0.6428571428571429,0.6428571428571429,0.6428571428571429,0.6462585034013606,0.6462585034013606,0.6462585034013606,0.6462585034013606,0.6462585034013606,0.6462585034013606,0.6462585034013606,0.6462585034013606,0.6462585034013606,0.6462585034013606,0.6462585034013606,0.6462585034013606,0.6462585034013606,0.6462585034013606,0.6462585034013606,0.6462585034013606,0.6496598639455783,0.6496598639455783,0.6496598639455783,0.6496598639455783,0.6496598639455783,0.6496598639455783,0.6496598639455783,0.6496598639455783,0.6496598639455783,0.6530612244897959,0.6530612244897959,0.6598639455782312,0.6666666666666666,0.6870748299319728,0.717687074829932,0.7653061224489796,0.8401360544217688,0.9183673469387755,1.0068027210884354,1.0918367346938775,1.163265306122449,1.2244897959183674,1.251700680272109,1.2619047619047619,1.2619047619047619,1.2619047619047619,1.2619047619047619,1.2619047619047619,1.2619047619047619,1.2619047619047619,1.2585034013605443,1.2585034013605443,1.2585034013605443,1.2585034013605443,1.2585034013605443,1.2585034013605443,1.2585034013605443,1.2551020408163265,1.251700680272109,1.2448979591836735,1.2346938775510203,1.2312925170068028,1.2210884353741496,1.217687074829932,1.2108843537414966,1.2108843537414966,1.2074829931972788,1.2074829931972788,1.2074829931972788,1.2074829931972788,1.2074829931972788,1.2074829931972788,1.2074829931972788,1.2074829931972788,1.2074829931972788,1.2074829931972788,1.2074829931972788,1.2074829931972788,1.2074829931972788,1.2074829931972788,1.2074829931972788,1.2074829931972788,1.2074829931972788,1.2074829931972788,1.2074829931972788,1.2074829931972788,1.2074829931972788,1.2074829931972788,1.2074829931972788,1.2074829931972788,1.2074829931972788,1.2074829931972788,1.2074829931972788,1.2074829931972788,1.2074829931972788,1.2074829931972788,1.2074829931972788,1.2074829931972788,1.2074829931972788,1.2074829931972788,1.2074829931972788,1.2074829931972788,1.2074829931972788,1.2074829931972788,1.2074829931972788,1.2074829931972788,1.2074829931972788,1.2074829931972788,1.2074829931972788,1.2074829931972788,1.2074829931972788,1.2074829931972788,1.2074829931972788,1.2074829931972788,1.2074829931972788,1.2074829931972788,1.2074829931972788,1.2074829931972788,1.2074829931972788,1.2074829931972788,1.2074829931972788,1.2040816326530612,1.2040816326530612,1.2006802721088434,1.1972789115646258,1.1938775510204083,1.1938775510204083,1.1904761904761905,1.1904761904761905,1.1904761904761905,1.1870748299319729,1.1870748299319729,1.1870748299319729,1.1870748299319729,1.1870748299319729,1.1870748299319729,1.183673469387755,1.1802721088435375,1.1734693877551021,1.1666666666666667,1.1598639455782314,1.153061224489796,1.1462585034013606,1.1394557823129252,1.1360544217687074,1.1360544217687074,1.1360544217687074,1.1360544217687074,1.1360544217687074,1.1360544217687074,1.1360544217687074,1.1428571428571428,1.1564625850340136,1.1700680272108843,1.1802721088435375,1.1870748299319729,1.1870748299319729,1.1870748299319729,1.1870748299319729,1.1870748299319729,1.1870748299319729,1.1870748299319729,1.1870748299319729,1.1870748299319729,1.1870748299319729,1.1870748299319729,1.1870748299319729,1.1870748299319729,1.1870748299319729,1.1870748299319729,1.1870748299319729,1.1870748299319729,1.1870748299319729,1.1870748299319729,1.1870748299319729,1.1870748299319729,1.1870748299319729,1.1870748299319729,1.1870748299319729,1.1870748299319729,1.1870748299319729,1.1870748299319729,1.1870748299319729,1.1870748299319729,1.1870748299319729,1.183673469387755,1.183673469387755,1.183673469387755,1.183673469387755,1.183673469387755,1.1802721088435375,1.1802721088435375,1.1802721088435375,1.1802721088435375,1.1768707482993197,1.1768707482993197,1.1768707482993197,1.1768707482993197,1.1768707482993197,1.1768707482993197,1.1734693877551021,1.1734693877551021,1.1734693877551021,1.1734693877551021,1.1734693877551021,1.1734693877551021,1.1700680272108843,1.1700680272108843,1.1700680272108843,1.1700680272108843,1.1666666666666667,1.1666666666666667,1.1666666666666667,1.1666666666666667,1.1666666666666667,1.1666666666666667,1.1666666666666667,1.1666666666666667,1.1666666666666667,1.1666666666666667,1.1666666666666667,1.1666666666666667,1.1666666666666667,1.1666666666666667,1.1666666666666667,1.1666666666666667,1.1666666666666667,1.1666666666666667,1.1666666666666667,1.1666666666666667,1.1666666666666667,1.1666666666666667,1.1666666666666667,1.1666666666666667,1.1666666666666667,1.1666666666666667,1.1666666666666667,1.1666666666666667,1.1666666666666667,1.1666666666666667,1.1666666666666667,1.1666666666666667,1.1666666666666667,1.1666666666666667,1.1666666666666667,1.1666666666666667,1.1666666666666667,1.1666666666666667,1.1666666666666667,1.1666666666666667,1.1666666666666667,1.1666666666666667,1.1666666666666667,1.1666666666666667,1.1666666666666667,1.1666666666666667,1.1666666666666667,1.1666666666666667,1.1666666666666667,1.1666666666666667,1.1666666666666667,1.1666666666666667,1.1666666666666667,1.1666666666666667,1.1666666666666667,1.1666666666666667,1.1666666666666667,1.1666666666666667,1.1666666666666667,1.1666666666666667,1.1666666666666667,1.1666666666666667,1.1666666666666667,1.1666666666666667,1.163265306122449,1.153061224489796,1.1428571428571428,1.1088435374149659,1.054421768707483,0.9659863945578231,0.8775510204081632,0.7755102040816326,0.6632653061224489,0.5952380952380952,0.5476190476190477,0.5170068027210885,0.5,0.48299319727891155,0.47959183673469385,0.47278911564625853,0.47278911564625853,0.47278911564625853,0.46598639455782315,0.4557823129251701,0.4387755102040816,0.41156462585034015,0.3673469387755102,0.3299319727891156,0.2925170068027211,0.2687074829931973,0.25510204081632654,0.24489795918367346,0.24149659863945577,0.24149659863945577,0.24149659863945577,0.24149659863945577,0.24149659863945577,0.24149659863945577,0.24149659863945577,0.24149659863945577,0.24489795918367346,0.2585034013605442,0.2789115646258503,0.3163265306122449,0.3673469387755102,0.43197278911564624,0.5,0.5816326530612245,0.6496598639455783,0.7074829931972789,0.7482993197278912,0.782312925170068,0.7959183673469388,0.8061224489795918,0.8061224489795918,0.8061224489795918,0.8061224489795918,0.8061224489795918,0.8061224489795918,0.8061224489795918,0.8061224489795918,0.8061224489795918,0.8061224489795918,0.8061224489795918,0.8061224489795918,0.8061224489795918,0.8129251700680272,0.8299319727891157,0.8537414965986394,0.8945578231292517,0.9455782312925171,0.9897959183673469,1.0170068027210883,1.0272108843537415,1.0272108843537415,1.0272108843537415,1.0272108843537415,1.0272108843537415,1.0272108843537415,1.0272108843537415,1.0272108843537415,1.0272108843537415,1.0238095238095237,1.0170068027210883,1.0170068027210883,1.0136054421768708,1.0136054421768708,1.0136054421768708,1.010204081632653,1.010204081632653,1.010204081632653,1.010204081632653,1.010204081632653,1.010204081632653,1.010204081632653,1.010204081632653,1.010204081632653,1.010204081632653,1.010204081632653,1.010204081632653,1.010204081632653,1.010204081632653,1.010204081632653,1.010204081632653,1.010204081632653,1.010204081632653,1.010204081632653,1.010204081632653,1.010204081632653,1.010204081632653,1.010204081632653,1.010204081632653,1.010204081632653,1.010204081632653,1.010204081632653,1.010204081632653,1.010204081632653,1.010204081632653,1.010204081632653,1.010204081632653,1.010204081632653,1.0068027210884354,0.9965986394557823,0.9727891156462585,0.9489795918367347,0.9183673469387755,0.8809523809523809,0.8469387755102041,0.8027210884353742,0.7585034013605442,0.717687074829932,0.6802721088435374,0.6462585034013606,0.6122448979591837,0.5850340136054422,0.5612244897959183,0.5374149659863946,0.5238095238095238,0.5102040816326531,0.4931972789115646,0.47959183673469385,0.46938775510204084,0.4557823129251701,0.4489795918367347,0.4387755102040816,0.42517006802721086,0.41156462585034015,0.4013605442176871,0.391156462585034,0.38095238095238093,0.3741496598639456,0.36054421768707484,0.35034013605442177,0.3401360544217687,0.3299319727891156,0.3231292517006803,0.3197278911564626,0.3129251700680272,0.30952380952380953,0.30272108843537415,0.29591836734693877,0.282312925170068,0.272108843537415,0.2585034013605442,0.24829931972789115,0.23809523809523808,0.23129251700680273,0.22789115646258504,0.22108843537414966,0.21428571428571427,0.2108843537414966,0.20068027210884354,0.19387755102040816,0.1870748299319728,0.18027210884353742,0.17346938775510204,0.16666666666666666,0.16326530612244897,0.16326530612244897,0.16326530612244897,0.16326530612244897,0.1598639455782313,0.1564625850340136,0.1564625850340136,0.1564625850340136,0.1564625850340136,0.1564625850340136,0.1564625850340136,0.1564625850340136,0.1564625850340136,0.1564625850340136,0.15306122448979592,0.15306122448979592,0.15306122448979592,0.14965986394557823,0.14965986394557823,0.14965986394557823,0.14965986394557823,0.14965986394557823,0.14965986394557823,0.14965986394557823,0.14965986394557823,0.14965986394557823,0.14965986394557823,0.14965986394557823,0.14965986394557823,0.14965986394557823,0.15306122448979592,0.1598639455782313,0.17346938775510204,0.19387755102040816,0.23129251700680273,0.30612244897959184,0.3979591836734694,0.5068027210884354,0.6360544217687075,0.7687074829931972,0.8673469387755102,0.9523809523809523,1.0204081632653061,1.0476190476190477,1.064625850340136,1.0680272108843538,1.0680272108843538,1.0680272108843538,1.0680272108843538,1.0680272108843538,1.0680272108843538,1.0680272108843538,1.0680272108843538,1.0680272108843538,1.0680272108843538,1.0680272108843538,1.0680272108843538,1.0680272108843538,1.0680272108843538,1.0680272108843538,1.0680272108843538,1.0680272108843538,1.0680272108843538,1.0680272108843538,1.0680272108843538,1.0680272108843538,1.0680272108843538,1.0680272108843538,1.0680272108843538,1.0680272108843538,1.0680272108843538,1.0680272108843538,1.0680272108843538,1.0680272108843538,1.0680272108843538,1.0680272108843538,1.0680272108843538,1.0680272108843538,1.0680272108843538,1.0680272108843538,1.0680272108843538,1.0680272108843538,1.0680272108843538,1.0680272108843538,1.0680272108843538,1.0680272108843538,1.0680272108843538,1.0680272108843538,1.0680272108843538,1.0680272108843538,1.0680272108843538,1.0680272108843538,1.0680272108843538,1.0680272108843538,1.0680272108843538,1.0680272108843538,1.0680272108843538,1.0680272108843538,1.0680272108843538,1.0680272108843538,1.0680272108843538,1.0680272108843538,1.0680272108843538,1.0680272108843538,1.0680272108843538,1.0680272108843538,1.0680272108843538,1.0680272108843538,1.0680272108843538,1.0680272108843538,1.0680272108843538,1.0680272108843538,1.0680272108843538,1.0680272108843538,1.0680272108843538,1.0680272108843538,1.0680272108843538,1.0680272108843538,1.0680272108843538,1.0680272108843538,1.0680272108843538,1.0680272108843538,1.0680272108843538,1.0680272108843538,1.0680272108843538,1.0680272108843538,1.0680272108843538,1.0680272108843538,1.0680272108843538,1.0680272108843538,1.0680272108843538,1.0680272108843538,1.0680272108843538,1.0680272108843538,1.0680272108843538,1.0680272108843538,1.0680272108843538,1.0680272108843538,1.0680272108843538,1.0680272108843538,1.0680272108843538,1.0680272108843538,1.0680272108843538,1.0680272108843538,1.0680272108843538,1.0680272108843538,1.0680272108843538,1.0680272108843538,1.0680272108843538,1.0680272108843538,1.0680272108843538,1.0680272108843538,1.0680272108843538,1.0680272108843538,1.0680272108843538,1.0680272108843538,1.0680272108843538,1.0680272108843538,1.0680272108843538,1.0680272108843538,1.0680272108843538,1.0680272108843538,1.0680272108843538,1.0680272108843538,1.0680272108843538,1.0680272108843538,1.0680272108843538,1.0680272108843538,1.0680272108843538,1.0680272108843538,1.0680272108843538,1.0680272108843538,1.0680272108843538,1.0680272108843538],"y":[-3.5714285714285716,-3.5714285714285716,-3.5714285714285716,-3.5714285714285716,-3.5714285714285716,-3.5714285714285716,-3.5714285714285716,-3.5714285714285716,-3.5714285714285716,-3.5714285714285716,-3.5714285714285716,0.40476190476190477,0.4238095238095238,0.44285714285714284,0.46190476190476193,0.49047619047619045,0.5190476190476191,0.5380952380952381,0.5761904761904761,0.6142857142857143,0.6428571428571429,0.680952380952381,0.7095238095238096,0.7476190476190476,0.7666666666666667,0.7952380952380952,0.8142857142857143,0.8333333333333334,0.8333333333333334,0.8428571428571429,0.8428571428571429,0.8428571428571429,0.8523809523809524,0.8523809523809524,0.8523809523809524,0.8523809523809524,0.8523809523809524,0.8523809523809524,0.8523809523809524,0.8523809523809524,0.861904761904762,0.861904761904762,0.861904761904762,0.861904761904762,0.861904761904762,0.861904761904762,0.861904761904762,0.861904761904762,0.861904761904762,0.861904761904762,0.861904761904762,0.861904761904762,0.861904761904762,0.8714285714285714,0.8809523809523809,0.8809523809523809,0.8809523809523809,0.8809523809523809,0.8904761904761904,0.8904761904761904,0.9,0.9,0.9095238095238095,0.9095238095238095,0.919047619047619,0.9285714285714286,0.9285714285714286,0.9380952380952381,0.9476190476190476,0.9571428571428572,0.9761904761904762,0.9761904761904762,0.9952380952380953,1.0047619047619047,1.0142857142857142,1.0238095238095237,1.0333333333333334,1.0333333333333334,1.042857142857143,1.042857142857143,1.0523809523809524,1.0523809523809524,1.0523809523809524,1.0523809523809524,1.0523809523809524,1.061904761904762,1.061904761904762,1.0714285714285714,1.0809523809523809,1.0809523809523809,1.0809523809523809,1.0904761904761904,1.0904761904761904,1.1,1.1,1.1,1.1095238095238096,1.1095238095238096,1.1095238095238096,1.1095238095238096,1.1095238095238096,1.1095238095238096,1.1095238095238096,1.1095238095238096,1.1095238095238096,1.1095238095238096,1.1095238095238096,1.1095238095238096,1.1095238095238096,1.1095238095238096,1.1095238095238096,1.1095238095238096,1.1095238095238096,1.1095238095238096,1.1095238095238096,1.1095238095238096,1.1095238095238096,1.1095238095238096,1.1095238095238096,1.1095238095238096,1.1095238095238096,1.1095238095238096,1.1095238095238096,1.1095238095238096,1.1095238095238096,1.0809523809523809,1.042857142857143,0.9761904761904762,0.8904761904761904,0.8238095238095238,0.7666666666666667,0.7285714285714285,0.6904761904761905,0.6714285714285714,0.6428571428571429,0.6047619047619047,0.5666666666666667,0.5190476190476191,0.49047619047619045,0.46190476190476193,0.43333333333333335,0.4238095238095238,0.40476190476190477,0.40476190476190477,0.3761904761904762,0.35714285714285715,0.32857142857142857,0.2904761904761905,0.2714285714285714,0.2523809523809524,0.23333333333333334,0.20476190476190476,0.18571428571428572,0.16666666666666666,0.14761904761904762,0.1380952380952381,0.12857142857142856,0.11904761904761904,0.10952380952380952,0.10952380952380952,0.10952380952380952,0.10952380952380952,0.10952380952380952,0.10952380952380952,0.10952380952380952,0.1,0.1,0.1,0.09047619047619047,0.09047619047619047,0.09047619047619047,0.09047619047619047,0.08095238095238096,0.08095238095238096,0.08095238095238096,0.08095238095238096,0.08095238095238096,0.08095238095238096,0.08095238095238096,0.08095238095238096,0.08095238095238096,0.08095238095238096,0.07142857142857142,0.07142857142857142,0.07142857142857142,0.07142857142857142,0.07142857142857142,0.06190476190476191,0.06190476190476191,0.06190476190476191,0.06190476190476191,0.06190476190476191,0.06190476190476191,0.06190476190476191,0.06190476190476191,0.06190476190476191,0.06190476190476191,0.06190476190476191,0.06190476190476191,0.06190476190476191,0.06190476190476191,0.06190476190476191,0.06190476190476191,0.06190476190476191,0.06190476190476191,0.06190476190476191,0.06190476190476191,0.06190476190476191,0.06190476190476191,0.06190476190476191,0.06190476190476191,0.06190476190476191,0.06190476190476191,0.06190476190476191,0.06190476190476191,0.06190476190476191,0.06190476190476191,0.06190476190476191,0.06190476190476191,0.06190476190476191,0.06190476190476191,0.06190476190476191,0.06190476190476191,0.06190476190476191,0.06190476190476191,0.06190476190476191,0.06190476190476191,0.06190476190476191,0.06190476190476191,0.06190476190476191,0.06190476190476191,0.06190476190476191,0.07142857142857142,0.08095238095238096,0.1,0.15714285714285714,0.20476190476190476,0.2619047619047619,0.319047619047619,0.40476190476190477,0.48095238095238096,0.5761904761904761,0.6619047619047619,0.7380952380952381,0.7952380952380952,0.861904761904762,0.9095238095238095,0.9666666666666667,1.0047619047619047,1.0238095238095237,1.0523809523809524,1.0714285714285714,1.1,1.119047619047619,1.138095238095238,1.1666666666666667,1.1857142857142857,1.2047619047619047,1.2142857142857142,1.2142857142857142,1.2142857142857142,1.2142857142857142,1.223809523809524,1.223809523809524,1.223809523809524,1.223809523809524,1.223809523809524,1.223809523809524,1.223809523809524,1.223809523809524,1.223809523809524,1.223809523809524,1.223809523809524,1.223809523809524,1.223809523809524,1.223809523809524,1.223809523809524,1.223809523809524,1.223809523809524,1.223809523809524,1.223809523809524,1.223809523809524,1.223809523809524,1.223809523809524,1.223809523809524,1.223809523809524,1.223809523809524,1.223809523809524,1.223809523809524,1.223809523809524,1.223809523809524,1.223809523809524,1.223809523809524,1.223809523809524,1.223809523809524,1.223809523809524,1.223809523809524,1.223809523809524,1.223809523809524,1.223809523809524,1.223809523809524,1.223809523809524,1.223809523809524,1.223809523809524,1.223809523809524,1.223809523809524,1.223809523809524,1.223809523809524,1.223809523809524,1.223809523809524,1.223809523809524,1.223809523809524,1.223809523809524,1.223809523809524,1.223809523809524,1.223809523809524,1.223809523809524,1.223809523809524,1.223809523809524,1.223809523809524,1.223809523809524,1.223809523809524,1.223809523809524,1.223809523809524,1.223809523809524,1.223809523809524,1.223809523809524,1.223809523809524,1.223809523809524,1.223809523809524,1.223809523809524,1.223809523809524,1.223809523809524,1.223809523809524,1.223809523809524,1.223809523809524,1.223809523809524,1.223809523809524,1.223809523809524,1.223809523809524,1.223809523809524,1.223809523809524,1.223809523809524,1.223809523809524,1.223809523809524,1.223809523809524,1.223809523809524,1.223809523809524,1.223809523809524,1.223809523809524,1.223809523809524,1.223809523809524,1.223809523809524,1.223809523809524,1.223809523809524,1.223809523809524,1.223809523809524,1.223809523809524,1.223809523809524,1.223809523809524,1.223809523809524,1.223809523809524,1.223809523809524,1.223809523809524,1.223809523809524,1.223809523809524,1.223809523809524,1.223809523809524,1.223809523809524,1.223809523809524,1.223809523809524,1.223809523809524,1.223809523809524,1.223809523809524,1.223809523809524,1.223809523809524,1.223809523809524,1.223809523809524,1.223809523809524,1.223809523809524,1.223809523809524,1.223809523809524,1.223809523809524,1.223809523809524,1.223809523809524,1.223809523809524,1.223809523809524,1.223809523809524,1.223809523809524,1.223809523809524,1.223809523809524,1.223809523809524,1.223809523809524,1.223809523809524,1.223809523809524,1.223809523809524,1.223809523809524,1.223809523809524,1.223809523809524,1.223809523809524,1.223809523809524,1.223809523809524,1.223809523809524,1.223809523809524,1.223809523809524,1.223809523809524,1.223809523809524,1.223809523809524,1.223809523809524,1.223809523809524,1.223809523809524,1.223809523809524,1.223809523809524,1.223809523809524,1.223809523809524,1.223809523809524,1.223809523809524,1.223809523809524,1.223809523809524,1.223809523809524,1.223809523809524,1.223809523809524,1.223809523809524,1.223809523809524,1.223809523809524,1.223809523809524,1.223809523809524,1.223809523809524,1.223809523809524,1.223809523809524,1.223809523809524,1.223809523809524,1.223809523809524,1.223809523809524,1.223809523809524,1.223809523809524,1.223809523809524,1.223809523809524,1.223809523809524,1.223809523809524,1.223809523809524,1.223809523809524,1.223809523809524,1.223809523809524,1.223809523809524,1.223809523809524,1.223809523809524,1.223809523809524,1.223809523809524,1.223809523809524,1.223809523809524,1.223809523809524,1.223809523809524,1.223809523809524,1.223809523809524,1.223809523809524,1.223809523809524,1.223809523809524,1.223809523809524,1.223809523809524,1.223809523809524,1.223809523809524,1.223809523809524,1.223809523809524,1.223809523809524,1.223809523809524,1.223809523809524,1.223809523809524,1.223809523809524,1.223809523809524,1.223809523809524,1.223809523809524,1.223809523809524,1.223809523809524,1.223809523809524,1.223809523809524,1.223809523809524,1.223809523809524,1.223809523809524,1.223809523809524,1.223809523809524,1.223809523809524,1.223809523809524,1.223809523809524,1.223809523809524,1.223809523809524,1.223809523809524,1.223809523809524,1.223809523809524,1.223809523809524,1.223809523809524,1.223809523809524,1.223809523809524,1.223809523809524,1.223809523809524,1.223809523809524,1.223809523809524,1.223809523809524,1.223809523809524,1.223809523809524,1.223809523809524,1.223809523809524,1.223809523809524,1.223809523809524,1.223809523809524,1.223809523809524,1.223809523809524,1.223809523809524,1.223809523809524,1.223809523809524,1.223809523809524,1.223809523809524,1.223809523809524,1.223809523809524,1.223809523809524,1.223809523809524,1.223809523809524,1.223809523809524,1.223809523809524,1.223809523809524,1.223809523809524,1.223809523809524,1.223809523809524,1.223809523809524,1.223809523809524,1.223809523809524,1.223809523809524,1.223809523809524,1.223809523809524,1.223809523809524,1.223809523809524,1.223809523809524,1.223809523809524,1.223809523809524,1.223809523809524,1.223809523809524,1.223809523809524,1.223809523809524,1.223809523809524,1.223809523809524,1.223809523809524,1.223809523809524,1.223809523809524,1.223809523809524,1.223809523809524,1.223809523809524,1.223809523809524,1.223809523809524,1.223809523809524,1.223809523809524,1.223809523809524,1.223809523809524,1.223809523809524,1.223809523809524,1.223809523809524,1.223809523809524,1.223809523809524,1.223809523809524,1.223809523809524,1.223809523809524,1.223809523809524,1.223809523809524,1.223809523809524,1.223809523809524,1.223809523809524,1.223809523809524,1.223809523809524,1.223809523809524,1.223809523809524,1.223809523809524,1.223809523809524,1.223809523809524,1.223809523809524,1.223809523809524,1.223809523809524,1.223809523809524,1.223809523809524,1.223809523809524,1.223809523809524,1.223809523809524,1.223809523809524,1.223809523809524,1.223809523809524,1.223809523809524,1.223809523809524,1.223809523809524,1.223809523809524,1.223809523809524,1.223809523809524,1.223809523809524,1.223809523809524,1.223809523809524,1.223809523809524,1.223809523809524,1.223809523809524,1.223809523809524,1.223809523809524,1.223809523809524,1.223809523809524,1.223809523809524,1.223809523809524,1.223809523809524,1.223809523809524,1.223809523809524,1.223809523809524,1.223809523809524,1.223809523809524,1.223809523809524,1.223809523809524,1.223809523809524,1.223809523809524,1.223809523809524,1.223809523809524,1.223809523809524,1.223809523809524,1.223809523809524,1.223809523809524,1.223809523809524,1.223809523809524,1.223809523809524,1.223809523809524,1.223809523809524,1.223809523809524,1.223809523809524,1.223809523809524,1.223809523809524,1.223809523809524,1.223809523809524,1.223809523809524,1.223809523809524,1.223809523809524,1.223809523809524,1.223809523809524,1.223809523809524,1.223809523809524,1.223809523809524,1.223809523809524,1.223809523809524,1.223809523809524,1.223809523809524,1.223809523809524,1.223809523809524,1.223809523809524,1.223809523809524,1.223809523809524,1.223809523809524,1.223809523809524,1.223809523809524,1.223809523809524,1.223809523809524,1.223809523809524,1.223809523809524,1.223809523809524,1.223809523809524,1.223809523809524,1.223809523809524,1.223809523809524,1.223809523809524,1.223809523809524,1.223809523809524,1.223809523809524,1.223809523809524,1.223809523809524,1.223809523809524,1.223809523809524,1.223809523809524,1.223809523809524,1.223809523809524,1.223809523809524,1.223809523809524,1.223809523809524,1.223809523809524,1.223809523809524,1.223809523809524,1.223809523809524,1.223809523809524,1.223809523809524,1.223809523809524,1.223809523809524,1.223809523809524,1.223809523809524,1.223809523809524,1.223809523809524,1.223809523809524,1.223809523809524,1.223809523809524,1.223809523809524,1.223809523809524,1.223809523809524,1.223809523809524,1.223809523809524,1.223809523809524,1.223809523809524,1.223809523809524,1.223809523809524,1.223809523809524,1.223809523809524,1.223809523809524,1.223809523809524,1.223809523809524,1.223809523809524,1.223809523809524,1.223809523809524,1.223809523809524,1.223809523809524,1.223809523809524,1.223809523809524,1.223809523809524,1.223809523809524,1.223809523809524,1.223809523809524,1.223809523809524,1.223809523809524,1.223809523809524,1.223809523809524,1.223809523809524,1.223809523809524,1.223809523809524,1.223809523809524,1.223809523809524,1.223809523809524,1.223809523809524,1.223809523809524,1.223809523809524,1.223809523809524,1.223809523809524,1.223809523809524,1.223809523809524,1.223809523809524,1.223809523809524,1.223809523809524,1.223809523809524,1.223809523809524,1.223809523809524,1.223809523809524,1.223809523809524,1.223809523809524,1.223809523809524,1.223809523809524,1.223809523809524,1.223809523809524,1.223809523809524,1.223809523809524,1.223809523809524,1.223809523809524,1.223809523809524,1.223809523809524,1.223809523809524,1.223809523809524,1.223809523809524,1.223809523809524,1.223809523809524,1.223809523809524,1.223809523809524,1.223809523809524,1.223809523809524,1.223809523809524,1.223809523809524,1.223809523809524,1.223809523809524,1.223809523809524,1.223809523809524,1.223809523809524,1.223809523809524,1.223809523809524,1.223809523809524,1.223809523809524,1.223809523809524,1.223809523809524,1.223809523809524,1.223809523809524,1.223809523809524,1.223809523809524,1.223809523809524,1.223809523809524,1.223809523809524,1.223809523809524,1.223809523809524,1.223809523809524,1.223809523809524,1.223809523809524,1.223809523809524,1.223809523809524,1.223809523809524,1.223809523809524,1.223809523809524,1.223809523809524,1.223809523809524,1.223809523809524,1.223809523809524,1.223809523809524,1.223809523809524,1.223809523809524,1.223809523809524,1.223809523809524,1.223809523809524,1.223809523809524,1.223809523809524,1.223809523809524,1.223809523809524,1.223809523809524,1.223809523809524,1.223809523809524,1.223809523809524,1.223809523809524,1.223809523809524,1.223809523809524,1.223809523809524,1.223809523809524,1.223809523809524,1.223809523809524,1.223809523809524,1.223809523809524,1.223809523809524,1.223809523809524,1.223809523809524,1.223809523809524,1.223809523809524,1.223809523809524,1.223809523809524,1.223809523809524,1.223809523809524,1.223809523809524,1.223809523809524,1.223809523809524,1.223809523809524,1.223809523809524,1.223809523809524,1.223809523809524,1.223809523809524,1.223809523809524,1.223809523809524,1.223809523809524,1.223809523809524,1.223809523809524,1.223809523809524,1.223809523809524,1.223809523809524,1.223809523809524,1.223809523809524,1.223809523809524,1.223809523809524,1.223809523809524,1.223809523809524,1.223809523809524,1.223809523809524,1.223809523809524,1.223809523809524,1.223809523809524,1.223809523809524,1.223809523809524,1.223809523809524,1.223809523809524,1.223809523809524,1.223809523809524,1.223809523809524,1.223809523809524,1.223809523809524,1.223809523809524,1.223809523809524,1.223809523809524,1.223809523809524,1.223809523809524,1.223809523809524,1.223809523809524,1.223809523809524,1.223809523809524,1.223809523809524,1.223809523809524,1.223809523809524,1.223809523809524,1.223809523809524,1.223809523809524,1.223809523809524,1.223809523809524,1.223809523809524,1.223809523809524,1.223809523809524,1.223809523809524,1.223809523809524,1.223809523809524,1.223809523809524,1.223809523809524,1.223809523809524,1.223809523809524,1.223809523809524,1.223809523809524,1.223809523809524,1.223809523809524,1.223809523809524,1.223809523809524,1.223809523809524,1.223809523809524,1.223809523809524,1.223809523809524,1.223809523809524,1.223809523809524,1.223809523809524,1.223809523809524,1.223809523809524,1.223809523809524,1.223809523809524,1.223809523809524,1.223809523809524,1.223809523809524,1.223809523809524,1.223809523809524,1.223809523809524,1.223809523809524,1.223809523809524,1.223809523809524,1.223809523809524,1.223809523809524,1.223809523809524,1.223809523809524,1.223809523809524,1.223809523809524,1.223809523809524,1.223809523809524,1.223809523809524,1.223809523809524,1.223809523809524,1.223809523809524,1.223809523809524,1.223809523809524,1.223809523809524,1.223809523809524,1.2142857142857142,1.2142857142857142,1.2142857142857142,1.2142857142857142,1.2142857142857142,1.2142857142857142,1.2142857142857142,1.2047619047619047,1.2047619047619047,1.1952380952380952,1.1857142857142857,1.1666666666666667,1.1571428571428573,1.138095238095238,1.1285714285714286,1.119047619047619,1.1095238095238096,1.1095238095238096,1.1095238095238096,1.1095238095238096,1.1095238095238096,1.1095238095238096,1.1095238095238096,1.1095238095238096,1.1095238095238096,1.1095238095238096,1.1095238095238096,1.1095238095238096,1.1095238095238096,1.1095238095238096,1.1095238095238096,1.1095238095238096,1.1095238095238096,1.1095238095238096,1.1095238095238096,1.1095238095238096,1.1095238095238096,1.1095238095238096,1.1095238095238096,1.1095238095238096,1.1095238095238096,1.1095238095238096,1.1095238095238096,1.1095238095238096,1.1095238095238096,1.1095238095238096,1.1095238095238096,1.1095238095238096,1.1095238095238096,1.1095238095238096,1.1095238095238096,1.1095238095238096,1.1095238095238096,1.1095238095238096,1.1095238095238096,1.1095238095238096,1.1095238095238096,1.1095238095238096,1.1095238095238096,1.1095238095238096,1.1095238095238096,1.1095238095238096,1.1095238095238096,1.1095238095238096,1.1095238095238096,1.1095238095238096,1.1095238095238096,1.1095238095238096,1.1095238095238096,1.1095238095238096,1.1095238095238096,1.1095238095238096,1.1095238095238096,1.1095238095238096,1.1095238095238096,1.1095238095238096,1.1095238095238096,1.1095238095238096,1.1095238095238096,1.1095238095238096,1.1095238095238096,1.1095238095238096,1.1095238095238096,1.1095238095238096,1.1095238095238096,1.1095238095238096,1.1095238095238096,1.1095238095238096,1.1095238095238096,1.1095238095238096,1.1095238095238096,1.1095238095238096,1.1095238095238096,1.1095238095238096,1.1095238095238096,1.1095238095238096,1.1095238095238096,1.1095238095238096,1.0904761904761904,1.061904761904762,1.0047619047619047,0.9380952380952381,0.8238095238095238,0.6904761904761905,0.5666666666666667,0.4523809523809524,0.3380952380952381,0.2523809523809524,0.18571428571428572,0.14761904761904762,0.11904761904761904,0.1,0.1,0.1,0.1,0.1,0.1,0.1,0.09047619047619047,0.08095238095238096,0.07142857142857142,0.07142857142857142,0.07142857142857142,0.06190476190476191,0.06190476190476191,0.05238095238095238,0.05238095238095238,0.05238095238095238,0.04285714285714286,0.04285714285714286,0.04285714285714286,0.04285714285714286,0.04285714285714286,0.03333333333333333,0.023809523809523808,0.023809523809523808,0.014285714285714285,0.004761904761904762,0.004761904761904762,0.004761904761904762,0.004761904761904762,0.004761904761904762,0.004761904761904762,-0.004761904761904762,-0.004761904761904762,-0.004761904761904762,-0.004761904761904762,-0.004761904761904762,-0.004761904761904762,-0.004761904761904762,-0.004761904761904762,-0.004761904761904762,-0.004761904761904762,-0.004761904761904762,-0.004761904761904762,-0.004761904761904762,-0.004761904761904762,-0.004761904761904762,-0.004761904761904762,-0.004761904761904762,-0.004761904761904762,-0.004761904761904762,-0.004761904761904762,-0.004761904761904762,0.004761904761904762,0.004761904761904762,0.014285714285714285,0.03333333333333333,0.03333333333333333,0.04285714285714286,0.05238095238095238,0.06190476190476191,0.08095238095238096,0.1,0.11904761904761904,0.1380952380952381,0.16666666666666666,0.19523809523809524,0.22380952380952382,0.2619047619047619,0.2904761904761905,0.32857142857142857,0.36666666666666664,0.40476190476190477,0.44285714285714284,0.49047619047619045,0.5285714285714286,0.5666666666666667,0.6047619047619047,0.6523809523809524,0.680952380952381,0.7285714285714285,0.7571428571428571,0.7857142857142857,0.8142857142857143,0.8238095238095238,0.861904761904762,0.8714285714285714,0.8904761904761904,0.9,0.9095238095238095,0.919047619047619,0.9285714285714286,0.9380952380952381,0.9571428571428572,0.9571428571428572,0.9666666666666667,0.9666666666666667,0.9761904761904762,0.9857142857142858,0.9857142857142858,0.9952380952380953,0.9952380952380953,0.9952380952380953,0.9952380952380953,0.9952380952380953,0.9952380952380953,0.9952380952380953,0.9952380952380953,0.9952380952380953,0.9952380952380953,0.9952380952380953,0.9952380952380953,0.9952380952380953,0.9952380952380953,0.9952380952380953,0.9952380952380953,0.9952380952380953,0.9952380952380953,0.9952380952380953,0.9952380952380953,0.9952380952380953,0.9952380952380953,0.9952380952380953,0.9952380952380953,1.0047619047619047,1.0047619047619047,1.0047619047619047,1.0047619047619047,1.0047619047619047,1.0047619047619047,1.0047619047619047,1.0047619047619047,1.0047619047619047,1.0047619047619047,1.0047619047619047,1.0047619047619047,1.0047619047619047,1.0047619047619047,1.0047619047619047,1.0047619047619047,1.0047619047619047,1.0047619047619047,1.0047619047619047,1.0047619047619047,1.0047619047619047,1.0047619047619047,1.0047619047619047,1.0047619047619047,1.0047619047619047,1.0047619047619047,1.0047619047619047,1.0047619047619047,1.0047619047619047,1.0047619047619047,1.0047619047619047,1.0047619047619047,1.0047619047619047,1.0047619047619047,1.0047619047619047,1.0047619047619047,1.0047619047619047,1.0047619047619047,1.0047619047619047,1.0047619047619047,1.0047619047619047,1.0047619047619047,1.0047619047619047,1.0047619047619047,1.0047619047619047,1.0047619047619047,1.0047619047619047,1.0047619047619047,1.0047619047619047,1.0047619047619047,1.0047619047619047,1.0047619047619047,1.0047619047619047,1.0047619047619047,1.0047619047619047,1.0047619047619047,1.0047619047619047,1.0047619047619047,1.0047619047619047,1.0047619047619047,1.0047619047619047,1.0047619047619047,1.0047619047619047,1.0047619047619047,1.0047619047619047,1.0047619047619047,1.0047619047619047,1.0047619047619047,1.0047619047619047,1.0047619047619047,1.0047619047619047,1.0047619047619047,1.0047619047619047,1.0047619047619047,1.0047619047619047,1.0047619047619047,1.0047619047619047,1.0047619047619047,1.0047619047619047,1.0047619047619047,1.0047619047619047,1.0047619047619047,1.0047619047619047,1.0047619047619047,1.0047619047619047,1.0047619047619047,1.0047619047619047,1.0047619047619047,1.0047619047619047,1.0047619047619047,1.0047619047619047,1.0047619047619047,1.0047619047619047,1.0047619047619047,1.0047619047619047,1.0047619047619047,1.0047619047619047,1.0047619047619047,1.0047619047619047,1.0047619047619047,1.0047619047619047,1.0047619047619047,1.0047619047619047,1.0047619047619047,1.0047619047619047,1.0047619047619047,1.0047619047619047,1.0047619047619047,1.0047619047619047,1.0047619047619047,1.0047619047619047,1.0047619047619047,1.0047619047619047,1.0047619047619047,1.0047619047619047,1.0047619047619047,1.0047619047619047,1.0047619047619047,1.0047619047619047,1.0047619047619047,1.0047619047619047,1.0047619047619047,1.0047619047619047,1.0047619047619047,1.0047619047619047,1.0047619047619047,1.0047619047619047,1.0047619047619047,1.0047619047619047,1.0047619047619047,1.0047619047619047,1.0047619047619047,1.0047619047619047,1.0047619047619047,1.0047619047619047,1.0047619047619047,1.0047619047619047,1.0047619047619047,1.0047619047619047,1.0047619047619047,1.0047619047619047,1.0047619047619047,1.0047619047619047,1.0047619047619047,1.0047619047619047,1.0047619047619047,1.0047619047619047,1.0047619047619047,1.0047619047619047,1.0047619047619047,1.0047619047619047,1.0047619047619047,1.0047619047619047,1.0047619047619047,1.0047619047619047,1.0047619047619047,1.0047619047619047,1.0047619047619047,1.0047619047619047,1.0047619047619047,1.0047619047619047,1.0047619047619047,1.0047619047619047,1.0047619047619047,1.0047619047619047,1.0047619047619047,1.0047619047619047,1.0047619047619047,1.0047619047619047,1.0047619047619047,1.0047619047619047,1.0047619047619047,1.0047619047619047,1.0047619047619047,1.0047619047619047,1.0047619047619047,1.0047619047619047,1.0047619047619047,1.0047619047619047,1.0047619047619047,1.0047619047619047,1.0047619047619047,1.0047619047619047,1.0047619047619047,1.0047619047619047,1.0047619047619047,1.0047619047619047,1.0047619047619047,1.0047619047619047,1.0047619047619047,1.0047619047619047,1.0047619047619047,1.0047619047619047,1.0047619047619047,1.0142857142857142,1.0142857142857142,1.0142857142857142,1.0142857142857142,1.0142857142857142,1.0142857142857142,1.0142857142857142,1.0142857142857142,1.0142857142857142,1.0142857142857142,1.0142857142857142,1.0142857142857142,1.0142857142857142,1.0142857142857142,1.0142857142857142,1.0142857142857142,1.0142857142857142,1.0142857142857142,1.0142857142857142,1.0142857142857142,1.0142857142857142,1.0142857142857142,1.0142857142857142,1.0142857142857142,1.0142857142857142,1.0142857142857142,1.0142857142857142,1.0142857142857142,1.0142857142857142,1.0142857142857142,1.0142857142857142,1.0142857142857142,1.0142857142857142,1.0142857142857142,1.0142857142857142,1.0142857142857142,1.0142857142857142,1.0142857142857142,1.0142857142857142,1.0142857142857142,1.0142857142857142,1.0142857142857142,1.0142857142857142,1.0238095238095237,1.0238095238095237,1.0238095238095237,1.0238095238095237,1.0238095238095237,1.0238095238095237,1.0238095238095237,1.0238095238095237,1.0238095238095237,1.0238095238095237,1.0238095238095237,1.0238095238095237,1.0238095238095237,1.0238095238095237,1.0238095238095237,1.0238095238095237,1.0238095238095237,1.0238095238095237,1.0238095238095237,1.0238095238095237,1.0238095238095237,1.0238095238095237,1.0238095238095237,1.0238095238095237,1.0238095238095237,1.0238095238095237,1.0238095238095237,1.0238095238095237,1.0238095238095237,1.0238095238095237,1.0238095238095237,1.0238095238095237,1.0238095238095237,1.0238095238095237,1.0238095238095237,1.0238095238095237,1.0238095238095237,1.0238095238095237,1.0238095238095237,1.0238095238095237,1.0238095238095237,1.0238095238095237,1.0238095238095237,1.0238095238095237,1.0238095238095237,1.0238095238095237,1.0238095238095237,1.0238095238095237,1.0238095238095237,1.0238095238095237,1.0238095238095237,1.0238095238095237,1.0238095238095237,1.0238095238095237,1.0238095238095237,1.0238095238095237,1.0238095238095237,1.0238095238095237,1.0238095238095237,1.0238095238095237,1.0238095238095237,1.0238095238095237,1.0238095238095237,1.0238095238095237,1.0238095238095237,1.0238095238095237,1.0238095238095237,1.0238095238095237,1.0238095238095237,1.0238095238095237,1.0238095238095237,1.0238095238095237,1.0238095238095237,1.0238095238095237,1.0238095238095237,1.0238095238095237,1.0238095238095237,1.0142857142857142,1.0142857142857142,1.0142857142857142,1.0142857142857142,1.0142857142857142,1.0142857142857142,1.0142857142857142,1.0142857142857142,1.0047619047619047,1.0047619047619047,1.0047619047619047,1.0047619047619047,1.0047619047619047,1.0047619047619047,1.0047619047619047,1.0047619047619047,1.0047619047619047,1.0047619047619047,1.0047619047619047,1.0047619047619047,1.0047619047619047,1.0047619047619047,1.0047619047619047,1.0047619047619047,1.0047619047619047,1.0047619047619047,1.0047619047619047,1.0047619047619047,1.0047619047619047,1.0047619047619047,1.0047619047619047,0.9952380952380953,0.9952380952380953,0.9952380952380953,0.9952380952380953,0.9952380952380953,0.9952380952380953,0.9952380952380953,0.9952380952380953,0.9952380952380953,0.9952380952380953,0.9952380952380953,0.9952380952380953,0.9952380952380953,0.9952380952380953,0.9952380952380953,0.9952380952380953,0.9952380952380953,0.9952380952380953,0.9857142857142858,0.9857142857142858,0.9857142857142858,0.9857142857142858,0.9857142857142858,0.9857142857142858,0.9857142857142858,0.9857142857142858,0.9857142857142858,0.9857142857142858,0.9761904761904762,0.9761904761904762,0.9571428571428572,0.9285714285714286,0.8904761904761904,0.8142857142857143,0.719047619047619,0.6047619047619047,0.4714285714285714,0.3380952380952381,0.22380952380952382,0.12857142857142856,0.07142857142857142,0.05238095238095238,0.04285714285714286,0.04285714285714286,0.04285714285714286,0.04285714285714286,0.04285714285714286,0.04285714285714286,0.04285714285714286,0.04285714285714286,0.04285714285714286,0.04285714285714286,0.04285714285714286,0.04285714285714286,0.04285714285714286,0.04285714285714286,0.04285714285714286,0.04285714285714286,0.04285714285714286,0.04285714285714286,0.05238095238095238,0.06190476190476191,0.06190476190476191,0.07142857142857142,0.07142857142857142,0.07142857142857142,0.07142857142857142,0.07142857142857142,0.07142857142857142,0.07142857142857142,0.07142857142857142,0.07142857142857142,0.07142857142857142,0.07142857142857142,0.07142857142857142,0.07142857142857142,0.07142857142857142,0.07142857142857142,0.07142857142857142,0.07142857142857142,0.07142857142857142,0.07142857142857142,0.07142857142857142,0.07142857142857142,0.07142857142857142,0.07142857142857142,0.07142857142857142,0.07142857142857142,0.07142857142857142,0.07142857142857142,0.07142857142857142,0.07142857142857142,0.07142857142857142,0.07142857142857142,0.07142857142857142,0.07142857142857142,0.07142857142857142,0.07142857142857142,0.07142857142857142,0.08095238095238096,0.09047619047619047,0.09047619047619047,0.1,0.1,0.1,0.1,0.1,0.1,0.1,0.1,0.1,0.1,0.1,0.10952380952380952,0.11904761904761904,0.1380952380952381,0.14761904761904762,0.16666666666666666,0.19523809523809524,0.23333333333333334,0.2619047619047619,0.2714285714285714,0.3,0.319047619047619,0.3380952380952381,0.3476190476190476,0.35714285714285715,0.36666666666666664,0.36666666666666664,0.3761904761904762,0.3761904761904762,0.38571428571428573,0.38571428571428573,0.38571428571428573,0.3952380952380952,0.4142857142857143,0.43333333333333335,0.46190476190476193,0.49047619047619045,0.5190476190476191,0.5476190476190477,0.5761904761904761,0.5761904761904761,0.5761904761904761,0.5761904761904761,0.5761904761904761,0.5761904761904761,0.5761904761904761,0.5761904761904761,0.5761904761904761,0.5857142857142857,0.5952380952380952,0.5952380952380952,0.5952380952380952,0.5952380952380952,0.5952380952380952,0.5952380952380952,0.5952380952380952,0.6047619047619047,0.6047619047619047,0.6142857142857143,0.6142857142857143,0.6238095238095238,0.6238095238095238,0.6238095238095238,0.6238095238095238,0.6238095238095238,0.6238095238095238,0.6238095238095238,0.6238095238095238,0.6238095238095238,0.6238095238095238,0.6238095238095238,0.6238095238095238,0.6238095238095238,0.6238095238095238,0.6238095238095238,0.6238095238095238,0.6238095238095238,0.6333333333333333,0.6333333333333333,0.6333333333333333,0.6333333333333333,0.6428571428571429,0.6523809523809524,0.6523809523809524,0.6523809523809524,0.6523809523809524,0.6619047619047619,0.6714285714285714,0.6714285714285714,0.6904761904761905,0.7,0.7,0.7095238095238096,0.7095238095238096,0.7285714285714285,0.7285714285714285,0.7380952380952381,0.7476190476190476,0.7476190476190476,0.7666666666666667,0.7761904761904762,0.7761904761904762,0.7857142857142857,0.7857142857142857,0.7857142857142857,0.7857142857142857,0.7857142857142857,0.7857142857142857,0.7857142857142857,0.7857142857142857,0.7857142857142857,0.7857142857142857,0.7857142857142857,0.7857142857142857,0.7857142857142857,0.7857142857142857,0.7857142857142857,0.7857142857142857,0.7857142857142857,0.7857142857142857,0.7857142857142857,0.7857142857142857,0.7857142857142857,0.7857142857142857,0.7857142857142857,0.7857142857142857,0.7857142857142857,0.7857142857142857,0.7857142857142857,0.7857142857142857,0.7857142857142857,0.7857142857142857,0.7857142857142857,0.7857142857142857,0.7857142857142857,0.7857142857142857,0.7857142857142857,0.7857142857142857,0.7857142857142857,0.7857142857142857,0.7857142857142857,0.7857142857142857,0.7857142857142857,0.7857142857142857,0.7857142857142857,0.7857142857142857,0.7857142857142857,0.7857142857142857,0.7857142857142857,0.7857142857142857,0.7857142857142857,0.7857142857142857,0.7857142857142857,0.7857142857142857,0.7857142857142857,0.7857142857142857,0.7857142857142857,0.7857142857142857,0.7857142857142857,0.7857142857142857,0.7857142857142857,0.7857142857142857,0.7857142857142857,0.7857142857142857,0.7857142857142857,0.7857142857142857,0.7857142857142857,0.7857142857142857,0.7857142857142857,0.7857142857142857,0.7857142857142857,0.7952380952380952,0.8047619047619048,0.8238095238095238,0.8428571428571429,0.861904761904762,0.8809523809523809,0.9,0.9380952380952381,0.9571428571428572,0.9571428571428572,0.9666666666666667,0.9666666666666667,0.9761904761904762,0.9761904761904762,0.9761904761904762,0.9761904761904762,0.9761904761904762,0.9857142857142858,0.9857142857142858,0.9952380952380953,1.0047619047619047,1.0238095238095237,1.042857142857143,1.0523809523809524,1.061904761904762,1.0809523809523809,1.0809523809523809,1.0809523809523809,1.0809523809523809,1.0809523809523809,1.0809523809523809,1.0809523809523809,1.0809523809523809,1.0809523809523809,1.0809523809523809,1.0809523809523809,1.0809523809523809,1.0809523809523809,1.0809523809523809,1.0809523809523809,1.0904761904761904,1.0904761904761904,1.0904761904761904,1.0904761904761904,1.0904761904761904,1.0904761904761904,1.0904761904761904,1.0904761904761904,1.0809523809523809,1.0809523809523809,1.0809523809523809,1.0809523809523809,1.0809523809523809,1.0809523809523809,1.0809523809523809,1.0809523809523809,1.0809523809523809,1.0809523809523809,1.0809523809523809,1.0809523809523809,1.0809523809523809,1.0809523809523809,1.0809523809523809,1.0809523809523809,1.0714285714285714,1.061904761904762,1.061904761904762,1.061904761904762,1.061904761904762,1.061904761904762,1.061904761904762,1.061904761904762,1.061904761904762,1.061904761904762,1.061904761904762,1.061904761904762,1.061904761904762,1.061904761904762,1.061904761904762,1.061904761904762,1.061904761904762,1.061904761904762,1.061904761904762,1.061904761904762,1.061904761904762,1.061904761904762,1.061904761904762,1.061904761904762,1.061904761904762,1.061904761904762,1.061904761904762,1.061904761904762,