[{"success":true,"trial_type":"fullscreen","trial_index":0,"time_elapsed":5113,"internal_node_id":"0.0-0.0","protocol_sum":"","subject_identifier":225,"subject_sum":[177,85,109,234,50,233,208,205,191,237,3,143,215,120,114,117,119,94,164,9,57,193,70,166,78,32,91,203,52,154,208,47],"subject_pair":112,"STUDY_ID":"669eec2e4270c76bc184a38e","PROLIFIC_PID":"66338fb1dfa77d3fd06531ad","SESSION_ID":"669fd8d07902bd75705284f7","practice_instructions":1,"leaderboard_instructions":1,"bonus":0,"reveal_word":true,"self_rating":"4","confidence":"26"},{"view_history":"[{\"page_index\":0,\"viewing_time\":6846.599999964237}]","rt":6846.799999952316,"trial_type":"instructions","trial_index":1,"time_elapsed":11962,"internal_node_id":"0.0-1.0","protocol_sum":"","subject_identifier":225,"subject_sum":[177,85,109,234,50,233,208,205,191,237,3,143,215,120,114,117,119,94,164,9,57,193,70,166,78,32,91,203,52,154,208,47],"subject_pair":112,"STUDY_ID":"669eec2e4270c76bc184a38e","PROLIFIC_PID":"66338fb1dfa77d3fd06531ad","SESSION_ID":"669fd8d07902bd75705284f7","practice_instructions":1,"leaderboard_instructions":1,"bonus":0,"reveal_word":true,"self_rating":"4","confidence":"26"},{"view_history":"[{\"page_index\":0,\"viewing_time\":27381.5}]","rt":27381.700000047684,"trial_type":"instructions","trial_index":2,"time_elapsed":39346,"internal_node_id":"0.0-2.0-0.0","protocol_sum":"","subject_identifier":225,"subject_sum":[177,85,109,234,50,233,208,205,191,237,3,143,215,120,114,117,119,94,164,9,57,193,70,166,78,32,91,203,52,154,208,47],"subject_pair":112,"STUDY_ID":"669eec2e4270c76bc184a38e","PROLIFIC_PID":"66338fb1dfa77d3fd06531ad","SESSION_ID":"669fd8d07902bd75705284f7","practice_instructions":1,"leaderboard_instructions":1,"bonus":0,"reveal_word":true,"self_rating":"4","confidence":"26"},{"rt":14392.899999976158,"responses":"{\"Q0\":\"... reveal the word with as <b>few letter guesses</b> as possible\"}","question_order":"[0]","trial_type":"survey-multi-choice","trial_index":3,"time_elapsed":53740,"internal_node_id":"0.0-2.0-1.0","protocol_sum":"","subject_identifier":225,"subject_sum":[177,85,109,234,50,233,208,205,191,237,3,143,215,120,114,117,119,94,164,9,57,193,70,166,78,32,91,203,52,154,208,47],"subject_pair":112,"correct":true,"test_part":"multichoice_nonpretend","STUDY_ID":"669eec2e4270c76bc184a38e","PROLIFIC_PID":"66338fb1dfa77d3fd06531ad","SESSION_ID":"669fd8d07902bd75705284f7","practice_instructions":1,"leaderboard_instructions":1,"bonus":0,"reveal_word":true,"self_rating":"4","confidence":"26"},{"view_history":"[{\"page_index\":0,\"viewing_time\":4377.699999988079}]","rt":4378,"trial_type":"instructions","trial_index":4,"time_elapsed":58120,"internal_node_id":"0.0-3.0","protocol_sum":"","subject_identifier":225,"subject_sum":[177,85,109,234,50,233,208,205,191,237,3,143,215,120,114,117,119,94,164,9,57,193,70,166,78,32,91,203,52,154,208,47],"subject_pair":112,"STUDY_ID":"669eec2e4270c76bc184a38e","PROLIFIC_PID":"66338fb1dfa77d3fd06531ad","SESSION_ID":"669fd8d07902bd75705284f7","practice_instructions":1,"leaderboard_instructions":1,"bonus":0,"reveal_word":true,"self_rating":"4","confidence":"26"},{"word":"ZEBRA","click_log":{"letter":["","H","L","M","S","P","B","A","C","Z","E","R"],"t":[0,7515.100000023842,18529.19999998808,25283.30000001192,35145.30000001192,67472.60000002384,80863.30000001192,85645,92267.19999998808,101457.10000002384,103460.60000002384,106362.89999997616],"hit":[null,0,0,0,0,0,1,1,0,1,1,1],"asked":["","H","HL","HLM","HLMS","HLMSP","HLMSPB","HLMSPBA","HLMSPBAC","HLMSPBACZ","HLMSPBACZE","HLMSPBACZER"],"word_state":["_____","_____","_____","_____","_____","_____","__B__","__B_A","__B_A","Z_B_A","ZEB_A","ZEBRA"]},"hover_log":{"letter":["?","?","?","?","?","J","J","?","?","?","?","?","?","?","?","?","?","?","?","?","?","?","?","?","?","?","?","?","?","?","?","?","?","?","?","?","?","?","?","?","?","?","?","?","?","?","?","?","?","?","?","?","?","?","?","?","?","?","?","?","?","?","?","?","?","?","?","?","?","?","?","?","?","?","?","?","?","?","?","?","?","?","?","?","?","?","?","?","?","?","?","?","?","?","?","?","?","?","?","?","?","?","?","?","?","?","?","?","?","?","?","?","?","?","?","?","?","?","?","?","?","?","?","?","?","?","?","?","?","?","?","?","?","?","?","?","?","?","?","?","?","?","?","?","?","?","?","?","?","?","?","?","?","?","?","?","?","?","?","?","?","?","?","?","?","?","?","?","?","?","?","?","?","?","?","?","?","?","?","?","?","?","?","?","?","?","?","?","?","?","?","?","?","?","?","?","?","?","?","?","?","?","?","?","?","?","?","?","?","?","?","?","?","?","?","?","?","?","?","?","?","?","?","?","?","?","?","?","?","?","?","?","?","?","?","?","?","?","?","?","?","?","?","?","?","?","?","?","?","?","?","?","?","?","?","?","?","?","?","?","?","?","?","?","?","?","?","?","?","?","?","?","?","?","?","?","?","?","?","?","?","?","?","?","?","?","?","?","?","?","?","?","?","?","?","?","?","?","?","?","?","?","?","?","?","?","?","?","?","?","?","?","?","?","?","?","?","?","?","?","?","?","?","?","?","?","?","?","?","?","?","?","?","?","?","?","?","?","?","?","?","?","?","?","?","?","?","?","?","?","?","?","?","?","?","?","?","?","?","?","?","?","?","?","?","?","?","?","?","?","?","?","?","?","?","?","?","?","?","?","?","?","W","W","W","?","?","?","?","?","?","?","?","?","?","?","?","?","?","P","P","Q","Q","Q","?","?","?","?","?","?","?","?","?","?","?","?","?","?","H","H","H","H","H","H","H","H","H","H","H","H","H","H","H","H","H","H","H","H","H","H","H","H","H","H","H","H","H","H","H","H","H","H","H","H","H","H","H","H","H","H","H","H","?","?","?","?","Q","Q","?","?","?","?","?","?","?","?","?","?","?","?","?","?","?","?","?","?","?","?","?","?","?","?","?","?","?","?","?","?","?","?","?","?","?","?","?","?","?","?","?","?","?","?","?","?","?","?","?","?","?","?","?","?","?","?","?","?","?","?","?","?","?","?","?","?","?","?","?","?","?","?","?","?","?","?","?","?","?","?","?","?","?","?","?","?","?","?","?","?","?","?","?","?","?","?","?","?","?","?","?","?","?","?","?","?","?","?","?","?","?","?","?","?","?","?","?","?","?","?","?","?","?","?","?","?","?","?","?","?","?","?","?","?","?","?","?","?","?","?","?","?","?","?","?","?","?","?","?","?","?","?","?","?","?","?","?","?","?","?","?","?","?","?","?","?","?","?","?","?","?","?","?","?","?","?","?","?","?","?","?","?","?","?","?","?","?","?","?","?","?","?","?","?","?","?","?","?","?","?","?","?","?","?","?","?","?","?","?","?","?","?","?","?","?","?","?","?","?","?","?","?","?","?","?","?","?","?","?","?","?","?","?","?","?","?","?","?","?","?","?","?","?","?","?","?","?","?","?","?","?","?","?","?","?","?","?","?","?","?","?","?","?","?","?","?","?","?","?","?","?","?","?","?","?","?","?","?","?","?","?","?","?","?","?","?","?","?","?","?","?","?","?","?","?","?","?","?","?","?","?","?","?","?","?","?","?","?","?","?","?","?","?","?","?","?","?","?","?","?","?","?","?","?","?","?","?","?","?","?","?","?","?","?","?","?","?","?","?","?","?","?","?","?","?","?","?","?","?","?","?","?","?","?","?","?","?","?","?","?","?","?","?","?","?","?","?","?","?","?","?","?","?","?","?","?","?","?","?","?","?","?","?","?","?","?","?","?","?","?","?","?","?","?","?","?","?","?","?","?","?","?","?","?","?","?","?","?","?","?","?","?","?","?","?","?","?","?","?","?","?","?","?","?","?","?","?","?","?","?","?","?","?","?","?","?","?","?","?","?","?","?","?","?","?","?","?","?","?","?","?","?","?","?","?","?","?","?","?","?","?","?","?","?","?","?","?","?","?","?","?","?","?","?","?","?","?","?","?","?","?","?","?","?","?","?","?","?","?","?","?","?","?","?","?","?","?","?","?","?","?","?","?","?","?","?","?","?","?","?","?","?","?","?","?","?","?","?","?","?","?","?","?","?","?","?","?","?","?","?","?","?","?","?","X","X","X","X","X","X","X","X","X","X","X","X","X","X","X","X","X","X","X","X","X","X","X","X","X","X","X","X","X","X","X","X","X","X","X","X","?","?","?","W","W","W","?","?","?","?","?","?","?","?","?","?","?","?","?","?","?","?","?","?","?","?","?","?","?","?","?","?","?","?","L","L","L","L","L","L","L","L","L","L","L","L","L","L","L","L","L","L","L","L","L","L","L","L","L","L","L","L","L","L","L","L","L","L","L","L","L","L","L","L","L","L","L","L","L","L","L","L","L","L","L","L","L","L","L","L","L","L","L","L","L","L","L","L","L","L","L","L","L","L","L","L","L","L","L","L","L","L","L","L","L","L","?","?","?","?","?","U","U","U","U","?","?","?","?","?","?","?","?","?","?","?","?","?","?","?","?","?","?","?","?","?","?","?","?","?","?","?","?","?","?","?","?","?","?","?","?","?","?","?","?","?","?","?","?","?","?","?","?","?","?","?","?","?","?","?","?","?","?","?","?","?","?","?","?","?","?","?","?","?","?","?","?","?","?","?","?","?","?","?","?","?","?","?","?","?","?","?","?","?","?","?","?","?","?","?","?","?","?","?","?","?","?","?","?","?","?","?","?","?","?","?","?","?","?","?","?","?","?","?","?","?","?","?","?","?","?","?","?","?","?","?","?","?","?","?","?","?","?","?","?","?","?","?","?","?","?","?","?","?","?","?","?","?","?","?","?","?","?","?","?","?","?","?","?","?","?","?","?","?","?","?","?","?","?","?","?","?","?","?","?","?","?","?","?","?","?","?","?","?","?","?","?","?","?","?","?","?","?","?","?","?","?","?","?","?","?","?","?","?","?","?","?","?","?","?","?","?","?","?","?","?","?","?","?","?","?","?","?","?","?","?","?","?","?","?","?","?","?","?","?","?","?","?","?","?","?","?","?","?","?","?","?","?","?","?","?","?","?","?","?","?","?","?","?","?","?","?","?","?","?","?","?","?","?","?","?","?","?","?","?","?","?","?","?","?","?","?","?","?","?","?","?","?","?","?","?","?","?","?","?","?","?","U","U","U","U","?","?","?","?","?","?","?","?","?","M","M","M","M","M","M","M","M","M","M","M","M","M","M","M","M","M","M","M","M","M","M","M","M","M","M","M","M","M","M","M","M","M","M","M","M","M","M","M","M","M","M","M","M","M","M","M","M","M","M","M","M","M","M","M","M","M","M","M","M","M","M","M","M","M","M","M","M","M","M","M","M","M","M","M","M","M","M","M","M","M","M","M","M","M","M","M","M","M","M","M","M","M","M","M","M","M","M","M","M","M","M","M","M","M","M","M","M","M","M","M","?","?","?","?","V","V","V","V","V","V","V","V","V","?","?","?","?","?","?","?","?","?","?","?","?","?","?","?","?","?","?","?","?","?","?","?","?","?","?","?","?","?","?","?","?","?","?","?","?","?","?","?","?","?","?","?","?","?","?","?","?","?","?","?","?","?","?","?","?","?","?","?","?","?","?","?","?","?","?","?","?","?","?","?","?","?","?","?","?","?","?","?","?","?","?","?","?","?","?","?","?","?","?","?","?","?","?","?","?","?","?","?","?","?","?","?","?","?","?","?","?","?","?","?","?","?","?","?","?","?","?","?","?","?","?","?","?","?","?","?","?","?","?","?","?","?","?","?","?","?","?","?","?","?","?","?","?","?","?","?","?","?","?","?","?","?","?","?","?","?","?","?","?","?","?","?","?","?","?","?","?","?","?","?","?","?","?","?","?","?","?","?","?","?","?","?","?","?","?","?","?","?","?","?","?","?","?","?","?","?","?","?","?","?","?","?","?","?","?","?","?","?","?","?","?","?","?","?","?","?","?","?","?","?","?","?","?","?","?","?","?","?","?","?","?","?","?","?","?","?","?","?","?","?","?","?","?","?","?","?","?","?","?","?","?","?","?","?","?","?","?","?","?","?","?","?","?","?","?","?","?","?","?","?","?","?","?","?","?","?","?","?","?","?","?","?","?","?","?","?","?","?","?","?","?","?","?","?","?","?","?","?","?","?","?","?","?","?","?","?","?","?","?","?","?","?","?","?","?","?","?","?","?","?","?","?","?","?","?","?","?","?","?","?","?","?","?","?","?","?","?","?","?","?","?","?","?","?","?","?","?","?","?","?","?","?","?","?","?","?","?","?","?","?","?","?","?","?","?","?","?","?","?","?","?","?","?","?","?","?","?","?","?","?","?","?","?","?","?","?","?","?","?","V","V","V","V","?","?","?","?","?","?","?","?","?","?","?","?","M","M","?","N","N","N","N","N","N","O","O","O","O","O","O","O","O","O","O","O","O","O","O","O","O","O","O","O","O","O","O","O","O","?","?","?","?","?","?","?","?","?","?","?","?","?","?","?","?","?","?","?","?","?","?","?","T","T","T","T","T","T","T","T","T","T","T","T","S","S","S","S","S","S","S","S","S","S","S","S","S","S","S","S","S","S","S","S","S","S","S","S","S","S","S","S","S","S","S","S","S","S","S","S","S","S","S","S","S","S","S","S","S","S","S","S","S","S","S","S","?","?","?","?","?","?","?","?","?","?","?","?","?","?","?","?","?","?","?","?","?","?","?","?","?","?","?","?","?","?","?","?","?","?","?","?","?","?","?","?","?","?","?","?","?","?","?","?","?","?","?","?","?","?","?","?","?","?","?","?","?","?","?","?","?","?","?","?","?","?","?","?","?","?","?","?","?","?","?","?","?","?","?","?","?","?","?","?","?","?","?","?","?","?","?","?","?","?","?","?","?","?","?","?","?","?","?","?","?","?","?","?","?","?","?","?","?","?","?","?","?","?","?","?","?","?","?","?","?","?","?","?","?","?","?","?","?","?","?","?","?","?","?","?","?","?","?","?","?","?","?","?","?","?","?","?","?","?","?","?","?","?","?","?","?","?","?","?","?","?","?","?","?","?","?","?","?","?","?","?","?","?","?","?","?","?","?","?","?","?","?","?","?","?","?","?","?","?","?","?","?","?","?","?","?","?","?","?","?","?","?","?","?","?","?","?","?","?","?","?","?","?","?","?","?","?","?","?","?","?","?","?","?","?","?","?","?","?","?","?","?","?","?","?","?","?","?","?","?","?","?","?","?","?","?","?","?","?","?","?","?","?","?","?","?","?","?","?","?","?","?","?","?","?","?","?","?","?","?","?","?","?","?","?","?","?","?","?","?","?","?","?","?","?","?","?","?","?","?","?","?","?","?","?","?","?","?","?","?","?","?","?","?","?","?","?","?","?","?","?","?","?","?","?","?","?","?","?","?","?","?","?","?","?","?","?","?","?","?","?","?","?","?","?","?","?","?","?","?","?","?","?","?","?","?","?","?","?","?","?","?","?","?","?","?","?","?","?","?","?","?","?","?","?","?","?","?","?","?","?","?","?","?","?","?","?","?","?","?","?","?","?","?","?","?","?","?","?","?","?","?","?","?","?","?","?","?","?","?","?","?","?","?","?","?","?","?","?","?","?","?","?","?","?","?","?","?","?","?","?","?","?","?","?","?","?","?","?","?","?","?","?","?","?","?","?","?","?","?","?","?","?","?","?","?","?","?","?","?","?","?","?","?","?","?","?","?","?","?","?","?","?","?","?","?","?","?","?","?","?","?","?","?","?","?","?","?","?","?","?","?","?","?","?","?","?","?","?","?","?","?","?","?","?","?","?","?","?","?","?","?","?","?","?","?","?","?","?","?","?","?","?","?","?","?","?","?","?","?","?","?","?","?","?","?","?","?","?","?","?","?","?","?","?","?","?","?","?","?","?","?","?","?","?","?","?","?","?","?","?","?","?","?","?","?","?","?","?","?","?","?","?","?","?","?","?","?","?","?","?","?","?","?","?","?","?","?","?","?","?","?","?","?","?","?","?","?","?","?","?","?","?","?","?","?","?","?","?","?","?","?","?","?","?","?","?","?","?","?","?","?","?","?","?","?","?","?","?","?","?","?","?","?","?","?","?","?","?","?","?","?","?","?","?","?","?","?","?","?","?","?","?","?","?","?","?","?","?","?","?","?","?","?","?","?","?","?","?","?","?","?","?","?","?","?","?","?","?","?","?","?","?","?","?","?","?","?","?","?","?","?","?","?","?","?","?","?","?","?","?","?","?","?","?","?","?","?","?","?","?","?","?","?","?","?","?","?","?","?","?","?","?","?","?","?","?","?","?","?","?","?","?","?","?","?","?","?","?","?","?","?","?","?","?","?","?","?","?","?","?","?","?","?","?","?","?","?","?","?","?","?","?","?","?","?","?","?","?","?","?","?","?","?","?","?","?","?","?","?","?","?","?","?","?","?","?","?","?","?","?","?","?","?","?","?","?","?","?","?","?","?","?","?","?","?","?","?","?","?","?","?","?","?","?","?","?","?","?","?","?","?","?","?","?","?","?","?","?","?","?","?","?","?","?","?","?","?","?","?","?","?","?","?","?","?","?","?","?","?","?","?","?","?","?","?","?","?","?","?","?","?","?","?","?","?","?","?","?","?","?","?","?","?","?","?","?","?","?","?","?","?","?","?","?","?","?","?","?","?","?","?","?","?","?","?","?","?","?","?","?","?","?","?","?","?","?","?","?","?","?","?","?","?","?","?","?","?","?","?","?","?","?","?","?","?","?","?","?","?","?","?","?","?","?","?","?","?","?","?","?","?","?","?","?","?","?","?","?","?","?","?","?","?","?","?","?","?","?","?","?","?","?","?","?","?","?","?","?","?","?","?","?","?","?","?","?","?","?","?","?","?","?","?","?","?","?","?","?","?","?","?","?","?","?","?","?","?","?","?","?","?","?","?","?","?","?","?","?","?","?","?","?","?","?","?","?","?","?","?","?","?","?","?","?","?","?","?","?","?","?","?","?","?","?","?","?","?","?","?","?","?","?","?","?","?","?","?","?","?","?","?","?","?","?","?","?","?","?","?","?","?","?","?","?","?","?","?","?","?","?","?","?","?","?","?","?","?","?","?","?","?","?","?","?","?","?","?","?","?","?","?","?","?","?","?","?","?","?","?","?","?","?","?","?","?","?","?","?","?","?","?","?","?","?","?","?","?","?","?","?","?","?","?","?","?","?","?","?","?","?","?","?","?","?","?","?","?","?","?","?","?","?","?","?","?","?","?","?","?","?","?","?","?","?","?","?","?","?","?","?","?","?","?","?","?","?","?","?","?","?","?","?","?","?","?","?","?","?","?","?","?","?","?","?","?","?","?","?","?","?","?","?","?","?","?","?","?","?","?","?","?","?","?","?","?","?","?","?","?","?","?","?","?","?","?","?","?","?","?","?","?","?","?","?","?","?","?","?","?","?","?","?","?","?","?","?","?","?","?","?","?","?","?","?","?","?","?","?","?","?","?","?","?","?","?","?","?","?","?","?","?","?","?","?","?","?","?","?","?","?","?","?","?","?","?","?","?","?","?","?","?","?","?","?","?","?","?","?","?","?","?","?","?","?","?","?","?","?","?","?","?","?","?","?","?","?","?","?","?","?","?","?","?","?","?","?","?","?","?","?","?","?","?","?","?","?","?","?","?","?","?","?","?","?","?","?","?","?","?","?","?","?","?","?","?","?","?","?","?","?","?","?","?","?","?","?","?","?","?","?","?","?","?","?","?","?","?","?","?","?","?","?","?","?","?","?","?","?","?","?","?","?","?","?","?","?","?","?","?","?","?","?","?","?","?","?","?","?","?","?","?","?","?","?","?","?","?","?","?","?","?","?","?","?","?","?","?","?","?","?","?","?","?","?","?","?","?","?","?","?","?","?","?","?","?","?","?","?","?","?","?","?","?","?","?","?","?","?","?","?","?","?","?","?","?","?","?","?","?","?","?","?","?","?","?","?","?","?","?","?","?","?","?","?","?","?","?","?","?","?","?","?","?","?","?","?","?","?","?","?","?","?","?","?","?","?","?","?","?","?","?","?","?","?","?","?","?","?","?","?","?","?","?","?","?","?","?","?","?","?","?","?","?","?","?","?","?","?","?","?","?","?","?","?","?","?","?","?","?","?","?","?","?","?","?","?","?","?","?","?","?","?","?","?","?","?","?","?","?","?","?","?","?","?","?","?","?","?","?","?","?","?","?","?","?","?","?","?","?","?","?","?","?","?","?","?","?","?","?","?","?","?","?","?","?","?","?","?","?","?","?","?","?","?","?","?","?","?","?","?","?","?","?","?","?","?","?","?","?","?","?","?","?","?","?","?","?","?","?","?","?","?","?","?","?","?","?","?","?","?","?","?","?","?","?","?","?","?","?","?","?","?","?","?","?","?","?","?","?","?","?","?","?","?","?","?","?","?","?","?","?","?","?","?","?","?","?","?","?","?","?","?","?","?","?","?","?","?","?","?","?","?","?","?","?","?","?","?","?","?","?","?","?","?","?","?","?","?","?","?","?","?","?","?","?","?","?","?","?","?","?","?","?","?","?","?","?","?","?","?","?","?","?","?","?","?","?","?","?","?","?","?","?","?","?","?","?","?","?","?","?","?","?","?","?","?","?","?","?","?","?","?","?","?","?","?","?","?","?","?","?","?","?","?","?","?","?","?","?","?","?","?","?","?","?","?","?","?","?","?","?","?","?","?","?","?","?","?","?","?","?","?","?","?","?","?","?","?","?","?","?","?","?","?","?","?","?","?","?","?","?","?","?","?","?","?","?","?","?","?","?","?","?","?","?","?","?","?","?","?","?","?","?","?","?","?","?","?","?","?","?","?","?","?","?","?","?","?","?","?","?","?","?","?","?","?","?","?","?","?","?","X","X","X","X","X","?","?","?","?","?","?","?","?","?","?","?","?","P","P","P","P","P","P","P","P","P","P","P","P","P","P","P","P","P","P","P","P","P","P","P","P","P","P","P","P","P","P","P","P","P","P","P","P","P","P","P","P","P","P","P","P","P","P","P","P","?","?","?","?","?","Y","Y","Y","Y","Y","Y","?","?","?","?","?","?","?","?","?","?","?","?","?","?","?","?","?","?","?","?","?","?","?","?","?","?","?","?","?","?","?","?","?","?","?","?","?","?","?","?","?","?","?","?","?","?","?","?","?","?","?","?","?","?","?","?","?","?","?","?","?","?","?","?","?","?","?","?","?","?","?","?","?","?","?","?","?","?","?","?","?","?","?","?","?","?","?","?","?","?","?","?","?","?","?","?","?","?","?","?","?","?","?","?","?","?","?","?","?","?","?","?","?","?","?","?","?","?","?","?","?","?","?","?","?","?","?","?","?","?","?","?","?","?","?","?","?","?","?","?","?","?","?","?","?","?","?","?","?","?","?","?","?","?","?","?","?","?","?","?","?","?","?","?","?","?","?","?","?","?","?","?","?","?","?","?","?","?","?","?","?","?","?","?","?","?","?","?","?","?","?","?","?","?","?","?","?","?","?","?","?","?","?","?","?","?","?","?","?","?","?","?","?","?","?","?","?","?","?","?","?","?","?","?","?","?","?","?","?","?","?","?","?","?","?","?","?","?","?","?","?","?","?","?","?","?","?","?","?","?","?","?","?","?","?","?","?","?","?","?","?","?","?","?","?","?","?","?","?","?","?","?","?","?","?","?","?","?","?","?","?","?","?","?","?","?","?","?","?","?","?","?","?","?","?","?","?","?","?","?","?","?","?","?","?","?","?","?","?","?","?","?","?","?","?","?","?","?","?","?","?","?","?","?","?","?","?","?","?","?","?","?","?","?","?","?","?","?","?","?","?","?","?","?","?","?","?","?","?","?","?","?","?","?","?","?","?","?","?","?","?","?","?","?","?","?","?","?","?","?","?","?","?","?","?","?","?","?","?","?","?","?","?","?","?","?","?","?","?","?","?","?","?","?","?","?","?","?","?","?","?","?","?","?","?","?","?","?","?","?","?","?","?","?","?","?","?","?","?","?","?","?","?","?","?","?","?","?","?","?","?","?","?","?","?","?","?","?","?","?","?","?","?","?","?","?","?","?","?","?","?","?","?","?","?","?","?","?","?","?","?","?","?","?","?","?","?","?","?","?","?","?","?","?","?","?","?","?","?","?","?","?","?","?","?","?","?","?","?","?","?","?","?","?","?","?","?","?","?","?","?","?","?","?","?","?","?","?","?","?","?","?","?","?","?","?","?","?","?","?","?","?","?","?","?","?","?","?","?","?","?","?","?","?","?","?","?","?","?","?","?","?","?","?","?","?","?","?","?","?","?","?","?","?","?","?","?","?","?","?","?","?","?","?","?","?","?","?","?","?","?","?","?","?","?","?","?","?","?","?","?","?","?","?","?","?","?","?","?","?","?","?","?","?","?","?","?","?","?","?","?","?","?","?","?","?","?","?","?","?","?","?","?","?","?","?","?","?","?","?","?","?","?","?","?","?","?","?","?","?","?","?","?","?","?","?","?","?","?","?","?","?","W","V","L","K","A","?","?","?","?","?","?","?","?","?","?","?","?","?","?","?","?","?","?","?","?","?","?","?","?","?","?","?","?","?","?","?","?","?","?","?","?","?","?","?","?","?","?","?","?","?","?","?","?","?","?","?","?","?","?","?","?","?","?","?","?","?","A","A","A","A","A","A","A","A","A","A","A","A","A","A","A","A","A","A","A","A","A","A","A","?","?","?","?","?","?","?","B","B","B","B","B","B","B","B","B","B","B","B","B","B","B","B","B","B","B","B","B","B","B","B","B","B","B","B","B","B","B","B","B","B","B","B","B","B","B","B","B","B","B","B","B","B","B","B","B","B","B","B","B","B","B","B","B","B","B","B","B","B","B","B","B","B","B","B","B","B","B","B","B","B","B","B","B","B","B","B","B","B","B","B","B","B","B","B","B","B","B","B","B","B","B","B","B","B","B","B","B","B","B","B","B","B","B","B","B","B","?","?","?","U","?","?","?","?","?","?","?","?","?","?","?","?","?","?","?","?","?","?","?","?","?","?","?","?","?","?","?","?","?","?","?","?","?","?","?","?","?","?","?","?","?","?","?","?","?","?","?","?","?","?","?","?","?","?","?","?","?","?","?","?","?","?","?","?","?","?","?","?","?","?","?","?","?","?","?","?","?","?","?","?","?","?","?","?","?","?","?","?","?","?","?","?","?","?","?","?","?","?","?","?","?","?","?","?","?","?","?","?","?","?","?","?","?","?","?","?","?","?","?","?","?","?","?","?","U","U","U","U","?","?","?","?","?","K","K","K","K","K","K","K","?","?","?","?","?","?","?","?","?","?","?","?","?","?","?","?","?","?","?","?","?","?","?","?","A","A","A","A","A","A","A","A","A","A","A","A","A","A","A","A","A","A","A","A","A","A","A","A","A","A","A","A","A","A","A","A","A","A","A","A","A","A","A","A","A","A","A","A","A","A","A","A","A","A","A","A","A","A","A","A","A","A","A","A","A","A","A","A","A","A","A","A","A","A","A","A","A","A","A","A","A","A","A","A","A","A","A","A","A","A","A","A","A","A","A","A","A","A","A","?","?","?","?","J","?","?","?","?","?","?","S","S","S","S","S","S","?","?","?","?","?","?","?","?","?","?","?","?","?","?","?","?","?","?","?","?","?","?","?","?","?","?","?","?","?","?","?","?","?","?","?","?","?","?","?","?","?","?","?","?","?","?","?","?","?","?","?","?","?","?","?","?","?","?","?","?","?","?","?","?","?","?","?","?","?","?","?","?","?","?","?","?","?","?","?","?","?","?","?","?","?","?","?","?","?","?","?","?","?","?","?","?","?","?","?","?","?","?","?","?","?","?","?","?","?","?","?","?","?","?","?","?","?","?","?","?","?","?","?","?","?","?","?","?","?","?","?","?","?","?","?","?","?","?","?","?","?","?","?","?","?","?","?","?","?","?","?","?","?","?","?","?","?","?","?","?","?","?","?","?","?","?","?","?","?","?","?","?","?","?","?","?","?","?","?","?","?","?","?","?","?","?","?","?","?","?","?","?","?","?","?","?","?","?","?","?","?","?","?","?","?","?","?","?","?","?","?","?","?","?","?","?","?","?","?","?","?","?","?","?","?","?","?","?","?","?","?","?","?","?","?","?","?","?","?","?","?","?","?","?","?","?","?","?","?","?","?","?","?","?","?","?","?","?","?","U","U","U","U","U","?","?","?","?","?","L","L","L","L","L","L","L","L","L","L","L","?","?","?","?","?","?","?","?","?","C","C","C","C","C","C","C","C","C","C","C","C","C","C","C","C","C","C","C","C","C","C","C","C","C","C","C","C","C","C","C","C","C","C","C","C","C","C","C","C","C","C","C","C","C","C","C","C","C","C","C","C","C","C","C","C","C","C","C","C","C","C","C","C","C","C","C","C","C","C","C","C","C","C","C","C","C","C","C","C","C","C","C","C","C","C","C","C","C","C","C","C","C","C","C","C","C","C","C","C","C","C","C","C","?","?","?","?","?","?","?","V","V","?","?","?","?","?","?","?","?","?","?","?","?","?","?","?","?","?","?","?","?","?","?","?","?","?","?","?","?","?","?","?","?","?","?","?","?","?","?","?","?","?","?","?","?","?","?","?","?","?","?","?","?","?","?","?","?","?","?","?","?","?","?","?","?","?","?","?","?","?","?","?","?","?","?","?","?","?","?","?","?","?","?","?","?","?","?","?","?","?","?","?","?","?","?","?","?","?","?","?","?","?","?","?","?","?","?","?","?","?","?","?","?","?","?","?","?","?","?","?","?","?","?","?","?","?","?","?","?","?","?","?","?","?","?","?","?","?","?","?","?","?","?","?","?","?","?","?","?","?","?","?","?","?","?","?","?","?","?","?","?","?","?","?","?","?","?","?","?","?","?","?","?","?","?","?","?","?","?","?","?","?","?","?","?","?","?","?","?","?","?","?","?","?","?","?","?","?","?","?","?","?","?","?","?","?","?","?","?","?","?","?","?","?","?","?","?","?","?","?","?","?","?","?","?","?","?","?","?","?","?","?","?","?","?","?","?","?","?","?","?","?","?","?","?","?","?","?","?","?","?","?","?","?","?","?","?","?","?","?","?","?","?","?","?","?","?","?","?","?","?","?","?","?","?","?","?","?","?","?","?","?","?","?","?","?","?","?","?","?","?","?","?","?","?","?","?","?","?","?","?","?","?","?","?","?","?","?","?","?","?","?","?","?","?","?","?","?","?","?","?","?","?","?","?","?","?","?","?","?","?","?","?","?","?","?","?","?","?","?","?","?","?","?","?","?","?","?","?","?","?","?","?","?","?","?","?","?","?","?","?","?","?","?","?","?","?","?","?","?","?","?","?","?","?","?","?","?","?","?","?","?","?","?","?","?","?","?","?","?","?","?","?","?","?","?","?","?","?","?","?","?","?","?","?","W","W","W","W","?","?","?","X","X","X","X","X","X","X","X","X","X","X","X","X","X","?","?","?","?","?","?","?","?","Y","Y","Y","Y","Y","Y","Y","Y","Y","Y","Y","Y","Y","Y","?","?","Z","Z","Z","Z","Z","Z","Z","Z","Z","Z","Z","Z","Z","Z","Z","Z","Z","Z","Z","Z","Z","Z","Z","Z","Z","Z","Z","Z","Z","Z","Z","Z","Z","Z","Z","Z","Z","Z","Z","Z","Z","Z","Z","Z","Z","Z","Z","Z","Z","Z","Z","Z","Z","Z","Z","Z","Z","Z","Z","Z","Z","Z","Z","Z","Z","Z","Z","Z","Z","Z","Z","Z","Z","?","Y","?","?","?","?","?","?","?","?","?","?","?","?","?","?","?","?","?","?","?","W","W","W","W","W","W","?","?","?","?","N","N","N","N","N","N","?","?","?","E","E","E","E","E","E","E","E","E","E","E","E","E","E","E","E","E","E","E","E","E","E","E","E","E","E","E","E","E","E","E","E","E","E","E","E","E","E","E","E","E","E","E","E","E","E","E","E","E","E","E","E","E","E","E","E","E","E","E","E","E","E","E","E","E","E","E","E","E","E","E","E","E","E","E","E","E","E","E","E","E","E","E","E","E","E","E","E","E","E","E","E","E","E","E","E","E","E","E","E","E","?","?","?","?","?","?","M","M","M","?","M","M","M","M","M","M","M","M","M","M","M","M","M","M","M","M","M","N","N","N","?","?","?","?","?","?","?","?","?","?","?","?","?","?","?","?","?","O","O","O","P","P","P","?","Q","Q","Q","Q","Q","Q","Q","Q","Q","Q","Q","Q","Q","Q","Q","Q","Q","Q","Q","Q","Q","?","R","R","R","R","R","R","R","R","R","R","R","R","R","R","R","R","R","R","R","R","R","R","R","R","R","R","R","R","R","R","R","R","R","R","R","R","R","R","R","R","R","R","R","R","R","R","R","R","R","R","R","R","R","R","?","?","?","?","?","?","?","?","?","?","?","?","?","?","?","?","?","?","?","?","?","?","?","?","?","?","?","?","?","?","?","?","?","?","?","?","?","?","?","?","?","?","?","?","?","?","?","?","?","?","?","?","?","?","?","?","?","?","?","?","?","?","?","?","?","?","?","?","?","?","?","?","?","?","?","?","?","?","?","?","?","?","?","?","?","?","?","?","?","?","?","?","?","?","?","?","?","?","?","?","?"],"t":[33,38,53,70,86,104,120,136,153,170,186,203,219,236,253,269,286,303,319,336,353,370,386,403,420,436,453,469,486,502,519,537,554,570,587,604,620,637,654,670,687,704,720,737,754,770,787,804,821,837,854,870,887,904,920,937,953,970,987,1003,1020,1037,1054,1071,1087,1104,1120,1137,1154,1170,1188,1206,1223,1240,1256,1272,1289,1305,1322,1339,1355,1372,1389,1406,1422,1443,1456,1469,1486,1503,1520,1536,1553,1570,1586,1603,1620,1636,1653,1672,1689,1704,1720,1737,1754,1771,1789,1805,1822,1839,1855,1872,1888,1905,1922,1938,1955,1972,1989,2005,2022,2039,2055,2072,2089,2105,2122,2139,2156,2172,2189,2205,2222,2239,2256,2272,2288,2305,2322,2338,2355,2371,2388,2405,2420,2437,2454,2471,2488,2504,2521,2537,2554,2570,2587,2604,2620,2637,2654,2670,2687,2704,2719,2736,2752,2769,2786,2802,2819,2836,2852,2869,2886,2903,2919,2936,2952,2969,2986,3003,3019,3036,3052,3069,3086,3102,3120,3137,3153,3170,3187,3203,3220,3237,3253,3270,3287,3303,3320,3337,3354,3370,3387,3403,3420,3437,3453,3470,3487,3503,3520,3537,3554,3570,3587,3604,3620,3637,3654,3670,3687,3704,3720,3737,3754,3770,3787,3803,3820,3838,3855,3871,3888,3905,3921,3939,3955,3972,3989,4005,4022,4038,4055,4072,4089,4105,4122,4138,4155,4172,4189,4205,4222,4238,4255,4272,4288,4305,4321,4338,4361,4370,4386,4403,4419,4436,4454,4470,4486,4503,4520,4536,4553,4570,4586,4603,4620,4636,4653,4670,4687,4703,4720,4736,4753,4770,4786,4803,4820,4836,4853,4870,4886,4903,4920,4936,4953,4970,4986,5003,5020,5036,5053,5070,5086,5103,5120,5137,5152,5169,5186,5202,5219,5236,5252,5269,5286,5302,5319,5336,5352,5369,5388,5407,5422,5438,5455,5472,5489,5505,5522,5538,5555,5572,5588,5605,5622,5639,5656,5672,5689,5705,5721,5738,5755,5772,5789,5805,5825,5836,5852,5869,5886,5903,5920,5936,5953,5969,5986,6003,6019,6036,6053,6069,6086,6103,6119,6136,6153,6170,6187,6204,6220,6237,6254,6270,6287,6304,6320,6337,6354,6371,6388,6404,6420,6437,6454,6470,6487,6504,6520,6537,6554,6570,6587,6604,6620,6637,6654,6671,6690,6706,6720,6736,6752,6769,6786,6803,6819,6837,6853,6870,6887,6903,6920,6937,6954,6970,6987,7004,7020,7037,7054,7069,7086,7103,7120,7136,7153,7169,7186,7202,7219,7236,7252,7269,7286,7302,7319,7336,7352,7369,7386,7403,7419,7436,7452,7469,7486,7502,7520,7536,7553,7569,7588,7603,7619,7636,7653,7669,7686,7703,7719,7736,7753,7769,7786,7803,7819,7836,7853,7869,7886,7903,7919,7936,7953,7969,7986,8003,8019,8036,8053,8069,8086,8103,8119,8136,8153,8169,8186,8203,8219,8236,8253,8269,8286,8303,8319,8336,8353,8369,8386,8402,8419,8436,8452,8469,8486,8503,8519,8536,8554,8570,8587,8604,8620,8637,8654,8672,8686,8703,8719,8736,8753,8769,8786,8803,8819,8836,8853,8869,8886,8905,8922,8938,8955,8972,8988,9005,9022,9038,9056,9073,9089,9105,9122,9138,9155,9172,9189,9205,9222,9238,9255,9272,9288,9305,9322,9338,9355,9372,9388,9405,9422,9438,9455,9472,9488,9505,9522,9537,9554,9572,9588,9605,9622,9638,9654,9671,9690,9705,9721,9738,9755,9772,9789,9805,9822,9838,9855,9872,9889,9905,9922,9938,9955,9972,9988,10005,10022,10040,10056,10072,10088,10109,10123,10136,10153,10169,10186,10203,10220,10236,10253,10270,10286,10303,10320,10337,10353,10370,10386,10403,10420,10436,10453,10470,10486,10503,10520,10536,10553,10569,10586,10603,10619,10636,10653,10669,10686,10703,10720,10736,10753,10770,10786,10802,10820,10836,10853,10870,10887,10903,10920,10936,10953,10970,10986,11003,11020,11036,11053,11070,11087,11103,11120,11136,11153,11170,11188,11205,11221,11238,11255,11271,11288,11305,11321,11338,11355,11372,11389,11405,11423,11438,11456,11471,11488,11505,11522,11538,11555,11571,11594,11603,11620,11636,11653,11670,11687,11703,11720,11737,11753,11770,11786,11803,11822,11838,11855,11872,11888,11905,11921,11938,11955,11972,11988,12005,12022,12038,12055,12072,12088,12105,12121,12138,12155,12171,12188,12205,12222,12238,12255,12271,12288,12305,12322,12338,12355,12372,12388,12405,12422,12438,12455,12471,12488,12505,12521,12538,12555,12572,12588,12605,12621,12638,12653,12670,12687,12703,12719,12736,12753,12770,12787,12804,12821,12837,12854,12870,12887,12903,12920,12937,12954,12970,12987,13004,13020,13037,13054,13073,13087,13103,13120,13137,13154,13170,13187,13204,13220,13237,13254,13270,13287,13303,13320,13337,13353,13371,13388,13405,13421,13438,13455,13472,13489,13505,13521,13538,13555,13571,13588,13605,13622,13638,13655,13671,13688,13703,13720,13738,13755,13772,13789,13805,13821,13838,13855,13871,13888,13905,13921,13938,13955,13971,13988,14005,14022,14038,14055,14072,14088,14105,14121,14138,14155,14172,14188,14205,14221,14238,14256,14271,14288,14305,14322,14338,14355,14372,14388,14405,14421,14438,14455,14472,14488,14506,14522,14536,14553,14569,14586,14603,14620,14638,14655,14671,14689,14705,14722,14738,14755,14771,14788,14804,14820,14836,14853,14871,14888,14905,14921,14938,14955,14972,14989,15005,15021,15038,15055,15071,15088,15105,15121,15137,15154,15172,15189,15204,15220,15239,15255,15272,15289,15305,15322,15338,15355,15372,15388,15405,15422,15438,15455,15473,15488,15505,15521,15537,15554,15570,15587,15604,15621,15637,15654,15671,15688,15704,15722,15737,15754,15770,15787,15804,15821,15837,15854,15870,15887,15904,15921,15937,15954,15970,15987,16005,16022,16037,16054,16070,16087,16104,16120,16137,16154,16170,16187,16204,16220,16237,16254,16270,16287,16304,16320,16338,16355,16372,16390,16406,16422,16438,16455,16472,16489,16505,16522,16539,16555,16574,16589,16606,16622,16639,16655,16672,16689,16705,16731,16739,16755,16772,16788,16805,16821,16838,16853,16870,16889,16905,16921,16938,16955,16971,16988,17005,17021,17038,17055,17071,17088,17105,17122,17139,17154,17170,17187,17204,17220,17238,17255,17270,17287,17304,17320,17338,17355,17372,17389,17405,17422,17446,17470,17486,17503,17520,17537,17553,17570,17587,17603,17620,17637,17653,17670,17687,17703,17720,17737,17753,17770,17787,17803,17820,17837,17853,17870,17887,17904,17920,17937,17953,17970,17987,18003,18020,18037,18053,18070,18087,18103,18120,18137,18153,18170,18187,18203,18220,18237,18253,18270,18286,18303,18320,18337,18353,18370,18387,18403,18420,18436,18453,18470,18486,18503,18520,18536,18552,18569,18586,18602,18619,18636,18652,18669,18686,18702,18719,18736,18753,18769,18786,18802,18819,18836,18852,18869,18886,18903,18919,18936,18952,18969,18987,19003,19020,19037,19053,19070,19087,19104,19120,19137,19154,19170,19187,19204,19220,19237,19254,19270,19287,19304,19320,19337,19354,19370,19387,19404,19420,19437,19453,19470,19487,19504,19520,19537,19553,19570,19587,19604,19620,19637,19653,19670,19687,19704,19720,19736,19753,19769,19787,19803,19820,19836,19852,19869,19886,19902,19919,19936,19952,19969,19986,20002,20019,20036,20052,20069,20086,20102,20119,20136,20153,20170,20187,20203,20220,20237,20253,20270,20287,20303,20320,20337,20353,20370,20388,20403,20421,20438,20456,20472,20487,20503,20521,20538,20555,20571,20588,20605,20621,20638,20655,20671,20689,20705,20722,20738,20755,20772,20788,20804,20820,20837,20853,20870,20887,20903,20920,20937,20953,20970,20988,21005,21021,21038,21055,21071,21087,21103,21121,21138,21155,21172,21188,21205,21221,21238,21255,21271,21288,21305,21321,21338,21355,21371,21388,21405,21421,21438,21455,21471,21488,21505,21521,21538,21555,21571,21588,21605,21622,21638,21655,21672,21688,21705,21721,21738,21755,21770,21787,21803,21820,21839,21853,21869,21886,21902,21919,21936,21953,21970,21987,22003,22020,22037,22053,22070,22087,22103,22120,22137,22153,22170,22187,22203,22220,22237,22253,22270,22287,22303,22320,22337,22353,22370,22387,22403,22420,22437,22453,22470,22487,22503,22520,22537,22553,22570,22587,22603,22620,22637,22653,22671,22688,22705,22721,22738,22755,22771,22788,22805,22820,22837,22854,22870,22887,22904,22920,22937,22953,22970,22987,23004,23020,23037,23054,23070,23088,23105,23121,23138,23155,23172,23190,23205,23221,23238,23255,23271,23288,23305,23325,23340,23353,23370,23387,23403,23420,23437,23453,23470,23487,23504,23520,23537,23554,23570,23587,23604,23620,23637,23653,23670,23687,23704,23720,23737,23753,23770,23787,23804,23820,23837,23854,23870,23887,23904,23921,23937,23954,23970,23988,24005,24022,24039,24055,24072,24088,24105,24122,24139,24155,24171,24188,24205,24222,24238,24255,24271,24288,24305,24321,24338,24355,24372,24389,24405,24422,24438,24456,24472,24489,24505,24522,24538,24555,24572,24589,24605,24623,24641,24654,24671,24688,24705,24721,24739,24755,24772,24789,24805,24827,24838,24854,24870,24886,24903,24920,24937,24953,24970,24987,25004,25020,25037,25053,25070,25087,25104,25120,25137,25154,25170,25187,25203,25220,25237,25255,25272,25286,25303,25319,25336,25353,25369,25386,25402,25419,25436,25452,25469,25486,25502,25519,25536,25552,25569,25586,25603,25620,25637,25653,25670,25687,25703,25720,25737,25753,25773,25787,25804,25820,25837,25853,25870,25887,25903,25920,25937,25953,25970,25987,26003,26020,26037,26053,26070,26088,26105,26122,26138,26155,26171,26188,26205,26220,26238,26260,26270,26286,26303,26319,26336,26353,26370,26386,26403,26420,26436,26453,26470,26487,26503,26520,26536,26553,26570,26587,26603,26620,26637,26653,26670,26687,26703,26720,26737,26753,26770,26787,26803,26820,26836,26853,26870,26887,26903,26920,26936,26952,26970,26987,27003,27020,27037,27053,27070,27086,27103,27120,27136,27153,27170,27187,27203,27220,27236,27253,27270,27286,27303,27320,27336,27353,27370,27386,27403,27420,27436,27453,27470,27487,27503,27520,27537,27553,27570,27587,27603,27620,27637,27653,27670,27687,27703,27720,27737,27753,27770,27787,27803,27820,27836,27853,27870,27886,27903,27920,27936,27953,27970,27986,28003,28020,28036,28053,28070,28086,28103,28120,28136,28153,28171,28188,28205,28221,28238,28255,28271,28287,28303,28320,28337,28353,28370,28387,28405,28421,28438,28455,28471,28488,28505,28522,28538,28555,28571,28588,28605,28621,28638,28655,28671,28688,28705,28721,28738,28755,28771,28788,28805,28823,28838,28855,28871,28888,28905,28921,28938,28955,28971,28988,29005,29022,29038,29055,29071,29088,29105,29121,29138,29155,29171,29188,29205,29224,29237,29253,29270,29286,29303,29320,29338,29355,29371,29388,29405,29421,29438,29455,29471,29488,29505,29522,29539,29555,29571,29588,29605,29621,29638,29655,29671,29688,29705,29721,29738,29756,29772,29789,29805,29822,29838,29855,29871,29888,29905,29921,29938,29955,29971,29986,30003,30019,30036,30052,30069,30086,30103,30119,30138,30155,30171,30188,30205,30221,30238,30255,30272,30289,30305,30321,30338,30355,30371,30387,30404,30421,30438,30455,30471,30489,30505,30522,30538,30555,30571,30588,30605,30621,30638,30655,30671,30688,30707,30723,30736,30754,30770,30787,30803,30820,30837,30853,30870,30887,30904,30920,30937,30953,30969,30987,31004,31020,31037,31053,31070,31087,31103,31120,31137,31153,31170,31187,31203,31220,31237,31253,31270,31287,31303,31320,31337,31353,31370,31387,31403,31420,31437,31453,31470,31487,31503,31520,31537,31553,31569,31586,31603,31621,31638,31655,31671,31690,31705,31721,31738,31755,31771,31788,31805,31821,31838,31855,31871,31888,31905,31921,31937,31954,31971,31988,32005,32021,32038,32055,32072,32089,32105,32121,32138,32154,32170,32187,32208,32220,32237,32254,32270,32287,32304,32320,32337,32354,32370,32387,32404,32420,32437,32454,32470,32487,32504,32520,32537,32554,32570,32587,32604,32620,32637,32654,32670,32687,32704,32721,32737,32754,32770,32787,32804,32820,32837,32854,32870,32887,32904,32920,32937,32954,32970,32988,33005,33021,33038,33055,33071,33088,33105,33121,33138,33155,33172,33189,33207,33222,33239,33255,33272,33289,33305,33322,33339,33355,33372,33389,33405,33422,33438,33455,33472,33489,33504,33521,33537,33554,33571,33587,33604,33621,33643,33670,33686,33703,33720,33736,33753,33770,33786,33803,33819,33836,33853,33870,33886,33903,33919,33936,33953,33970,33986,34003,34020,34036,34053,34070,34086,34103,34120,34136,34153,34170,34186,34203,34219,34236,34253,34270,34286,34303,34320,34336,34353,34370,34386,34403,34420,34436,34453,34470,34486,34503,34520,34536,34555,34572,34589,34606,34622,34639,34656,34670,34689,34704,34720,34737,34754,34770,34787,34803,34820,34837,34853,34870,34887,34904,34920,34937,34953,34971,34988,35003,35020,35038,35054,35074,35086,35103,35119,35136,35153,35169,35186,35202,35220,35237,35254,35270,35287,35303,35320,35337,35353,35370,35387,35403,35420,35437,35453,35470,35487,35504,35520,35537,35554,35570,35587,35604,35620,35637,35654,35672,35690,35705,35722,35741,35753,35770,35786,35803,35820,35836,35853,35870,35886,35903,35919,35936,35953,35969,35986,36003,36019,36036,36053,36069,36088,36105,36121,36138,36155,36172,36188,36205,36222,36237,36254,36271,36288,36305,36322,36338,36356,36372,36388,36405,36421,36438,36455,36472,36491,36503,36520,36536,36553,36570,36587,36603,36620,36637,36653,36670,36686,36703,36720,36737,36753,36770,36787,36803,36820,36837,36853,36870,36887,36903,36920,36937,36953,36970,36987,37003,37020,37037,37053,37070,37086,37105,37121,37138,37155,37171,37188,37205,37221,37238,37255,37272,37288,37305,37322,37336,37353,37369,37386,37402,37419,37437,37453,37470,37487,37503,37519,37536,37553,37569,37586,37603,37619,37636,37653,37670,37686,37703,37720,37737,37753,37770,37786,37803,37820,37837,37855,37872,37888,37905,37921,37938,37955,37971,37987,38003,38020,38038,38055,38072,38089,38105,38122,38138,38154,38170,38187,38203,38220,38237,38254,38270,38287,38304,38320,38337,38354,38370,38387,38403,38420,38437,38454,38470,38487,38504,38520,38537,38553,38570,38587,38604,38620,38637,38654,38670,38687,38704,38722,38738,38755,38772,38788,38805,38821,38838,38855,38872,38888,38905,38921,38938,38955,38971,38988,39007,39021,39038,39053,39069,39086,39103,39121,39138,39154,39171,39187,39204,39221,39238,39254,39271,39287,39304,39321,39338,39354,39371,39388,39404,39421,39442,39454,39470,39486,39503,39520,39536,39553,39570,39586,39603,39620,39636,39653,39670,39686,39703,39720,39736,39753,39772,39788,39805,39822,39838,39854,39870,39887,39903,39920,39937,39953,39970,39987,40003,40020,40037,40053,40070,40087,40103,40120,40138,40154,40169,40188,40204,40221,40238,40254,40271,40287,40304,40321,40338,40354,40371,40388,40404,40421,40438,40454,40471,40488,40504,40521,40538,40554,40571,40588,40604,40621,40638,40654,40671,40688,40704,40721,40737,40754,40771,40788,40804,40821,40838,40854,40871,40888,40904,40921,40937,40953,40970,40986,41003,41020,41040,41055,41069,41086,41102,41119,41136,41153,41170,41187,41203,41220,41237,41253,41270,41287,41303,41320,41337,41353,41370,41387,41403,41420,41437,41453,41470,41487,41503,41520,41537,41553,41570,41587,41603,41620,41637,41653,41670,41688,41705,41722,41738,41755,41771,41787,41804,41820,41837,41853,41870,41887,41903,41920,41937,41953,41970,41987,42003,42020,42037,42054,42070,42087,42103,42120,42137,42153,42169,42186,42202,42219,42236,42252,42270,42287,42303,42320,42337,42353,42370,42386,42403,42420,42436,42453,42470,42486,42503,42520,42536,42553,42570,42586,42603,42622,42639,42653,42670,42687,42704,42720,42737,42753,42770,42787,42803,42820,42837,42854,42870,42886,42903,42919,42936,42953,42969,42986,43003,43020,43038,43056,43071,43089,43103,43119,43136,43153,43169,43186,43203,43222,43240,43254,43270,43287,43304,43321,43338,43355,43371,43388,43405,43421,43438,43455,43472,43489,43505,43522,43538,43555,43571,43588,43605,43621,43638,43655,43671,43691,43704,43720,43736,43753,43770,43787,43803,43822,43838,43855,43871,43888,43905,43927,43937,43953,43970,43986,44003,44020,44036,44053,44070,44086,44103,44120,44136,44153,44170,44186,44203,44220,44237,44253,44270,44287,44303,44320,44336,44353,44370,44386,44403,44420,44436,44453,44470,44487,44503,44520,44537,44553,44570,44587,44603,44620,44636,44653,44670,44687,44703,44721,44738,44755,44771,44788,44805,44821,44838,44855,44872,44888,44907,44921,44937,44953,44971,44988,45005,45022,45038,45055,45071,45088,45106,45122,45137,45154,45170,45187,45203,45220,45238,45253,45270,45287,45304,45320,45337,45353,45370,45387,45403,45420,45437,45453,45470,45487,45503,45520,45537,45554,45570,45587,45604,45620,45637,45653,45670,45687,45703,45720,45737,45753,45770,45787,45803,45820,45837,45853,45870,45887,45903,45920,45937,45953,45970,45987,46004,46021,46037,46054,46070,46087,46103,46120,46137,46153,46170,46187,46203,46220,46237,46253,46270,46287,46303,46320,46337,46353,46371,46388,46405,46421,46438,46455,46472,46488,46505,46521,46538,46555,46571,46588,46605,46622,46638,46655,46672,46689,46706,46725,46737,46753,46769,46786,46803,46820,46836,46853,46870,46887,46903,46920,46936,46953,46970,46986,47003,47020,47036,47053,47070,47087,47103,47120,47137,47152,47169,47186,47203,47220,47237,47253,47270,47287,47303,47320,47337,47353,47370,47387,47403,47420,47436,47453,47470,47487,47503,47520,47537,47553,47570,47587,47603,47620,47637,47653,47670,47687,47703,47720,47737,47753,47770,47787,47803,47820,47837,47853,47871,47888,47905,47923,47938,47955,47971,47988,48005,48020,48037,48053,48070,48087,48104,48120,48137,48154,48170,48187,48204,48222,48236,48253,48270,48287,48304,48320,48337,48354,48370,48387,48404,48420,48437,48453,48470,48487,48503,48520,48537,48553,48570,48587,48604,48620,48637,48653,48670,48687,48703,48720,48737,48753,48770,48787,48803,48820,48837,48853,48870,48887,48903,48920,48937,48953,48970,48987,49004,49020,49037,49054,49071,49088,49105,49121,49138,49155,49171,49188,49205,49221,49238,49255,49272,49288,49305,49321,49338,49355,49370,49387,49404,49420,49437,49454,49470,49487,49504,49520,49537,49554,49571,49587,49604,49620,49637,49657,49669,49686,49703,49720,49736,49753,49770,49786,49803,49820,49836,49853,49869,49886,49903,49920,49936,49953,49969,49986,50003,50019,50036,50053,50070,50086,50103,50121,50138,50155,50171,50188,50205,50221,50238,50255,50271,50288,50305,50321,50338,50355,50371,50388,50405,50422,50439,50455,50471,50488,50505,50521,50538,50555,50571,50588,50605,50621,50638,50655,50672,50688,50705,50721,50738,50755,50771,50788,50805,50821,50838,50855,50871,50888,50906,50923,50938,50955,50971,50988,51005,51022,51038,51055,51071,51088,51105,51122,51138,51156,51169,51186,51202,51219,51236,51253,51270,51287,51303,51320,51337,51353,51370,51386,51404,51420,51436,51453,51470,51487,51503,51520,51537,51553,51570,51593,51605,51622,51638,51655,51672,51691,51705,51720,51736,51753,51769,51786,51802,51819,51836,51852,51869,51886,51902,51920,51937,51953,51970,51986,52003,52020,52036,52053,52070,52086,52103,52120,52136,52153,52170,52186,52203,52220,52236,52253,52270,52286,52303,52320,52337,52353,52370,52387,52403,52420,52437,52453,52470,52487,52503,52520,52537,52553,52570,52587,52603,52620,52637,52653,52672,52689,52705,52722,52737,52753,52770,52787,52804,52820,52837,52854,52870,52887,52903,52920,52937,52954,52970,52987,53004,53020,53037,53054,53070,53087,53103,53120,53137,53154,53170,53187,53203,53220,53237,53253,53270,53287,53304,53320,53337,53354,53370,53387,53403,53420,53437,53453,53470,53487,53504,53520,53537,53554,53570,53587,53603,53620,53637,53654,53670,53687,53704,53720,53737,53754,53770,53787,53803,53825,53838,53855,53870,53887,53904,53920,53937,53954,53970,53987,54004,54020,54037,54054,54070,54087,54103,54122,54137,54153,54170,54187,54204,54220,54237,54253,54270,54288,54305,54322,54338,54355,54371,54388,54405,54421,54438,54455,54471,54488,54505,54522,54538,54555,54572,54588,54605,54622,54638,54655,54672,54688,54705,54722,54738,54755,54771,54788,54805,54821,54838,54855,54871,54888,54905,54922,54938,54955,54972,54988,55005,55022,55038,55055,55071,55088,55105,55122,55138,55155,55171,55188,55205,55220,55236,55253,55269,55288,55305,55321,55338,55355,55371,55388,55405,55421,55440,55455,55470,55486,55502,55519,55536,55553,55569,55586,55602,55619,55637,55653,55670,55687,55703,55720,55737,55753,55770,55788,55803,55822,55838,55855,55872,55888,55905,55921,55938,55955,55972,55988,56005,56022,56038,56055,56072,56088,56105,56121,56138,56155,56171,56188,56205,56222,56238,56255,56271,56288,56305,56322,56338,56355,56372,56388,56405,56421,56438,56455,56471,56488,56505,56522,56538,56555,56572,56588,56605,56621,56638,56655,56671,56688,56705,56720,56736,56753,56770,56786,56803,56820,56837,56853,56870,56886,56902,56919,56936,56952,56969,56986,57002,57019,57036,57053,57069,57086,57102,57120,57137,57153,57170,57187,57203,57220,57237,57253,57270,57287,57303,57320,57337,57353,57370,57387,57403,57420,57437,57453,57469,57486,57503,57519,57537,57553,57570,57587,57603,57619,57636,57652,57669,57686,57703,57719,57736,57752,57770,57786,57803,57820,57837,57854,57869,57886,57903,57920,57937,57953,57970,57988,58005,58021,58038,58055,58071,58088,58105,58121,58138,58155,58171,58188,58205,58222,58238,58255,58271,58288,58305,58322,58338,58355,58372,58388,58403,58420,58440,58454,58470,58488,58505,58521,58538,58558,58573,58586,58603,58620,58636,58653,58670,58687,58703,58720,58736,58752,58769,58786,58802,58821,58838,58855,58871,58888,58905,58922,58939,58955,58972,58988,59003,59020,59037,59053,59070,59087,59103,59120,59137,59155,59171,59188,59205,59222,59238,59255,59270,59286,59303,59319,59338,59355,59371,59388,59405,59421,59438,59456,59471,59490,59505,59521,59538,59555,59571,59588,59605,59621,59638,59655,59672,59690,59705,59721,59738,59755,59771,59788,59805,59821,59838,59855,59871,59888,59905,59922,59938,59955,59971,59988,60005,60022,60038,60057,60073,60086,60103,60120,60136,60153,60170,60186,60205,60221,60238,60255,60272,60288,60305,60322,60338,60355,60372,60388,60405,60421,60441,60457,60470,60487,60503,60520,60536,60552,60570,60586,60602,60619,60636,60652,60669,60686,60702,60719,60736,60753,60770,60787,60803,60820,60837,60853,60870,60887,60903,60920,60936,60953,60970,60987,61003,61020,61037,61053,61070,61086,61103,61120,61137,61153,61170,61187,61203,61220,61237,61253,61270,61287,61303,61320,61337,61353,61370,61387,61403,61420,61436,61453,61470,61487,61503,61521,61543,61553,61570,61586,61603,61620,61636,61653,61670,61687,61703,61720,61736,61753,61770,61786,61803,61820,61839,61853,61870,61886,61903,61920,61936,61953,61970,61986,62003,62020,62036,62053,62070,62086,62103,62120,62136,62155,62171,62188,62205,62221,62238,62255,62271,62288,62305,62322,62338,62355,62371,62388,62405,62421,62438,62453,62470,62487,62503,62520,62537,62554,62570,62587,62603,62620,62637,62654,62670,62687,62703,62720,62737,62754,62770,62787,62804,62820,62837,62853,62870,62887,62904,62920,62936,62953,62971,62989,63005,63021,63038,63059,63073,63086,63103,63119,63137,63155,63171,63188,63205,63221,63238,63255,63271,63288,63305,63320,63336,63354,63371,63388,63405,63421,63438,63454,63472,63489,63505,63521,63538,63555,63571,63588,63605,63621,63638,63655,63671,63691,63704,63720,63737,63753,63770,63787,63805,63821,63839,63855,63872,63888,63905,63921,63938,63955,63972,63988,64005,64022,64038,64055,64072,64088,64105,64122,64138,64155,64171,64188,64205,64222,64238,64255,64272,64288,64305,64321,64338,64355,64371,64388,64405,64422,64438,64455,64472,64488,64505,64521,64541,64553,64570,64586,64603,64620,64636,64653,64670,64686,64703,64720,64736,64753,64770,64787,64803,64820,64837,64853,64870,64887,64903,64920,64937,64953,64970,64987,65003,65020,65036,65053,65072,65088,65105,65123,65138,65155,65172,65190,65205,65221,65238,65255,65271,65288,65303,65320,65338,65355,65372,65388,65405,65423,65438,65455,65471,65488,65505,65522,65538,65555,65571,65588,65606,65622,65638,65655,65671,65688,65705,65722,65738,65755,65771,65788,65805,65822,65838,65855,65871,65888,65905,65921,65938,65955,65972,65988,66005,66024,66039,66053,66069,66086,66103,66120,66136,66153,66170,66186,66203,66220,66236,66253,66270,66286,66303,66320,66336,66354,66370,66387,66403,66420,66437,66453,66470,66487,66503,66520,66537,66554,66570,66587,66603,66620,66637,66654,66670,66687,66708,66720,66737,66754,66771,66788,66806,66822,66840,66855,66870,66887,66904,66920,66937,66954,66970,66987,67004,67022,67039,67056,67072,67088,67105,67121,67138,67155,67172,67188,67205,67221,67239,67255,67272,67290,67305,67322,67337,67353,67370,67386,67405,67421,67438,67455,67471,67486,67503,67519,67536,67553,67569,67586,67603,67620,67637,67653,67670,67687,67704,67721,67737,67754,67774,67789,67805,67822,67839,67855,67873,67889,67905,67920,67937,67954,67970,67987,68004,68021,68038,68054,68071,68087,68104,68120,68137,68154,68170,68187,68204,68220,68237,68254,68272,68288,68305,68322,68338,68355,68372,68388,68405,68421,68438,68455,68472,68489,68505,68522,68538,68555,68571,68588,68605,68621,68638,68655,68671,68688,68706,68722,68738,68755,68772,68788,68805,68821,68838,68855,68872,68888,68905,68922,68939,68956,68971,68987,69003,69020,69037,69054,69070,69087,69103,69120,69137,69154,69170,69187,69204,69220,69237,69254,69270,69287,69304,69320,69337,69354,69370,69387,69404,69421,69438,69455,69471,69488,69505,69522,69538,69555,69571,69588,69605,69622,69639,69655,69671,69689,69705,69721,69739,69755,69771,69788,69805,69822,69838,69859,69872,69890,69905,69922,69938,69955,69972,69988,70005,70022,70038,70055,70072,70089,70105,70122,70138,70155,70171,70188,70205,70221,70238,70255,70271,70288,70305,70322,70338,70355,70372,70388,70405,70422,70441,70455,70470,70486,70503,70520,70536,70553,70570,70586,70603,70620,70636,70653,70670,70686,70703,70720,70736,70753,70770,70786,70803,70820,70836,70853,70870,70887,70903,70920,70936,70953,70972,70989,71005,71022,71038,71055,71072,71088,71105,71121,71138,71155,71172,71188,71205,71222,71238,71255,71272,71289,71305,71321,71338,71355,71371,71387,71403,71419,71436,71453,71469,71488,71506,71522,71538,71555,71572,71588,71605,71621,71637,71654,71670,71687,71704,71720,71737,71754,71771,71787,71804,71821,71837,71854,71871,71888,71905,71922,71943,71955,71970,71986,72003,72020,72036,72053,72070,72087,72103,72120,72136,72153,72172,72188,72205,72222,72238,72255,72272,72288,72305,72322,72338,72355,72372,72388,72405,72422,72438,72457,72471,72490,72504,72520,72538,72555,72572,72588,72605,72622,72638,72654,72672,72689,72704,72720,72736,72753,72769,72786,72803,72819,72836,72852,72869,72886,72903,72920,72936,72952,72969,72986,73003,73019,73036,73053,73069,73086,73103,73119,73137,73153,73170,73187,73203,73220,73237,73253,73270,73287,73303,73320,73337,73353,73370,73387,73403,73420,73437,73453,73470,73487,73503,73520,73537,73553,73570,73587,73603,73620,73637,73653,73670,73687,73703,73720,73737,73753,73770,73787,73803,73820,73837,73853,73870,73887,73903,73920,73937,73953,73970,73987,74003,74020,74037,74053,74070,74086,74103,74120,74137,74153,74170,74187,74203,74220,74237,74253,74270,74286,74303,74320,74337,74353,74370,74387,74403,74420,74437,74453,74470,74487,74504,74520,74537,74553,74570,74587,74603,74620,74637,74653,74670,74687,74704,74720,74737,74753,74770,74787,74804,74820,74837,74853,74870,74887,74903,74920,74937,74953,74970,74987,75003,75020,75037,75053,75070,75087,75103,75120,75136,75153,75169,75186,75204,75220,75237,75254,75271,75287,75304,75321,75337,75354,75371,75387,75404,75421,75436,75453,75469,75486,75503,75520,75536,75553,75570,75587,75603,75620,75636,75653,75670,75686,75703,75720,75736,75753,75770,75786,75803,75820,75836,75853,75870,75886,75903,75920,75936,75953,75970,75986,76003,76020,76036,76053,76070,76086,76103,76120,76138,76155,76172,76189,76205,76221,76238,76255,76275,76289,76303,76320,76337,76353,76370,76387,76403,76420,76437,76453,76470,76487,76503,76520,76537,76553,76570,76587,76603,76620,76637,76653,76670,76687,76703,76720,76737,76753,76770,76787,76803,76821,76837,76853,76870,76887,76903,76920,76937,76953,76970,76987,77003,77021,77037,77054,77070,77087,77103,77120,77137,77153,77170,77187,77203,77220,77237,77254,77270,77287,77303,77320,77337,77353,77370,77387,77403,77420,77437,77453,77470,77487,77503,77520,77537,77553,77570,77587,77603,77620,77637,77653,77670,77687,77703,77720,77737,77753,77770,77787,77803,77820,77837,77853,77870,77887,77903,77920,77937,77953,77970,77987,78003,78020,78037,78053,78070,78087,78103,78120,78137,78153,78170,78187,78203,78220,78237,78253,78270,78287,78303,78320,78337,78353,78370,78387,78403,78420,78437,78453,78470,78487,78503,78520,78537,78553,78570,78587,78604,78621,78637,78654,78675,78688,78704,78721,78739,78755,78772,78789,78806,78822,78839,78855,78872,78888,78905,78922,78939,78955,78971,78988,79005,79022,79039,79055,79072,79089,79105,79122,79139,79155,79173,79189,79208,79220,79236,79253,79270,79287,79303,79320,79337,79353,79370,79387,79403,79420,79437,79453,79470,79486,79503,79520,79537,79553,79570,79587,79603,79620,79637,79653,79670,79687,79703,79720,79737,79753,79770,79787,79803,79820,79837,79853,79870,79886,79903,79920,79937,79953,79970,79987,80003,80020,80037,80053,80070,80087,80103,80120,80137,80153,80170,80187,80204,80220,80237,80253,80270,80286,80303,80320,80337,80353,80370,80387,80403,80420,80437,80453,80470,80487,80503,80520,80536,80553,80570,80586,80603,80620,80636,80654,80670,80688,80705,80721,80738,80755,80772,80788,80805,80822,80838,80855,80870,80886,80903,80919,80936,80953,80969,80986,81003,81019,81036,81053,81069,81086,81103,81119,81136,81153,81169,81186,81206,81222,81239,81255,81272,81289,81306,81323,81339,81355,81372,81389,81405,81422,81438,81455,81472,81489,81505,81522,81539,81556,81572,81589,81605,81622,81639,81655,81672,81689,81707,81723,81740,81756,81772,81788,81803,81820,81836,81853,81870,81886,81903,81919,81936,81953,81969,81986,82003,82020,82037,82054,82072,82087,82104,82121,82137,82154,82171,82187,82204,82221,82237,82254,82271,82287,82304,82320,82337,82354,82372,82389,82405,82422,82439,82456,82473,82489,82505,82522,82539,82555,82572,82589,82605,82622,82638,82655,82672,82689,82705,82722,82739,82756,82772,82788,82805,82822,82839,82855,82872,82888,82905,82922,82940,82955,82972,82988,83005,83022,83037,83054,83070,83087,83104,83120,83137,83154,83171,83187,83204,83220,83237,83254,83270,83287,83304,83320,83337,83354,83370,83387,83404,83420,83437,83454,83470,83490,83504,83519,83536,83552,83569,83586,83603,83619,83636,83653,83670,83688,83703,83720,83737,83753,83770,83787,83804,83820,83837,83853,83870,83887,83903,83920,83937,83954,83970,83987,84003,84020,84037,84054,84070,84089,84106,84122,84139,84156,84172,84189,84206,84222,84239,84256,84272,84289,84306,84323,84339,84356,84372,84389,84406,84422,84439,84456,84473,84489,84506,84523,84539,84556,84572,84587,84604,84622,84639,84655,84672,84690,84706,84722,84739,84756,84773,84789,84806,84823,84839,84856,84875,84888,84903,84920,84937,84953,84970,84987,85003,85020,85037,85053,85070,85087,85104,85120,85137,85153,85170,85187,85203,85220,85237,85253,85270,85287,85303,85320,85337,85353,85370,85387,85403,85420,85437,85453,85470,85487,85503,85520,85536,85553,85569,85586,85603,85620,85637,85653,85669,85686,85703,85719,85736,85753,85769,85786,85803,85819,85836,85854,85870,85887,85904,85920,85937,85954,85970,85987,86004,86020,86037,86054,86070,86087,86104,86120,86137,86154,86170,86187,86204,86221,86239,86255,86272,86287,86304,86320,86337,86354,86370,86387,86404,86422,86439,86456,86472,86489,86506,86522,86539,86556,86573,86589,86606,86622,86639,86655,86671,86688,86706,86721,86737,86756,86773,86789,86805,86822,86839,86856,86872,86889,86905,86922,86940,86955,86972,86989,87005,87022,87038,87055,87072,87089,87105,87122,87139,87155,87172,87189,87205,87222,87239,87255,87272,87288,87305,87322,87339,87354,87371,87387,87404,87421,87437,87454,87470,87487,87505,87521,87536,87553,87569,87588,87605,87622,87639,87654,87672,87687,87703,87721,87738,87754,87771,87788,87805,87822,87838,87854,87871,87888,87905,87921,87938,87955,87971,87988,88005,88021,88038,88055,88071,88088,88105,88121,88138,88154,88171,88188,88205,88220,88237,88253,88270,88287,88303,88321,88338,88355,88371,88388,88404,88421,88438,88455,88471,88488,88504,88521,88538,88554,88571,88588,88605,88621,88638,88654,88671,88689,88704,88721,88738,88755,88771,88788,88804,88821,88838,88855,88871,88888,88905,88921,88938,88955,88971,88988,89005,89021,89038,89055,89074,89089,89103,89120,89137,89154,89170,89187,89203,89220,89237,89253,89270,89287,89303,89320,89337,89353,89370,89387,89403,89420,89437,89453,89470,89487,89503,89520,89537,89553,89570,89587,89603,89620,89637,89653,89670,89687,89703,89720,89737,89753,89770,89786,89803,89820,89837,89853,89870,89887,89903,89920,89937,89953,89970,89986,90003,90020,90037,90053,90070,90087,90103,90120,90136,90153,90170,90187,90205,90222,90239,90255,90272,90288,90305,90322,90338,90355,90372,90389,90405,90423,90438,90455,90472,90488,90505,90524,90539,90553,90570,90587,90603,90620,90637,90653,90670,90687,90704,90720,90737,90753,90770,90787,90804,90820,90837,90854,90870,90887,90904,90921,90937,90954,90971,90987,91004,91021,91037,91054,91071,91087,91104,91121,91137,91154,91171,91187,91204,91221,91237,91254,91271,91287,91304,91321,91339,91356,91372,91389,91406,91422,91439,91455,91472,91489,91506,91522,91539,91555,91572,91587,91603,91620,91637,91653,91670,91686,91705,91722,91739,91755,91772,91788,91807,91822,91839,91855,91872,91889,91905,91925,91937,91953,91970,91987,92004,92020,92037,92053,92070,92087,92103,92120,92137,92153,92170,92187,92203,92220,92237,92253,92269,92286,92303,92319,92336,92353,92370,92387,92404,92420,92437,92454,92470,92487,92504,92520,92537,92554,92570,92587,92604,92620,92637,92654,92670,92687,92704,92720,92737,92754,92770,92787,92804,92820,92837,92854,92870,92887,92904,92920,92937,92954,92970,92987,93004,93020,93037,93054,93070,93087,93104,93120,93137,93154,93170,93187,93204,93220,93237,93254,93271,93287,93304,93323,93337,93354,93370,93387,93404,93420,93439,93456,93472,93489,93506,93522,93539,93556,93573,93589,93605,93622,93638,93655,93672,93689,93705,93722,93738,93755,93773,93790,93805,93822,93839,93855,93872,93888,93905,93922,93939,93955,93972,93989,94005,94022,94039,94055,94072,94089,94105,94122,94138,94155,94172,94188,94205,94222,94239,94256,94272,94288,94305,94322,94338,94355,94372,94388,94405,94422,94439,94455,94472,94489,94505,94522,94539,94554,94570,94587,94604,94621,94637,94654,94670,94687,94708,94720,94737,94754,94770,94787,94804,94820,94837,94854,94871,94887,94904,94921,94937,94954,94972,94988,95004,95020,95037,95054,95070,95087,95104,95120,95137,95154,95170,95187,95204,95222,95239,95255,95272,95289,95305,95322,95339,95355,95372,95389,95405,95423,95438,95457,95473,95488,95505,95522,95539,95555,95572,95588,95605,95622,95637,95653,95670,95688,95705,95722,95738,95755,95772,95788,95805,95822,95838,95855,95872,95890,95905,95923,95939,95955,95972,95989,96005,96022,96038,96053,96070,96087,96106,96120,96137,96154,96171,96187,96205,96221,96237,96254,96271,96288,96305,96322,96339,96356,96372,96389,96405,96422,96439,96455,96471,96487,96504,96521,96537,96554,96571,96589,96605,96622,96638,96655,96672,96689,96705,96722,96739,96755,96772,96789,96805,96822,96839,96855,96872,96889,96905,96922,96939,96955,96972,96988,97005,97022,97039,97055,97074,97088,97104,97120,97139,97155,97172,97189,97205,97222,97239,97255,97272,97290,97305,97322,97338,97355,97370,97386,97403,97420,97439,97455,97472,97489,97507,97520,97536,97553,97569,97586,97603,97620,97636,97654,97671,97688,97704,97721,97737,97754,97771,97787,97804,97821,97837,97854,97871,97887,97908,97921,97938,97954,97971,97987,98004,98021,98037,98054,98071,98088,98104,98121,98138,98154,98171,98187,98204,98221,98238,98254,98271,98287,98304,98321,98337,98354,98371,98387,98404,98421,98437,98454,98471,98487,98504,98521,98538,98555,98572,98589,98606,98622,98639,98655,98670,98687,98704,98720,98737,98754,98770,98787,98804,98821,98837,98854,98870,98887,98907,98920,98937,98954,98970,98987,99004,99021,99038,99054,99070,99087,99104,99120,99137,99154,99170,99187,99204,99220,99237,99254,99271,99287,99304,99320,99337,99354,99370,99387,99404,99421,99443,99471,99487,99504,99520,99537,99554,99571,99588,99605,99622,99639,99655,99672,99686,99703,99720,99737,99754,99770,99787,99804,99820,99837,99854,99870,99887,99904,99921,99937,99954,99971,99987,100004,100020,100037,100054,100071,100087,100104,100121,100137,100154,100171,100187,100204,100221,100237,100254,100271,100287,100308,100320,100337,100353,100370,100386,100403,100420,100437,100453,100470,100487,100503,100520,100537,100553,100570,100587,100603,100620,100637,100653,100670,100686,100703,100720,100737,100753,100770,100787,100803,100820,100837,100853,100870,100886,100903,100920,100937,100953,100970,100986,101003,101020,101037,101053,101070,101087,101103,101120,101137,101153,101170,101186,101203,101220,101238,101255,101270,101287,101304,101320,101337,101354,101370,101387,101404,101420,101437,101454,101469,101486,101503,101520,101537,101554,101570,101587,101604,101620,101637,101654,101673,101686,101703,101720,101736,101753,101770,101786,101803,101820,101836,101853,101870,101886,101903,101920,101936,101953,101970,101987,102004,102020,102037,102054,102071,102087,102104,102121,102139,102156,102170,102187,102203,102219,102236,102253,102270,102286,102303,102320,102336,102353,102370,102386,102403,102420,102436,102453,102469,102486,102503,102519,102536,102553,102570,102586,102603,102619,102636,102653,102669,102686,102703,102720,102736,102753,102770,102786,102803,102819,102836,102853,102869,102886,102903,102919,102936,102953,102969,102986,103003,103020,103036,103053,103070,103086,103103,103119,103136,103153,103170,103186,103203,103220,103236,103253,103269,103286,103303,103320,103336,103353,103370,103386,103403,103419,103436,103453,103469,103486,103503,103519,103536,103553,103569,103586,103603,103619,103636,103653,103669,103686,103703,103719,103738,103755,103771,103788,103805,103821,103838,103855,103872,103888,103905,103922,103939,103955,103972,103989,104005,104022,104039,104055,104072,104089,104106,104122,104139,104155,104172,104189,104205,104222,104239,104255,104272,104289,104305,104322,104342,104355,104370,104387,104403,104420,104437,104453,104470,104487,104504,104520,104539,104556,104573,104589,104604,104621,104638,104654,104671,104690,104706,104720,104736,104753,104769,104786,104803,104819,104836,104853,104870,104886,104903,104919,104936,104953,104971,104988,105004,105021,105038,105055,105071,105088,105104,105121,105138,105154,105171,105187,105204,105221,105238,105254,105271,105287,105304,105321,105338,105355,105371,105388,105405,105421,105438,105454,105472,105488,105504,105521,105537,105555,105572,105589,105605,105622,105639,105662,105675,105687,105703,105720,105737,105753,105770,105787,105804,105820,105837,105854,105870,105887,105904,105920,105937,105954,105970,105987,106004,106020,106037,106054,106070,106087,106104,106120,106137,106153,106170,106187,106204,106220,106237,106254,106270,106287,106303,106320,106337,106354,106372,106386,106403,106420,106436,106453,106470,106486,106503,106519,106536,106553,106570,106586,106603,106620,106636,106653,106670,106686,106703,106720,106736,106753,106770,106786,106803,106820,106836,106853,106870,106886,106903,106920,106936,106953,106970,106986,107003,107020,107036,107053,107070,107086,107103,107120,107136,107153,107170,107186,107203,107220,107236,107253,107269,107286,107303,107320,107336,107353,107369,107389,107406,107421,107437,107454,107470,107487,107504,107521,107537,107554,107571,107588,107604,107621,107637,107654,107671,107688,107704,107721,107737,107753,107769,107787,107804,107821,107837,107854,107871,107887,107904,107921,107937,107954,107971,107987,108004,108021,108037,108054,108071,108087,108104,108121,108137,108154,108171,108187,108206,108223,108239,108256,108272,108289,108305,108321,108337,108354,108373],"hit":[null],"x":[-3.7823129251700682,-3.7823129251700682,-3.7823129251700682,-3.7823129251700682,-3.7823129251700682,-0.034013605442176874,-0.034013605442176874,-0.034013605442176874,-0.034013605442176874,-0.034013605442176874,-0.03741496598639456,-0.04081632653061224,-0.04421768707482993,-0.05102040816326531,-0.07482993197278912,-0.09183673469387756,-0.11564625850340136,-0.14285714285714285,-0.16666666666666666,-0.1836734693877551,-0.22108843537414966,-0.23809523809523808,-0.2585034013605442,-0.282312925170068,-0.30272108843537415,-0.3163265306122449,-0.32653061224489793,-0.32653061224489793,-0.32653061224489793,-0.32653061224489793,-0.32653061224489793,-0.32653061224489793,-0.32653061224489793,-0.32653061224489793,-0.32653061224489793,-0.32653061224489793,-0.32653061224489793,-0.32653061224489793,-0.32653061224489793,-0.32653061224489793,-0.32653061224489793,-0.32653061224489793,-0.32653061224489793,-0.32653061224489793,-0.32653061224489793,-0.32653061224489793,-0.32653061224489793,-0.32653061224489793,-0.32653061224489793,-0.32653061224489793,-0.32653061224489793,-0.32653061224489793,-0.32653061224489793,-0.32653061224489793,-0.32653061224489793,-0.32653061224489793,-0.32653061224489793,-0.32653061224489793,-0.32653061224489793,-0.32653061224489793,-0.32653061224489793,-0.32653061224489793,-0.32653061224489793,-0.32653061224489793,-0.32653061224489793,-0.32653061224489793,-0.32653061224489793,-0.32653061224489793,-0.32653061224489793,-0.32653061224489793,-0.32653061224489793,-0.32653061224489793,-0.32653061224489793,-0.32653061224489793,-0.32653061224489793,-0.32653061224489793,-0.32653061224489793,-0.32653061224489793,-0.32653061224489793,-0.32653061224489793,-0.32653061224489793,-0.32653061224489793,-0.32653061224489793,-0.32653061224489793,-0.32653061224489793,-0.32653061224489793,-0.32653061224489793,-0.32653061224489793,-0.32653061224489793,-0.32653061224489793,-0.32653061224489793,-0.32653061224489793,-0.32653061224489793,-0.32653061224489793,-0.32653061224489793,-0.32653061224489793,-0.32653061224489793,-0.32653061224489793,-0.32653061224489793,-0.32653061224489793,-0.32653061224489793,-0.32653061224489793,-0.32653061224489793,-0.32653061224489793,-0.32653061224489793,-0.32653061224489793,-0.32653061224489793,-0.32653061224489793,-0.32653061224489793,-0.32653061224489793,-0.32653061224489793,-0.32653061224489793,-0.32653061224489793,-0.32653061224489793,-0.32653061224489793,-0.32653061224489793,-0.32653061224489793,-0.32653061224489793,-0.32653061224489793,-0.32653061224489793,-0.32653061224489793,-0.32653061224489793,-0.32653061224489793,-0.32653061224489793,-0.32653061224489793,-0.32653061224489793,-0.32653061224489793,-0.32653061224489793,-0.32653061224489793,-0.32653061224489793,-0.32653061224489793,-0.32653061224489793,-0.32653061224489793,-0.32653061224489793,-0.32653061224489793,-0.32653061224489793,-0.32653061224489793,-0.32653061224489793,-0.32653061224489793,-0.32653061224489793,-0.32653061224489793,-0.32653061224489793,-0.32653061224489793,-0.32653061224489793,-0.32653061224489793,-0.32653061224489793,-0.32653061224489793,-0.32653061224489793,-0.32653061224489793,-0.32653061224489793,-0.32653061224489793,-0.32653061224489793,-0.32653061224489793,-0.32653061224489793,-0.32653061224489793,-0.32653061224489793,-0.32653061224489793,-0.32653061224489793,-0.32653061224489793,-0.32653061224489793,-0.32653061224489793,-0.32653061224489793,-0.32653061224489793,-0.32653061224489793,-0.32653061224489793,-0.32653061224489793,-0.32653061224489793,-0.32653061224489793,-0.32653061224489793,-0.32653061224489793,-0.32653061224489793,-0.32653061224489793,-0.32653061224489793,-0.32653061224489793,-0.32653061224489793,-0.32653061224489793,-0.32653061224489793,-0.32653061224489793,-0.32653061224489793,-0.32653061224489793,-0.32653061224489793,-0.32653061224489793,-0.32653061224489793,-0.32653061224489793,-0.32653061224489793,-0.32653061224489793,-0.32653061224489793,-0.32653061224489793,-0.3231292517006803,-0.3163265306122449,-0.3163265306122449,-0.3129251700680272,-0.30612244897959184,-0.29931972789115646,-0.2925170068027211,-0.2857142857142857,-0.282312925170068,-0.2789115646258503,-0.272108843537415,-0.2653061224489796,-0.25510204081632654,-0.23129251700680273,-0.2108843537414966,-0.19047619047619047,-0.17006802721088435,-0.14965986394557823,-0.12585034013605442,-0.09863945578231292,-0.061224489795918366,-0.02040816326530612,0.02040816326530612,0.04421768707482993,0.07482993197278912,0.09523809523809523,0.11224489795918367,0.1326530612244898,0.16666666666666666,0.19727891156462585,0.22108843537414966,0.24489795918367346,0.2653061224489796,0.2891156462585034,0.3129251700680272,0.32653061224489793,0.336734693877551,0.3401360544217687,0.3469387755102041,0.3469387755102041,0.3469387755102041,0.3469387755102041,0.3469387755102041,0.3469387755102041,0.3469387755102041,0.3469387755102041,0.3469387755102041,0.3469387755102041,0.35034013605442177,0.35374149659863946,0.36394557823129253,0.3741496598639456,0.3877551020408163,0.4217687074829932,0.4523809523809524,0.47959183673469385,0.5,0.5272108843537415,0.5612244897959183,0.6156462585034014,0.6598639455782312,0.7006802721088435,0.7414965986394558,0.7755102040816326,0.7925170068027211,0.8061224489795918,0.8095238095238095,0.8095238095238095,0.8095238095238095,0.8129251700680272,0.8129251700680272,0.8129251700680272,0.8129251700680272,0.8129251700680272,0.8129251700680272,0.8129251700680272,0.8129251700680272,0.8129251700680272,0.8129251700680272,0.8129251700680272,0.8129251700680272,0.8129251700680272,0.8129251700680272,0.8129251700680272,0.8129251700680272,0.8129251700680272,0.8129251700680272,0.8129251700680272,0.8129251700680272,0.8129251700680272,0.8129251700680272,0.8129251700680272,0.8129251700680272,0.8129251700680272,0.8129251700680272,0.8129251700680272,0.8129251700680272,0.8129251700680272,0.8129251700680272,0.8129251700680272,0.8095238095238095,0.8095238095238095,0.8095238095238095,0.8095238095238095,0.8095238095238095,0.8095238095238095,0.8095238095238095,0.8095238095238095,0.8095238095238095,0.8061224489795918,0.8061224489795918,0.8061224489795918,0.8027210884353742,0.8027210884353742,0.8027210884353742,0.8027210884353742,0.8027210884353742,0.7993197278911565,0.7993197278911565,0.7993197278911565,0.7993197278911565,0.7959183673469388,0.7959183673469388,0.7925170068027211,0.7891156462585034,0.782312925170068,0.7789115646258503,0.7755102040816326,0.7755102040816326,0.7755102040816326,0.7755102040816326,0.7721088435374149,0.7721088435374149,0.7721088435374149,0.7721088435374149,0.7721088435374149,0.7721088435374149,0.7653061224489796,0.7653061224489796,0.7619047619047619,0.7619047619047619,0.7585034013605442,0.7551020408163265,0.7482993197278912,0.7414965986394558,0.7278911564625851,0.7142857142857143,0.6972789115646258,0.6836734693877551,0.6768707482993197,0.673469387755102,0.673469387755102,0.673469387755102,0.673469387755102,0.673469387755102,0.673469387755102,0.673469387755102,0.6700680272108843,0.6598639455782312,0.6428571428571429,0.6394557823129252,0.6360544217687075,0.6360544217687075,0.6360544217687075,0.6360544217687075,0.6326530612244898,0.6224489795918368,0.6190476190476191,0.6156462585034014,0.608843537414966,0.6054421768707483,0.6054421768707483,0.6020408163265306,0.6020408163265306,0.5952380952380952,0.5918367346938775,0.5884353741496599,0.5850340136054422,0.5816326530612245,0.5782312925170068,0.5714285714285714,0.5680272108843537,0.5680272108843537,0.564625850340136,0.564625850340136,0.564625850340136,0.564625850340136,0.5680272108843537,0.5748299319727891,0.5816326530612245,0.5952380952380952,0.6020408163265306,0.6054421768707483,0.6122448979591837,0.6156462585034014,0.6190476190476191,0.6258503401360545,0.6292517006802721,0.6326530612244898,0.6326530612244898,0.6326530612244898,0.6360544217687075,0.6394557823129252,0.6428571428571429,0.6496598639455783,0.6632653061224489,0.6836734693877551,0.7074829931972789,0.7448979591836735,0.7721088435374149,0.7993197278911565,0.8333333333333334,0.891156462585034,0.9489795918367347,1.0034013605442176,1.0034013605442176,1.0714285714285714,1.0816326530612246,1.0850340136054422,1.0850340136054422,1.0850340136054422,1.0850340136054422,1.0850340136054422,1.0850340136054422,1.0850340136054422,1.0850340136054422,1.0850340136054422,1.0816326530612246,1.0680272108843538,1.0612244897959184,1.054421768707483,1.0476190476190477,1.0408163265306123,1.0374149659863945,1.030612244897959,1.0272108843537415,1.0238095238095237,1.0204081632653061,1.0170068027210883,1.0136054421768708,1.0136054421768708,1.0136054421768708,1.0136054421768708,1.0136054421768708,1.0136054421768708,1.0136054421768708,1.0136054421768708,1.0136054421768708,1.0136054421768708,1.0136054421768708,1.010204081632653,1.010204081632653,1.010204081632653,1.010204081632653,1.010204081632653,1.010204081632653,1.010204081632653,1.010204081632653,1.010204081632653,1.010204081632653,1.010204081632653,1.010204081632653,1.010204081632653,1.010204081632653,1.010204081632653,1.010204081632653,1.010204081632653,1.010204081632653,1.010204081632653,1.0136054421768708,1.0136054421768708,1.0170068027210883,1.0204081632653061,1.0238095238095237,1.030612244897959,1.034013605442177,1.0374149659863945,1.0442176870748299,1.0476190476190477,1.0578231292517006,1.0612244897959184,1.0680272108843538,1.0680272108843538,1.0714285714285714,1.0714285714285714,1.0748299319727892,1.0782312925170068,1.0782312925170068,1.0850340136054422,1.0850340136054422,1.08843537414966,1.0918367346938775,1.0952380952380953,1.098639455782313,1.1020408163265305,1.1088435374149659,1.1122448979591837,1.119047619047619,1.1258503401360545,1.129251700680272,1.129251700680272,1.1326530612244898,1.1360544217687074,1.1394557823129252,1.1394557823129252,1.1394557823129252,1.1394557823129252,1.1394557823129252,1.1394557823129252,1.1394557823129252,1.1428571428571428,1.1428571428571428,1.1428571428571428,1.1428571428571428,1.1428571428571428,1.1428571428571428,1.1428571428571428,1.1428571428571428,1.1428571428571428,1.1428571428571428,1.1428571428571428,1.1428571428571428,1.1428571428571428,1.1428571428571428,1.1428571428571428,1.1428571428571428,1.1428571428571428,1.1428571428571428,1.1428571428571428,1.1428571428571428,1.1428571428571428,1.1428571428571428,1.1428571428571428,1.1428571428571428,1.1428571428571428,1.1428571428571428,1.1428571428571428,1.1428571428571428,1.1428571428571428,1.1428571428571428,1.1428571428571428,1.1428571428571428,1.1428571428571428,1.1428571428571428,1.1428571428571428,1.1428571428571428,1.1428571428571428,1.1428571428571428,1.1428571428571428,1.1428571428571428,1.1428571428571428,1.1428571428571428,1.1428571428571428,1.1428571428571428,1.1428571428571428,1.1428571428571428,1.1428571428571428,1.1428571428571428,1.1428571428571428,1.1428571428571428,1.1428571428571428,1.1428571428571428,1.1462585034013606,1.1462585034013606,1.1462585034013606,1.1462585034013606,1.1462585034013606,1.1462585034013606,1.1462585034013606,1.1462585034013606,1.1462585034013606,1.1462585034013606,1.1462585034013606,1.1462585034013606,1.1462585034013606,1.1462585034013606,1.1462585034013606,1.1462585034013606,1.1462585034013606,1.1462585034013606,1.1462585034013606,1.1462585034013606,1.1462585034013606,1.1462585034013606,1.1462585034013606,1.1462585034013606,1.1462585034013606,1.1462585034013606,1.1462585034013606,1.1462585034013606,1.1462585034013606,1.1462585034013606,1.1462585034013606,1.1462585034013606,1.1462585034013606,1.1462585034013606,1.1462585034013606,1.1462585034013606,1.1462585034013606,1.1462585034013606,1.1462585034013606,1.1462585034013606,1.1462585034013606,1.1428571428571428,1.1428571428571428,1.1428571428571428,1.1428571428571428,1.1428571428571428,1.1428571428571428,1.1428571428571428,1.1428571428571428,1.1428571428571428,1.1428571428571428,1.1428571428571428,1.1394557823129252,1.1394557823129252,1.1394557823129252,1.1394557823129252,1.1394557823129252,1.1394557823129252,1.1394557823129252,1.1394557823129252,1.1326530612244898,1.1224489795918366,1.1020408163265305,1.0782312925170068,1.0578231292517006,1.0272108843537415,1,0.9625850340136054,0.9115646258503401,0.8741496598639455,0.8503401360544217,0.8299319727891157,0.8163265306122449,0.8061224489795918,0.7891156462585034,0.782312925170068,0.7789115646258503,0.7789115646258503,0.7789115646258503,0.7789115646258503,0.7789115646258503,0.7789115646258503,0.7789115646258503,0.7789115646258503,0.7789115646258503,0.7789115646258503,0.7789115646258503,0.7789115646258503,0.7789115646258503,0.7789115646258503,0.7789115646258503,0.7789115646258503,0.7789115646258503,0.7789115646258503,0.7789115646258503,0.7789115646258503,0.7789115646258503,0.7789115646258503,0.7789115646258503,0.7789115646258503,0.7789115646258503,0.7789115646258503,0.7789115646258503,0.7789115646258503,0.7789115646258503,0.7789115646258503,0.7789115646258503,0.7789115646258503,0.7789115646258503,0.7789115646258503,0.7789115646258503,0.7789115646258503,0.7789115646258503,0.7789115646258503,0.7789115646258503,0.7789115646258503,0.7789115646258503,0.7789115646258503,0.7789115646258503,0.7789115646258503,0.7789115646258503,0.7789115646258503,0.7789115646258503,0.7789115646258503,0.7789115646258503,0.7789115646258503,0.7789115646258503,0.7789115646258503,0.7789115646258503,0.7789115646258503,0.7789115646258503,0.7789115646258503,0.7789115646258503,0.7789115646258503,0.7789115646258503,0.7789115646258503,0.7789115646258503,0.7789115646258503,0.7789115646258503,0.7789115646258503,0.7789115646258503,0.7789115646258503,0.7789115646258503,0.7789115646258503,0.7789115646258503,0.7789115646258503,0.7789115646258503,0.7789115646258503,0.7789115646258503,0.7789115646258503,0.7789115646258503,0.7789115646258503,0.7789115646258503,0.7789115646258503,0.7789115646258503,0.7789115646258503,0.7789115646258503,0.7789115646258503,0.7789115646258503,0.7789115646258503,0.7789115646258503,0.7789115646258503,0.7789115646258503,0.7789115646258503,0.7789115646258503,0.7789115646258503,0.7789115646258503,0.7789115646258503,0.7789115646258503,0.7789115646258503,0.7789115646258503,0.7789115646258503,0.7789115646258503,0.7789115646258503,0.7789115646258503,0.7789115646258503,0.7789115646258503,0.7789115646258503,0.7789115646258503,0.7789115646258503,0.7789115646258503,0.7789115646258503,0.7789115646258503,0.7789115646258503,0.7789115646258503,0.7789115646258503,0.7789115646258503,0.7789115646258503,0.7789115646258503,0.7789115646258503,0.7789115646258503,0.7789115646258503,0.7789115646258503,0.7789115646258503,0.7789115646258503,0.7789115646258503,0.7789115646258503,0.7789115646258503,0.7789115646258503,0.7789115646258503,0.7789115646258503,0.7789115646258503,0.7789115646258503,0.7789115646258503,0.7789115646258503,0.7789115646258503,0.7789115646258503,0.7789115646258503,0.7789115646258503,0.7789115646258503,0.7789115646258503,0.7789115646258503,0.7789115646258503,0.7789115646258503,0.7789115646258503,0.7789115646258503,0.7789115646258503,0.7789115646258503,0.7789115646258503,0.7789115646258503,0.7789115646258503,0.7789115646258503,0.7789115646258503,0.7789115646258503,0.7789115646258503,0.7789115646258503,0.7789115646258503,0.7789115646258503,0.7789115646258503,0.7789115646258503,0.7789115646258503,0.7789115646258503,0.7789115646258503,0.7789115646258503,0.7789115646258503,0.7789115646258503,0.7789115646258503,0.7789115646258503,0.7789115646258503,0.7789115646258503,0.7789115646258503,0.7789115646258503,0.7789115646258503,0.7789115646258503,0.7789115646258503,0.7789115646258503,0.7789115646258503,0.7789115646258503,0.7789115646258503,0.7789115646258503,0.7789115646258503,0.7789115646258503,0.7789115646258503,0.7789115646258503,0.7789115646258503,0.7789115646258503,0.7789115646258503,0.7789115646258503,0.7789115646258503,0.7789115646258503,0.7789115646258503,0.7789115646258503,0.7789115646258503,0.7789115646258503,0.7789115646258503,0.7789115646258503,0.7789115646258503,0.7789115646258503,0.7789115646258503,0.7789115646258503,0.7789115646258503,0.7789115646258503,0.7789115646258503,0.7789115646258503,0.7789115646258503,0.7789115646258503,0.7789115646258503,0.7789115646258503,0.7789115646258503,0.7789115646258503,0.7789115646258503,0.7789115646258503,0.7789115646258503,0.7789115646258503,0.7789115646258503,0.7789115646258503,0.7789115646258503,0.7789115646258503,0.7789115646258503,0.7789115646258503,0.7789115646258503,0.7789115646258503,0.7789115646258503,0.7789115646258503,0.7789115646258503,0.7789115646258503,0.7789115646258503,0.7789115646258503,0.7789115646258503,0.7789115646258503,0.7789115646258503,0.7789115646258503,0.7789115646258503,0.7789115646258503,0.7789115646258503,0.7789115646258503,0.7789115646258503,0.7789115646258503,0.7789115646258503,0.7789115646258503,0.7789115646258503,0.7789115646258503,0.7789115646258503,0.7789115646258503,0.7789115646258503,0.7789115646258503,0.7789115646258503,0.7789115646258503,0.7789115646258503,0.7789115646258503,0.7789115646258503,0.7789115646258503,0.7789115646258503,0.7789115646258503,0.7789115646258503,0.7789115646258503,0.7789115646258503,0.7789115646258503,0.7789115646258503,0.7789115646258503,0.7789115646258503,0.7789115646258503,0.7789115646258503,0.7789115646258503,0.7789115646258503,0.7789115646258503,0.7789115646258503,0.7789115646258503,0.7789115646258503,0.7789115646258503,0.7789115646258503,0.7789115646258503,0.7789115646258503,0.7789115646258503,0.7789115646258503,0.7789115646258503,0.7789115646258503,0.7789115646258503,0.7789115646258503,0.7789115646258503,0.7789115646258503,0.7789115646258503,0.7789115646258503,0.7789115646258503,0.7789115646258503,0.7789115646258503,0.7789115646258503,0.7789115646258503,0.7687074829931972,0.7619047619047619,0.7482993197278912,0.7142857142857143,0.6768707482993197,0.6394557823129252,0.6122448979591837,0.6054421768707483,0.5850340136054422,0.5816326530612245,0.5782312925170068,0.5782312925170068,0.5782312925170068,0.5782312925170068,0.5782312925170068,0.5782312925170068,0.5782312925170068,0.5782312925170068,0.5782312925170068,0.5782312925170068,0.5782312925170068,0.5782312925170068,0.5782312925170068,0.5782312925170068,0.5816326530612245,0.5816326530612245,0.5816326530612245,0.5816326530612245,0.5816326530612245,0.5816326530612245,0.5816326530612245,0.5816326530612245,0.5816326530612245,0.5816326530612245,0.5816326530612245,0.5816326530612245,0.5816326530612245,0.5816326530612245,0.5816326530612245,0.5816326530612245,0.5816326530612245,0.5816326530612245,0.5816326530612245,0.5816326530612245,0.5816326530612245,0.5816326530612245,0.5816326530612245,0.5816326530612245,0.5816326530612245,0.5816326530612245,0.5816326530612245,0.5816326530612245,0.5816326530612245,0.5816326530612245,0.5816326530612245,0.5816326530612245,0.5816326530612245,0.5816326530612245,0.5816326530612245,0.5816326530612245,0.5816326530612245,0.5816326530612245,0.5816326530612245,0.5816326530612245,0.5816326530612245,0.5816326530612245,0.5816326530612245,0.5816326530612245,0.5816326530612245,0.5816326530612245,0.5748299319727891,0.5612244897959183,0.5544217687074829,0.5510204081632653,0.54421768707483,0.5408163265306123,0.5374149659863946,0.5340136054421769,0.5272108843537415,0.5272108843537415,0.5272108843537415,0.5272108843537415,0.5306122448979592,0.5408163265306123,0.5578231292517006,0.5748299319727891,0.5952380952380952,0.608843537414966,0.6122448979591837,0.6190476190476191,0.6258503401360545,0.6326530612244898,0.6462585034013606,0.6530612244897959,0.6666666666666666,0.6700680272108843,0.673469387755102,0.6768707482993197,0.6768707482993197,0.6768707482993197,0.6768707482993197,0.6768707482993197,0.6768707482993197,0.6768707482993197,0.6768707482993197,0.6768707482993197,0.6768707482993197,0.6768707482993197,0.6768707482993197,0.6768707482993197,0.6768707482993197,0.6768707482993197,0.6768707482993197,0.6768707482993197,0.6768707482993197,0.6768707482993197,0.6768707482993197,0.6768707482993197,0.6768707482993197,0.6768707482993197,0.6768707482993197,0.6768707482993197,0.673469387755102,0.673469387755102,0.6700680272108843,0.6700680272108843,0.6700680272108843,0.6666666666666666,0.6666666666666666,0.6632653061224489,0.6564625850340136,0.6394557823129252,0.6258503401360545,0.6122448979591837,0.6054421768707483,0.5986394557823129,0.5850340136054422,0.5714285714285714,0.5340136054421769,0.5102040816326531,0.47619047619047616,0.45918367346938777,0.4421768707482993,0.42517006802721086,0.41836734693877553,0.41156462585034015,0.40816326530612246,0.4013605442176871,0.3979591836734694,0.3945578231292517,0.3945578231292517,0.391156462585034,0.3877551020408163,0.3877551020408163,0.38095238095238093,0.38095238095238093,0.37755102040816324,0.3741496598639456,0.3707482993197279,0.36394557823129253,0.36054421768707484,0.35714285714285715,0.35374149659863946,0.3469387755102041,0.3435374149659864,0.3401360544217687,0.336734693877551,0.3333333333333333,0.3299319727891156,0.32653061224489793,0.3231292517006803,0.3231292517006803,0.3197278911564626,0.3163265306122449,0.3129251700680272,0.30952380952380953,0.30612244897959184,0.30272108843537415,0.29931972789115646,0.29931972789115646,0.29591836734693877,0.2925170068027211,0.2891156462585034,0.2891156462585034,0.2857142857142857,0.282312925170068,0.2789115646258503,0.2789115646258503,0.2789115646258503,0.2789115646258503,0.2789115646258503,0.2789115646258503,0.2789115646258503,0.2789115646258503,0.2789115646258503,0.2789115646258503,0.2789115646258503,0.2789115646258503,0.2789115646258503,0.2789115646258503,0.2789115646258503,0.2789115646258503,0.2789115646258503,0.2789115646258503,0.2789115646258503,0.2789115646258503,0.2789115646258503,0.2789115646258503,0.2789115646258503,0.2789115646258503,0.2789115646258503,0.2789115646258503,0.2789115646258503,0.2789115646258503,0.2789115646258503,0.2789115646258503,0.2789115646258503,0.2789115646258503,0.2789115646258503,0.2789115646258503,0.2789115646258503,0.2789115646258503,0.2789115646258503,0.2789115646258503,0.2789115646258503,0.2789115646258503,0.2789115646258503,0.2789115646258503,0.2789115646258503,0.2789115646258503,0.2789115646258503,0.2789115646258503,0.2789115646258503,0.282312925170068,0.282312925170068,0.282312925170068,0.282312925170068,0.282312925170068,0.2857142857142857,0.2857142857142857,0.2857142857142857,0.2891156462585034,0.2891156462585034,0.2925170068027211,0.2925170068027211,0.2925170068027211,0.29931972789115646,0.30272108843537415,0.30952380952380953,0.3129251700680272,0.3163265306122449,0.3231292517006803,0.32653061224489793,0.3333333333333333,0.336734693877551,0.3435374149659864,0.3469387755102041,0.35374149659863946,0.36054421768707484,0.36394557823129253,0.3673469387755102,0.3741496598639456,0.38095238095238093,0.3877551020408163,0.3945578231292517,0.3979591836734694,0.40476190476190477,0.40816326530612246,0.41496598639455784,0.41836734693877553,0.4217687074829932,0.4217687074829932,0.4217687074829932,0.4217687074829932,0.4217687074829932,0.4217687074829932,0.4217687074829932,0.4217687074829932,0.4217687074829932,0.4217687074829932,0.4217687074829932,0.4217687074829932,0.4217687074829932,0.4217687074829932,0.4217687074829932,0.4217687074829932,0.4217687074829932,0.4217687074829932,0.4217687074829932,0.4217687074829932,0.4217687074829932,0.4217687074829932,0.4217687074829932,0.4217687074829932,0.4217687074829932,0.4217687074829932,0.4217687074829932,0.4217687074829932,0.4217687074829932,0.4217687074829932,0.4217687074829932,0.4217687074829932,0.4217687074829932,0.4217687074829932,0.4217687074829932,0.4217687074829932,0.4217687074829932,0.4217687074829932,0.4217687074829932,0.4217687074829932,0.4217687074829932,0.4217687074829932,0.4217687074829932,0.4217687074829932,0.4217687074829932,0.4217687074829932,0.4217687074829932,0.4217687074829932,0.4217687074829932,0.4217687074829932,0.4217687074829932,0.4217687074829932,0.4217687074829932,0.4217687074829932,0.4217687074829932,0.4217687074829932,0.4217687074829932,0.4217687074829932,0.4217687074829932,0.4217687074829932,0.4217687074829932,0.4217687074829932,0.4217687074829932,0.4217687074829932,0.4217687074829932,0.4217687074829932,0.4217687074829932,0.4217687074829932,0.4217687074829932,0.4217687074829932,0.4217687074829932,0.4217687074829932,0.4217687074829932,0.4217687074829932,0.4217687074829932,0.4217687074829932,0.4217687074829932,0.4217687074829932,0.4217687074829932,0.4217687074829932,0.4217687074829932,0.4217687074829932,0.4217687074829932,0.4217687074829932,0.4217687074829932,0.4217687074829932,0.4217687074829932,0.4217687074829932,0.4217687074829932,0.4217687074829932,0.4217687074829932,0.4217687074829932,0.4217687074829932,0.4217687074829932,0.4217687074829932,0.4217687074829932,0.4217687074829932,0.4217687074829932,0.4217687074829932,0.4217687074829932,0.4217687074829932,0.4217687074829932,0.4217687074829932,0.4217687074829932,0.4217687074829932,0.4217687074829932,0.4217687074829932,0.4217687074829932,0.4217687074829932,0.4217687074829932,0.4217687074829932,0.4217687074829932,0.4217687074829932,0.4217687074829932,0.4217687074829932,0.4217687074829932,0.4217687074829932,0.4217687074829932,0.4217687074829932,0.4217687074829932,0.4217687074829932,0.4217687074829932,0.4217687074829932,0.4217687074829932,0.4217687074829932,0.4217687074829932,0.4217687074829932,0.4217687074829932,0.4217687074829932,0.4217687074829932,0.4217687074829932,0.4217687074829932,0.4217687074829932,0.4217687074829932,0.4217687074829932,0.4217687074829932,0.4217687074829932,0.4217687074829932,0.4217687074829932,0.4217687074829932,0.4217687074829932,0.4217687074829932,0.4217687074829932,0.4217687074829932,0.4217687074829932,0.4217687074829932,0.4217687074829932,0.4217687074829932,0.4217687074829932,0.4217687074829932,0.4217687074829932,0.4217687074829932,0.4217687074829932,0.4217687074829932,0.4217687074829932,0.4217687074829932,0.4217687074829932,0.4217687074829932,0.4217687074829932,0.4217687074829932,0.4217687074829932,0.4217687074829932,0.4217687074829932,0.4217687074829932,0.4217687074829932,0.4217687074829932,0.4217687074829932,0.4217687074829932,0.4217687074829932,0.4217687074829932,0.4217687074829932,0.4217687074829932,0.4217687074829932,0.4217687074829932,0.4217687074829932,0.4217687074829932,0.4217687074829932,0.4217687074829932,0.4217687074829932,0.4217687074829932,0.4217687074829932,0.4217687074829932,0.4217687074829932,0.4217687074829932,0.4217687074829932,0.4217687074829932,0.4217687074829932,0.4217687074829932,0.4217687074829932,0.4217687074829932,0.4217687074829932,0.4217687074829932,0.4217687074829932,0.4217687074829932,0.4217687074829932,0.4217687074829932,0.4217687074829932,0.4217687074829932,0.4217687074829932,0.4217687074829932,0.4217687074829932,0.4217687074829932,0.4217687074829932,0.4217687074829932,0.4217687074829932,0.4217687074829932,0.4217687074829932,0.4217687074829932,0.4217687074829932,0.4217687074829932,0.4217687074829932,0.4217687074829932,0.4217687074829932,0.4217687074829932,0.4217687074829932,0.4217687074829932,0.4217687074829932,0.4217687074829932,0.4217687074829932,0.4217687074829932,0.4217687074829932,0.4217687074829932,0.4217687074829932,0.4217687074829932,0.4217687074829932,0.4217687074829932,0.4217687074829932,0.4217687074829932,0.42857142857142855,0.42857142857142855,0.43197278911564624,0.47619047619047616,0.5306122448979592,0.5714285714285714,0.5850340136054422,0.5884353741496599,0.5918367346938775,0.5918367346938775,0.5918367346938775,0.5918367346938775,0.5918367346938775,0.5918367346938775,0.5918367346938775,0.5918367346938775,0.5918367346938775,0.5918367346938775,0.5918367346938775,0.5918367346938775,0.5884353741496599,0.5884353741496599,0.5850340136054422,0.5782312925170068,0.5680272108843537,0.5374149659863946,0.5136054421768708,0.47959183673469385,0.43537414965986393,0.3945578231292517,0.35034013605442177,0.336734693877551,0.3333333333333333,0.32653061224489793,0.3129251700680272,0.2925170068027211,0.2755102040816326,0.2687074829931973,0.2687074829931973,0.2687074829931973,0.2687074829931973,0.2687074829931973,0.2687074829931973,0.2687074829931973,0.2687074829931973,0.2687074829931973,0.2687074829931973,0.2687074829931973,0.2687074829931973,0.2687074829931973,0.2687074829931973,0.2687074829931973,0.2687074829931973,0.2687074829931973,0.2687074829931973,0.2687074829931973,0.272108843537415,0.2755102040816326,0.282312925170068,0.29931972789115646,0.3197278911564626,0.3299319727891156,0.3435374149659864,0.35714285714285715,0.3673469387755102,0.3741496598639456,0.3843537414965986,0.3945578231292517,0.40476190476190477,0.41156462585034015,0.41496598639455784,0.41496598639455784,0.41496598639455784,0.41496598639455784,0.41496598639455784,0.41496598639455784,0.41836734693877553,0.41836734693877553,0.4217687074829932,0.4217687074829932,0.4217687074829932,0.4217687074829932,0.4217687074829932,0.4217687074829932,0.4217687074829932,0.4217687074829932,0.4217687074829932,0.4217687074829932,0.4217687074829932,0.4217687074829932,0.4217687074829932,0.4217687074829932,0.41836734693877553,0.41836734693877553,0.41836734693877553,0.41836734693877553,0.41836734693877553,0.41836734693877553,0.41836734693877553,0.41836734693877553,0.41836734693877553,0.41836734693877553,0.41836734693877553,0.41836734693877553,0.41836734693877553,0.41836734693877553,0.41836734693877553,0.41836734693877553,0.41836734693877553,0.41836734693877553,0.41836734693877553,0.41836734693877553,0.41836734693877553,0.41836734693877553,0.41836734693877553,0.41836734693877553,0.41836734693877553,0.41836734693877553,0.41836734693877553,0.41836734693877553,0.41836734693877553,0.41836734693877553,0.41836734693877553,0.41836734693877553,0.41836734693877553,0.41836734693877553,0.41836734693877553,0.41836734693877553,0.41836734693877553,0.41836734693877553,0.41836734693877553,0.41836734693877553,0.41836734693877553,0.41836734693877553,0.41836734693877553,0.41836734693877553,0.41836734693877553,0.41836734693877553,0.41836734693877553,0.41836734693877553,0.41836734693877553,0.41836734693877553,0.41836734693877553,0.41836734693877553,0.41836734693877553,0.41836734693877553,0.41836734693877553,0.41836734693877553,0.41836734693877553,0.41836734693877553,0.41836734693877553,0.41836734693877553,0.41836734693877553,0.41836734693877553,0.41836734693877553,0.41836734693877553,0.41836734693877553,0.41836734693877553,0.41836734693877553,0.41836734693877553,0.41836734693877553,0.41836734693877553,0.41836734693877553,0.41836734693877553,0.41836734693877553,0.41836734693877553,0.41836734693877553,0.41836734693877553,0.41836734693877553,0.41836734693877553,0.41836734693877553,0.41836734693877553,0.41836734693877553,0.41836734693877553,0.41836734693877553,0.41836734693877553,0.41836734693877553,0.41836734693877553,0.41836734693877553,0.41836734693877553,0.41836734693877553,0.41836734693877553,0.41836734693877553,0.41836734693877553,0.41836734693877553,0.41836734693877553,0.41836734693877553,0.41836734693877553,0.41836734693877553,0.41836734693877553,0.41836734693877553,0.41836734693877553,0.41836734693877553,0.41496598639455784,0.40816326530612246,0.40816326530612246,0.40476190476190477,0.4013605442176871,0.4013605442176871,0.4013605442176871,0.4013605442176871,0.4013605442176871,0.4013605442176871,0.40476190476190477,0.40816326530612246,0.40816326530612246,0.40816326530612246,0.40816326530612246,0.41156462585034015,0.41156462585034015,0.41156462585034015,0.41156462585034015,0.41156462585034015,0.41156462585034015,0.41156462585034015,0.41156462585034015,0.41156462585034015,0.41156462585034015,0.41156462585034015,0.41156462585034015,0.41156462585034015,0.41156462585034015,0.41156462585034015,0.4