"success","trial_type","trial_index","time_elapsed","internal_node_id","protocol_sum","subject_identifier","subject_sum","subject_pair","STUDY_ID","PROLIFIC_PID","SESSION_ID","practice_instructions","leaderboard_instructions","bonus","reveal_word","self_rating","confidence","view_history","rt","responses","question_order","correct","test_part","word","final_keyboard_state","num_clicks","points","cheat","response","position_RT","position","player","i_game","true_position","distance","last_word","stimulus","confidence_slider_self_response"
"true","fullscreen",0,3774,"0.0-0.0",NA,117,"98,8,239,15,119,80,193,17,84,140,249,11,110,161,208,208,166,111,107,255,64,219,239,7,203,69,236,67,98,99,199,214",58,"669a702db1122fc5150a13ce","66231fc6e1ecba676935943a","669ace511ec16852f3e72f65",1,0,1,"true",6,12,"",NA,"","","","","","",NA,NA,"","",NA,NA,NA,NA,NA,NA,"","",NA
"","instructions",1,8905,"0.0-1.0",NA,117,"98,8,239,15,119,80,193,17,84,140,249,11,110,161,208,208,166,111,107,255,64,219,239,7,203,69,236,67,98,99,199,214",58,"669a702db1122fc5150a13ce","66231fc6e1ecba676935943a","669ace511ec16852f3e72f65",1,0,1,"true",6,12,"[{""page_index"":0,""viewing_time"":5131}]",5131.09999990463,"","","","","","",NA,NA,"","",NA,NA,NA,NA,NA,NA,"","",NA
"","instructions",2,24300,"0.0-2.0-0.0",NA,117,"98,8,239,15,119,80,193,17,84,140,249,11,110,161,208,208,166,111,107,255,64,219,239,7,203,69,236,67,98,99,199,214",58,"669a702db1122fc5150a13ce","66231fc6e1ecba676935943a","669ace511ec16852f3e72f65",1,0,1,"true",6,12,"[{""page_index"":0,""viewing_time"":15393.899999976158}]",15394,"","","","","","",NA,NA,"","",NA,NA,NA,NA,NA,NA,"","",NA
"","survey-multi-choice",3,32348,"0.0-2.0-1.0",NA,117,"98,8,239,15,119,80,193,17,84,140,249,11,110,161,208,208,166,111,107,255,64,219,239,7,203,69,236,67,98,99,199,214",58,"669a702db1122fc5150a13ce","66231fc6e1ecba676935943a","669ace511ec16852f3e72f65",1,0,1,"true",6,12,"",8047.29999995232,"{""Q0"":""... reveal the word with as <b>few letter guesses</b> as possible""}","[0]","true","multichoice_nonpretend","","",NA,NA,"","",NA,NA,NA,NA,NA,NA,"","",NA
"","instructions",4,34541,"0.0-3.0",NA,117,"98,8,239,15,119,80,193,17,84,140,249,11,110,161,208,208,166,111,107,255,64,219,239,7,203,69,236,67,98,99,199,214",58,"669a702db1122fc5150a13ce","66231fc6e1ecba676935943a","669ace511ec16852f3e72f65",1,0,1,"true",6,12,"[{""page_index"":0,""viewing_time"":2193.100000023842}]",2193.10000002384,"","","","","","",NA,NA,"","",NA,NA,NA,NA,NA,NA,"","",NA
"","Hangman",5,80476,"0.0-4.0",NA,117,"98,8,239,15,119,80,193,17,84,140,249,11,110,161,208,208,166,111,107,255,64,219,239,7,203,69,236,67,98,99,199,214",58,"669a702db1122fc5150a13ce","66231fc6e1ecba676935943a","669ace511ec16852f3e72f65",1,0,1,"true",6,12,"",NA,"","","","","ZEBRA","S,C,O,A,D,B,E,Z,R",9,11,"false","",NA,NA,NA,NA,NA,NA,"","",NA
"","instructions",6,96819,"0.0-5.0",NA,117,"98,8,239,15,119,80,193,17,84,140,249,11,110,161,208,208,166,111,107,255,64,219,239,7,203,69,236,67,98,99,199,214",58,"669a702db1122fc5150a13ce","66231fc6e1ecba676935943a","669ace511ec16852f3e72f65",1,0,1,"true",6,12,"[{""page_index"":0,""viewing_time"":2658.100000023842},{""page_index"":1,""viewing_time"":13684.399999976158}]",16342.7999999523,"","","","","","",NA,NA,"","",NA,NA,NA,NA,NA,NA,"","",NA
"","survey-multi-choice",7,105448,"0.0-6.0",NA,117,"98,8,239,15,119,80,193,17,84,140,249,11,110,161,208,208,166,111,107,255,64,219,239,7,203,69,236,67,98,99,199,214",58,"669a702db1122fc5150a13ce","66231fc6e1ecba676935943a","669ace511ec16852f3e72f65",1,0,1,"true",6,12,"",8628.20000004768,"{""Q0"":""...from <b>a previous session</b> that is not part of the upcoming tournament.""}","[0]","true","multichoice_leaderboard","","",NA,NA,"","",NA,NA,NA,NA,NA,NA,"","",NA
"","instructions",8,115453,"0.0-8.0",NA,117,"98,8,239,15,119,80,193,17,84,140,249,11,110,161,208,208,166,111,107,255,64,219,239,7,203,69,236,67,98,99,199,214",58,"669a702db1122fc5150a13ce","66231fc6e1ecba676935943a","669ace511ec16852f3e72f65",1,0,1,"true",6,12,"[{""page_index"":0,""viewing_time"":10004.100000023842}]",10004.2999999523,"","","","","","",NA,NA,"","",NA,NA,NA,NA,NA,NA,"","",NA
"","survey-multi-choice",9,125704,"0.0-9.0",NA,117,"98,8,239,15,119,80,193,17,84,140,249,11,110,161,208,208,166,111,107,255,64,219,239,7,203,69,236,67,98,99,199,214",58,"669a702db1122fc5150a13ce","66231fc6e1ecba676935943a","669ace511ec16852f3e72f65",1,0,1,"true",6,12,"",10251,"{""Q0"":""...players' leaderboard position (in terms of <b>points</b>) in an <b>upcoming tournament.</b>""}","[0]","true","multichoice_tournament","","",NA,NA,"","",NA,NA,NA,NA,NA,NA,"","",NA
"","instructions",10,138850,"0.0-11.0",NA,117,"98,8,239,15,119,80,193,17,84,140,249,11,110,161,208,208,166,111,107,255,64,219,239,7,203,69,236,67,98,99,199,214",58,"669a702db1122fc5150a13ce","66231fc6e1ecba676935943a","669ace511ec16852f3e72f65",1,0,1,"true",6,12,"[{""page_index"":0,""viewing_time"":13145.199999928474}]",13145.3999999762,"","","","","","",NA,NA,"","",NA,NA,NA,NA,NA,NA,"","",NA
"","instructions",11,152141,"0.0-12.0-0.0",NA,117,"98,8,239,15,119,80,193,17,84,140,249,11,110,161,208,208,166,111,107,255,64,219,239,7,203,69,236,67,98,99,199,214",58,"669a702db1122fc5150a13ce","66231fc6e1ecba676935943a","669ace511ec16852f3e72f65",1,0,1,"true",6,12,"[{""page_index"":0,""viewing_time"":13290.399999976158}]",13290.5,"","","","","","",NA,NA,"","",NA,NA,NA,NA,NA,NA,"","",NA
"","type-this",12,164247,"0.0-12.0-1.0",NA,117,"98,8,239,15,119,80,193,17,84,140,249,11,110,161,208,208,166,111,107,255,64,219,239,7,203,69,236,67,98,99,199,214",58,"669a702db1122fc5150a13ce","66231fc6e1ecba676935943a","669ace511ec16852f3e72f65",1,0,1,"true",6,12,"",11605,"WRIST","","","","","",NA,NA,"","WRIST",NA,NA,NA,NA,NA,NA,"","",NA
"","Hangman_replay",13,196701,"0.0-12.0-2.0",NA,117,"98,8,239,15,119,80,193,17,84,140,249,11,110,161,208,208,166,111,107,255,64,219,239,7,203,69,236,67,98,99,199,214",58,"669a702db1122fc5150a13ce","66231fc6e1ecba676935943a","669ace511ec16852f3e72f65",1,0,1,"true",6,12,"",NA,"","","","","WRIST","A,I,O,U,E,R,W,S,T",9,11,"false","",NA,NA,NA,NA,NA,NA,"","",NA
"","instructions",14,199922,"0.0-12.0-3.0",NA,117,"98,8,239,15,119,80,193,17,84,140,249,11,110,161,208,208,166,111,107,255,64,219,239,7,203,69,236,67,98,99,199,214",58,"669a702db1122fc5150a13ce","66231fc6e1ecba676935943a","669ace511ec16852f3e72f65",1,0,1,"true",6,12,"[{""page_index"":0,""viewing_time"":3220.5}]",3220.79999995232,"","","","","","",NA,NA,"","",NA,NA,NA,NA,NA,NA,"","",NA
"","Guess_leaderboard",15,214213,"0.0-12.0-4.0",NA,117,"98,8,239,15,119,80,193,17,84,140,249,11,110,161,208,208,166,111,107,255,64,219,239,7,203,69,236,67,98,99,199,214",58,"669a702db1122fc5150a13ce","66231fc6e1ecba676935943a","669ace511ec16852f3e72f65",1,0,1,"true",6,12,"",NA,"","","","","WRIST","",NA,NA,"","",13524.7000000477,10,62,0,62,52,"","",NA
"","instructions",16,220573,"0.0-12.0-0.1",NA,117,"98,8,239,15,119,80,193,17,84,140,249,11,110,161,208,208,166,111,107,255,64,219,239,7,203,69,236,67,98,99,199,214",58,"669a702db1122fc5150a13ce","66231fc6e1ecba676935943a","669ace511ec16852f3e72f65",1,0,1,"true",6,12,"[{""page_index"":0,""viewing_time"":6359.700000047684}]",6359.80000007153,"","","","","","",NA,NA,"","",NA,NA,NA,NA,NA,NA,"","",NA
"","type-this",17,225899,"0.0-12.0-1.1",NA,117,"98,8,239,15,119,80,193,17,84,140,249,11,110,161,208,208,166,111,107,255,64,219,239,7,203,69,236,67,98,99,199,214",58,"669a702db1122fc5150a13ce","66231fc6e1ecba676935943a","669ace511ec16852f3e72f65",1,0,1,"true",6,12,"",4824.20000004768,"HAWAII","","","","","",NA,NA,"","HAWAII",NA,NA,NA,NA,NA,NA,"","",NA
"","Hangman_replay",18,255290,"0.0-12.0-2.1",NA,117,"98,8,239,15,119,80,193,17,84,140,249,11,110,161,208,208,166,111,107,255,64,219,239,7,203,69,236,67,98,99,199,214",58,"669a702db1122fc5150a13ce","66231fc6e1ecba676935943a","669ace511ec16852f3e72f65",1,0,1,"true",6,12,"",NA,"","","","","HAWAII","A,K,H,W,I",5,14,"false","",NA,NA,NA,NA,NA,NA,"","",NA
"","instructions",19,257234,"0.0-12.0-3.1",NA,117,"98,8,239,15,119,80,193,17,84,140,249,11,110,161,208,208,166,111,107,255,64,219,239,7,203,69,236,67,98,99,199,214",58,"669a702db1122fc5150a13ce","66231fc6e1ecba676935943a","669ace511ec16852f3e72f65",1,0,1,"true",6,12,"[{""page_index"":0,""viewing_time"":1943.9000000953674}]",1944.20000004768,"","","","","","",NA,NA,"","",NA,NA,NA,NA,NA,NA,"","",NA
"","Guess_leaderboard",20,266318,"0.0-12.0-4.1",NA,117,"98,8,239,15,119,80,193,17,84,140,249,11,110,161,208,208,166,111,107,255,64,219,239,7,203,69,236,67,98,99,199,214",58,"669a702db1122fc5150a13ce","66231fc6e1ecba676935943a","669ace511ec16852f3e72f65",1,0,1,"true",6,12,"",NA,"","","","","HAWAII","",NA,NA,"","",8324.89999997616,5,13,1,5,0,"","",NA
"","instructions",21,272381,"0.0-12.0-0.2",NA,117,"98,8,239,15,119,80,193,17,84,140,249,11,110,161,208,208,166,111,107,255,64,219,239,7,203,69,236,67,98,99,199,214",58,"669a702db1122fc5150a13ce","66231fc6e1ecba676935943a","669ace511ec16852f3e72f65",1,0,1,"true",6,12,"[{""page_index"":0,""viewing_time"":6062.299999952316}]",6062.39999997616,"","","","","","",NA,NA,"","",NA,NA,NA,NA,NA,NA,"","",NA
"","type-this",22,278334,"0.0-12.0-1.2",NA,117,"98,8,239,15,119,80,193,17,84,140,249,11,110,161,208,208,166,111,107,255,64,219,239,7,203,69,236,67,98,99,199,214",58,"669a702db1122fc5150a13ce","66231fc6e1ecba676935943a","669ace511ec16852f3e72f65",1,0,1,"true",6,12,"",5451.39999997616,"THIRTY FOUR","","","","","",NA,NA,"","THIRTY FOUR",NA,NA,NA,NA,NA,NA,"","",NA
"","Hangman_replay",23,317044,"0.0-12.0-2.2",NA,117,"98,8,239,15,119,80,193,17,84,140,249,11,110,161,208,208,166,111,107,255,64,219,239,7,203,69,236,67,98,99,199,214",58,"669a702db1122fc5150a13ce","66231fc6e1ecba676935943a","669ace511ec16852f3e72f65",1,0,1,"true",6,12,"",NA,"","","","","THIRTY FOUR","E,A,I,T,H,R,Y,F,O,U",10,13,"false","",NA,NA,NA,NA,NA,NA,"","",NA
"","instructions",24,319334,"0.0-12.0-3.2",NA,117,"98,8,239,15,119,80,193,17,84,140,249,11,110,161,208,208,166,111,107,255,64,219,239,7,203,69,236,67,98,99,199,214",58,"669a702db1122fc5150a13ce","66231fc6e1ecba676935943a","669ace511ec16852f3e72f65",1,0,1,"true",6,12,"[{""page_index"":0,""viewing_time"":2289.2000000476837}]",2289.5,"","","","","","",NA,NA,"","",NA,NA,NA,NA,NA,NA,"","",NA
"","Guess_leaderboard",25,325150,"0.0-12.0-4.2",NA,117,"98,8,239,15,119,80,193,17,84,140,249,11,110,161,208,208,166,111,107,255,64,219,239,7,203,69,236,67,98,99,199,214",58,"669a702db1122fc5150a13ce","66231fc6e1ecba676935943a","669ace511ec16852f3e72f65",1,0,1,"true",6,12,"",NA,"","","","","THIRTY FOUR","",NA,NA,"","",5064.60000002384,9,29,2,11,2,"","",NA
"","instructions",26,327080,"0.0-12.0-0.3",NA,117,"98,8,239,15,119,80,193,17,84,140,249,11,110,161,208,208,166,111,107,255,64,219,239,7,203,69,236,67,98,99,199,214",58,"669a702db1122fc5150a13ce","66231fc6e1ecba676935943a","669ace511ec16852f3e72f65",1,0,1,"true",6,12,"[{""page_index"":0,""viewing_time"":1929}]",1929.10000002384,"","","","","","",NA,NA,"","",NA,NA,NA,NA,NA,NA,"","",NA
"","type-this",27,331338,"0.0-12.0-1.3",NA,117,"98,8,239,15,119,80,193,17,84,140,249,11,110,161,208,208,166,111,107,255,64,219,239,7,203,69,236,67,98,99,199,214",58,"669a702db1122fc5150a13ce","66231fc6e1ecba676935943a","669ace511ec16852f3e72f65",1,0,1,"true",6,12,"",3756.5,"FIG","","","","","",NA,NA,"","FIG",NA,NA,NA,NA,NA,NA,"","",NA
"","Hangman_replay",28,368768,"0.0-12.0-2.3",NA,117,"98,8,239,15,119,80,193,17,84,140,249,11,110,161,208,208,166,111,107,255,64,219,239,7,203,69,236,67,98,99,199,214",58,"669a702db1122fc5150a13ce","66231fc6e1ecba676935943a","669ace511ec16852f3e72f65",1,0,1,"true",6,12,"",NA,"","","","","FIG","A,E,I,O,U,F,G",7,11,"false","",NA,NA,NA,NA,NA,NA,"","",NA
"","instructions",29,371985,"0.0-12.0-3.3",NA,117,"98,8,239,15,119,80,193,17,84,140,249,11,110,161,208,208,166,111,107,255,64,219,239,7,203,69,236,67,98,99,199,214",58,"669a702db1122fc5150a13ce","66231fc6e1ecba676935943a","669ace511ec16852f3e72f65",1,0,1,"true",6,12,"[{""page_index"":0,""viewing_time"":3217}]",3217.29999995232,"","","","","","",NA,NA,"","",NA,NA,NA,NA,NA,NA,"","",NA
"","Guess_leaderboard",30,381649,"0.0-12.0-4.3",NA,117,"98,8,239,15,119,80,193,17,84,140,249,11,110,161,208,208,166,111,107,255,64,219,239,7,203,69,236,67,98,99,199,214",58,"669a702db1122fc5150a13ce","66231fc6e1ecba676935943a","669ace511ec16852f3e72f65",1,0,1,"true",6,12,"",NA,"","","","","FIG","",NA,NA,"","",8908.5,16,9,3,52,36,"","",NA
"","instructions",31,383325,"0.0-12.0-0.4",NA,117,"98,8,239,15,119,80,193,17,84,140,249,11,110,161,208,208,166,111,107,255,64,219,239,7,203,69,236,67,98,99,199,214",58,"669a702db1122fc5150a13ce","66231fc6e1ecba676935943a","669ace511ec16852f3e72f65",1,0,1,"true",6,12,"[{""page_index"":0,""viewing_time"":1675.2999999523163}]",1675.39999997616,"","","","","","",NA,NA,"","",NA,NA,NA,NA,NA,NA,"","",NA
"","type-this",32,388516,"0.0-12.0-1.4",NA,117,"98,8,239,15,119,80,193,17,84,140,249,11,110,161,208,208,166,111,107,255,64,219,239,7,203,69,236,67,98,99,199,214",58,"669a702db1122fc5150a13ce","66231fc6e1ecba676935943a","669ace511ec16852f3e72f65",1,0,1,"true",6,12,"",4690.29999995232,"SHAKIRA","","","","","",NA,NA,"","SHAKIRA",NA,NA,NA,NA,NA,NA,"","",NA
"","Hangman_replay",33,423406,"0.0-12.0-2.4",NA,117,"98,8,239,15,119,80,193,17,84,140,249,11,110,161,208,208,166,111,107,255,64,219,239,7,203,69,236,67,98,99,199,214",58,"669a702db1122fc5150a13ce","66231fc6e1ecba676935943a","669ace511ec16852f3e72f65",1,0,1,"true",6,12,"",NA,"","","","","SHAKIRA","A,D,I,S,H,K,R",7,14,"false","",NA,NA,NA,NA,NA,NA,"","",NA
"","instructions",34,425938,"0.0-12.0-3.4",NA,117,"98,8,239,15,119,80,193,17,84,140,249,11,110,161,208,208,166,111,107,255,64,219,239,7,203,69,236,67,98,99,199,214",58,"669a702db1122fc5150a13ce","66231fc6e1ecba676935943a","669ace511ec16852f3e72f65",1,0,1,"true",6,12,"[{""page_index"":0,""viewing_time"":2531}]",2531.10000002384,"","","","","","",NA,NA,"","",NA,NA,NA,NA,NA,NA,"","",NA
"","Guess_leaderboard",35,436531,"0.0-12.0-4.4",NA,117,"98,8,239,15,119,80,193,17,84,140,249,11,110,161,208,208,166,111,107,255,64,219,239,7,203,69,236,67,98,99,199,214",58,"669a702db1122fc5150a13ce","66231fc6e1ecba676935943a","669ace511ec16852f3e72f65",1,0,1,"true",6,12,"",NA,"","","","","SHAKIRA","",NA,NA,"","",9831.79999995232,4,14,4,10,6,"","",NA
"","survey-text",36,443543,"0.0-13.0",NA,117,"98,8,239,15,119,80,193,17,84,140,249,11,110,161,208,208,166,111,107,255,64,219,239,7,203,69,236,67,98,99,199,214",58,"669a702db1122fc5150a13ce","66231fc6e1ecba676935943a","669ace511ec16852f3e72f65",1,0,1,"true",6,12,"",7010.30000007153,"{""Q0"":""SHAKIRA""}","","","","","",NA,NA,"","",NA,NA,NA,NA,NA,NA,"shakira","",NA
"","survey-multi-choice",37,455600,"0.0-14.0",NA,117,"98,8,239,15,119,80,193,17,84,140,249,11,110,161,208,208,166,111,107,255,64,219,239,7,203,69,236,67,98,99,199,214",58,"669a702db1122fc5150a13ce","66231fc6e1ecba676935943a","669ace511ec16852f3e72f65",1,0,1,"true",6,12,"",12056.2999999523,"{""Q0"":""6. I would be <b>last</b> out of the six of us.""}","[0]","","self-rating","","",NA,NA,"","",NA,6,NA,NA,NA,NA,"","",NA
"","html-slider-response",38,461360,"0.0-15.0",NA,117,"98,8,239,15,119,80,193,17,84,140,249,11,110,161,208,208,166,111,107,255,64,219,239,7,203,69,236,67,98,99,199,214",58,"669a702db1122fc5150a13ce","66231fc6e1ecba676935943a","669ace511ec16852f3e72f65",1,0,1,"true",6,12,"",5759.20000004768,"","","","","","",NA,NA,"","12",NA,NA,NA,NA,NA,NA,"","<p>Overall, how confident were you in your answer to this last question?</p>",12
"","survey-text",39,534625,"0.0-16.0",NA,117,"98,8,239,15,119,80,193,17,84,140,249,11,110,161,208,208,166,111,107,255,64,219,239,7,203,69,236,67,98,99,199,214",58,"669a702db1122fc5150a13ce","66231fc6e1ecba676935943a","669ace511ec16852f3e72f65",1,0,1,"true",6,12,"",73263.7000000477,"{""Q0"":""How accurate predictions are based on skill?""}","","","","","",NA,NA,"","",NA,NA,NA,NA,NA,NA,"","",NA
"","survey-text",40,551832,"0.0-17.0",NA,117,"98,8,239,15,119,80,193,17,84,140,249,11,110,161,208,208,166,111,107,255,64,219,239,7,203,69,236,67,98,99,199,214",58,"669a702db1122fc5150a13ce","66231fc6e1ecba676935943a","669ace511ec16852f3e72f65",1,0,1,"true",6,12,"",17205.6000000238,"{""Q0"":""N/A""}","","","","","",NA,NA,"","",NA,NA,NA,NA,NA,NA,"","",NA
"","instructions",41,559997,"0.0-18.0",NA,117,"98,8,239,15,119,80,193,17,84,140,249,11,110,161,208,208,166,111,107,255,64,219,239,7,203,69,236,67,98,99,199,214",58,"669a702db1122fc5150a13ce","66231fc6e1ecba676935943a","669ace511ec16852f3e72f65",1,0,1,"true",6,12,"[{""page_index"":0,""viewing_time"":8165.399999976158}]",8165.80000007153,"","","","","","",NA,NA,"","",NA,NA,NA,NA,NA,NA,"","",NA
