[{"success":true,"trial_type":"fullscreen","trial_index":0,"time_elapsed":2517,"internal_node_id":"0.0-0.0","protocol_sum":"","subject_identifier":140,"subject_sum":[255,90,26,224,18,175,165,212,200,137,197,10,212,39,170,245,69,211,26,79,172,4,255,193,196,208,61,64,59,164,37,10],"subject_pair":70,"STUDY_ID":"669a702db1122fc5150a13ce","PROLIFIC_PID":"5fd7782dee03dc08d3f3f491","SESSION_ID":"669b4692b5cd9126ab099f18","practice_instructions":1,"leaderboard_instructions":0,"bonus":0,"reveal_word":false,"self_rating":"3","confidence":"37"},{"view_history":"[{\"page_index\":0,\"viewing_time\":5064}]","rt":5064,"trial_type":"instructions","trial_index":1,"time_elapsed":7582,"internal_node_id":"0.0-1.0","protocol_sum":"","subject_identifier":140,"subject_sum":[255,90,26,224,18,175,165,212,200,137,197,10,212,39,170,245,69,211,26,79,172,4,255,193,196,208,61,64,59,164,37,10],"subject_pair":70,"STUDY_ID":"669a702db1122fc5150a13ce","PROLIFIC_PID":"5fd7782dee03dc08d3f3f491","SESSION_ID":"669b4692b5cd9126ab099f18","practice_instructions":1,"leaderboard_instructions":0,"bonus":0,"reveal_word":false,"self_rating":"3","confidence":"37"},{"view_history":"[{\"page_index\":0,\"viewing_time\":33760}]","rt":33760,"trial_type":"instructions","trial_index":2,"time_elapsed":41344,"internal_node_id":"0.0-2.0-0.0","protocol_sum":"","subject_identifier":140,"subject_sum":[255,90,26,224,18,175,165,212,200,137,197,10,212,39,170,245,69,211,26,79,172,4,255,193,196,208,61,64,59,164,37,10],"subject_pair":70,"STUDY_ID":"669a702db1122fc5150a13ce","PROLIFIC_PID":"5fd7782dee03dc08d3f3f491","SESSION_ID":"669b4692b5cd9126ab099f18","practice_instructions":1,"leaderboard_instructions":0,"bonus":0,"reveal_word":false,"self_rating":"3","confidence":"37"},{"rt":9839,"responses":"{\"Q0\":\"... reveal the word with as <b>few letter guesses</b> as possible\"}","question_order":"[0]","trial_type":"survey-multi-choice","trial_index":3,"time_elapsed":51186,"internal_node_id":"0.0-2.0-1.0","protocol_sum":"","subject_identifier":140,"subject_sum":[255,90,26,224,18,175,165,212,200,137,197,10,212,39,170,245,69,211,26,79,172,4,255,193,196,208,61,64,59,164,37,10],"subject_pair":70,"correct":true,"test_part":"multichoice_nonpretend","STUDY_ID":"669a702db1122fc5150a13ce","PROLIFIC_PID":"5fd7782dee03dc08d3f3f491","SESSION_ID":"669b4692b5cd9126ab099f18","practice_instructions":1,"leaderboard_instructions":0,"bonus":0,"reveal_word":false,"self_rating":"3","confidence":"37"},{"view_history":"[{\"page_index\":0,\"viewing_time\":1927}]","rt":1928,"trial_type":"instructions","trial_index":4,"time_elapsed":53117,"internal_node_id":"0.0-3.0","protocol_sum":"","subject_identifier":140,"subject_sum":[255,90,26,224,18,175,165,212,200,137,197,10,212,39,170,245,69,211,26,79,172,4,255,193,196,208,61,64,59,164,37,10],"subject_pair":70,"STUDY_ID":"669a702db1122fc5150a13ce","PROLIFIC_PID":"5fd7782dee03dc08d3f3f491","SESSION_ID":"669b4692b5cd9126ab099f18","practice_instructions":1,"leaderboard_instructions":0,"bonus":0,"reveal_word":false,"self_rating":"3","confidence":"37"},{"word":"ZEBRA","click_log":{"letter":["","E","R","S","N","L","T","P","D","G","M","B","Z","A"],"t":[0,12407,28367,33612,49488,51234,54043,59084,62860,71463,80962,83154,92713,93819],"hit":[null,1,1,0,0,0,0,0,0,0,0,1,1,1],"asked":["","E","ER","ERS","ERSN","ERSNL","ERSNLT","ERSNLTP","ERSNLTPD","ERSNLTPDG","ERSNLTPDGM","ERSNLTPDGMB","ERSNLTPDGMBZ","ERSNLTPDGMBZA"],"word_state":["_____","_E___","_E_R_","_E_R_","_E_R_","_E_R_","_E_R_","_E_R_","_E_R_","_E_R_","_E_R_","_EBR_","ZEBR_","ZEBRA"]},"hover_log":{"letter":["?","?","?","?","?","?","?","?","?","?","?","?","?","?","?","?","?","?","?","?","?","?","?","?","?","?","?","?","?","?","?","?","?","?","?","?","?","?","?","?","?","?","?","?","?","?","?","?","?","?","?","?","?","?","?","?","?","?","?","?","?","?","?","?","J","J","?","S","S","S","S","?","?","?","?","?","?","?","?","?","?","?","?","?","?","?","?","?","?","?","?","?","?","?","?","?","?","?","?","?","?","?","?","?","?","?","?","?","?","?","?","?","?","?","?","?","?","?","?","?","?","?","?","?","?","?","?","?","?","?","?","?","?","?","?","?","?","?","?","?","?","?","?","?","?","?","?","?","?","?","?","?","?","?","?","?","?","?","?","?","?","?","?","?","?","?","?","?","?","?","?","?","?","?","?","?","?","?","?","?","?","?","?","?","?","?","?","?","?","?","?","?","?","?","?","?","?","?","?","?","?","?","S","J","A","?","?","?","?","?","?","?","?","?","?","?","?","?","?","?","?","?","?","?","?","?","?","?","?","?","?","?","?","?","?","?","?","?","?","?","?","?","?","?","?","?","?","?","?","?","?","?","?","?","?","?","?","?","?","?","?","?","?","?","?","?","?","?","?","?","?","?","?","?","?","?","?","?","?","?","?","?","?","?","?","?","?","?","?","?","?","?","?","?","?","?","?","?","?","?","?","?","?","?","?","?","?","?","?","?","?","?","?","?","?","?","?","?","?","?","?","?","?","?","?","?","?","?","?","?","?","?","?","?","?","?","?","?","?","?","?","?","?","?","?","?","?","?","?","?","?","?","?","?","?","?","?","?","?","?","?","?","?","?","?","?","?","?","?","?","?","?","?","?","?","?","?","?","?","?","?","?","?","?","?","?","?","?","?","?","?","?","?","?","?","?","?","?","?","?","?","?","?","?","?","?","?","?","?","?","?","?","?","?","?","?","?","?","?","?","?","?","?","?","?","?","?","?","?","?","?","?","?","?","?","?","?","?","?","?","?","?","?","?","?","?","?","?","?","?","?","?","?","?","?","?","?","?","?","?","?","?","?","?","?","?","?","?","?","?","?","?","?","?","?","?","?","?","?","?","?","?","?","?","?","?","?","?","?","?","?","?","?","?","?","?","?","?","?","?","?","?","?","?","?","?","?","?","?","?","?","?","?","?","?","?","?","?","?","?","?","?","?","?","?","?","?","?","?","?","?","?","?","?","?","?","?","?","?","?","?","?","?","?","?","?","?","?","?","?","?","?","?","?","?","?","?","?","?","?","?","?","?","?","?","?","?","?","?","?","?","?","?","?","?","?","?","?","?","?","?","?","?","?","?","?","?","?","?","?","?","?","?","?","?","?","?","?","?","?","?","?","?","?","?","?","?","?","?","?","?","?","?","?","?","?","?","?","?","?","?","?","?","?","?","?","?","?","?","?","?","?","?","?","?","?","?","?","?","?","?","?","?","?","?","?","?","?","?","?","?","?","?","?","?","?","?","?","?","?","?","?","?","?","?","?","?","?","?","?","?","?","?","?","?","?","?","?","?","?","?","?","?","?","?","?","?","?","?","?","?","?","?","?","?","?","?","?","?","?","?","?","?","?","?","?","?","?","?","?","?","?","?","?","?","?","?","?","?","?","?","?","?","?","?","?","?","?","?","?","?","?","?","?","?","?","?","?","?","?","?","?","?","?","?","?","?","?","?","?","?","?","?","?","?","?","?","?","?","?","?","?","?","?","?","?","?","?","?","?","?","?","?","?","?","?","?","?","?","?","?","?","?","?","?","?","?","?","?","?","?","?","?","?","?","?","?","?","?","?","?","?","?","?","?","?","?","?","?","?","?","?","?","?","?","?","?","?","?","?","?","?","?","?","?","?","?","?","?","?","?","?","?","?","?","?","?","?","?","?","?","?","?","?","?","?","?","?","?","?","?","?","?","?","?","?","?","?","?","?","?","?","?","?","?","?","?","?","?","?","?","?","?","?","?","?","?","?","?","?","?","?","?","?","?","?","?","?","?","?","?","?","?","?","?","?","?","?","?","?","?","?","?","?","?","?","?","?","?","?","?","?","?","?","?","?","?","?","?","?","?","?","?","?","?","?","?","?","?","?","?","?","E","?","?","?","?","?","?","?","?","?","?","?","?","?","?","?","?","?","?","E","E","E","E","E","E","E","E","E","E","E","E","E","E","E","E","E","E","E","E","E","E","E","E","E","E","E","E","E","E","E","E","E","E","E","E","E","E","E","E","E","E","E","E","E","E","E","E","E","E","E","E","E","E","E","E","E","E","E","E","E","E","E","E","?","N","N","?","W","W","W","W","W","?","?","?","?","?","?","?","?","?","?","?","?","?","?","?","?","?","?","?","?","?","?","?","?","?","?","?","?","?","?","?","?","?","?","?","?","?","?","?","?","?","?","?","?","?","?","?","?","?","?","?","?","?","?","?","?","?","?","?","?","?","?","?","?","?","?","?","?","?","?","?","?","?","?","?","?","?","?","?","?","?","?","?","?","?","?","?","?","?","?","?","?","?","?","?","?","?","?","?","?","?","?","?","?","?","?","?","?","?","?","?","?","?","?","?","?","?","?","W","?","?","E","?","?","?","?","?","?","?","?","?","?","?","?","?","?","?","?","?","?","?","?","?","?","?","?","?","?","?","?","?","?","?","?","?","?","?","?","?","?","?","?","?","?","?","?","?","?","?","?","?","?","?","?","?","?","?","?","?","?","?","?","?","?","?","?","?","?","?","?","?","?","?","?","?","?","?","?","?","?","?","?","?","?","?","?","?","?","?","?","?","?","?","?","?","?","?","?","?","?","?","?","?","?","?","?","?","?","?","?","?","?","?","?","?","?","?","?","?","?","?","?","?","?","?","?","?","?","?","?","?","?","?","?","?","?","?","?","?","?","?","?","?","?","?","?","?","?","?","?","?","?","?","?","?","?","?","?","?","?","?","?","?","?","?","?","?","?","?","?","?","?","?","?","?","?","?","?","?","?","?","?","?","?","?","?","?","?","?","?","?","?","?","?","?","?","?","?","?","?","?","?","?","?","?","?","?","?","?","?","?","?","?","?","?","?","?","?","?","?","?","?","?","?","?","?","?","?","?","?","?","?","?","?","?","?","?","?","?","?","?","?","?","?","?","?","?","?","?","?","?","?","?","?","?","?","?","?","?","?","?","?","?","?","?","?","?","?","?","?","?","?","?","?","?","?","?","?","?","?","?","?","?","?","?","?","?","?","?","?","?","?","?","?","?","?","?","?","?","?","?","?","?","?","?","?","?","?","?","?","?","?","?","?","?","?","?","?","?","?","?","?","?","?","?","?","?","?","?","?","?","?","?","?","?","?","?","?","?","?","?","?","?","?","?","?","?","?","?","?","?","?","?","?","?","?","?","?","?","?","?","?","?","?","?","?","?","?","?","?","?","?","?","?","?","?","?","?","?","?","?","?","?","?","?","?","?","?","?","?","?","?","?","?","?","?","?","?","?","?","?","?","?","?","?","?","?","?","?","?","?","?","?","?","?","?","?","?","?","?","?","?","?","?","?","?","?","?","?","?","?","?","?","?","?","?","?","?","?","?","?","?","?","?","?","?","?","?","?","?","?","?","?","?","?","?","?","?","?","?","?","?","?","?","?","?","?","?","?","?","?","?","?","?","?","?","?","?","?","?","?","?","?","?","?","?","?","?","?","?","?","?","?","?","?","?","?","?","?","?","?","?","?","?","?","?","?","?","?","?","?","?","?","?","?","?","?","?","?","?","?","?","?","?","?","?","?","?","?","?","?","?","?","?","?","?","?","?","?","?","?","?","?","?","?","?","?","?","?","?","?","?","?","?","?","?","?","?","?","?","?","?","?","?","?","?","?","?","?","?","?","?","?","?","?","?","?","?","?","?","?","?","?","?","?","?","?","?","?","?","?","?","?","?","?","?","?","?","?","?","?","?","?","?","?","?","?","?","?","?","?","?","?","?","?","?","?","?","?","?","?","?","?","?","?","?","?","?","?","?","?","?","?","?","?","?","?","?","?","?","?","?","?","?","?","?","?","?","?","?","?","?","?","?","?","?","?","?","?","?","?","?","?","?","?","?","?","?","?","?","?","?","?","?","?","?","?","?","?","?","?","?","?","?","?","?","?","?","?","?","?","?","?","?","?","?","?","?","?","?","?","?","?","?","?","?","?","?","?","?","?","?","?","?","?","?","?","?","?","?","?","?","?","?","?","?","?","?","?","?","?","?","?","?","?","?","?","?","?","?","?","?","?","?","?","?","?","?","?","?","?","?","?","?","?","?","?","?","?","?","?","?","?","?","?","?","?","?","?","?","?","?","?","?","?","?","?","?","?","?","?","?","?","?","?","?","?","?","?","?","?","?","?","?","?","?","?","?","?","?","?","?","?","?","?","?","?","?","?","?","?","?","?","?","?","?","?","?","?","?","?","?","?","?","?","?","?","?","?","?","?","?","?","?","?","?","?","?","?","?","?","?","?","?","?","?","?","?","?","?","?","?","?","?","?","?","?","?","?","?","?","?","?","?","?","?","?","?","?","?","?","?","?","?","?","?","?","?","?","?","?","?","?","?","?","?","?","?","?","?","?","?","?","?","?","?","?","?","?","?","?","?","?","?","?","?","?","?","?","?","?","?","?","?","?","?","?","?","?","?","?","?","?","?","?","?","?","?","?","?","?","?","?","?","?","?","?","?","?","?","?","?","?","?","?","?","?","?","?","?","?","?","?","?","?","?","?","?","?","?","?","?","?","?","?","?","?","?","?","?","?","?","?","?","?","?","?","?","?","?","?","?","?","?","?","?","?","?","?","?","?","?","?","?","?","?","?","?","?","?","?","?","?","?","?","?","?","?","?","?","?","?","?","?","?","?","?","?","?","?","?","?","?","?","?","?","?","?","?","?","?","?","?","?","?","?","?","?","?","?","?","?","?","?","?","?","?","?","?","R","R","R","R","R","R","R","R","R","R","R","R","R","R","R","R","R","R","R","R","R","R","R","R","R","R","R","R","R","R","R","R","R","R","R","R","R","R","R","R","R","R","R","R","R","R","R","R","R","R","R","R","R","R","R","R","R","R","R","R","R","R","R","R","R","R","R","R","R","R","R","R","R","R","R","R","R","R","R","?","?","?","?","?","?","?","?","?","?","?","?","?","?","?","?","?","?","?","?","?","?","?","?","?","?","?","?","?","?","?","?","?","?","?","?","?","?","?","?","?","?","?","?","?","?","?","?","?","?","?","?","?","?","?","?","?","?","?","?","?","?","?","?","?","?","?","?","?","?","?","?","?","?","?","?","?","?","?","?","?","?","?","?","?","?","?","?","?","?","?","?","?","?","?","?","?","?","?","?","?","?","?","?","?","?","?","?","?","?","?","?","?","?","?","?","?","?","?","?","?","?","?","?","?","?","?","?","?","?","?","?","?","?","?","?","?","?","?","?","?","?","?","?","?","?","?","?","?","?","?","?","?","?","?","?","?","?","?","?","?","?","?","?","?","?","?","?","?","?","?","?","?","?","?","?","?","?","?","?","?","?","?","?","?","?","?","?","?","?","?","?","?","?","?","?","?","?","?","?","?","?","?","?","?","?","?","?","?","?","?","?","?","?","?","?","?","?","?","?","?","?","?","?","?","?","?","?","?","?","?","?","?","?","?","?","?","?","?","?","?","?","?","?","?","?","?","?","?","?","?","?","?","?","?","?","?","?","?","?","?","?","?","?","?","?","?","?","?","?","?","?","?","?","?","?","?","?","?","?","?","?","?","?","?","?","?","?","?","?","?","?","?","?","?","?","?","?","?","?","?","?","?","?","?","?","?","?","?","?","?","?","?","?","?","?","?","?","?","?","?","?","?","?","?","?","?","?","?","?","?","?","?","?","?","?","?","?","?","?","S","S","S","S","S","S","S","S","S","S","S","S","S","S","S","S","S","S","S","S","S","S","S","S","S","S","S","S","S","S","S","S","S","S","S","S","S","S","S","S","S","S","S","S","S","S","S","S","S","S","S","S","S","S","S","S","S","S","S","S","S","S","S","S","S","S","S","S","S","S","S","S","S","S","S","S","S","S","S","S","?","?","?","?","?","?","?","?","?","?","?","?","?","?","?","?","?","?","?","?","?","?","?","?","?","?","?","?","?","?","?","?","?","?","?","?","?","?","?","?","?","?","?","?","?","?","?","?","?","?","?","?","?","?","?","?","?","?","?","?","?","?","?","?","?","?","?","?","?","?","?","?","?","?","?","?","?","?","?","?","?","?","?","?","?","?","?","?","?","?","?","?","?","?","?","?","?","?","?","?","?","?","?","?","?","?","?","?","?","?","?","?","?","?","?","?","?","?","?","?","?","?","?","?","?","?","?","?","?","?","?","?","?","?","?","?","?","?","?","?","?","?","?","?","?","?","?","?","?","?","?","?","?","?","?","?","?","?","?","?","?","?","?","?","?","?","?","?","?","?","?","?","?","?","?","?","?","?","?","?","?","?","?","?","?","?","?","?","?","?","?","?","?","?","?","?","?","?","?","?","?","?","?","?","?","?","?","?","?","?","?","?","?","?","?","?","?","?","?","?","?","?","?","?","?","?","?","?","?","?","?","?","?","?","?","?","?","?","?","?","?","?","?","?","?","?","?","?","?","?","?","?","?","?","?","?","?","?","?","?","?","?","?","?","?","?","?","?","?","?","?","?","?","?","?","?","?","?","?","?","?","?","?","?","?","?","?","?","?","?","?","?","?","?","?","?","?","?","?","?","?","?","?","?","?","?","?","?","?","?","?","?","?","?","?","?","?","?","?","?","?","?","?","?","?","?","?","?","?","?","?","?","?","?","?","?","?","?","?","?","?","?","?","?","?","?","?","?","?","?","?","?","?","?","?","?","?","?","?","?","?","?","?","?","?","?","?","?","?","?","?","?","?","?","?","?","?","?","?","?","?","?","?","?","?","?","?","?","?","?","?","?","?","?","?","?","?","?","?","?","?","?","?","?","?","?","?","?","?","?","?","?","?","?","?","?","?","?","?","?","?","?","?","?","?","?","?","?","?","?","?","?","?","?","?","?","?","?","?","?","?","?","?","?","?","?","?","?","?","?","?","?","?","?","?","?","?","?","?","?","?","?","?","?","?","?","?","?","?","?","?","?","?","?","?","?","?","?","?","?","?","?","?","?","?","?","?","?","?","?","?","?","?","?","?","?","?","?","?","?","?","?","?","?","?","?","?","?","?","?","?","?","?","?","?","?","?","?","?","?","?","?","?","?","?","?","?","?","?","?","?","?","?","?","?","?","?","?","?","?","?","?","?","?","?","?","?","?","?","?","?","?","?","?","?","?","?","?","?","?","?","?","?","?","?","?","?","?","?","?","?","?","?","?","?","?","?","?","?","?","?","?","?","?","?","?","?","?","?","?","?","?","?","?","?","?","?","?","?","?","?","?","?","?","?","?","?","?","?","?","?","?","?","?","?","?","?","?","?","?","?","?","?","?","?","?","?","?","?","?","?","?","?","?","?","?","?","?","?","?","?","?","?","?","?","?","?","?","?","?","?","?","?","?","?","?","?","?","?","?","?","?","?","?","?","?","?","?","?","?","?","?","?","?","?","?","?","?","?","?","?","?","?","?","?","?","?","?","?","?","?","?","?","?","?","?","?","?","?","?","?","?","?","?","?","?","?","?","?","?","?","?","?","?","?","?","?","?","?","?","?","?","?","?","?","?","?","?","?","?","?","?","?","?","?","?","?","?","?","?","?","?","?","?","?","?","?","?","?","?","?","?","?","?","?","?","?","?","?","?","?","?","?","?","?","?","?","?","?","?","?","?","?","?","?","?","?","?","?","?","?","?","?","?","?","?","?","?","?","?","W","W","W","W","?","?","?","?","N","N","N","N","N","N","N","N","N","N","N","N","N","N","N","N","N","N","N","N","N","N","N","N","N","N","N","N","N","N","N","N","N","N","?","?","?","?","?","?","?","?","?","?","?","?","?","?","?","?","F","F","F","F","F","F","F","F","F","F","F","F","F","F","F","?","?","?","?","?","G","G","G","G","G","G","G","G","G","G","G","G","G","G","G","G","G","G","G","G","G","G","G","G","G","G","G","G","G","G","G","G","G","G","G","G","G","G","G","G","G","G","G","G","G","G","G","G","G","G","G","G","G","G","G","G","G","G","G","G","G","G","G","G","G","G","G","G","G","G","G","G","G","G","G","G","G","G","G","?","?","?","?","H","H","H","H","H","H","H","H","H","H","H","H","H","H","H","H","H","H","H","H","H","H","H","H","H","H","H","H","H","H","H","H","H","H","H","H","H","H","H","H","H","H","H","H","H","H","H","H","H","H","H","H","H","H","H","H","H","H","H","H","H","H","H","H","H","H","H","H","H","H","H","H","H","H","H","H","H","?","?","?","?","?","?","Q","Q","Q","Q","Q","Q","?","?","?","?","?","?","?","?","?","?","?","?","?","?","?","?","?","?","?","?","?","?","?","?","?","?","?","?","?","?","?","?","?","?","?","?","?","?","?","?","?","?","?","?","?","?","?","?","?","?","Z","Z","?","Z","Z","?","?","?","Y","Y","Y","Y","?","?","?","X","X","X","X","X","X","X","X","X","X","X","?","?","?","W","W","W","W","?","?","?","?","?","?","?","?","N","N","N","N","N","N","N","N","N","N","N","N","N","N","N","N","N","?","?","?","?","?","?","?","?","?","?","?","?","?","?","?","?","?","?","?","?","?","?","N","N","N","N","N","N","N","N","N","N","N","N","N","N","N","N","N","N","N","N","N","N","N","N","N","N","N","N","N","N","N","N","N","N","N","N","N","N","N","N","N","N","N","N","N","N","N","N","N","N","N","N","N","N","N","N","N","N","N","N","N","N","N","N","N","N","N","N","N","N","N","N","N","N","N","N","N","N","N","?","?","W","W","W","W","W","W","W","W","W","W","W","W","W","W","W","W","W","W","W","W","?","?","?","?","?","?","?","?","?","?","?","?","?","?","?","?","?","?","?","?","?","V","V","V","?","?","?","L","L","L","L","L","L","L","L","L","L","L","L","L","L","L","L","L","L","L","L","L","L","L","L","L","L","L","L","L","L","L","L","L","L","L","L","L","L","L","L","L","L","L","L","L","L","L","L","L","L","L","L","L","L","L","L","L","L","L","L","L","L","L","L","L","L","L","L","L","L","L","L","L","L","L","L","L","L","L","L","L","L","L","L","?","?","?","U","U","U","U","U","U","U","U","U","U","U","U","U","U","U","U","U","U","U","U","U","U","U","U","U","U","U","U","U","U","U","U","U","U","U","U","U","U","U","U","U","U","U","U","U","U","U","U","U","U","?","?","?","?","?","?","?","?","?","?","?","?","?","?","?","?","?","?","?","?","?","?","?","?","?","?","?","?","?","?","?","?","?","?","?","?","?","?","?","?","?","?","?","?","?","?","?","?","?","?","?","?","?","?","?","?","?","?","?","?","?","?","?","?","?","?","?","?","?","?","?","?","?","?","U","U","U","U","U","U","U","U","U","U","U","U","U","U","U","U","U","U","U","U","U","U","?","?","?","?","?","?","T","T","T","T","T","T","T","T","T","T","T","T","T","T","T","T","T","T","T","T","T","T","T","T","T","T","T","T","T","T","T","T","T","T","T","T","T","T","T","T","T","T","T","T","T","T","T","T","T","T","T","T","T","?","?","?","?","?","?","?","?","?","?","?","?","?","?","?","?","?","?","?","?","?","?","?","?","?","?","?","?","?","?","?","?","?","?","?","?","?","?","?","?","?","?","?","?","?","?","?","?","?","?","?","?","?","?","?","?","?","?","?","?","?","?","?","?","?","?","?","?","?","?","?","?","?","?","?","?","?","?","?","?","?","?","?","?","?","?","?","?","?","?","?","?","?","?","?","?","?","?","?","?","?","?","?","?","?","?","?","?","?","?","?","?","?","?","?","?","?","?","?","?","?","?","?","?","?","?","?","?","?","?","?","?","?","?","?","?","?","?","?","?","?","?","?","?","?","?","?","?","?","?","?","?","?","?","?","?","?","?","?","?","?","?","?","?","?","?","?","?","?","?","?","?","?","?","?","?","?","?","?","?","?","?","?","?","?","?","?","?","?","?","?","?","?","?","?","?","?","?","?","?","?","?","?","?","?","?","?","?","?","?","?","?","?","?","?","?","?","?","?","?","?","?","?","?","?","?","?","?","?","?","?","?","?","?","?","?","?","?","?","?","?","?","?","?","?","?","?","?","?","?","?","?","?","?","?","?","?","?","?","?","?","?","?","?","?","?","?","?","?","?","?","?","?","?","?","?","?","?","?","?","?","?","?","?","?","?","?","?","?","?","?","?","V","V","?","N","O","O","O","?","?","?","?","?","?","?","?","?","?","?","?","?","?","?","?","?","?","?","?","?","?","?","?","?","?","?","?","?","?","P","P","P","P","P","P","P","P","P","P","P","P","P","P","P","P","P","P","P","P","P","P","P","P","P","P","P","P","P","P","P","P","P","P","P","P","P","P","P","P","P","P","P","P","P","P","P","P","P","P","P","P","P","P","P","P","P","P","P","P","P","P","P","P","P","P","P","P","P","P","P","P","P","P","P","P","?","?","Y","?","?","?","?","?","?","?","?","?","?","?","?","?","?","?","?","?","?","?","?","?","?","?","?","?","?","?","?","?","?","?","?","?","?","?","?","?","?","?","?","?","?","?","?","?","?","?","?","?","?","?","?","?","?","?","?","?","?","?","?","?","?","?","?","?","?","V","?","?","?","?","?","?","?","?","?","?","?","?","L","L","L","L","L","L","L","L","L","?","?","?","?","?","?","?","?","?","?","?","?","?","?","?","?","?","?","?","C","C","C","C","C","C","C","C","C","C","?","?","?","?","?","?","?","?","?","?","?","?","?","?","?","?","?","?","?","?","?","?","?","?","?","?","?","?","?","?","?","?","?","?","?","?","?","?","?","?","?","?","?","?","?","?","?","?","?","?","?","?","?","?","?","?","?","?","?","?","?","?","?","?","?","?","?","?","?","?","?","?","?","?","?","?","?","?","?","?","?","?","?","?","?","?","?","?","?","?","?","?","?","?","?","?","?","?","?","?","?","?","?","?","?","?","D","D","D","D","D","D","D","D","D","D","D","D","D","D","D","D","D","D","D","D","D","D","D","D","D","D","D","D","D","D","D","D","D","D","D","D","D","D","D","D","D","D","D","D","D","D","D","D","D","D","D","D","D","D","D","D","D","D","D","D","D","D","D","D","D","?","?","M","M","M","?","?","?","?","V","V","V","V","V","V","V","V","V","V","V","V","V","?","?","?","?","?","?","?","?","?","?","?","?","?","?","?","?","?","?","?","?","?","?","?","?","?","?","?","?","?","?","?","?","?","?","?","?","?","?","?","?","?","?","?","?","?","?","?","?","?","?","?","?","?","?","?","?","?","?","?","?","?","?","?","?","?","?","?","?","?","?","?","?","?","?","?","?","?","?","?","?","?","?","?","?","?","?","?","?","?","?","?","?","?","?","?","?","?","?","?","?","?","?","?","?","?","?","?","?","?","?","?","?","?","?","?","?","?","?","?","?","?","?","?","?","?","?","?","?","?","?","?","?","?","?","?","?","?","?","?","?","?","?","?","?","?","?","?","?","?","?","?","?","?","?","?","?","?","?","?","?","?","?","?","?","?","?","?","?","?","?","?","?","?","?","?","?","?","?","?","?","?","?","?","?","?","?","?","?","?","?","?","?","?","?","?","?","?","?","?","?","?","?","?","?","?","?","?","?","?","?","?","?","?","?","?","?","?","?","?","?","?","?","?","?","?","?","?","?","?","?","?","?","?","?","?","?","?","?","?","?","?","?","?","?","?","?","?","?","?","?","?","?","?","?","?","?","?","?","?","?","?","?","?","?","?","?","?","?","?","?","?","?","?","?","?","?","?","?","?","?","?","?","?","?","?","?","?","?","?","?","?","?","?","?","?","?","?","?","?","?","?","?","?","?","?","?","?","?","?","?","?","?","?","?","?","?","?","?","?","?","?","?","?","?","?","?","?","?","?","?","?","?","?","?","?","?","?","?","?","?","?","?","?","?","?","?","?","?","?","?","?","?","V","?","?","N","?","?","?","F","F","F","F","F","F","F","F","F","F","F","F","F","F","F","F","F","F","F","F","F","F","F","F","F","F","F","F","F","F","F","F","F","F","?","?","?","?","?","?","?","?","?","?","?","?","?","?","?","?","?","?","?","?","?","?","?","?","?","?","?","?","H","H","H","H","H","H","H","H","?","?","?","?","?","?","?","G","G","G","G","G","G","G","G","G","G","G","G","G","G","G","G","G","G","G","G","G","G","G","G","G","G","G","G","G","G","G","G","G","G","G","G","G","G","G","G","G","G","G","G","G","G","G","G","G","G","G","G","G","G","G","G","G","G","G","G","G","G","G","G","G","G","G","G","G","G","G","G","G","G","G","G","G","G","G","G","G","G","G","G","G","G","G","G","G","G","G","G","G","G","G","G","G","G","G","G","G","G","G","G","G","G","G","G","G","G","G","G","G","G","G","G","G","G","G","G","G","G","G","G","G","G","G","G","G","G","G","G","G","G","G","G","G","G","G","G","G","G","?","?","P","P","P","P","P","P","P","P","P","P","P","P","P","P","P","?","?","?","?","?","?","G","G","G","G","G","G","G","G","G","G","G","G","G","G","G","G","G","G","G","G","G","G","G","G","G","G","G","G","G","G","G","G","G","G","G","G","G","G","G","G","G","G","G","G","G","G","G","G","G","G","G","G","G","G","G","G","G","G","G","?","P","P","P","?","?","?","Y","Y","Y","Y","Y","Y","Y","Y","Y","Y","Y","?","?","?","?","?","?","?","?","?","?","?","?","?","?","?","?","?","?","?","?","?","?","?","?","?","?","?","?","?","?","?","?","?","?","?","?","?","?","?","?","?","?","?","?","?","?","?","?","?","?","?","?","?","?","?","?","?","?","?","?","?","?","?","?","?","?","?","?","?","?","?","?","?","?","?","?","?","?","?","?","?","?","?","?","?","?","?","?","?","?","?","?","?","?","?","?","?","?","?","?","?","?","?","?","?","?","?","?","?","?","?","?","?","?","?","?","?","?","?","?","?","?","?","?","?","?","?","?","?","?","?","?","?","?","?","?","?","?","?","?","?","?","?","?","?","?","?","?","?","?","?","?","?","?","?","?","?","?","?","?","?","?","?","?","?","?","?","W","W","W","W","W","W","W","W","W","W","W","W","W","W","W","W","W","W","W","W","W","W","W","W","W","W","W","W","W","W","W","W","W","W","W","W","W","W","W","W","W","W","W","W","W","W","W","W","W","W","W","W","W","W","W","W","W","W","W","W","W","W","W","W","W","W","W","W","W","W","W","W","W","W","W","W","W","W","W","W","W","W","W","W","W","W","W","W","W","W","W","W","W","W","W","W","W","W","W","W","W","W","W","W","W","W","W","W","W","W","W","W","W","W","W","W","W","W","W","W","W","W","W","W","W","W","W","W","W","W","W","W","W","W","W","W","W","W","W","W","W","W","W","W","W","W","W","W","W","W","W","W","W","W","?","?","?","?","?","?","?","?","?","?","?","?","?","?","?","?","?","?","?","?","?","?","?","?","?","?","?","?","?","?","?","?","?","?","?","?","?","?","?","?","?","?","?","?","?","?","?","?","?","?","?","?","?","?","?","?","?","?","?","?","?","?","?","?","?","?","?","?","?","?","?","?","?","?","?","?","?","?","?","?","?","?","?","?","?","?","?","?","?","?","?","?","?","?","?","?","?","?","?","?","?","?","?","?","?","?","?","?","?","?","?","?","?","?","?","?","?","?","?","?","?","?","?","?","?","?","?","?","?","?","?","?","?","?","?","?","?","?","?","?","?","?","?","?","?","?","?","?","?","?","?","?","?","?","?","?","?","?","?","?","?","?","?","?","?","?","?","?","?","?","?","?","?","?","?","?","?","?","?","?","?","?","?","?","?","?","?","?","?","?","?","?","?","?","?","?","?","?","?","?","?","?","?","?","?","?","?","?","?","?","?","?","?","?","?","?","?","?","?","?","?","?","?","?","?","?","?","?","?","?","?","?","?","?","?","?","?","?","?","?","?","?","?","?","?","?","?","?","?","?","?","?","?","?","?","?","?","?","?","?","?","?","?","?","?","?","?","?","?","?","?","?","?","?","?","?","?","?","?","?","?","?","?","?","?","?","?","?","?","?","?","?","?","?","?","?","?","?","?","?","?","?","?","?","?","?","?","W","W","W","?","?","?","?","?","?","?","?","?","?","?","?","?","?","?","?","?","?","?","?","?","?","?","?","?","?","?","?","?","?","?","?","?","?","?","?","?","?","?","?","?","?","?","?","M","M","M","M","M","M","M","M","M","M","M","M","M","M","M","M","M","M","M","M","M","M","M","M","M","M","M","M","M","M","M","M","M","M","M","M","M","M","M","M","M","M","M","M","M","M","M","M","M","M","M","M","M","M","M","M","M","M","M","M","M","M","M","M","M","M","M","M","M","M","M","M","M","M","M","M","M","M","M","M","M","M","M","M","M","M","M","M","M","M","M","M","M","M","M","M","M","?","?","?","?","?","?","?","?","?","?","?","?","?","?","?","K","K","K","K","?","?","?","?","?","?","?","?","?","?","?","?","?","?","?","?","?","?","?","?","?","?","?","?","?","?","?","?","?","?","?","?","?","?","?","?","?","?","?","?","?","?","?","?","?","?","?","?","?","?","?","?","?","B","B","B","B","B","B","B","B","B","B","B","B","B","B","B","B","B","B","B","B","B","B","B","B","B","B","B","B","B","B","B","B","B","B","B","B","B","B","B","B","B","B","B","B","B","B","B","B","B","B","B","B","B","B","B","B","B","B","B","B","B","B","B","B","B","?","?","?","?","C","C","C","C","?","?","?","?","?","?","?","?","?","?","?","?","?","?","?","?","?","?","?","?","?","?","?","?","?","?","?","?","?","?","?","?","?","?","?","?","?","?","?","?","?","?","?","?","?","?","?","?","?","?","?","?","?","?","?","?","?","?","?","?","?","?","?","?","?","?","?","?","?","?","?","?","?","?","?","?","?","?","?","?","?","?","?","?","?","?","?","?","?","?","?","?","?","?","?","?","?","?","?","?","?","?","?","?","?","?","?","?","?","?","?","?","?","?","?","?","?","?","?","?","?","?","?","?","?","?","?","?","?","?","?","?","?","?","?","?","?","?","?","?","?","?","?","?","?","?","?","?","?","?","?","?","?","?","?","?","?","?","?","?","?","?","?","?","?","?","?","?","?","?","?","?","?","?","?","?","?","?","?","?","?","?","?","?","?","?","?","?","?","?","?","?","?","?","?","?","?","?","?","?","?","?","?","?","?","?","?","?","?","?","?","?","?","?","?","?","?","?","?","?","?","?","?","?","?","?","?","?","?","?","?","?","?","?","?","?","?","?","?","?","?","?","?","?","?","?","?","?","?","?","?","?","?","?","?","?","?","?","?","?","?","?","?","?","?","?","?","?","?","?","?","?","?","?","?","?","?","?","?","?","?","C","C","C","C","C","C","C","C","C","C","C","C","C","C","C","C","C","C","C","C","C","C","C","C","C","C","C","C","C","C","C","C","C","C","C","C","C","C","C","C","C","C","C","C","C","C","C","C","C","C","C","C","C","C","C","C","C","C","C","C","C","C","C","C","C","C","C","C","C","C","C","C","C","C","C","C","C","C","C","C","C","C","C","C","C","C","C","C","C","C","C","C","C","C","C","C","C","C","C","C","C","C","C","C","C","C","C","C","C","C","C","C","C","C","C","C","C","C","C","C","C","C","C","C","C","C","C","C","C","C","C","C","C","C","C","C","C","C","C","C","C","C","C","C","C","C","C","C","C","C","C","C","C","C","C","C","C","C","C","C","C","C","C","C","C","C","C","C","C","C","C","C","C","C","C","C","C","C","C","C","C","C","C","C","C","C","C","C","C","C","C","C","C","C","C","C","C","C","C","C","C","C","C","C","C","C","C","C","C","C","C","C","C","C","C","C","C","C","C","C","C","C","C","C","C","C","C","C","C","C","C","C","C","C","C","C","C","C","C","C","C","C","C","C","C","C","C","C","C","C","C","C","C","C","C","C","C","C","C","C","C","C","C","C","C","C","C","C","C","C","C","C","C","C","C","C","C","C","C","C","C","C","C","C","C","C","C","C","C","C","C","C","C","C","C","C","C","C","C","C","C","C","C","C","C","C","C","C","C","C","C","C","C","C","C","C","C","C","C","C","C","C","C","C","C","C","C","C","C","C","C","C","C","?","?","L","L","L","L","?","?","?","V","V","W","W","X","?","?","?","?","?","?","?","?","?","?","?","?","?","?","?","?","?","?","?","?","?","?","?","?","?","?","?","?","?","?","?","?","?","?","?","?","?","?","?","?","?","?","?","?","Z","Z","Z","Z","Z","Z","Z","Z","Z","Z","Z","Z","Z","Z","Z","Z","Z","Z","Z","Z","Z","Z","Z","Z","Z","Z","Z","Z","Z","Z","Z","Z","Z","Z","Z","Z","Z","Z","Z","Z","Z","Z","Z","Z","Z","Z","Z","Z","Z","Z","Z","Z","Z","Z","Z","Z","Z","Y","Y","X","?","?","?","M","M","M","?","L","L","L","?","K","K","?","?","?","?","?","?","?","?","?","?","?","A","A","A","A","A","A","A","A","A","A","A","A","A","A","A","A","A","A","A","A","A","A","A","A","A","A","A","A","A","A","A","A","A","A","A","A","A","A","A","A","A","A","A","A","A","A","A","A","A","A","A","A","A","A","A","A","A","A","A","A","A","A","A","A","A","A","A","A","A","A","?","J","?","?","T","?","?","?","?","?","?","?","?","?","?","?","?","?","?","?","?","?","?","?","?","?","?","?","?","?","?","?","?","?","?","?","?","?","?","?","?","?","?","?","?","?","?","?","?","?","?","?","?","?","?","?","?","?","?","?","?","?","?","?","?","?","?","?","?","?","?","?","?","?","?","?","?","?","?","?","?","?","?","?","?","?","?","?","?","?","?","?","?","?","?","?","?","?","?","?","?","?","?","?","?","?","?","?","?","?","?","?","?","?","?","?","?","?","?","?","?","?","?","?"],"t":[22,31,43,56,67,81,97,109,122,134,147,160,175,188,201,213,226,238,251,263,276,289,301,314,327,338,350,363,376,388,401,413,426,439,455,467,480,492,504,517,530,542,555,567,580,593,605,617,629,643,655,667,680,692,705,717,730,742,755,767,780,792,808,821,838,847,860,876,889,901,913,926,938,950,963,979,992,1005,1018,1030,1042,1055,1067,1079,1092,1104,1117,1129,1142,1154,1167,1180,1192,1205,1217,1230,1242,1255,1267,1280,1292,1305,1317,1330,1342,1354,1367,1380,1392,1405,1417,1430,1442,1455,1468,1479,1492,1504,1518,1530,1543,1554,1567,1580,1592,1605,1617,1630,1642,1655,1667,1680,1692,1705,1717,1730,1742,1754,1767,1779,1792,1805,1817,1830,1843,1855,1868,1879,1892,1905,1917,1930,1943,1955,1967,1980,1993,2005,2017,2029,2042,2058,2071,2084,2100,2113,2126,2137,2151,2163,2176,2188,2201,2214,2229,2242,2256,2267,2280,2297,2309,2321,2334,2347,2358,2372,2384,2396,2409,2421,2434,2446,2459,2472,2484,2497,2509,2521,2533,2546,2558,2571,2585,2601,2613,2626,2638,2651,2664,2676,2689,2701,2713,2725,2739,2751,2764,2777,2792,2805,2818,2830,2842,2855,2868,2880,2893,2904,2917,2930,2942,2955,2967,2980,2992,3005,3018,3030,3043,3060,3071,3084,3096,3109,3122,3134,3147,3159,3172,3184,3197,3209,3221,3235,3247,3259,3271,3284,3297,3309,3322,3334,3346,3358,3372,3384,3396,3409,3422,3434,3446,3459,3472,3484,3496,3509,3521,3534,3546,3559,3576,3588,3601,3614,3626,3638,3651,3663,3676,3688,3701,3713,3726,3739,3751,3763,3776,3788,3801,3814,3825,3839,3850,3863,3879,3893,3905,3917,3930,3942,3955,3967,3979,3993,4004,4017,4030,4043,4055,4067,4080,4092,4105,4117,4129,4143,4155,4167,4180,4192,4204,4217,4230,4246,4259,4271,4284,4297,4310,4322,4335,4347,4359,4371,4384,4396,4409,4422,4434,4446,4459,4471,4484,4496,4508,4521,4535,4550,4564,4580,4592,4605,4617,4629,4642,4655,4667,4680,4692,4705,4717,4729,4742,4755,4767,4780,4793,4805,4817,4830,4842,4855,4868,4879,4892,4905,4917,4930,4942,4955,4967,4979,4991,5004,5017,5030,5042,5055,5067,5080,5092,5105,5117,5130,5142,5155,5167,5179,5192,5205,5217,5230,5242,5256,5272,5284,5297,5310,5322,5334,5346,5359,5371,5383,5396,5409,5426,5438,5450,5463,5476,5488,5501,5513,5525,5538,5550,5563,5576,5588,5600,5613,5625,5638,5651,5663,5676,5688,5701,5713,5726,5738,5751,5763,5775,5788,5801,5813,5825,5838,5850,5863,5876,5888,5901,5913,5925,5938,5951,5963,5975,5988,6001,6013,6026,6038,6051,6063,6075,6088,6100,6113,6129,6142,6154,6167,6180,6192,6205,6217,6230,6242,6255,6267,6279,6292,6305,6317,6330,6342,6355,6367,6380,6392,6405,6417,6429,6442,6455,6467,6480,6492,6505,6517,6530,6542,6555,6567,6580,6592,6605,6617,6629,6642,6654,6667,6680,6692,6705,6717,6729,6742,6755,6767,6779,6793,6804,6817,6830,6842,6855,6866,6880,6892,6905,6916,6929,6943,6956,6967,6980,6992,7005,7017,7029,7042,7055,7068,7080,7093,7109,7121,7135,7147,7159,7171,7184,7197,7209,7221,7234,7246,7259,7271,7284,7296,7309,7325,7338,7351,7363,7376,7388,7401,7413,7425,7438,7451,7463,7480,7492,7505,7517,7530,7543,7555,7567,7580,7593,7605,7617,7630,7642,7656,7671,7683,7696,7708,7721,7734,7746,7759,7771,7784,7796,7809,7822,7834,7846,7859,7872,7884,7896,7908,7921,7934,7946,7959,7975,7988,8001,8013,8026,8038,8051,8063,8075,8089,8100,8113,8130,8146,8159,8172,8184,8197,8209,8222,8234,8246,8259,8271,8284,8301,8313,8326,8338,8351,8364,8376,8388,8401,8413,8430,8442,8456,8467,8480,8496,8509,8521,8534,8547,8558,8572,8584,8597,8609,8621,8634,8646,8659,8671,8683,8696,8708,8721,8734,8746,8758,8771,8783,8796,8809,8822,8834,8847,8859,8872,8884,8896,8908,8921,8934,8946,8959,8971,8984,8997,9009,9021,9034,9047,9058,9072,9084,9096,9109,9121,9134,9146,9159,9171,9184,9197,9208,9221,9234,9246,9260,9271,9283,9296,9309,9322,9334,9346,9359,9372,9384,9396,9410,9421,9434,9450,9463,9476,9488,9501,9513,9526,9538,9551,9564,9575,9589,9604,9617,9630,9642,9655,9667,9680,9692,9705,9717,9729,9743,9754,9767,9780,9792,9805,9817,9830,9846,9859,9871,9884,9897,9909,9922,9934,9946,9959,9971,9984,9996,10009,10021,10034,10046,10059,10071,10084,10097,10108,10122,10134,10146,10159,10171,10184,10196,10209,10225,10238,10250,10263,10275,10288,10301,10313,10325,10338,10350,10363,10376,10388,10401,10413,10425,10438,10451,10463,10475,10488,10505,10517,10530,10542,10555,10571,10584,10597,10608,10622,10634,10646,10659,10671,10684,10696,10708,10721,10734,10746,10759,10772,10784,10796,10809,10821,10833,10846,10858,10871,10884,10901,10913,10926,10938,10950,10963,10975,10987,11000,11013,11031,11046,11059,11071,11084,11096,11109,11121,11134,11146,11159,11171,11184,11196,11209,11221,11234,11246,11259,11272,11284,11296,11308,11321,11334,11350,11363,11375,11388,11401,11413,11426,11438,11451,11463,11475,11488,11500,11513,11529,11542,11555,11567,11580,11592,11605,11617,11630,11642,11655,11668,11679,11692,11705,11717,11730,11742,11755,11772,11784,11797,11809,11821,11834,11846,11859,11876,11888,11900,11912,11925,11938,11950,11963,11976,11988,12000,12013,12025,12038,12050,12063,12076,12089,12100,12113,12125,12138,12151,12164,12175,12188,12201,12213,12225,12238,12251,12263,12275,12288,12305,12317,12330,12342,12355,12368,12380,12392,12405,12417,12430,12442,12456,12472,12484,12497,12509,12522,12534,12547,12559,12572,12584,12596,12609,12621,12634,12647,12659,12671,12684,12697,12709,12721,12734,12746,12759,12771,12784,12800,12813,12826,12838,12851,12863,12875,12888,12901,12914,12925,12939,12954,12967,12980,12993,13005,13018,13030,13043,13055,13068,13080,13093,13106,13117,13131,13142,13155,13167,13180,13192,13205,13218,13229,13243,13255,13271,13284,13301,13313,13325,13338,13351,13363,13376,13388,13400,13413,13425,13438,13450,13463,13476,13488,13501,13513,13525,13539,13550,13564,13576,13588,13601,13613,13625,13638,13650,13663,13676,13689,13701,13714,13726,13739,13750,13763,13776,13789,13800,13813,13826,13838,13851,13863,13876,13888,13900,13913,13925,13938,13950,13963,13975,13989,14000,14013,14030,14046,14059,14072,14084,14096,14109,14122,14134,14147,14159,14171,14184,14200,14213,14226,14238,14250,14263,14276,14288,14300,14313,14325,14338,14350,14364,14375,14388,14405,14422,14433,14447,14460,14472,14484,14496,14509,14521,14535,14546,14559,14571,14583,14597,14609,14621,14634,14646,14659,14672,14685,14701,14713,14725,14737,14750,14763,14775,14788,14801,14813,14825,14838,14850,14863,14880,14892,14905,14921,14933,14947,14958,14972,14984,14997,15009,15021,15033,15047,15059,15071,15084,15097,15109,15122,15134,15146,15158,15172,15183,15196,15209,15226,15237,15251,15263,15276,15288,15301,15313,15325,15338,15350,15363,15381,15392,15405,15417,15430,15443,15455,15467,15480,15493,15504,15518,15529,15542,15555,15567,15580,15592,15605,15618,15629,15643,15655,15671,15685,15696,15709,15726,15738,15751,15763,15776,15788,15801,15814,15825,15838,15851,15864,15877,15888,15901,15913,15925,15938,15951,15963,15975,15988,16000,16013,16030,16042,16056,16067,16080,16093,16104,16117,16134,16146,16159,16175,16188,16200,16213,16226,16238,16251,16263,16276,16289,16300,16314,16326,16339,16351,16364,16376,16388,16401,16413,16425,16438,16454,16468,16480,16493,16504,16517,16530,16543,16555,16567,16580,16593,16605,16618,16631,16643,16655,16667,16680,16692,16705,16718,16730,16743,16755,16768,16780,16792,16804,16817,16830,16846,16859,16871,16884,16897,16908,16921,16934,16946,16959,16971,16984,16996,17009,17021,17034,17047,17059,17072,17083,17096,17108,17121,17134,17146,17159,17171,17184,17196,17209,17222,17233,17246,17259,17272,17284,17297,17309,17321,17334,17346,17359,17371,17384,17396,17409,17422,17434,17447,17458,17471,17485,17496,17508,17521,17535,17546,17559,17572,17584,17597,17609,17621,17633,17646,17659,17672,17684,17700,17713,17726,17738,17751,17763,17776,17788,17800,17813,17825,17838,17851,17863,17876,17888,17901,17913,17926,17938,17951,17963,17975,17988,18000,18013,18025,18038,18050,18063,18076,18088,18100,18113,18125,18138,18150,18163,18175,18187,18200,18214,18225,18238,18255,18267,18280,18296,18309,18322,18334,18347,18359,18371,18384,18400,18413,18425,18438,18450,18463,18476,18488,18501,18513,18525,18539,18554,18568,18580,18592,18605,18617,18630,18642,18655,18667,18680,18693,18705,18717,18729,18742,18755,18767,18780,18793,18805,18818,18830,18843,18855,18868,18879,18893,18905,18917,18930,18942,18955,18967,18980,18993,19005,19018,19030,19042,19055,19067,19080,19092,19106,19118,19130,19142,19155,19168,19180,19192,19205,19218,19230,19242,19254,19267,19280,19293,19305,19317,19330,19342,19355,19367,19380,19392,19404,19417,19430,19442,19455,19467,19480,19492,19505,19517,19530,19542,19554,19567,19580,19592,19605,19617,19629,19642,19655,19672,19683,19696,19709,19722,19734,19746,19759,19771,19784,19796,19808,19822,19834,19846,19859,19872,19883,19896,19908,19921,19934,19950,19963,19976,19988,20001,20014,20026,20038,20051,20063,20075,20088,20100,20113,20126,20138,20151,20163,20176,20188,20200,20213,20225,20238,20250,20263,20276,20288,20301,20313,20325,20338,20351,20363,20375,20388,20400,20413,20425,20438,20451,20463,20475,20488,20500,20513,20525,20538,20550,20564,20580,20592,20606,20622,20634,20647,20659,20672,20684,20696,20709,20721,20734,20746,20759,20771,20784,20797,20809,20822,20834,20847,20859,20871,20884,20900,20913,20925,20938,20951,20963,20976,20988,21000,21013,21030,21042,21055,21067,21079,21092,21105,21118,21130,21142,21155,21167,21180,21192,21205,21217,21229,21242,21255,21268,21280,21292,21305,21317,21330,21342,21355,21367,21384,21400,21413,21426,21438,21450,21463,21476,21489,21500,21513,21525,21538,21550,21563,21579,21592,21606,21617,21630,21647,21659,21672,21684,21696,21709,21721,21734,21746,21759,21772,21784,21797,21809,21822,21834,21846,21859,21871,21884,21896,21909,21922,21934,21947,21959,21972,21984,21996,22009,22022,22034,22046,22059,22071,22084,22096,22109,22121,22134,22147,22158,22172,22184,22196,22209,22221,22234,22246,22259,22271,22284,22297,22309,22322,22334,22347,22359,22372,22384,22396,22409,22421,22434,22450,22463,22476,22487,22500,22513,22526,22538,22551,22563,22575,22588,22604,22617,22629,22642,22655,22667,22680,22693,22705,22717,22730,22743,22755,22767,22779,22793,22804,22817,22830,22842,22855,22867,22880,22893,22905,22917,22930,22942,22956,22967,22980,22992,23005,23017,23030,23043,23055,23067,23080,23092,23104,23117,23130,23142,23155,23167,23180,23193,23205,23218,23230,23242,23254,23267,23279,23292,23305,23317,23330,23342,23355,23367,23380,23393,23404,23418,23429,23442,23454,23467,23479,23492,23505,23517,23530,23542,23555,23568,23580,23593,23605,23617,23629,23642,23655,23671,23684,23697,23709,23722,23734,23747,23759,23771,23783,23796,23809,23825,23838,23850,23863,23876,23888,23900,23913,23925,23938,23950,23963,23979,23992,24005,24022,24034,24047,24059,24072,24084,24096,24109,24121,24134,24146,24159,24172,24184,24196,24209,24222,24234,24246,24258,24271,24284,24300,24313,24325,24338,24350,24363,24376,24388,24401,24413,24425,24438,24450,24463,24476,24488,24501,24512,24525,24538,24550,24563,24579,24592,24605,24617,24630,24642,24655,24667,24680,24692,24705,24717,24729,24743,24754,24767,24780,24792,24805,24817,24830,24842,24855,24867,24880,24893,24904,24917,24929,24942,24955,24967,24980,24993,25005,25018,25030,25042,25055,25067,25079,25092,25105,25117,25130,25146,25159,25172,25184,25196,25208,25221,25233,25246,25259,25271,25284,25297,25309,25321,25334,25347,25359,25371,25384,25397,25409,25425,25438,25450,25463,25476,25488,25501,25513,25525,25538,25551,25564,25575,25588,25601,25613,25626,25638,25651,25663,25676,25688,25701,25714,25725,25738,25751,25763,25775,25788,25801,25813,25826,25838,25851,25863,25875,25888,25901,25913,25925,25939,25950,25963,25976,25988,26001,26013,26025,26038,26050,26063,26075,26088,26100,26113,26125,26138,26151,26163,26175,26188,26201,26213,26225,26238,26251,26263,26275,26288,26300,26313,26326,26338,26351,26363,26376,26388,26400,26413,26425,26438,26450,26463,26479,26492,26505,26517,26530,26543,26555,26572,26584,26597,26608,26622,26634,26646,26660,26671,26685,26700,26713,26726,26738,26751,26763,26775,26788,26800,26813,26826,26838,26850,26864,26880,26892,26905,26921,26934,26947,26959,26972,26985,26997,27009,27021,27035,27047,27059,27071,27084,27097,27109,27121,27134,27146,27159,27175,27188,27201,27213,27225,27237,27251,27263,27276,27288,27301,27313,27325,27338,27351,27363,27379,27392,27405,27418,27430,27442,27455,27467,27480,27492,27505,27517,27535,27546,27558,27572,27584,27596,27609,27622,27634,27646,27659,27671,27685,27696,27709,27721,27735,27747,27759,27772,27784,27797,27808,27822,27835,27850,27864,27879,27892,27905,27917,27930,27942,27955,27967,27979,27992,28005,28017,28029,28043,28055,28071,28084,28096,28109,28121,28134,28146,28158,28171,28184,28196,28209,28221,28234,28246,28259,28272,28284,28296,28308,28321,28334,28346,28359,28371,28384,28396,28409,28422,28434,28447,28459,28471,28484,28496,28509,28521,28535,28546,28560,28571,28584,28596,28609,28622,28634,28646,28659,28672,28684,28697,28709,28721,28734,28746,28759,28771,28784,28796,28809,28821,28834,28847,28860,28871,28884,28896,28909,28922,28934,28946,28959,28972,28984,28997,29009,29022,29034,29047,29059,29071,29084,29100,29113,29126,29138,29151,29163,29175,29188,29200,29213,29230,29242,29255,29267,29280,29292,29306,29317,29330,29343,29355,29367,29380,29392,29405,29417,29430,29442,29455,29471,29483,29497,29508,29521,29533,29546,29559,29571,29583,29596,29609,29622,29634,29647,29659,29671,29683,29696,29708,29721,29734,29746,29759,29771,29784,29796,29809,29822,29834,29847,29859,29872,29885,29897,29909,29921,29934,29946,29959,29971,29984,29997,30009,30022,30033,30046,30060,30071,30084,30101,30113,30130,30142,30155,30172,30184,30196,30209,30222,30234,30251,30264,30280,30296,30309,30322,30334,30347,30358,30372,30384,30396,30409,30421,30435,30451,30463,30476,30488,30501,30514,30526,30538,30550,30563,30575,30588,30600,30613,30626,30638,30651,30663,30676,30688,30701,30714,30726,30739,30751,30764,30776,30787,30800,30813,30826,30838,30851,30863,30876,30888,30900,30912,30925,30937,30950,30963,30980,30992,31005,31017,31030,31042,31055,31067,31079,31093,31105,31117,31130,31143,31155,31167,31180,31192,31205,31218,31230,31243,31258,31271,31284,31296,31309,31321,31334,31346,31359,31372,31384,31397,31408,31421,31434,31446,31458,31471,31484,31496,31509,31522,31535,31547,31559,31572,31584,31597,31610,31621,31635,31650,31664,31676,31688,31701,31713,31726,31738,31750,31763,31775,31788,31800,31814,31830,31842,31856,31868,31880,31893,31904,31918,31930,31943,31955,31968,31980,31992,32005,32017,32030,32042,32055,32067,32080,32093,32105,32117,32130,32142,32155,32167,32179,32192,32205,32218,32230,32243,32255,32268,32280,32292,32306,32318,32330,32342,32355,32368,32380,32392,32405,32418,32429,32443,32454,32468,32479,32492,32505,32517,32529,32542,32555,32567,32579,32593,32604,32617,32630,32642,32655,32667,32680,32692,32705,32717,32730,32743,32755,32768,32780,32793,32805,32817,32830,32842,32855,32867,32879,32892,32904,32917,32930,32942,32955,32971,32984,32996,33009,33022,33034,33046,33059,33072,33085,33096,33109,33122,33134,33150,33163,33176,33188,33200,33213,33225,33238,33250,33262,33275,33288,33305,33318,33330,33341,33355,33367,33380,33392,33404,33417,33430,33442,33455,33467,33480,33492,33505,33517,33530,33543,33555,33567,33580,33592,33605,33617,33629,33642,33655,33671,33684,33697,33708,33722,33734,33746,33759,33771,33784,33796,33809,33821,33834,33847,33859,33872,33884,33897,33909,33921,33934,33946,33959,33971,33984,33997,34009,34021,34034,34046,34059,34071,34083,34096,34109,34121,34134,34147,34159,34171,34184,34196,34209,34222,34235,34246,34259,34271,34284,34297,34310,34326,34338,34351,34363,34376,34388,34401,34413,34425,34439,34450,34464,34475,34488,34501,34518,34529,34543,34555,34568,34580,34593,34605,34618,34630,34646,34659,34671,34684,34697,34709,34722,34733,34747,34759,34772,34784,34801,34813,34830,34842,34855,34867,34880,34893,34905,34917,34930,34947,34959,34971,34983,34996,35009,35021,35034,35047,35059,35072,35084,35096,35109,35122,35134,35147,35159,35171,35184,35196,35209,35221,35234,35246,35259,35272,35283,35296,35309,35321,35333,35346,35359,35371,35384,35400,35413,35426,35438,35451,35463,35475,35488,35501,35514,35525,35539,35551,35564,35576,35588,35601,35613,35626,35638,35651,35664,35677,35688,35705,35718,35730,35742,35755,35768,35780,35793,35804,35818,35830,35842,35855,35867,35880,35892,35905,35917,35930,35943,35954,35966,35979,35993,36005,36017,36030,36042,36055,36071,36084,36097,36108,36121,36134,36147,36159,36172,36184,36200,36213,36226,36238,36251,36263,36275,36288,36301,36313,36325,36338,36351,36363,36380,36392,36405,36417,36430,36442,36454,36467,36480,36493,36504,36517,36529,36542,36554,36567,36580,36593,36605,36618,36630,36642,36655,36667,36680,36692,36705,36721,36734,36746,36759,36772,36784,36797,36809,36821,36834,36846,36859,36871,36885,36900,36913,36925,36938,36951,36963,36976,36988,37000,37013,37029,37042,37056,37071,37084,37097,37109,37121,37134,37146,37159,37171,37184,37201,37213,37226,37238,37251,37263,37276,37288,37301,37313,37325,37338,37350,37363,37375,37388,37401,37413,37425,37438,37451,37463,37475,37488,37500,37514,37530,37542,37555,37571,37583,37597,37609,37621,37634,37646,37659,37671,37684,37696,37709,37721,37734,37747,37759,37771,37784,37797,37809,37825,37838,37850,37863,37875,37888,37901,37914,37925,37938,37951,37963,37975,37988,38000,38013,38030,38042,38055,38067,38080,38093,38105,38117,38130,38142,38155,38167,38179,38192,38205,38217,38230,38242,38255,38267,38280,38293,38304,38317,38329,38342,38354,38367,38380,38392,38405,38417,38430,38442,38455,38467,38480,38492,38505,38517,38530,38542,38555,38567,38580,38597,38608,38622,38634,38647,38659,38671,38685,38696,38709,38722,38734,38746,38759,38772,38784,38797,38809,38821,38834,38850,38863,38875,38888,38900,38913,38926,38938,38951,38963,38975,38989,39005,39017,39029,39042,39056,39067,39080,39093,39105,39117,39130,39143,39155,39167,39180,39192,39205,39218,39230,39242,39255,39267,39280,39292,39305,39317,39330,39343,39355,39367,39379,39392,39405,39417,39429,39442,39454,39467,39480,39493,39505,39517,39530,39543,39555,39567,39579,39592,39604,39617,39630,39642,39654,39667,39680,39693,39705,39717,39730,39742,39755,39767,39780,39792,39805,39817,39830,39843,39855,39868,39880,39892,39904,39917,39929,39942,39954,39967,39984,39997,40009,40022,40034,40047,40059,40071,40084,40096,40109,40121,40133,40147,40159,40172,40184,40197,40209,40221,40234,40246,40259,40275,40288,40301,40313,40326,40337,40351,40363,40375,40388,40400,40413,40429,40442,40454,40467,40479,40492,40505,40517,40530,40542,40555,40567,40580,40592,40604,40617,40630,40642,40655,40667,40680,40692,40705,40718,40729,40742,40755,40767,40780,40792,40805,40818,40830,40842,40855,40867,40880,40892,40905,40917,40930,40946,40959,40971,40984,40996,41009,41022,41034,41046,41059,41071,41085,41096,41109,41125,41138,41150,41163,41176,41188,41201,41214,41225,41238,41250,41263,41276,41288,41301,41313,41325,41338,41351,41363,41375,41388,41405,41417,41430,41442,41455,41467,41479,41492,41505,41517,41529,41542,41555,41567,41580,41592,41605,41617,41630,41642,41655,41667,41680,41692,41704,41717,41730,41742,41755,41767,41780,41793,41805,41818,41830,41843,41855,41867,41879,41892,41904,41917,41930,41942,41955,41968,41980,41992,42005,42017,42030,42043,42054,42067,42079,42091,42105,42117,42130,42142,42155,42167,42180,42192,42204,42217,42230,42242,42255,42267,42280,42292,42305,42317,42330,42343,42355,42367,42379,42392,42409,42421,42434,42447,42459,42471,42484,42497,42509,42521,42534,42546,42559,42572,42584,42596,42609,42622,42634,42646,42659,42671,42684,42697,42709,42721,42734,42746,42759,42776,42788,42801,42813,42826,42838,42850,42863,42875,42888,42900,42913,42926,42938,42951,42963,42976,42988,43001,43013,43025,43038,43056,43067,43079,43092,43105,43117,43130,43142,43155,43167,43180,43192,43206,43217,43230,43243,43255,43267,43279,43292,43305,43317,43330,43346,43359,43372,43384,43397,43409,43422,43434,43446,43459,43471,43484,43496,43509,43522,43534,43547,43563,43576,43588,43600,43613,43626,43639,43650,43663,43676,43688,43701,43713,43726,43737,43751,43763,43776,43788,43800,43813,43826,43838,43851,43863,43876,43888,43900,43913,43925,43938,43956,43967,43980,43993,44005,44022,44034,44047,44059,44072,44084,44096,44110,44122,44134,44146,44160,44175,44188,44201,44213,44226,44238,44251,44263,44276,44288,44300,44313,44326,44338,44351,44363,44375,44388,44401,44413,44425,44439,44454,44467,44479,44492,44505,44517,44530,44542,44555,44567,44579,44593,44605,44618,44630,44642,44654,44667,44680,44692,44706,44722,44734,44746,44759,44772,44785,44796,44809,44821,44834,44846,44859,44871,44884,44896,44909,44922,44934,44946,44959,44971,44984,45000,45013,45026,45038,45050,45063,45076,45089,45101,45114,45125,45138,45150,45163,45175,45189,45201,45213,45226,45238,45250,45263,45275,45289,45300,45313,45329,45342,45356,45367,45380,45392,45405,45417,45430,45442,45455,45468,45480,45493,45505,45517,45530,45542,45555,45567,45580,45592,45605,45618,45630,45643,45655,45667,45680,45692,45705,45717,45730,45742,45755,45768,45780,45792,45805,45817,45830,45843,45855,45867,45880,45896,45909,45922,45934,45947,45959,45971,45983,45996,46008,46022,46034,46046,46059,46072,46084,46096,46109,46121,46134,46146,46160,46171,46185,46197,46209,46222,46235,46251,46263,46276,46288,46300,46314,46330,46342,46355,46367,46380,46392,46405,46417,46430,46442,46455,46467,46480,46493,46504,46517,46530,46542,46555,46567,46580,46593,46605,46617,46629,46643,46654,46667,46680,46692,46705,46721,46734,46746,46759,46771,46784,46797,46808,46822,46834,46846,46860,46871,46884,46896,46909,46921,46934,46947,46959,46972,46984,46996,47008,47021,47034,47050,47063,47076,47087,47101,47113,47125,47138,47151,47164,47176,47188,47201,47214,47226,47238,47251,47264,47276,47288,47301,47314,47325,47338,47351,47363,47380,47396,47409,47426,47442,47455,47472,47483,47496,47509,47521,47534,47547,47559,47571,47584,47596,47609,47621,47634,47646,47659,47671,47684,47701,47713,47726,47739,47755,47767,47781,47792,47805,47821,47834,47847,47859,47872,47885,47897,47909,47922,47934,47946,47959,47976,47988,48001,48014,48026,48038,48051,48064,48076,48089,48101,48113,48126,48138,48151,48163,48176,48188,48201,48213,48226,48239,48250,48263,48276,48288,48301,48313,48326,48338,48351,48363,48375,48388,48401,48413,48425,48438,48450,48463,48475,48488,48501,48514,48526,48539,48551,48563,48576,48589,48601,48614,48627,48642,48656,48671,48683,48696,48709,48722,48733,48747,48759,48771,48784,48801,48813,48825,48838,48850,48863,48876,48887,48901,48913,48925,48938,48955,48967,48980,48992,49005,49017,49030,49043,49055,49068,49080,49092,49105,49117,49130,49143,49155,49167,49180,49192,49205,49218,49230,49243,49255,49267,49280,49292,49305,49317,49330,49342,49355,49367,49380,49393,49405,49418,49430,49442,49455,49467,49480,49492,49506,49517,49530,49543,49555,49568,49580,49592,49606,49617,49630,49643,49655,49668,49680,49692,49704,49717,49730,49742,49755,49767,49780,49792,49805,49817,49829,49843,49855,49867,49879,49893,49905,49917,49930,49942,49955,49967,49980,49993,50006,50018,50030,50043,50055,50068,50081,50092,50105,50117,50130,50144,50156,50168,50180,50192,50205,50218,50230,50247,50260,50271,50284,50296,50309,50322,50334,50347,50358,50371,50383,50396,50409,50421,50434,50450,50463,50476,50488,50501,50513,50525,50538,50551,50564,50576,50589,50605,50621,50634,50647,50659,50671,50684,50697,50710,50722,50734,50747,50760,50772,50784,50797,50810,50822,50834,50847,50859,50871,50884,50896,50909,50925,50938,50955,50967,50980,50992,51005,51018,51030,51043,51055,51067,51079,51092,51104,51117,51130,51142,51155,51168,51180,51193,51205,51217,51230,51243,51256,51271,51284,51301,51314,51327,51338,51351,51364,51376,51388,51401,51413,51425,51438,51450,51464,51476,51488,51500,51513,51526,51538,51551,51564,51575,51589,51600,51613,51630,51646,51659,51672,51685,51698,51709,51721,51734,51747,51759,51771,51784,51797,51809,51825,51838,51850,51863,51875,51888,51901,51914,51926,51938,51950,51963,51980,51993,52005,52017,52030,52046,52059,52072,52083,52096,52109,52122,52134,52147,52160,52171,52184,52196,52209,52222,52234,52247,52259,52272,52284,52297,52308,52321,52334,52346,52359,52372,52384,52397,52409,52421,52434,52447,52458,52471,52484,52496,52509,52521,52534,52546,52559,52572,52584,52597,52609,52621,52634,52646,52659,52671,52684,52696,52709,52721,52734,52747,52758,52771,52784,52796,52808,52821,52835,52846,52859,52872,52884,52896,52909,52921,52934,52947,52959,52971,52984,52996,53009,53021,53034,53050,53063,53076,53088,53101,53112,53125,53138,53154,53168,53180,53196,53210,53225,53238,53251,53263,53276,53288,53300,53313,53325,53339,53355,53372,53384,53397,53408,53421,53434,53447,53459,53472,53484,53496,53509,53526,53538,53551,53564,53576,53588,53601,53614,53625,53638,53650,53664,53676,53688,53701,53713,53730,53742,53755,53768,53780,53793,53809,53821,53835,53847,53859,53872,53884,53897,53909,53921,53935,53947,53960,53971,53984,54001,54013,54026,54038,54051,54063,54075,54088,54100,54113,54130,54142,54155,54172,54184,54197,54209,54222,54234,54246,54258,54272,54284,54300,54313,54326,54338,54351,54363,54375,54387,54401,54414,54425,54439,54450,54463,54476,54488,54501,54513,54526,54538,54550,54563,54576,54588,54600,54613,54630,54646,54659,54675,54688,54701,54713,54726,54738,54751,54762,54775,54789,54800,54813,54826,54838,54851,54864,54876,54888,54901,54913,54925,54938,54950,54964,54979,54992,55006,55021,55034,55047,55059,55072,55084,55096,55109,55121,55133,55146,55159,55171,55184,55197,55209,55221,55234,55247,55259,55272,55284,55296,55309,55321,55334,55346,55359,55371,55383,55396,55409,55422,55434,55447,55459,55471,55484,55496,55509,55521,55534,55546,55559,55572,55584,55597,55609,55621,55634,55650,55663,55675,55688,55700,55713,55726,55738,55751,55763,55775,55788,55800,55813,55830,55842,55855,55868,55880,55893,55905,55917,55930,55943,55955,55968,55980,55993,56005,56017,56030,56042,56055,56071,56084,56097,56109,56122,56134,56146,56159,56171,56184,56196,56209,56225,56238,56250,56263,56276,56288,56300,56313,56325,56338,56351,56363,56375,56388,56401,56413,56426,56438,56451,56463,56476,56489,56501,56513,56526,56538,56551,56563,56575,56588,56600,56613,56626,56638,56651,56663,56675,56688,56700,56713,56725,56738,56750,56763,56776,56788,56800,56813,56825,56838,56850,56863,56875,56888,56905,56921,56934,56948,56959,56972,56984,56997,57009,57021,57034,57046,57060,57071,57084,57096,57109,57122,57134,57147,57159,57172,57185,57196,57209,57222,57234,57250,57263,57276,57288,57301,57313,57325,57338,57351,57363,57376,57389,57400,57413,57426,57438,57451,57463,57476,57489,57501,57514,57530,57543,57555,57567,57580,57592,57605,57617,57630,57642,57655,57668,57679,57692,57705,57717,57730,57742,57755,57767,57780,57796,57809,57822,57834,57846,57859,57871,57884,57896,57909,57921,57934,57946,57959,57972,57984,57996,58009,58021,58035,58050,58063,58076,58088,58101,58114,58126,58139,58151,58164,58176,58189,58201,58213,58226,58238,58251,58263,58276,58288,58300,58313,58325,58338,58350,58363,58376,58388,58401,58413,58426,58438,58450,58463,58475,58488,58501,58513,58525,58538,58550,58563,58575,58588,58601,58613,58625,58638,58651,58663,58675,58688,58700,58713,58730,58743,58755,58768,58780,58792,58805,58817,58830,58843,58855,58867,58880,58897,58909,58922,58934,58947,58959,58971,58984,58997,59009,59021,59034,59047,59059,59075,59088,59101,59113,59126,59139,59150,59163,59180,59193,59205,59221,59235,59247,59259,59272,59284,59297,59309,59322,59335,59347,59360,59371,59384,59396,59409,59422,59435,59447,59459,59472,59484,59497,59509,59522,59535,59546,59560,59576,59588,59601,59614,59626,59639,59651,59663,59675,59689,59700,59714,59725,59739,59751,59763,59776,59788,59801,59814,59825,59839,59851,59863,59881,59892,59905,59917,59930,59942,59955,59967,59980,59993,60005,60018,60029,60042,60055,60067,60080,60092,60105,60117,60130,60142,60156,60167,60179,60192,60205,60217,60229,60242,60255,60267,60279,60292,60305,60318,60330,60343,60355,60368,60380,60393,60405,60418,60429,60443,60456,60467,60480,60492,60505,60517,60530,60542,60555,60568,60579,60592,60605,60617,60630,60642,60655,60668,60680,60693,60705,60717,60729,60743,60756,60768,60780,60792,60805,60822,60834,60847,60859,60871,60884,60896,60909,60921,60935,60950,60963,60975,60987,61001,61013,61026,61038,61051,61063,61075,61088,61100,61113,61126,61138,61151,61163,61175,61188,61200,61212,61225,61238,61250,61263,61279,61292,61306,61321,61334,61347,61359,61372,61384,61396,61408,61421,61434,61446,61459,61471,61484,61497,61509,61522,61534,61547,61559,61572,61585,61596,61610,61621,61634,61646,61659,61671,61684,61697,61709,61722,61734,61746,61759,61772,61784,61796,61809,61821,61834,61847,61859,61872,61884,61897,61910,61921,61934,61946,61959,61975,61988,62001,62013,62025,62038,62052,62063,62075,62088,62100,62113,62125,62138,62151,62163,62176,62188,62201,62213,62226,62238,62251,62264,62275,62288,62305,62321,62334,62346,62359,62371,62384,62397,62409,62421,62434,62446,62458,62471,62485,62496,62509,62521,62534,62547,62559,62571,62584,62596,62608,62622,62634,62646,62659,62672,62684,62696,62709,62722,62734,62747,62758,62772,62784,62796,62809,62821,62834,62846,62859,62872,62884,62897,62909,62922,62933,62946,62958,62971,62984,62996,63010,63026,63038,63051,63063,63075,63089,63100,63114,63126,63139,63150,63163,63180,63196,63209,63222,63234,63247,63259,63272,63284,63296,63309,63321,63334,63346,63359,63372,63384,63397,63409,63422,63434,63446,63459,63472,63484,63496,63509,63521,63534,63546,63559,63571,63584,63597,63608,63622,63634,63647,63659,63671,63684,63696,63709,63721,63734,63747,63759,63772,63784,63796,63810,63821,63835,63851,63863,63876,63889,63901,63913,63925,63939,63951,63963,63975,63988,64001,64013,64026,64038,64051,64063,64076,64088,64101,64114,64129,64142,64155,64167,64180,64192,64206,64221,64234,64247,64258,64272,64284,64296,64309,64322,64334,64347,64359,64371,64384,64396,64409,64426,64438,64451,64463,64476,64489,64501,64514,64525,64539,64550,64564,64576,64589,64605,64621,64634,64647,64659,64672,64684,64697,64709,64721,64734,64746,64759,64771,64784,64797,64809,64822,64834,64847,64859,64871,64883,64897,64909,64922,64934,64947,64959,64972,64984,64997,65014,65029,65042,65054,65067,65080,65092,65105,65117,65130,65142,65155,65168,65179,65192,65206,65217,65229,65242,65255,65267,65280,65292,65305,65318,65329,65343,65355,65368,65380,65393,65405,65418,65430,65442,65456,65467,65479,65492,65505,65518,65530,65542,65555,65567,65580,65596,65609,65621,65634,65646,65659,65672,65683,65696,65709,65721,65734,65747,65758,65771,65784,65800,65814,65826,65839,65851,65863,65875,65888,65900,65913,65926,65938,65951,65963,65976,65988,66001,66013,66026,66038,66050,66063,66076,66088,66101,66113,66126,66138,66151,66163,66175,66188,66200,66213,66225,66238,66250,66263,66275,66288,66301,66313,66326,66338,66351,66363,66376,66388,66401,66413,66426,66437,66451,66462,66475,66489,66501,66513,66525,66539,66550,66564,66580,66593,66605,66618,66630,66642,66655,66667,66679,66693,66705,66721,66734,66746,66759,66772,66784,66797,66809,66822,66834,66846,66859,66871,66884,66900,66913,66926,66938,66951,66963,66976,66989,67001,67014,67031,67042,67055,67067,67080,67096,67109,67122,67134,67147,67159,67171,67184,67196,67208,67221,67234,67246,67259,67272,67284,67296,67309,67322,67334,67346,67359,67371,67384,67396,67409,67422,67434,67446,67459,67471,67484,67497,67510,67521,67534,67547,67559,67571,67584,67596,67609,67622,67635,67647,67659,67672,67684,67696,67709,67721,67734,67746,67759,67775,67788,67801,67812,67825,67838,67851,67863,67875,67889,67901,67913,67926,67938,67951,67963,67975,67990,68001,68015,68030,68043,68056,68071,68084,68097,68109,68122,68134,68147,68159,68171,68184,68197,68209,68221,68234,68246,68259,68271,68284,68297,68309,68321,68334,68346,68359,68372,68384,68396,68409,68421,68434,68446,68459,68472,68484,68496,68509,68521,68534,68547,68559,68571,68585,68597,68609,68622,68634,68646,68660,68675,68688,68701,68714,68727,68739,68750,68763,68775,68788,68800,68813,68826,68842,68855,68868,68880,68893,68906,68917,68929,68942,68956,68967,68980,68997,69009,69022,69034,69047,69058,69071,69086,69097,69109,69121,69134,69146,69159,69173,69184,69197,69209,69221,69233,69246,69259,69271,69285,69296,69309,69322,69334,69346,69359,69372,69384,69397,69409,69422,69434,69446,69459,69471,69484,69496,69509,69522,69534,69546,69558,69571,69583,69596,69609,69621,69634,69646,69659,69672,69684,69701,69718,69730,69743,69755,69768,69780,69792,69805,69817,69830,69842,69855,69871,69884,69897,69909,69921,69934,69947,69959,69971,69984,69996,70009,70022,70034,70047,70059,70072,70084,70096,70108,70121,70134,70146,70159,70172,70184,70197,70209,70221,70234,70246,70258,70271,70284,70296,70309,70321,70334,70346,70359,70371,70384,70397,70408,70421,70454,70467,70481,70492,70506,70518,70530,70542,70555,70568,70580,70592,70605,70617,70630,70642,70655,70668,70680,70693,70706,70718,70729,70743,70755,70767,70780,70792,70805,70818,70830,70843,70855,70868,70880,70893,70905,70917,70930,70942,70955,70972,70984,70996,71010,71022,71034,71047,71059,71071,71085,71096,71109,71126,71138,71151,71164,71175,71188,71200,71213,71225,71238,71250,71263,71275,71288,71301,71313,71325,71338,71350,71363,71375,71389,71400,71414,71426,71438,71451,71464,71476,71488,71500,71513,71525,71538,71551,71563,71575,71588,71600,71614,71625,71638,71650,71663,71676,71688,71701,71713,71725,71738,71750,71764,71775,71788,71800,71813,71826,71838,71851,71863,71875,71888,71900,71912,71925,71938,71954,71967,71980,71992,72005,72017,72030,72042,72055,72068,72080,72093,72105,72118,72130,72142,72155,72167,72180,72193,72204,72218,72230,72242,72255,72267,72280,72292,72305,72317,72330,72343,72355,72368,72379,72392,72405,72417,72429,72442,72455,72471,72484,72497,72509,72522,72534,72547,72559,72572,72584,72596,72609,72625,72638,72650,72663,72676,72688,72700,72713,72726,72738,72751,72763,72775,72788,72801,72813,72825,72838,72850,72864,72880,72893,72905,72918,72929,72942,72955,72968,72979,72992,73006,73021,73035,73047,73059,73072,73084,73097,73109,73121,73134,73146,73159,73176,73188,73201,73214,73226,73238,73251,73263,73275,73289,73300,73313,73331,73347,73359,73371,73385,73397,73409,73422,73433,73447,73459,73472,73484,73497,73509,73521,73534,73550,73563,73576,73589,73601,73613,73625,73638,73651,73663,73675,73688,73701,73713,73726,73738,73751,73763,73776,73788,73801,73813,73825,73838,73854,73867,73880,73897,73909,73922,73934,73947,73959,73972,73984,73996,74008,74021,74034,74050,74063,74076,74088,74101,74114,74126,74139,74150,74163,74176,74189,74200,74213,74226,74238,74251,74263,74276,74289,74300,74314,74325,74338,74351,74363,74375,74388,74401,74413,74426,74437,74451,74463,74476,74488,74501,74513,74525,74538,74550,74563,74575,74588,74601,74613,74625,74638,74650,74663,74675,74689,74706,74717,74730,74743,74755,74768,74780,74792,74805,74817,74830,74846,74859,74872,74884,74897,74909,74922,74934,74946,74959,74971,74984,75000,75013,75026,75038,75050,75063,75076,75089,75101,75113,75126,75138,75150,75164,75176,75188,75205,75222,75234,75247,75259,75272,75285,75296,75309,75321,75334,75346,75359,75372,75385,75397,75409,75421,75435,75447,75459,75471,75484,75496,75509,75522,75534,75546,75559,75572,75584,75596,75609,75621,75634,75650,75663,75680,75697,75709,75721,75734,75747,75759,75772,75784,75796,75809,75821,75834,75847,75859,75871,75884,75897,75909,75922,75934,75947,75958,75972,75985,75996,76009,76025,76038,76051,76063,76076,76088,76101,76113,76125,76138,76155,76167,76181,76192,76205,76222,76238,76251,76263,76275,76289,76300,76313,76326,76338,76351,76363,76375,76388,76401,76413,76426,76439,76451,76463,76475,76488,76500,76513,76526,76538,76551,76563,76576,76588,76600,76614,76625,76637,76650,76663,76675,76689,76701,76713,76726,76737,76751,76763,76775,76788,76800,76813,76830,76842,76855,76867,76880,76892,76906,76917,76930,76942,76955,76968,76979,76992,77005,77018,77030,77042,77055,77067,77080,77092,77105,77118,77130,77142,77155,77168,77180,77192,77205,77217,77230,77242,77255,77267,77280,77297,77309,77322,77334,77346,77359,77371,77383,77396,77409,77421,77434,77447,77459,77472,77484,77496,77509,77521,77534,77546,77559,77575,77588,77601,77613,77625,77638,77650,77663,77675,77687,77700,77713,77730,77742,77755,77771,77784,77797,77809,77822,77834,77846,77859,77871,77884,77900,77913,77926,77938,77950,77963,77976,77987,78001,78013,78025,78038,78050,78063,78075,78088,78104,78117,78130,78143,78155,78167,78180,78192,78204,78217,78229,78242,78254,78267,78280,78292,78305,78317,78330,78342,78355,78367,78379,78392,78405,78417,78430,78442,78455,78467,78480,78493,78505,78518,78530,78546,78559,78571,78584,78596,78609,78621,78634,78647,78659,78672,78684,78696,78709,78721,78734,78746,78759,78771,78784,78797,78809,78821,78834,78846,78859,78871,78884,78896,78909,78925,78938,78951,78963,78976,78988,79000,79013,79025,79038,79051,79063,79079,79092,79105,79117,79130,79142,79155,79167,79179,79192,79206,79217,79230,79243,79255,79271,79284,79300,79313,79326,79337,79351,79363,79376,79389,79401,79413,79425,79438,79450,79463,79476,79488,79501,79513,79526,79538,79550,79562,79576,79588,79601,79613,79625,79638,79651,79663,79675,79689,79700,79713,79726,79738,79750,79763,79775,79788,79800,79813,79826,79838,79851,79863,79875,79888,79900,79913,79925,79938,79950,79963,79976,79987,80000,80013,80025,80038,80051,80063,80076,80088,80105,80121,80133,80147,80158,80172,80184,80197,80209,80221,80234,80246,80259,80275,80288,80300,80313,80326,80337,80351,80363,80375,80388,80400,80413,80425,80438,80450,80463,80476,80488,80501,80513,80525,80538,80550,80564,80575,80588,80601,80613,80625,80638,80651,80663,80675,80689,80700,80714,80726,80738,80755,80771,80784,80797,80809,80822,80834,80847,80859,80872,80884,80896,80909,80925,80938,80950,80963,80976,80988,81001,81013,81025,81038,81050,81063,81075,81088,81100,81114,81125,81139,81155,81168,81180,81192,81205,81217,81230,81242,81255,81267,81280,81292,81309,81321,81334,81346,81359,81372,81384,81397,81409,81422,81434,81447,81459,81475,81488,81500,81513,81530,81541,81555,81568,81580,81592,81605,81617,81629,81642,81655,81671,81684,81696,81709,81722,81734,81746,81759,81771,81783,81796,81809,81821,81834,81847,81859,81871,81884,81897,81909,81922,81934,81946,81959,81971,81985,81996,82009,82021,82034,82046,82059,82072,82083,82096,82109,82121,82134,82147,82159,82171,82184,82200,82213,82226,82238,82251,82263,82276,82287,82301,82314,82325,82338,82350,82363,82376,82387,82400,82413,82426,82438,82451,82463,82475,82488,82506,82517,82530,82542,82555,82566,82580,82592,82605,82618,82629,82642,82655,82668,82680,82692,82705,82717,82729,82743,82755,82768,82780,82792,82804,82817,82830,82842,82855,82867,82880,82893,82905,82917,82930,82942,82955,82967,82979,82992,83005,83017,83030,83043,83055,83067,83080,83092,83105,83117,83129,83142,83156,83171,83184,83196,83209,83221,83233,83246,83258,83271,83284,83297,83309,83321,83334,83346,83359,83371,83384,83396,83409,83421,83434,83446,83459,83471,83484,83496,83509,83522,83533,83547,83558,83572,83584,83596,83609,83621,83634,83646,83659,83672,83684,83697,83709,83722,83734,83746,83758,83771,83784,83796,83809,83822,83834,83846,83859,83871,83884,83897,83908,83921,83934,83946,83959,83971,83984,83996,84009,84021,84034,84046,84058,84071,84084,84096,84108,84121,84134,84146,84159,84172,84184,84196,84209,84221,84234,84246,84259,84271,84284,84296,84309,84321,84334,84346,84359,84371,84384,84396,84409,84421,84434,84446,84459,84471,84484,84496,84509,84521,84533,84547,84559,84572,84584,84597,84608,84621,84633,84646,84658,84671,84684,84697,84709,84721,84734,84746,84758,84771,84785,84796,84809,84821,84834,84846,84859,84872,84884,84897,84908,84922,84934,84946,84959,84971,84984,84996,85009,85021,85034,85047,85058,85072,85084,85096,85108,85121,85134,85146,85159,85175,85188,85201,85213,85226,85238,85250,85263,85280,85293,85305,85317,85334,85346,85359,85371,85384,85396,85409,85421,85434,85447,85458,85472,85484,85496,85509,85526,85538,85550,85563,85575,85588,85601,85612,85625,85638,85650,85663,85675,85688,85700,85713,85725,85738,85751,85762,85775,85788,85800,85813,85825,85837,85850,85863,85875,85888,85901,85913,85925,85938,85950,85963,85975,85987,86000,86013,86025,86038,86050,86063,86075,86088,86100,86113,86126,86137,86150,86163,86175,86188,86201,86213,86225,86238,86250,86263,86276,86288,86300,86313,86325,86338,86351,86364,86375,86389,86405,86418,86430,86442,86455,86468,86480,86492,86505,86518,86535,86551,86563,86575,86588,86600,86613,86626,86638,86651,86663,86675,86688,86700,86713,86725,86738,86750,86763,86776,86788,86800,86812,86825,86838,86850,86862,86875,86888,86905,86921,86934,86947,86959,86972,86984,86996,87009,87021,87033,87046,87059,87075,87088,87101,87113,87126,87138,87151,87163,87176,87189,87200,87213,87225,87239,87250,87263,87280,87297,87309,87322,87334,87346,87359,87371,87384,87396,87408,87422,87434,87447,87459,87472,87485,87496,87508,87521,87535,87550,87563,87576,87588,87600,87613,87625,87638,87651,87663,87675,87688,87700,87713,87726,87738,87750,87763,87776,87788,87801,87813,87825,87838,87854,87867,87880,87892,87905,87917,87930,87942,87955,87968,87979,87992,88005,88022,88034,88046,88059,88072,88084,88096,88109,88121,88134,88146,88159,88171,88185,88200,88213,88226,88238,88251,88263,88275,88288,88300,88313,88325,88338,88350,88363,88376,88388,88400,88413,88426,88437,88451,88462,88475,88488,88500,88513,88525,88538,88550,88563,88575,88588,88601,88612,88625,88638,88650,88663,88675,88688,88700,88713,88729,88742,88755,88772,88784,88796,88808,88821,88834,88846,88859,88876,88888,88901,88913,88927,88942,88955,88968,88980,88992,89005,89017,89030,89042,89055,89067,89080,89092,89105,89117,89129,89142,89155,89167,89184,89196,89209,89221,89234,89246,89259,89272,89284,89296,89309,89321,89334,89346,89359,89371,89384,89396,89409,89422,89434,89447,89459,89471,89484,89497,89509,89521,89534,89546,89559,89571,89584,89600,89613,89625,89638,89651,89662,89675,89687,89700,89713,89729,89742,89755,89767,89779,89792,89805,89818,89829,89842,89855,89867,89879,89892,89905,89917,89929,89942,89955,89967,89980,89992,90005,90017,90029,90043,90054,90067,90080,90092,90105,90117,90130,90142,90155,90172,90184,90197,90209,90221,90234,90246,90259,90271,90284,90296,90309,90322,90334,90347,90359,90371,90384,90397,90409,90421,90435,90450,90463,90476,90488,90501,90513,90526,90538,90551,90563,90576,90588,90600,90613,90626,90638,90650,90663,90676,90688,90700,90713,90725,90738,90750,90763,90776,90788,90801,90813,90826,90838,90850,90863,90875,90889,90905,90918,90929,90942,90954,90967,90980,90992,91005,91017,91029,91043,91055,91067,91080,91092,91105,91121,91134,91146,91159,91171,91184,91197,91208,91221,91235,91246,91259,91271,91284,91297,91309,91321,91334,91347,91359,91371,91384,91396,91408,91421,91434,91446,91459,91471,91485,91497,91509,91521,91534,91546,91558,91571,91584,91596,91609,91621,91634,91647,91659,91672,91683,91697,91709,91722,91734,91747,91759,91771,91785,91797,91808,91821,91834,91846,91859,91871,91883,91896,91909,91926,91938,91951,91963,91976,91988,92001,92014,92025,92038,92050,92063,92075,92088,92106,92121,92134,92147,92158,92172,92184,92196,92209,92221,92234,92250,92263,92276,92288,92301,92313,92326,92338,92355,92368,92379,92392,92404,92417,92430,92442,92455,92467,92480,92492,92505,92518,92529,92542,92559,92571,92584,92601,92614,92626,92638,92651,92663,92675,92687,92700,92714,92729,92742,92755,92767,92780,92792,92805,92817,92830,92842,92855,92867,92880,92893,92904,92917,92930,92942,92955,92967,92980,92993,93004,93017,93030,93043,93055,93068,93080,93092,93106,93121,93134,93146,93159,93172,93185,93196,93209,93222,93235,93247,93259,93271,93284,93300,93313,93325,93337,93350,93363,93375,93388,93400,93413,93425,93438,93451,93463,93475,93488,93500,93513,93525,93537,93550,93563,93575,93588,93604,93617,93630,93642,93655,93667,93679,93692,93705,93716,93729,93742,93754,93767,93779,93792,93804,93818,93834,93846,93859,93872,93884,93897,93909,93921,93934,93946,93959,93971,93983,93996,94009,94021,94034,94046,94059,94071,94083,94097,94108,94122,94134,94146,94159,94171,94184,94196,94208,94222,94234,94246,94259,94271,94284,94300,94313,94325,94338,94350,94363,94376,94388,94401,94413,94425,94438,94451,94463,94475,94489,94500,94513,94526,94538,94550,94562,94575,94587,94600,94612,94625,94638,94654,94667,94680,94692,94705,94717,94730,94742,94755,94767,94779,94792,94805,94817,94830,94842,94855,94867,94880,94892,94905,94917,94929,94942,94955,94967,94979,94992,95004,95017,95030,95042,95055,95071,95084,95096,95108,95122,95134,95147,95159,95171,95184,95196,95209,95222,95234,95247,95259,95271,95284,95296,95309,95325,95338,95351,95363,95375,95388,95401,95413,95425,95438,95450,95463,95475,95488,95504,95518,95529,95542,95555,95568,95580,95592,95605,95617,95630,95642,95655,95668,95679,95692,95705,95717,95730,95742,95755,95767,95780,95793,95805,95817,95831],"hit":[null],"x":[-1.8945578231292517,-1.8945578231292517,-1.8945578231292517,-1.8945578231292517,-1.8945578231292517,-1.8945578231292517,-1.8945578231292517,-1.8945578231292517,-1.8945578231292517,-1.8945578231292517,-1.8945578231292517,-1.8945578231292517,-1.8945578231292517,-1.8945578231292517,-1.8945578231292517,-1.8945578231292517,-1.8945578231292517,-1.8945578231292517,-1.8945578231292517,-1.8945578231292517,-1.8945578231292517,-1.8945578231292517,-1.8945578231292517,-1.8945578231292517,-1.8945578231292517,-1.8945578231292517,-1.8945578231292517,-1.8945578231292517,-1.8945578231292517,-1.8945578231292517,-1.8945578231292517,-1.8945578231292517,-1.8945578231292517,-1.8945578231292517,-1.8945578231292517,-1.8945578231292517,-1.8945578231292517,-1.8945578231292517,-1.8945578231292517,-1.8945578231292517,-1.8945578231292517,-1.8945578231292517,-1.8945578231292517,-1.8945578231292517,-1.8945578231292517,-1.8945578231292517,-1.8945578231292517,-1.8945578231292517,-1.8945578231292517,-1.8945578231292517,-1.8945578231292517,-1.8945578231292517,-1.8945578231292517,-1.8945578231292517,-1.8945578231292517,-1.8945578231292517,-1.8945578231292517,-1.8945578231292517,-1.8945578231292517,-1.8945578231292517,-1.8945578231292517,-1.8945578231292517,-1.8945578231292517,-1.8945578231292517,0.005668951540577168,-0.004535130092075893,-0.00793649063629358,-0.021541932813164327,-0.028344653901599702,-0.03174601444581739,-0.03514737499003508,-0.03854873553425276,-0.03854873553425276,-0.03854873553425276,-0.03854873553425276,-0.04195009607847045,-0.04195009607847045,-0.04195009607847045,-0.04195009607847045,-0.04195009607847045,-0.04195009607847045,-0.03854873553425276,-0.03854873553425276,-0.03514737499003508,-0.03514737499003508,-0.03514737499003508,-0.03174601444581739,-0.028344653901599702,-0.028344653901599702,-0.024943293357382015,-0.024943293357382015,-0.024943293357382015,-0.024943293357382015,-0.024943293357382015,-0.024943293357382015,-0.024943293357382015,-0.024943293357382015,-0.024943293357382015,-0.024943293357382015,-0.024943293357382015,-0.024943293357382015,-0.024943293357382015,-0.024943293357382015,-0.024943293357382015,-0.024943293357382015,-0.024943293357382015,-0.024943293357382015,-0.024943293357382015,-0.024943293357382015,-0.024943293357382015,-0.024943293357382015,-0.024943293357382015,-0.024943293357382015,-0.024943293357382015,-0.024943293357382015,-0.024943293357382015,-0.024943293357382015,-0.024943293357382015,-0.024943293357382015,-0.024943293357382015,-0.024943293357382015,-0.024943293357382015,-0.024943293357382015,-0.024943293357382015,-0.024943293357382015,-0.024943293357382015,-0.024943293357382015,-0.024943293357382015,-0.024943293357382015,-0.024943293357382015,-0.024943293357382015,-0.024943293357382015,-0.024943293357382015,-0.024943293357382015,-0.024943293357382015,-0.024943293357382015,-0.024943293357382015,-0.024943293357382015,-0.024943293357382015,-0.024943293357382015,-0.024943293357382015,-0.024943293357382015,-0.024943293357382015,-0.024943293357382015,-0.024943293357382015,-0.024943293357382015,-0.024943293357382015,-0.024943293357382015,-0.024943293357382015,-0.024943293357382015,-0.024943293357382015,-0.024943293357382015,-0.024943293357382015,-0.024943293357382015,-0.024943293357382015,-0.024943293357382015,-0.024943293357382015,-0.024943293357382015,-0.024943293357382015,-0.024943293357382015,-0.024943293357382015,-0.024943293357382015,-0.024943293357382015,-0.024943293357382015,-0.024943293357382015,-0.024943293357382015,-0.024943293357382015,-0.024943293357382015,-0.024943293357382015,-0.024943293357382015,-0.024943293357382015,-0.024943293357382015,-0.024943293357382015,-0.024943293357382015,-0.024943293357382015,-0.024943293357382015,-0.024943293357382015,-0.024943293357382015,-0.024943293357382015,-0.024943293357382015,-0.024943293357382015,-0.024943293357382015,-0.024943293357382015,-0.024943293357382015,-0.024943293357382015,-0.024943293357382015,-0.024943293357382015,-0.024943293357382015,-0.024943293357382015,-0.024943293357382015,-0.024943293357382015,-0.024943293357382015,-0.024943293357382015,-0.024943293357382015,-0.024943293357382015,-0.024943293357382015,-0.024943293357382015,-0.024943293357382015,-0.024943293357382015,-0.024943293357382015,-0.024943293357382015,-0.024943293357382015,-0.021541932813164327,-0.011337851180511267,0.0022675909963594813,0.009070312084794856,0.02607711480588329,0.04308391752697173,0.05328799915962479,0.0736961624249309,0.08730160460180166,0.1043084073228901,0.11791384949976084,0.12131521004397854,0.1315192916766316,0.13832201276506698,0.14172337330928464,0.14852609439772002,0.1519274549419377,0.1553288154861554,0.1587301760303731,0.16213153657459078,0.16553289711880845,0.17233561820724383,0.17573697875146152,0.1791383392956792,0.1859410603841146,0.19614514201676764,0.20294786310520302,0.2063492236494207,0.2131519447378561,0.21655330528207375,0.2335601080031622,0.24716555018003294,0.2539682712684683,0.2607709923569037,0.2641723529011214,0.2675737134453391,0.2709750739895568,0.2709750739895568,0.2709750739895568,0.2675737134453391,0.2675737134453391,0.2675737134453391,0.2675737134453391,0.2675737134453391,0.2675737134453391,0.2675737134453391,0.2675737134453391,0.2675737134453391,0.2675737134453391,0.2675737134453391,0.2675737134453391,0.2675737134453391,0.2675737134453391,0.2675737134453391,0.2675737134453391,0.2675737134453391,0.2675737134453391,0.2675737134453391,0.2675737134453391,0.2675737134453391,0.2675737134453391,0.2675737134453391,0.2675737134453391,0.2675737134453391,0.2675737134453391,0.2675737134453391,0.2675737134453391,0.2675737134453391,0.2675737134453391,0.2675737134453391,0.2675737134453391,0.2675737134453391,0.2675737134453391,0.2675737134453391,0.2675737134453391,0.2675737134453391,0.2675737134453391,0.2675737134453391,0.2675737134453391,0.2675737134453391,0.2675737134453391,0.2675737134453391,0.2675737134453391,0.2675737134453391,0.2675737134453391,0.2675737134453391,0.2675737134453391,0.2675737134453391,0.2675737134453391,0.2675737134453391,0.2675737134453391,0.2675737134453391,0.2675737134453391,0.2675737134453391,0.2675737134453391,0.2675737134453391,0.2675737134453391,0.2675737134453391,0.2675737134453391,0.2675737134453391,0.2675737134453391,0.2675737134453391,0.2675737134453391,0.2675737134453391,0.2675737134453391,0.2675737134453391,0.2675737134453391,0.2675737134453391,0.2675737134453391,0.2675737134453391,0.2675737134453391,0.2675737134453391,0.2675737134453391,0.2675737134453391,0.2675737134453391,0.2675737134453391,0.2675737134453391,0.2675737134453391,0.2675737134453391,0.2675737134453391,0.2675737134453391,0.2675737134453391,0.2675737134453391,0.2675737134453391,0.2675737134453391,0.2675737134453391,0.2675737134453391,0.2675737134453391,0.2675737134453391,0.2675737134453391,0.2675737134453391,0.2675737134453391,0.2675737134453391,0.2675737134453391,0.2675737134453391,0.2675737134453391,0.2675737134453391,0.2675737134453391,0.2675737134453391,0.2675737134453391,0.2675737134453391,0.2675737134453391,0.2675737134453391,0.2675737134453391,0.2675737134453391,0.2675737134453391,0.2675737134453391,0.2675737134453391,0.2675737134453391,0.2675737134453391,0.2675737134453391,0.2675737134453391,0.2675737134453391,0.2675737134453391,0.2675737134453391,0.2675737134453391,0.2675737134453391,0.2675737134453391,0.2675737134453391,0.2709750739895568,0.27437643453377447,0.27437643453377447,0.2777777950779921,0.2777777950779921,0.2777777950779921,0.2777777950779921,0.2777777950779921,0.2777777950779921,0.2777777950779921,0.2777777950779921,0.2777777950779921,0.2777777950779921,0.2777777950779921,0.2811791556222098,0.2845805161664275,0.29478459779908056,0.29818595834329825,0.3151927610643867,0.3356009243296928,0.35260772705078125,0.366213169227652,0.3832199719487404,0.3934240535813935,0.40362813521404656,0.41043085630248194,0.41383221684669963,0.41383221684669963,0.41383221684669963,0.4172335773909173,0.420634937935135,0.420634937935135,0.420634937935135,0.420634937935135,0.420634937935135,0.420634937935135,0.420634937935135,0.420634937935135,0.420634937935135,0.4240362984793527,0.4240362984793527,0.4240362984793527,0.4274376590235704,0.43083901956778803,0.4376417406562234,0.4410431012004411,0.45464854337731186,0.485260788275271,0.5226757542616656,0.5430839175269717,0.5532879991596248,0.5668934413364956,0.5770975229691486,0.5804988835133663,0.583900244057584,0.583900244057584,0.5873016046018017,0.5873016046018017,0.5907029651460194,0.5907029651460194,0.5907029651460194,0.5907029651460194,0.5907029651460194,0.5907029651460194,0.5907029651460194,0.5907029651460194,0.5907029651460194,0.5907029651460194,0.5907029651460194,0.5907029651460194,0.5907029651460194,0.5907029651460194,0.5907029651460194,0.5907029651460194,0.5907029651460194,0.5907029651460194,0.5907029651460194,0.5907029651460194,0.5907029651460194,0.5907029651460194,0.5907029651460194,0.5907029651460194,0.5907029651460194,0.5907029651460194,0.5907029651460194,0.5907029651460194,0.5907029651460194,0.6315192916766316,0.6859410603841146,0.7233560263705091,0.7369614685473799,0.7437641896358153,0.7505669107242506,0.757369631812686,0.757369631812686,0.757369631812686,0.7607709923569037,0.7607709923569037,0.7607709923569037,0.7607709923569037,0.7607709923569037,0.7607709923569037,0.7607709923569037,0.7607709923569037,0.7607709923569037,0.7607709923569037,0.7607709923569037,0.7607709923569037,0.7607709923569037,0.7607709923569037,0.7607709923569037,0.7607709923569037,0.7607709923569037,0.7607709923569037,0.7607709923569037,0.7607709923569037,0.7607709923569037,0.7607709923569037,0.7607709923569037,0.7607709923569037,0.7607709923569037,0.7607709923569037,0.7607709923569037,0.7607709923569037,0.8185941216086043,0.8628118086834343,0.9036281352140465,0.930839019567788,0.9444444617446588,0.9580499039215296,0.9614512644657472,0.9682539855541826,0.9716553460984003,0.9784580671868357,0.9784580671868357,0.9818594277310534,0.9818594277310534,0.9818594277310534,0.9818594277310534,0.9818594277310534,0.9818594277310534,0.9818594277310534,0.9818594277310534,0.9818594277310534,0.9818594277310534,0.9818594277310534,0.9818594277310534,0.9818594277310534,0.9818594277310534,0.9818594277310534,0.9818594277310534,0.9818594277310534,0.9818594277310534,0.9818594277310534,0.9818594277310534,0.9818594277310534,0.9818594277310534,0.9818594277310534,0.9818594277310534,0.9818594277310534,0.9818594277310534,0.9818594277310534,0.9818594277310534,0.9818594277310534,0.9818594277310534,0.9818594277310534,0.9818594277310534,0.9818594277310534,0.9818594277310534,0.9818594277310534,0.9818594277310534,0.9818594277310534,0.9818594277310534,0.9818594277310534,0.9818594277310534,0.9818594277310534,0.9818594277310534,0.9818594277310534,0.9818594277310534,0.9818594277310534,0.9818594277310534,0.9818594277310534,0.9818594277310534,0.9784580671868357,0.9784580671868357,0.975056706642618,0.9716553460984003,0.9682539855541826,0.9682539855541826,0.9648526250099649,0.9648526250099649,0.9648526250099649,0.9648526250099649,0.9648526250099649,0.9648526250099649,0.9648526250099649,0.9648526250099649,0.9648526250099649,0.9648526250099649,0.9648526250099649,0.9648526250099649,0.9648526250099649,0.9648526250099649,0.9648526250099649,0.9648526250099649,0.9648526250099649,0.9648526250099649,0.9648526250099649,0.9648526250099649,0.9648526250099649,0.9648526250099649,0.9648526250099649,0.9648526250099649,0.9648526250099649,0.9648526250099649,0.9648526250099649,0.9648526250099649,0.9648526250099649,0.9648526250099649,0.9648526250099649,0.9648526250099649,0.9648526250099649,0.9648526250099649,0.9648526250099649,0.9648526250099649,0.9648526250099649,0.9648526250099649,0.9648526250099649,0.9648526250099649,0.9648526250099649,0.9648526250099649,0.9648526250099649,0.9648526250099649,0.9648526250099649,0.9648526250099649,0.9648526250099649,0.9648526250099649,0.9648526250099649,0.9648526250099649,0.9648526250099649,0.9648526250099649,0.9648526250099649,0.9648526250099649,0.9648526250099649,0.9648526250099649,0.9648526250099649,0.9648526250099649,0.9648526250099649,0.9648526250099649,0.9648526250099649,0.9648526250099649,0.9648526250099649,0.9648526250099649,0.9648526250099649,0.9648526250099649,0.9648526250099649,0.9648526250099649,0.9648526250099649,0.9648526250099649,0.9648526250099649,0.9648526250099649,0.9648526250099649,0.9648526250099649,0.9648526250099649,0.9648526250099649,0.9648526250099649,0.9648526250099649,0.9648526250099649,0.9648526250099649,0.9648526250099649,0.9648526250099649,0.9648526250099649,0.9648526250099649,0.9648526250099649,0.9648526250099649,0.9648526250099649,0.9648526250099649,0.9648526250099649,0.9648526250099649,0.9648526250099649,0.9648526250099649,0.9648526250099649,0.9648526250099649,0.9648526250099649,0.9648526250099649,0.9648526250099649,0.9648526250099649,0.9648526250099649,0.9648526250099649,0.9648526250099649,0.9648526250099649,0.9648526250099649,0.9648526250099649,0.9648526250099649,0.9648526250099649,0.9648526250099649,0.9648526250099649,0.9648526250099649,0.9648526250099649,0.9648526250099649,0.9648526250099649,0.9648526250099649,0.9648526250099649,0.9648526250099649,0.9648526250099649,0.9648526250099649,0.9648526250099649,0.9648526250099649,0.9648526250099649,0.9648526250099649,0.9648526250099649,0.9648526250099649,0.9648526250099649,0.9648526250099649,0.9648526250099649,0.9648526250099649,0.9648526250099649,0.9648526250099649,0.9648526250099649,0.9648526250099649,0.9648526250099649,0.9648526250099649,0.9648526250099649,0.9648526250099649,0.9648526250099649,0.9648526250099649,0.9648526250099649,0.9648526250099649,0.9648526250099649,0.9648526250099649,0.9648526250099649,0.9648526250099649,0.9648526250099649,0.9648526250099649,0.9648526250099649,0.9648526250099649,0.9648526250099649,0.9648526250099649,0.9648526250099649,0.9648526250099649,0.9648526250099649,0.9648526250099649,0.9648526250099649,0.9648526250099649,0.9648526250099649,0.9648526250099649,0.9648526250099649,0.9648526250099649,0.9648526250099649,0.9648526250099649,0.9648526250099649,0.9648526250099649,0.9648526250099649,0.9648526250099649,0.9648526250099649,0.9648526250099649,0.9648526250099649,0.9648526250099649,0.9648526250099649,0.9648526250099649,0.9648526250099649,0.9648526250099649,0.9648526250099649,0.9648526250099649,0.9648526250099649,0.9648526250099649,0.9648526250099649,0.9648526250099649,0.9648526250099649,0.9648526250099649,0.9648526250099649,0.9648526250099649,0.9648526250099649,0.9648526250099649,0.9648526250099649,0.9648526250099649,0.9648526250099649,0.9648526250099649,0.9580499039215296,0.9580499039215296,0.9546485433773119,0.9478458222888765,0.9478458222888765,0.9478458222888765,0.9478458222888765,0.9478458222888765,0.9478458222888765,0.9478458222888765,0.9478458222888765,0.9478458222888765,0.9478458222888765,0.9478458222888765,0.9478458222888765,0.9478458222888765,0.9478458222888765,0.9478458222888765,0.9478458222888765,0.9478458222888765,0.9478458222888765,0.9478458222888765,0.9478458222888765,0.9478458222888765,0.9478458222888765,0.9478458222888765,0.9478458222888765,0.9478458222888765,0.9478458222888765,0.9478458222888765,0.9478458222888765,0.9478458222888765,0.9478458222888765,0.9478458222888765,0.9478458222888765,0.9478458222888765,0.9478458222888765,0.9478458222888765,0.9478458222888765,0.9478458222888765,0.9478458222888765,0.9478458222888765,0.9478458222888765,0.9478458222888765,0.9478458222888765,0.9478458222888765,0.9478458222888765,0.9478458222888765,0.9478458222888765,0.9478458222888765,0.9478458222888765,0.9478458222888765,0.9478458222888765,0.9478458222888765,0.9478458222888765,0.9478458222888765,0.9478458222888765,0.9478458222888765,0.9478458222888765,0.9478458222888765,0.9478458222888765,0.9478458222888765,0.9478458222888765,0.9478458222888765,0.9478458222888765,0.9478458222888765,0.9478458222888765,0.9478458222888765,0.9478458222888765,0.9478458222888765,0.9478458222888765,0.9478458222888765,0.9478458222888765,0.9478458222888765,0.9478458222888765,0.9478458222888765,0.9478458222888765,0.9478458222888765,0.9478458222888765,0.9478458222888765,0.9478458222888765,0.9478458222888765,0.9478458222888765,0.9478458222888765,0.9478458222888765,0.9478458222888765,0.9478458222888765,0.9478458222888765,0.9478458222888765,0.9478458222888765,0.9478458222888765,0.9478458222888765,0.9478458222888765,0.9478458222888765,0.9478458222888765,0.9478458222888765,0.9478458222888765,0.9478458222888765,0.9478458222888765,0.9478458222888765,0.9478458222888765,0.9478458222888765,0.9478458222888765,0.9478458222888765,0.9478458222888765,0.9478458222888765,0.9478458222888765,0.9478458222888765,0.9478458222888765,0.9478458222888765,0.9478458222888765,0.9478458222888765,0.9478458222888765,0.9478458222888765,0.9478458222888765,0.9478458222888765,0.9478458222888765,0.9478458222888765,0.9478458222888765,0.9478458222888765,0.9478458222888765,0.9478458222888765,0.9478458222888765,0.9478458222888765,0.9478458222888765,0.9478458222888765,0.9478458222888765,0.9478458222888765,0.9478458222888765,0.9478458222888765,0.9478458222888765,0.9478458222888765,0.9478458222888765,0.9478458222888765,0.9478458222888765,0.9478458222888765,0.9478458222888765,0.9478458222888765,0.9478458222888765,0.9478458222888765,0.9478458222888765,0.9478458222888765,0.9478458222888765,0.9478458222888765,0.9478458222888765,0.9478458222888765,0.9478458222888765,0.9478458222888765,0.9478458222888765,0.9478458222888765,0.9478458222888765,0.9478458222888765,0.9478458222888765,0.9478458222888765,0.9478458222888765,0.9478458222888765,0.9478458222888765,0.9478458222888765,0.9478458222888765,0.9478458222888765,0.9478458222888765,0.9478458222888765,0.9478458222888765,0.9478458222888765,0.9478458222888765,0.9478458222888765,0.9478458222888765,0.9478458222888765,0.9478458222888765,0.9478458222888765,0.9478458222888765,0.9478458222888765,0.9478458222888765,0.9478458222888765,0.9478458222888765,0.9478458222888765,0.9478458222888765,0.9478458222888765,0.9478458222888765,0.9478458222888765,0.9478458222888765,0.9478458222888765,0.9478458222888765,0.9478458222888765,0.8866213324929582,0.8321995637854751,0.7811791556222099,0.7267573869147268,0.6723356182072439,0.638322012765067,0.6077097678671077,0.5975056862344548,0.5668934413364956,0.5600907202480602,0.5430839175269717,0.5328798358943186,0.5260771148058833,0.5226757542616656,0.5124716726290125,0.5124716726290125,0.5090703120847948,0.5090703120847948,0.5090703120847948,0.5056689515405771,0.5022675909963595,0.5022675909963595,0.5022675909963595,0.5022675909963595,0.5056689515405771,0.5056689515405771,0.5056689515405771,0.5090703120847948,0.5192743937174479,0.5260771148058833,0.5362811964385363,0.539682556982754,0.5464852780711894,0.5532879991596248,0.5566893597038425,0.5600907202480602,0.5634920807922779,0.5668934413364956,0.5702948018807132,0.5702948018807132,0.5702948018807132,0.5702948018807132,0.5702948018807132,0.5702948018807132,0.5702948018807132,0.5702948018807132,0.5702948018807132,0.5702948018807132,0.5702948018807132,0.5702948018807132,0.5702948018807132,0.5702948018807132,0.5702948018807132,0.5702948018807132,0.5702948018807132,0.5702948018807132,0.5702948018807132,0.5702948018807132,0.5702948018807132,0.5702948018807132,0.5702948018807132,0.5702948018807132,0.5702948018807132,0.5702948018807132,0.5702948018807132,0.5702948018807132,0.5702948018807132,0.5702948018807132,0.5702948018807132,0.5702948018807132,0.5702948018807132,0.5702948018807132,0.5702948018807132,0.5702948018807132,0.5702948018807132,0.5702948018807132,0.5702948018807132,0.5702948018807132,0.5702948018807132,0.5702948018807132,0.5702948018807132,0.5702948018807132,0.5702948018807132,0.5702948018807132,0.5702948018807132,0.5702948018807132,0.5702948018807132,0.5702948018807132,0.5702948018807132,0.5702948018807132,0.5702948018807132,0.5702948018807132,0.5668934413364956,0.5668934413364956,0.5634920807922779,0.5634920807922779,0.5634920807922779,0.5634920807922779,0.5634920807922779,0.5668934413364956,0.5702948018807132,0.5702948018807132,0.5736961624249309,0.5770975229691486,0.5804988835133663,0.583900244057584,0.583900244057584,0.5873016046018017,0.5907029651460194,0.5941043256902371,0.5941043256902371,0.5941043256902371,0.5941043256902371,0.5941043256902371,0.5941043256902371,0.5941043256902371,0.5941043256902371,0.5941043256902371,0.5941043256902371,0.5941043256902371,0.5941043256902371,0.5941043256902371,0.5941043256902371,0.5941043256902371,0.5941043256902371,0.5941043256902371,0.5941043256902371,0.5941043256902371,0.5941043256902371,0.5941043256902371,0.5941043256902371,0.5941043256902371,0.5941043256902371,0.5941043256902371,0.5941043256902371,0.5941043256902371,0.5941043256902371,0.5941043256902371,0.5941043256902371,0.5941043256902371,0.5941043256902371,0.5941043256902371,0.5941043256902371,0.5941043256902371,0.5941043256902371,0.5941043256902371,0.5941043256902371,0.5941043256902371,0.5941043256902371,0.5941043256902371,0.5941043256902371,0.5941043256902371,0.5941043256902371,0.5941043256902371,0.5941043256902371,0.5941043256902371,0.5941043256902371,0.5941043256902371,0.5941043256902371,0.5941043256902371,0.5941043256902371,0.5941043256902371,0.5941043256902371,0.5941043256902371,0.5941043256902371,0.5975056862344548,0.60430840732289,0.60430840732289,0.6077097678671077,0.6077097678671077,0.6077097678671077,0.6077097678671077,0.6077097678671077,0.6077097678671077,0.6077097678671077,0.6077097678671077,0.6077097678671077,0.6077097678671077,0.6077097678671077,0.6077097678671077,0.6077097678671077,0.6077097678671077,0.6077097678671077,0.6077097678671077,0.6077097678671077,0.6077097678671077,0.6077097678671077,0.6077097678671077,0.6077097678671077,0.6077097678671077,0.6077097678671077,0.6077097678671077,0.6077097678671077,0.6077097678671077,0.6077097678671077,0.6077097678671077,0.6077097678671077,0.6077097678671077,0.6077097678671077,0.6077097678671077,0.6077097678671077,0.6