[{"success":true,"trial_type":"fullscreen","trial_index":0,"time_elapsed":5267,"internal_node_id":"0.0-0.0","protocol_sum":"","subject_identifier":127,"subject_sum":[218,78,162,165,80,111,38,147,234,225,144,217,54,10,31,49,121,60,152,161,173,173,229,29,147,83,58,111,82,10,206,28],"subject_pair":63,"STUDY_ID":"669a702db1122fc5150a13ce","PROLIFIC_PID":"6640628212be4793d535e3ca","SESSION_ID":"669b1f371ec16852f3e742a3","practice_instructions":1,"leaderboard_instructions":0,"bonus":0,"reveal_word":true,"self_rating":"3","confidence":"46"},{"view_history":"[{\"page_index\":0,\"viewing_time\":10712.200000017881}]","rt":10714,"trial_type":"instructions","trial_index":1,"time_elapsed":15983,"internal_node_id":"0.0-1.0","protocol_sum":"","subject_identifier":127,"subject_sum":[218,78,162,165,80,111,38,147,234,225,144,217,54,10,31,49,121,60,152,161,173,173,229,29,147,83,58,111,82,10,206,28],"subject_pair":63,"STUDY_ID":"669a702db1122fc5150a13ce","PROLIFIC_PID":"6640628212be4793d535e3ca","SESSION_ID":"669b1f371ec16852f3e742a3","practice_instructions":1,"leaderboard_instructions":0,"bonus":0,"reveal_word":true,"self_rating":"3","confidence":"46"},{"view_history":"[{\"page_index\":0,\"viewing_time\":62269}]","rt":62269.40000000596,"trial_type":"instructions","trial_index":2,"time_elapsed":78254,"internal_node_id":"0.0-2.0-0.0","protocol_sum":"","subject_identifier":127,"subject_sum":[218,78,162,165,80,111,38,147,234,225,144,217,54,10,31,49,121,60,152,161,173,173,229,29,147,83,58,111,82,10,206,28],"subject_pair":63,"STUDY_ID":"669a702db1122fc5150a13ce","PROLIFIC_PID":"6640628212be4793d535e3ca","SESSION_ID":"669b1f371ec16852f3e742a3","practice_instructions":1,"leaderboard_instructions":0,"bonus":0,"reveal_word":true,"self_rating":"3","confidence":"46"},{"rt":9451,"responses":"{\"Q0\":\"... reveal the word with as <b>few letter guesses</b> as possible\"}","question_order":"[0]","trial_type":"survey-multi-choice","trial_index":3,"time_elapsed":87714,"internal_node_id":"0.0-2.0-1.0","protocol_sum":"","subject_identifier":127,"subject_sum":[218,78,162,165,80,111,38,147,234,225,144,217,54,10,31,49,121,60,152,161,173,173,229,29,147,83,58,111,82,10,206,28],"subject_pair":63,"correct":true,"test_part":"multichoice_nonpretend","STUDY_ID":"669a702db1122fc5150a13ce","PROLIFIC_PID":"6640628212be4793d535e3ca","SESSION_ID":"669b1f371ec16852f3e742a3","practice_instructions":1,"leaderboard_instructions":0,"bonus":0,"reveal_word":true,"self_rating":"3","confidence":"46"},{"view_history":"[{\"page_index\":0,\"viewing_time\":2323.4000000059605}]","rt":2323.9000000059605,"trial_type":"instructions","trial_index":4,"time_elapsed":90043,"internal_node_id":"0.0-3.0","protocol_sum":"","subject_identifier":127,"subject_sum":[218,78,162,165,80,111,38,147,234,225,144,217,54,10,31,49,121,60,152,161,173,173,229,29,147,83,58,111,82,10,206,28],"subject_pair":63,"STUDY_ID":"669a702db1122fc5150a13ce","PROLIFIC_PID":"6640628212be4793d535e3ca","SESSION_ID":"669b1f371ec16852f3e742a3","practice_instructions":1,"leaderboard_instructions":0,"bonus":0,"reveal_word":true,"self_rating":"3","confidence":"46"},{"word":"ZEBRA","click_log":{"letter":["","E","T","L","N","S","P","R","A","B","Z"],"t":[0,7369.200000017881,10288.600000023842,16972,26576.80000001192,30874.80000001192,40908.90000000596,44861.90000000596,65947.60000002384,86302.40000000596,88142.40000000596],"hit":[null,1,0,0,0,0,0,1,1,1,1],"asked":["","E","ET","ETL","ETLN","ETLNS","ETLNSP","ETLNSPR","ETLNSPRA","ETLNSPRAB","ETLNSPRABZ"],"word_state":["_____","_E___","_E___","_E___","_E___","_E___","_E___","_E_R_","_E_RA","_EBRA","ZEBRA"]},"hover_log":{"letter":["?","?","?","?","?","?","?","?","?","?","?","?","?","?","?","?","?","?","?","?","?","E","?","?","?","?","?","?","?","?","?","?","?","?","?","?","?","?","?","?","?","?","?","?","?","?","?","?","?","?","?","?","?","?","?","?","?","?","?","?","?","?","?","?","?","?","?","?","?","?","?","?","?","?","?","?","?","?","?","?","?","?","?","?","?","?","?","?","?","?","?","?","?","?","?","?","?","?","?","?","?","?","?","?","?","?","?","?","?","?","?","?","?","?","?","E","E","E","E","E","E","E","E","E","E","E","E","E","E","E","E","E","E","E","E","E","E","E","E","E","E","E","E","E","E","E","E","E","E","E","E","E","E","E","E","E","E","E","E","E","E","E","E","E","E","E","E","E","E","E","E","E","E","E","E","E","E","E","E","E","E","E","E","E","E","E","E","E","E","E","E","E","E","E","E","E","E","E","E","E","E","E","E","E","E","E","E","E","E","E","E","E","E","E","E","E","E","E","E","E","E","E","E","E","E","E","E","E","E","E","E","E","E","E","E","E","E","E","E","E","E","E","E","E","E","E","E","E","E","E","E","E","E","E","E","E","E","E","E","E","E","E","E","E","E","E","E","E","E","E","E","E","E","E","E","E","E","E","E","E","E","E","E","E","E","E","E","E","E","E","E","E","E","E","E","E","E","E","E","E","E","E","E","E","E","E","E","E","E","E","E","E","E","E","E","E","E","E","E","E","E","E","E","E","E","E","E","E","E","E","E","E","E","E","E","E","E","E","E","E","E","E","E","E","E","E","E","E","E","E","E","E","E","E","E","E","E","E","E","E","E","E","E","E","E","E","E","E","E","E","E","E","E","E","E","E","E","E","E","E","E","E","E","E","E","E","E","E","E","E","E","E","E","E","E","E","E","E","E","E","E","E","E","E","E","E","E","E","E","E","E","E","E","E","E","E","E","E","E","E","E","E","E","E","E","E","E","E","E","E","E","E","E","E","E","E","E","E","E","E","E","E","E","E","E","E","E","E","E","E","E","E","E","E","E","E","E","E","E","E","E","E","E","E","E","E","E","E","E","E","E","E","E","E","E","E","E","E","E","E","E","E","E","E","E","E","E","E","E","E","E","E","E","E","E","E","E","E","E","E","E","E","E","E","?","D","D","D","D","D","D","?","?","?","?","?","?","?","?","L","L","L","L","L","L","L","L","?","?","?","?","?","?","?","?","?","?","T","T","T","T","T","T","T","T","T","T","T","T","T","T","T","T","T","T","T","T","T","T","T","T","T","T","T","T","T","T","T","T","T","T","T","T","T","T","T","T","T","T","T","T","T","T","T","T","T","T","T","T","T","T","T","T","T","T","T","T","T","T","T","T","T","T","T","T","T","T","T","T","T","T","T","T","T","T","T","T","T","T","T","T","T","T","T","T","T","T","T","T","T","T","T","T","T","T","T","T","T","T","T","T","T","T","T","T","T","T","T","T","T","T","T","T","T","T","T","T","T","T","T","T","T","T","T","T","T","T","T","T","T","T","T","T","T","T","T","T","T","T","T","T","T","T","T","T","T","T","T","T","T","T","T","T","T","T","T","T","T","T","T","T","T","T","T","T","T","T","T","T","T","T","T","T","T","T","T","T","T","T","T","T","T","T","T","T","T","T","T","T","T","T","T","T","T","T","T","T","T","T","T","T","T","T","T","T","T","T","T","T","T","T","T","T","T","T","T","T","T","T","T","T","T","T","T","T","T","T","T","T","T","T","T","T","T","T","T","T","T","T","T","T","T","T","T","T","T","T","T","T","T","T","T","T","T","T","T","T","T","T","T","T","T","T","T","T","T","T","T","T","T","T","T","T","T","T","T","T","?","?","?","?","?","?","?","?","?","?","?","?","?","?","?","?","?","?","?","?","L","L","L","L","L","L","L","L","L","L","L","L","L","L","L","L","L","L","L","L","L","L","L","L","L","L","L","L","L","L","L","L","L","L","L","L","L","L","L","L","L","L","L","L","L","L","L","L","L","L","L","L","L","L","L","L","L","L","L","L","L","L","L","L","L","L","L","L","L","L","L","L","L","L","L","L","L","L","L","L","L","L","L","L","L","L","L","L","L","L","L","L","L","L","L","L","L","L","L","L","L","L","L","L","L","L","L","L","L","L","L","L","L","L","L","L","L","L","L","L","L","L","L","L","L","L","L","L","L","L","L","L","L","L","L","L","L","L","L","L","L","L","L","L","L","L","L","L","L","L","L","L","L","L","L","L","L","L","L","L","L","L","L","L","L","L","L","L","L","L","L","L","L","L","L","L","L","L","L","L","L","L","L","L","L","L","L","L","L","L","L","L","L","L","L","L","L","L","L","L","L","L","L","L","L","L","L","L","L","L","L","L","L","L","L","L","L","L","L","L","L","L","L","L","L","L","L","L","L","L","L","L","L","L","L","L","L","L","L","L","L","L","L","L","L","L","L","L","L","L","L","L","L","L","L","L","L","L","L","L","L","L","L","L","L","L","L","L","L","L","L","L","L","L","L","L","L","L","L","L","L","L","?","?","?","M","M","M","M","M","M","M","M","M","M","?","?","?","?","?","?","?","?","N","N","N","N","N","N","N","N","N","N","N","N","N","N","N","N","N","N","N","N","N","N","N","N","N","N","N","N","N","N","N","N","N","N","N","N","N","N","N","N","N","N","N","N","N","N","N","N","N","N","N","N","N","N","N","N","N","N","N","N","N","N","N","N","N","N","N","N","N","N","N","N","N","N","N","N","N","N","N","N","N","N","N","N","N","N","N","N","N","N","N","N","N","N","N","N","N","N","N","N","N","N","N","N","N","N","N","N","N","N","N","N","N","N","N","N","N","N","N","N","N","N","N","N","N","N","N","N","N","N","N","N","N","N","N","N","N","N","N","N","N","N","N","N","N","N","N","N","N","N","N","N","N","N","N","N","N","N","N","N","N","N","N","N","N","N","N","N","N","N","N","N","N","N","N","N","N","N","N","N","N","N","N","N","N","N","N","N","N","N","N","N","N","N","N","N","N","N","N","N","N","N","N","N","N","N","N","N","N","N","N","N","N","N","N","N","N","N","N","N","N","N","N","N","N","N","N","N","N","N","N","N","N","N","N","N","N","N","N","N","N","N","N","N","N","N","N","N","N","N","N","N","N","N","N","N","N","N","N","N","N","N","N","N","N","N","N","N","N","N","N","N","N","N","N","N","N","N","N","N","N","N","N","N","N","N","N","N","N","N","N","N","N","N","N","N","N","N","N","N","N","N","N","N","N","N","N","N","N","N","N","N","N","N","N","N","N","N","N","N","N","N","N","N","N","N","N","N","N","N","N","N","N","N","N","N","N","N","N","N","N","N","N","N","N","N","N","N","N","N","N","N","N","N","N","N","N","N","N","N","N","N","N","N","N","N","N","N","N","N","N","N","?","?","?","?","?","?","?","?","?","?","?","?","?","?","?","?","?","?","?","?","?","?","?","?","?","N","N","N","N","N","N","N","N","N","N","N","N","N","N","N","N","N","N","N","N","N","N","N","N","N","N","N","N","N","N","N","N","N","N","N","N","N","N","N","N","N","N","N","N","N","N","N","N","N","N","N","N","N","N","N","N","N","N","N","N","N","N","N","N","N","N","N","N","N","N","N","N","N","N","N","N","N","N","N","N","N","N","N","N","N","N","N","N","N","N","N","N","N","N","N","N","N","N","N","N","N","N","N","N","N","N","N","N","N","N","N","N","N","N","N","N","N","N","N","N","N","N","N","N","N","N","N","N","N","?","?","?","?","?","?","W","W","W","?","?","?","?","?","?","?","?","?","?","?","?","?","?","?","?","?","?","?","?","?","?","?","?","?","?","?","?","?","?","?","?","?","?","?","?","?","?","?","?","?","?","?","?","?","?","?","?","?","?","?","?","?","?","?","?","?","?","?","?","?","?","?","?","?","?","?","?","?","?","?","?","?","?","?","?","?","?","?","?","?","?","?","?","?","?","?","?","?","?","?","?","?","?","?","?","?","?","?","S","S","S","S","S","S","S","S","S","S","S","S","S","S","S","S","S","S","S","S","S","S","S","S","S","S","S","S","S","S","S","S","S","S","S","S","S","S","S","S","S","S","S","S","S","S","S","S","S","S","S","S","S","S","S","S","S","S","S","S","S","S","S","S","S","S","S","S","S","S","S","S","S","S","S","S","S","S","S","S","S","S","S","S","S","S","S","S","S","S","S","S","S","S","S","S","S","S","S","S","S","S","S","S","S","S","S","S","S","S","S","S","S","S","S","S","S","S","S","S","S","S","S","S","?","K","C","D","?","?","?","?","?","?","?","?","?","?","?","?","?","?","?","?","?","?","?","?","?","?","?","?","?","?","?","?","H","H","H","H","H","H","H","H","H","H","H","H","H","H","H","H","H","H","H","H","H","H","H","H","H","H","H","H","H","H","H","H","H","H","H","H","H","H","H","H","H","H","H","?","G","?","?","?","?","?","?","?","?","?","?","?","?","?","?","?","B","B","B","B","B","B","B","B","B","B","B","B","B","B","B","B","B","B","B","B","B","B","B","B","B","B","B","B","B","B","B","B","B","B","B","B","?","?","?","?","A","A","A","A","A","A","A","A","A","A","A","A","A","A","A","A","A","A","A","A","A","A","A","A","A","?","?","?","?","?","?","?","?","B","B","B","B","B","B","?","?","?","C","C","C","C","C","C","C","C","C","C","C","C","C","C","C","C","C","C","C","C","C","C","C","C","C","C","C","C","C","C","C","?","?","?","?","?","B","B","B","B","B","B","B","B","B","B","B","B","B","B","B","B","B","B","B","B","B","B","B","B","B","B","B","B","B","B","B","B","B","B","B","B","B","B","B","B","B","B","B","B","B","B","B","B","B","B","B","B","B","B","B","B","B","B","B","B","B","B","B","B","B","B","B","B","B","B","B","B","B","B","B","B","B","B","B","B","B","B","B","B","B","B","B","B","B","B","B","B","B","B","B","B","B","B","B","B","B","B","B","B","B","B","B","B","B","B","B","B","B","B","B","B","B","B","B","B","B","B","B","B","B","B","B","B","B","B","B","B","B","B","B","B","B","B","B","B","B","B","B","B","B","B","B","B","B","B","B","B","C","N","?","?","Z","Z","Z","Z","Z","Z","Z","Z","Z","Z","Z","Z","Z","Z","Z","Z","Z","Z","Z","Z","?","Q","?","?","?","?","?","?","?","?","?","?","?","?","?","?","?","?","?","?","?","?","?","?","?","?","?","?","?","?","?","P","P","P","P","P","P","P","P","P","P","P","P","P","P","P","P","P","P","P","P","P","P","P","P","P","P","P","P","P","P","P","P","P","P","P","P","P","P","P","P","P","P","P","P","P","P","P","P","P","P","P","P","P","P","P","P","P","P","P","P","P","P","P","P","P","P","P","P","P","P","P","P","P","P","P","P","P","P","P","P","P","P","P","P","P","P","P","P","P","P","P","P","P","P","P","P","P","P","P","P","P","P","P","P","P","P","P","P","P","P","P","P","P","P","P","P","P","P","P","P","P","P","P","P","P","P","P","P","P","P","P","P","P","P","P","P","P","P","P","P","P","P","P","P","P","P","P","P","P","P","P","P","P","P","P","P","P","P","P","P","P","P","P","P","P","P","P","P","P","P","P","P","P","?","?","?","?","?","?","?","Q","Q","Q","Q","Q","Q","Q","Q","Q","Q","?","?","?","?","?","?","?","R","R","R","R","R","R","R","R","R","R","R","R","R","R","R","R","R","R","R","R","R","R","R","R","R","R","R","R","R","R","R","R","R","R","R","R","R","R","R","R","R","R","R","R","R","R","R","R","R","R","R","R","R","R","R","R","R","R","R","R","R","R","R","R","R","R","R","R","R","R","R","R","R","R","R","R","R","R","R","R","R","R","R","R","R","R","R","R","R","R","R","R","R","R","R","R","R","R","R","R","R","R","R","R","R","R","R","R","R","R","R","R","R","R","R","R","R","R","R","R","R","R","R","R","R","R","R","R","R","R","R","R","R","R","R","R","R","R","R","R","R","R","R","R","R","R","R","R","R","R","R","R","R","R","R","R","R","R","R","R","R","R","R","R","R","R","R","R","R","R","R","R","R","R","R","R","R","R","R","R","R","R","R","R","R","R","R","R","R","R","R","R","R","R","R","R","R","R","R","R","R","R","R","R","R","R","R","R","R","R","R","R","R","R","R","R","R","R","R","R","R","R","R","R","R","R","R","R","R","R","R","R","R","R","R","R","R","R","R","R","R","R","R","R","R","R","R","R","R","R","R","R","R","R","R","R","R","R","R","R","R","R","R","R","R","R","R","R","R","R","R","R","R","R","R","R","R","R","R","R","R","R","R","R","R","R","R","R","R","R","R","R","R","R","R","R","R","R","R","R","R","R","R","R","R","R","R","R","R","R","R","R","R","R","R","R","R","R","R","R","R","R","R","R","R","R","R","R","R","R","R","R","R","R","R","R","R","R","R","R","R","R","R","R","R","R","R","R","R","R","R","R","R","R","R","R","R","R","R","R","R","R","R","R","R","R","R","R","R","R","R","R","R","R","R","R","R","R","R","R","R","R","R","R","R","R","R","R","R","R","R","R","R","R","R","R","R","R","R","R","R","R","R","R","R","R","R","R","R","R","R","R","R","R","R","R","R","R","R","R","R","R","R","R","R","R","R","R","R","R","R","R","R","R","R","R","R","R","R","R","R","R","R","R","R","R","R","R","R","R","R","R","R","R","R","R","R","R","R","R","R","R","R","R","R","R","R","R","R","R","R","R","R","R","R","R","R","R","R","R","R","R","R","R","R","R","R","R","R","R","R","R","R","R","R","R","R","R","R","R","R","R","R","R","R","R","R","R","R","R","R","R","R","R","R","R","R","R","R","R","R","R","R","R","R","R","R","R","R","R","R","R","R","R","R","R","R","R","R","R","R","R","R","R","R","R","R","R","R","R","R","R","R","R","R","R","R","R","R","R","R","R","R","R","R","R","R","R","R","R","R","R","R","R","R","R","R","R","R","R","R","R","R","R","R","R","R","R","R","R","R","R","R","R","R","R","R","R","R","R","R","R","R","R","R","R","R","R","R","R","R","R","R","R","R","R","R","R","R","R","R","R","R","R","R","R","R","R","R","R","R","R","R","R","R","R","R","R","R","R","R","R","R","R","R","R","R","R","R","R","R","R","R","R","R","R","R","R","R","R","R","R","R","R","R","R","R","R","R","R","R","R","R","R","R","R","R","R","R","R","R","R","R","R","R","R","R","R","R","R","R","R","R","R","R","R","R","R","R","R","R","R","R","R","R","R","R","R","R","R","R","R","R","R","R","R","R","R","R","R","R","R","R","R","R","R","R","R","R","R","R","R","R","R","R","R","R","R","R","R","R","R","R","R","R","R","R","R","R","R","R","R","R","R","R","R","R","R","R","R","R","R","R","R","R","R","R","R","R","R","R","R","R","R","R","R","R","R","R","R","R","R","R","R","R","R","R","R","R","R","R","R","R","R","R","R","R","R","R","R","R","R","R","R","R","R","R","R","R","R","R","R","R","R","R","R","R","R","R","R","R","R","R","R","R","R","R","R","R","R","R","R","R","R","R","R","R","R","R","R","R","R","R","R","R","R","R","R","R","R","R","R","R","R","R","R","R","R","R","R","R","R","R","R","R","R","R","R","R","R","R","R","R","R","R","R","R","R","R","R","R","R","R","R","R","R","R","R","R","R","R","R","R","R","R","R","R","R","R","R","R","R","R","R","R","R","R","R","R","R","R","R","R","R","R","R","R","R","R","R","R","R","R","R","R","R","R","R","R","R","R","R","R","R","R","R","R","R","R","R","R","R","R","R","R","R","R","R","R","R","R","R","R","R","R","R","R","R","R","R","R","R","R","R","R","R","R","R","R","R","R","R","R","R","R","R","R","R","R","R","R","R","R","R","R","R","R","R","R","R","R","R","R","R","R","R","R","R","R","R","R","R","R","R","R","R","R","R","R","R","R","R","R","R","R","R","R","R","R","R","R","R","R","R","R","R","R","R","R","R","R","R","R","R","R","R","R","R","R","R","R","R","R","R","R","R","R","R","R","R","R","R","R","R","R","R","R","R","R","R","R","R","R","R","R","R","R","R","R","R","R","R","R","R","R","R","R","R","R","R","R","R","R","R","R","R","R","R","R","R","R","R","R","R","R","R","R","R","R","R","R","R","R","R","R","R","R","R","R","R","R","R","R","R","R","R","R","R","R","R","R","R","R","R","R","R","R","R","R","R","R","R","R","R","R","R","R","R","R","R","R","R","R","R","R","R","R","R","R","R","R","R","R","R","R","R","R","R","R","R","R","R","R","R","R","R","R","R","R","R","R","R","R","R","R","R","R","R","R","R","R","R","R","R","R","R","R","R","R","R","R","R","R","R","R","R","R","R","R","R","R","R","R","R","R","R","R","R","R","R","R","R","R","R","R","R","R","R","R","R","R","R","R","R","R","R","R","R","?","?","?","?","?","?","?","?","?","?","?","?","?","?","?","?","?","?","?","?","?","?","?","?","?","?","?","?","?","?","?","?","?","?","?","?","?","?","?","?","?","?","?","?","?","?","?","?","?","?","?","?","?","?","?","?","?","?","?","?","?","?","?","?","?","?","?","?","?","?","?","?","?","?","?","?","?","?","?","?","?","?","?","?","?","?","?","?","?","?","?","?","?","?","A","A","A","A","A","A","A","A","A","A","A","A","A","A","A","A","A","A","A","A","A","A","A","A","A","A","A","A","A","A","A","A","A","A","A","A","A","A","A","A","A","A","A","A","A","A","A","A","A","A","A","A","A","A","A","A","A","A","A","A","A","A","A","A","A","A","A","A","A","A","A","A","A","A","A","A","A","A","A","A","A","A","A","A","A","A","A","A","A","A","A","A","A","A","A","A","A","A","A","A","A","A","A","A","A","A","A","A","A","A","A","A","A","A","A","A","A","A","A","A","A","A","A","A","A","A","A","A","A","A","A","A","A","A","A","A","A","A","A","A","A","A","A","A","A","A","A","A","A","A","A","A","A","A","A","A","A","A","A","A","A","A","A","A","A","A","A","A","A","A","A","A","A","A","A","A","A","A","A","A","A","A","A","A","A","A","A","A","A","A","A","A","A","A","A","A","A","A","A","A","A","A","A","A","A","A","A","A","A","A","A","A","A","A","A","A","A","A","A","A","A","A","A","A","A","A","A","A","A","A","A","A","A","A","A","A","A","A","A","A","A","A","A","A","A","A","A","A","A","A","A","A","A","A","A","A","A","A","A","A","A","A","A","A","A","A","A","A","A","A","A","A","A","A","A","A","A","A","A","A","A","A","A","A","A","A","A","A","A","A","A","A","A","A","A","A","A","A","A","A","A","A","A","A","A","A","A","A","A","A","A","A","A","A","A","A","A","A","A","A","A","A","A","A","A","A","A","A","A","A","A","A","A","A","A","A","A","A","A","A","A","A","A","A","A","A","A","A","A","A","A","A","A","A","A","A","A","A","A","A","A","A","A","A","A","A","A","A","A","A","A","A","A","A","A","A","A","A","A","A","A","A","A","A","A","A","A","A","A","A","A","A","A","A","A","A","A","A","A","A","A","A","A","A","A","A","A","A","A","A","A","A","A","A","A","A","A","A","A","A","A","A","A","A","A","A","A","A","A","A","A","A","A","A","A","A","A","A","A","A","A","A","A","A","A","A","A","A","A","A","A","A","A","A","A","A","A","A","A","A","A","A","A","A","A","A","A","A","A","A","A","A","A","A","A","A","A","A","A","A","A","A","A","A","A","A","A","A","A","A","A","A","A","A","A","A","A","A","A","A","A","A","A","A","A","A","A","A","A","A","A","A","A","A","A","A","A","A","A","A","A","A","A","A","A","A","A","A","A","A","A","A","A","A","A","A","A","A","A","A","A","A","A","A","A","A","A","A","A","A","A","A","A","A","A","A","A","A","A","A","A","A","A","A","A","A","A","A","A","A","A","A","A","A","A","A","A","A","A","A","A","A","A","A","A","A","A","A","A","A","A","A","A","A","A","A","A","A","A","A","A","A","A","A","A","A","A","A","A","A","A","A","A","A","A","A","A","A","A","A","A","A","A","A","A","A","A","A","A","A","A","A","A","A","A","A","A","A","A","A","A","A","A","A","A","A","A","A","A","A","A","A","A","A","A","A","A","A","A","A","A","A","A","A","A","A","A","A","A","A","A","A","A","A","A","A","A","A","A","A","A","A","A","A","A","A","A","A","A","A","A","A","A","A","A","A","A","A","A","A","A","A","A","A","A","A","A","A","A","A","A","A","A","A","A","A","A","A","A","A","A","A","A","A","A","A","A","A","A","A","A","A","A","A","A","A","A","A","A","A","A","A","A","A","A","A","A","A","A","A","A","A","A","A","A","A","A","A","A","A","A","A","A","A","A","A","A","A","A","A","A","A","A","A","A","A","A","A","A","A","A","A","A","A","A","A","A","A","A","A","A","A","A","A","A","A","A","A","A","A","A","A","A","A","A","A","A","A","A","A","A","A","A","A","A","A","A","A","A","A","A","A","A","A","A","A","A","A","A","A","A","A","A","A","A","A","A","A","A","A","A","A","A","A","A","A","A","A","A","A","A","A","A","A","A","A","A","A","A","A","A","A","A","A","A","A","A","A","A","A","A","A","A","A","A","A","A","A","A","A","A","A","A","A","A","A","A","A","A","A","A","A","A","A","A","A","A","A","A","A","A","A","A","A","A","A","A","A","A","A","A","A","A","A","A","A","A","A","A","A","A","A","A","A","A","A","A","A","A","A","A","A","A","A","A","A","A","A","A","A","A","A","A","A","A","A","A","A","A","A","A","A","A","A","A","A","A","A","A","A","A","A","A","A","A","A","A","A","A","A","A","A","A","A","A","A","A","A","A","A","A","A","A","A","A","A","A","A","A","A","A","A","A","A","A","A","A","A","A","A","A","A","A","A","A","A","A","A","A","A","A","A","A","A","A","A","A","A","A","A","A","A","A","A","A","A","A","A","A","A","A","A","A","A","A","A","A","A","A","A","A","A","A","A","A","A","A","A","A","A","A","A","A","A","A","A","A","A","A","A","A","A","A","A","A","A","A","A","A","A","A","A","A","A","A","A","A","A","A","A","A","A","A","A","A","A","A","A","A","A","A","A","A","A","A","A","A","A","A","A","A","A","A","A","A","A","A","A","A","A","A","A","A","A","A","A","A","A","A","A","A","A","A","A","A","A","A","A","A","A","A","A","A","A","A","A","A","A","A","A","A","A","A","A","A","A","A","A","A","A","A","A","A","A","A","A","A","A","A","A","A","A","A","A","A","A","A","A","A","A","A","A","A","A","A","A","A","A","A","A","A","A","A","A","A","A","A","A","A","A","A","A","A","A","A","A","A","A","A","A","A","A","A","A","A","A","A","A","A","A","A","A","A","A","A","A","A","A","A","A","A","A","A","A","A","A","A","A","A","A","A","A","A","A","A","A","A","A","A","A","A","A","A","A","A","A","A","A","A","A","A","A","A","A","A","A","A","A","A","A","A","A","A","A","A","A","A","A","A","A","A","A","A","A","A","A","A","A","A","A","A","A","?","?","?","?","?","?","?","?","?","?","?","B","B","B","B","B","B","B","B","B","B","B","B","B","B","B","B","B","B","B","B","B","B","B","B","B","B","B","B","B","B","B","B","B","B","B","B","B","B","B","B","B","B","B","C","?","?","?","?","?","O","O","?","P","P","P","P","P","?","?","?","?","?","?","?","?","?","?","?","?","?","?","?","?","?","?","?","?","Z","Z","Z","Z","Z","Z","Z","Z","Z","Z","Z","Z","Z","Z","Z","Z","Z","Z","Z","Z","Z","Z","Z","Z","Z","Z","Z","Z","Z","Z","Z","Z","Z","Z","Z","Z","Z","Z","Z","Z","Z","Z","Z","Z","Z","Z","Z","Z","Z","Z","Z","Z","Z","Z","Z","Z","Z","Z","Z","Z","Z","Z","Z","Z","Z","Z","Z","Z","Z","Z","Z","Z","Z","Z","Z","Z","Z","Z","Z","Z","Z","Z","Z","Z","Z","Z","Z","Z","Z","Z","Z","Z","Z","Z","Z","Z","Z","Z","Z","Z","Z","Z","Z","Z","Z","Z","Z","Z","Z","Z","Z","Z","Z","Z","Z","Z","Z","Z","Z","Z","Z","Z","Z","Z","Z","Z","Z","Z","Z","Z","Z","Z","Z","Z","Z","Z","Z","Z","Z","Z","Z","Z","Z","Z","Z","Z","Z","Z","Z","Z","Z","Z","Z","Z","Z","Z","Z","Z","Z","Z","Z","Z","Z","Z","Z","Z","Z","Z","Z","Z","Z","Z","Z"],"t":[46,157,183,199,216,232,250,266,284,300,317,334,351,369,384,404,419,435,452,472,483,501,517,534,550,567,585,600,618,636,651,667,686,701,717,735,749,766,785,802,818,834,850,866,882,900,916,933,951,967,983,1001,1018,1033,1050,1068,1083,1100,1119,1133,1149,1167,1183,1199,1216,1236,1250,1267,1282,1299,1315,1333,1349,1366,1382,1400,1416,1433,1450,1466,1482,1499,1515,1532,1549,1567,1582,1600,1617,1635,1651,1673,1683,1699,1718,1733,1751,1766,1783,1801,1817,1833,1849,1866,1884,1899,1917,1933,1949,1966,1984,2001,2017,2036,2053,2068,2083,2100,2117,2135,2150,2166,2183,2201,2219,2234,2251,2268,2284,2299,2317,2333,2350,2368,2386,2401,2418,2433,2449,2465,2482,2498,2515,2533,2550,2567,2585,2601,2616,2633,2650,2667,2684,2702,2717,2733,2749,2765,2782,2800,2816,2833,2850,2868,2885,2902,2926,2949,2966,2983,3001,3017,3032,3049,3066,3082,3100,3117,3135,3151,3166,3182,3199,3216,3233,3252,3267,3283,3301,3318,3335,3351,3367,3384,3401,3421,3435,3451,3468,3485,3501,3518,3535,3550,3566,3584,3601,3618,3634,3651,3668,3684,3701,3718,3738,3750,3767,3784,3801,3816,3832,3848,3865,3882,3900,3917,3934,3951,3966,3983,4000,4017,4033,4049,4065,4082,4099,4118,4132,4149,4166,4183,4199,4215,4233,4250,4265,4281,4299,4316,4334,4351,4367,4382,4399,4415,4432,4448,4465,4482,4498,4515,4532,4550,4566,4583,4601,4616,4633,4652,4667,4683,4701,4718,4734,4750,4765,4781,4798,4816,4833,4851,4867,4884,4901,4916,4935,4951,4967,4985,5000,5016,5032,5049,5068,5085,5101,5117,5134,5151,5167,5184,5201,5218,5234,5251,5268,5284,5301,5317,5334,5351,5368,5384,5399,5417,5433,5449,5465,5482,5498,5515,5531,5548,5565,5582,5598,5615,5632,5648,5665,5682,5699,5716,5733,5749,5766,5782,5798,5815,5832,5849,5865,5882,5898,5919,5931,5948,5965,5981,5998,6015,6031,6049,6067,6083,6100,6117,6134,6151,6167,6184,6202,6218,6234,6250,6267,6284,6302,6318,6334,6350,6366,6381,6399,6415,6432,6451,6468,6484,6501,6518,6534,6551,6567,6584,6601,6618,6634,6650,6667,6682,6699,6716,6732,6748,6765,6782,6799,6814,6831,6848,6866,6882,6898,6915,6932,6949,6966,6983,6999,7015,7031,7048,7065,7082,7100,7116,7132,7148,7165,7182,7199,7215,7231,7248,7264,7281,7298,7317,7332,7353,7367,7382,7398,7416,7432,7450,7467,7483,7502,7521,7536,7552,7567,7586,7601,7619,7636,7651,7669,7685,7703,7718,7733,7749,7765,7781,7802,7817,7832,7850,7867,7883,7900,7918,7935,7951,7968,7985,8001,8017,8034,8051,8068,8085,8101,8118,8133,8151,8168,8184,8201,8218,8235,8251,8268,8285,8301,8318,8334,8351,8368,8383,8399,8416,8434,8452,8468,8483,8500,8516,8533,8551,8567,8582,8599,8616,8632,8648,8666,8681,8698,8716,8734,8751,8765,8783,8798,8815,8832,8848,8865,8882,8898,8915,8935,8950,8966,8982,8999,9016,9034,9052,9067,9084,9101,9118,9134,9150,9167,9183,9200,9218,9233,9249,9265,9282,9299,9317,9333,9349,9365,9382,9400,9417,9435,9450,9466,9484,9502,9517,9534,9551,9566,9582,9600,9615,9633,9649,9666,9684,9700,9718,9735,9750,9767,9783,9800,9818,9834,9852,9868,9883,9899,9917,9933,9950,9966,9984,10000,10017,10035,10053,10067,10083,10098,10115,10132,10148,10165,10183,10199,10215,10232,10249,10265,10282,10301,10315,10333,10349,10367,10382,10400,10418,10433,10448,10466,10483,10499,10515,10531,10549,10566,10583,10599,10616,10633,10651,10666,10684,10699,10717,10733,10748,10765,10781,10798,10815,10834,10851,10867,10884,10900,10917,10933,10952,10968,10983,10998,11016,11032,11050,11068,11085,11102,11118,11135,11151,11169,11184,11202,11218,11235,11253,11268,11282,11298,11315,11333,11350,11366,11383,11399,11416,11434,11451,11468,11483,11501,11518,11551,11566,11582,11600,11617,11633,11650,11667,11684,11701,11718,11735,11750,11766,11782,11800,11816,11833,11850,11867,11883,11899,11916,11934,11950,11968,11984,12001,12017,12034,12050,12067,12082,12100,12117,12134,12151,12166,12184,12200,12217,12234,12249,12265,12281,12298,12316,12333,12350,12365,12383,12398,12415,12431,12448,12464,12481,12499,12516,12531,12548,12566,12583,12599,12617,12633,12649,12666,12683,12699,12715,12732,12749,12766,12784,12801,12817,12834,12851,12868,12884,12900,12917,12935,12951,12968,12990,13003,13015,13033,13051,13067,13086,13102,13118,13136,13152,13168,13186,13202,13218,13236,13254,13269,13286,13302,13321,13335,13353,13368,13385,13402,13419,13435,13451,13468,13485,13503,13518,13536,13553,13568,13584,13601,13618,13634,13652,13668,13684,13702,13718,13736,13749,13767,13783,13802,13817,13834,13851,13868,13884,13901,13917,13935,13952,13967,13983,14000,14018,14033,14049,14067,14083,14100,14118,14134,14151,14167,14185,14201,14218,14234,14250,14267,14284,14299,14317,14335,14350,14367,14385,14400,14417,14433,14448,14465,14483,14499,14516,14532,14550,14567,14584,14602,14619,14635,14651,14668,14685,14701,14719,14735,14754,14766,14781,14798,14816,14833,14849,14867,14883,14901,14918,14934,14952,14968,14984,15001,15017,15033,15050,15066,15083,15099,15115,15133,15149,15166,15184,15200,15217,15233,15249,15266,15289,15314,15331,15348,15364,15381,15399,15416,15433,15450,15467,15484,15500,15518,15535,15550,15567,15585,15599,15617,15634,15650,15667,15683,15700,15716,15735,15750,15766,15783,15800,15816,15833,15850,15866,15883,15901,15919,15934,15948,15964,15982,15999,16016,16032,16049,16066,16082,16100,16118,16133,16150,16167,16185,16200,16217,16233,16248,16265,16281,16298,16315,16332,16348,16364,16382,16399,16416,16432,16449,16465,16482,16499,16516,16533,16549,16565,16583,16601,16618,16634,16650,16667,16682,16699,16716,16732,16748,16765,16782,16799,16814,16831,16849,16866,16883,16898,16915,16932,16949,16966,16982,16999,17015,17032,17049,17065,17081,17098,17114,17131,17148,17164,17181,17198,17215,17231,17250,17265,17282,17299,17316,17333,17350,17367,17384,17400,17418,17431,17448,17465,17483,17500,17517,17534,17550,17567,17582,17599,17617,17634,17650,17666,17682,17700,17717,17734,17750,17767,17784,17801,17818,17832,17847,17864,17881,17898,17916,17933,17951,17967,17983,18001,18017,18034,18051,18068,18084,18104,18115,18131,18149,18165,18183,18200,18217,18233,18250,18269,18283,18300,18317,18334,18350,18368,18383,18398,18414,18435,18447,18470,18487,18499,18514,18536,18548,18565,18581,18597,18614,18631,18647,18665,18681,18704,18716,18732,18753,18772,18803,18831,18848,18867,18882,18899,18921,18936,18950,18965,18981,18999,19015,19031,19048,19065,19081,19098,19114,19131,19148,19165,19181,19198,19215,19235,19248,19264,19281,19300,19315,19331,19368,19382,19398,19416,19432,19448,19465,19482,19498,19515,19531,19549,19565,19581,19600,19615,19631,19649,19666,19683,19700,19716,19731,19748,19766,19781,19799,19817,19833,19850,19866,19884,19901,19915,19933,19949,19967,19984,19999,20016,20033,20051,20066,20084,20100,20116,20133,20151,20167,20184,20202,20216,20234,20250,20267,20284,20299,20317,20335,20348,20366,20383,20399,20418,20433,20450,20468,20484,20501,20517,20534,20551,20568,20585,20601,20618,20634,20651,20668,20684,20701,20718,20734,20748,20765,20781,20798,20815,20832,20849,20866,20881,20898,20915,20933,20950,20966,20984,21000,21016,21034,21051,21068,21083,21102,21118,21133,21150,21167,21184,21202,21216,21233,21249,21265,21281,21300,21315,21331,21349,21365,21383,21399,21416,21434,21451,21469,21483,21501,21517,21534,21550,21566,21583,21601,21618,21632,21649,21665,21683,21699,21715,21732,21751,21764,21781,21798,21815,21832,21849,21867,21884,21901,21918,21934,21952,21967,21984,22001,22017,22033,22050,22066,22084,22101,22118,22134,22150,22167,22182,22199,22217,22232,22250,22267,22286,22299,22316,22332,22348,22365,22383,22400,22416,22433,22448,22464,22482,22500,22517,22534,22552,22567,22584,22601,22625,22633,22650,22668,22684,22701,22718,22734,22751,22767,22784,22801,22818,22835,22851,22868,22884,22901,22917,22934,22951,22967,22984,23001,23018,23034,23051,23067,23084,23101,23118,23135,23151,23168,23190,23214,23231,23249,23265,23283,23300,23317,23333,23350,23367,23383,23400,23418,23432,23448,23464,23481,23498,23515,23532,23548,23564,23581,23598,23615,23632,23648,23666,23682,23700,23716,23732,23749,23764,23780,23797,23814,23831,23847,23864,23881,23898,23914,23930,23947,23964,23981,23998,24016,24032,24050,24067,24084,24100,24117,24133,24148,24164,24180,24198,24215,24232,24249,24266,24281,24299,24316,24332,24349,24366,24383,24400,24416,24433,24450,24466,24483,24498,24515,24532,24551,24566,24583,24598,24614,24632,24650,24666,24682,24701,24714,24730,24747,24764,24781,24798,24817,24833,24849,24865,24882,24899,24916,24934,24951,24966,24983,24999,25016,25033,25051,25066,25083,25099,25116,25133,25150,25167,25182,25199,25214,25232,25249,25265,25282,25298,25316,25333,25350,25367,25384,25398,25415,25431,25449,25468,25483,25499,25517,25533,25548,25566,25582,25598,25614,25632,25649,25665,25682,25700,25715,25732,25748,25764,25781,25799,25816,25832,25851,25868,25882,25900,25916,25932,25950,25966,25982,25999,26016,26032,26049,26065,26081,26098,26116,26134,26148,26164,26181,26198,26215,26232,26249,26264,26282,26299,26315,26332,26349,26367,26382,26399,26416,26431,26450,26465,26481,26497,26514,26532,26550,26567,26582,26599,26617,26634,26649,26666,26684,26700,26715,26731,26748,26765,26783,26798,26817,26834,26850,26867,26884,26901,26917,26933,26950,26967,26984,27000,27016,27031,27049,27066,27083,27100,27117,27131,27150,27166,27183,27200,27216,27233,27250,27267,27283,27300,27317,27333,27350,27365,27381,27399,27415,27433,27450,27467,27484,27497,27514,27532,27549,27567,27583,27606,27617,27632,27649,27668,27685,27700,27718,27735,27750,27767,27784,27800,27818,27834,27849,27865,27883,27900,27918,27933,27950,27966,27984,27999,28016,28033,28051,28069,28084,28102,28116,28133,28148,28165,28182,28200,28216,28232,28250,28267,28284,28300,28316,28335,28349,28366,28383,28399,28416,28434,28451,28467,28485,28500,28517,28533,28550,28568,28584,28601,28616,28633,28651,28666,28683,28702,28716,28731,28749,28765,28782,28799,28818,28832,28849,28867,28883,28900,28917,28933,28949,28966,28984,29005,29016,29033,29053,29081,29098,29115,29131,29149,29165,29182,29200,29216,29233,29251,29266,29283,29302,29315,29331,29348,29365,29381,29398,29415,29431,29449,29465,29483,29499,29515,29531,29548,29566,29582,29599,29617,29633,29650,29665,29681,29699,29717,29734,29749,29766,29784,29799,29815,29833,29848,29865,29884,29900,29916,29933,29950,29965,29981,29999,30016,30032,30049,30065,30083,30099,30114,30130,30147,30163,30180,30197,30214,30232,30248,30268,30282,30298,30315,30331,30348,30364,30381,30399,30416,30435,30452,30464,30481,30497,30514,30531,30548,30566,30582,30600,30615,30633,30649,30665,30681,30697,30713,30730,30747,30764,30780,30797,30814,30830,30847,30865,30881,30898,30916,30932,30949,30964,30981,30998,31016,31033,31050,31066,31083,31099,31115,31132,31149,31165,31182,31199,31216,31233,31250,31266,31283,31299,31317,31332,31348,31365,31382,31400,31417,31433,31451,31466,31483,31500,31517,31532,31547,31563,31580,31598,31615,31633,31651,31666,31683,31700,31716,31733,31749,31764,31781,31799,31816,31832,31848,31864,31882,31899,31914,31931,31949,31963,31980,31997,32014,32031,32048,32064,32080,32097,32114,32131,32148,32166,32184,32198,32216,32233,32250,32266,32283,32299,32316,32334,32348,32364,32382,32398,32414,32431,32449,32465,32481,32498,32515,32532,32549,32565,32581,32598,32615,32632,32649,32667,32683,32700,32717,32733,32750,32765,32782,32797,32815,32833,32849,32866,32883,32899,32916,32933,32950,32967,32983,32999,33016,33032,33049,33065,33082,33099,33115,33131,33148,33166,33182,33197,33215,33231,33250,33267,33283,33299,33315,33330,33348,33364,33380,33397,33413,33430,33447,33465,33482,33498,33514,33533,33549,33566,33582,33599,33616,33632,33649,33664,33682,33698,33714,33731,33747,33764,33782,33798,33815,33830,33846,33864,33881,33897,33915,33931,33948,33964,33981,33998,34016,34031,34048,34065,34084,34099,34116,34131,34147,34164,34182,34198,34214,34230,34247,34264,34280,34297,34314,34330,34347,34364,34380,34398,34415,34431,34448,34465,34481,34497,34514,34530,34547,34564,34583,34598,34615,34632,34648,34664,34683,34697,34714,34731,34755,34780,34797,34814,34830,34848,34865,34882,34899,34915,34931,34949,34966,34982,34999,35016,35032,35048,35067,35082,35099,35117,35132,35148,35166,35182,35199,35215,35233,35249,35265,35281,35298,35314,35330,35347,35363,35381,35397,35414,35431,35448,35465,35482,35500,35515,35532,35549,35566,35581,35596,35613,35630,35647,35665,35681,35697,35714,35730,35747,35764,35781,35798,35816,35832,35847,35866,35884,35901,35915,35931,35947,35964,35981,35999,36015,36030,36047,36063,36080,36098,36114,36130,36148,36166,36187,36214,36230,36247,36265,36281,36298,36315,36331,36348,36366,36383,36398,36416,36433,36448,36465,36481,36497,36515,36531,36548,36566,36582,36598,36616,36632,36649,36666,36683,36699,36716,36733,36750,36764,36781,36799,36816,36833,36849,36866,36883,36899,36916,36933,36949,36966,36983,36998,37016,37033,37049,37066,37083,37099,37115,37131,37150,37165,37183,37199,37215,37233,37247,37263,37281,37297,37313,37330,37348,37365,37382,37399,37415,37433,37449,37466,37482,37499,37516,37531,37547,37563,37581,37597,37619,37630,37648,37665,37682,37699,37716,37736,37749,37766,37784,37800,37818,37833,37848,37867,37884,37901,37918,37932,37949,37966,37984,37999,38016,38033,38049,38065,38084,38099,38117,38134,38148,38166,38184,38199,38215,38232,38249,38266,38283,38303,38317,38334,38351,38366,38383,38400,38414,38431,38450,38466,38482,38499,38515,38532,38548,38565,38581,38598,38613,38631,38648,38664,38680,38697,38717,38733,38748,38766,38782,38799,38816,38832,38848,38865,38882,38899,38915,38933,38950,38966,38982,38999,39016,39030,39048,39065,39082,39098,39115,39131,39148,39166,39180,39197,39214,39231,39248,39265,39281,39297,39315,39332,39358,39381,39399,39416,39432,39449,39466,39483,39499,39516,39533,39549,39566,39582,39599,39616,39632,39647,39663,39680,39697,39714,39731,39747,39764,39781,39797,39814,39830,39846,39864,39880,39896,39913,39930,39946,39963,39980,39997,40013,40030,40046,40063,40080,40097,40113,40130,40147,40163,40179,40196,40213,40229,40246,40264,40280,40297,40314,40330,40347,40364,40380,40396,40414,40430,40448,40463,40480,40496,40513,40530,40546,40563,40580,40596,40613,40630,40647,40663,40680,40696,40713,40729,40746,40763,40779,40796,40813,40830,40847,40864,40882,40899,40916,40932,40948,40963,40979,40996,41013,41030,41046,41063,41080,41096,41113,41131,41149,41166,41183,41199,41215,41232,41249,41266,41282,41299,41315,41333,41349,41365,41382,41399,41415,41433,41449,41466,41481,41498,41514,41533,41549,41566,41581,41599,41616,41632,41648,41665,41682,41698,41716,41732,41747,41764,41782,41798,41816,41832,41848,41864,41881,41897,41913,41932,41947,41965,41983,41998,42015,42032,42049,42065,42082,42099,42114,42130,42147,42163,42180,42197,42213,42230,42247,42263,42280,42296,42314,42330,42346,42363,42380,42396,42413,42430,42446,42463,42480,42496,42513,42530,42548,42564,42581,42597,42614,42633,42649,42666,42681,42697,42714,42731,42749,42763,42780,42797,42813,42830,42846,42863,42879,42896,42913,42930,42946,42963,42979,42996,43014,43030,43046,43063,43080,43096,43113,43130,43146,43163,43180,43197,43213,43229,43246,43263,43279,43296,43313,43329,43346,43363,43380,43396,43413,43429,43446,43463,43479,43496,43513,43529,43546,43563,43579,43596,43613,43630,43646,43663,43679,43696,43713,43729,43746,43763,43780,43796,43813,43830,43847,43863,43880,43897,43913,43929,43946,43963,43979,43996,44013,44029,44046,44063,44080,44096,44113,44129,44146,44163,44180,44196,44213,44229,44246,44263,44280,44296,44313,44330,44346,44363,44380,44396,44413,44429,44446,44463,44479,44497,44513,44530,44547,44563,44579,44596,44613,44629,44647,44663,44680,44696,44713,44730,44761,44779,44796,44813,44829,44846,44864,44880,44896,44913,44929,44946,44963,44980,44996,45013,45029,45046,45063,45079,45096,45113,45130,45146,45163,45179,45196,45213,45229,45246,45263,45279,45296,45313,45329,45346,45363,45380,45396,45413,45429,45446,45463,45479,45496,45513,45530,45548,45565,45581,45599,45616,45632,45649,45666,45683,45699,45715,45731,45747,45765,45781,45798,45816,45832,45848,45865,45882,45899,45916,45933,45947,45963,45979,45996,46013,46029,46046,46063,46080,46096,46113,46129,46146,46163,46181,46196,46214,46230,46248,46265,46282,46299,46316,46332,46349,46365,46383,46399,46415,46433,46449,46466,46483,46498,46515,46533,46549,46566,46582,46599,46616,46633,46649,46666,46682,46699,46715,46732,46748,46764,46781,46799,46815,46832,46849,46866,46882,46899,46916,46932,46949,46965,46980,46996,47014,47031,47047,47064,47081,47097,47115,47131,47148,47165,47182,47199,47216,47231,47246,47264,47281,47297,47315,47332,47349,47364,47381,47397,47414,47431,47448,47465,47482,47499,47516,47531,47549,47575,47587,47615,47632,47648,47665,47682,47698,47714,47729,47746,47763,47780,47798,47815,47832,47849,47865,47882,47899,47915,47932,47949,47966,47981,47997,48016,48032,48049,48066,48082,48099,48116,48129,48148,48164,48181,48197,48215,48232,48249,48267,48281,48298,48315,48331,48349,48366,48381,48399,48416,48433,48448,48466,48482,48499,48516,48532,48549,48566,48582,48599,48615,48630,48647,48664,48682,48699,48716,48733,48748,48763,48781,48797,48815,48832,48848,48865,48882,48899,48923,48934,48950,48964,48983,49000,49016,49032,49049,49067,49082,49099,49118,49134,49150,49166,49182,49199,49216,49233,49249,49266,49284,49298,49313,49330,49348,49365,49383,49399,49415,49432,49449,49467,49484,49500,49517,49533,49549,49566,49583,49600,49618,49633,49650,49667,49683,49699,49715,49733,49749,49765,49783,49800,49817,49834,49849,49867,49884,49901,49917,49933,49950,49968,49982,49999,50016,50033,50049,50066,50083,50099,50116,50133,50149,50166,50183,50200,50216,50233,50250,50267,50283,50300,50316,50332,50349,50371,50397,50414,50431,50449,50465,50482,50499,50516,50532,50549,50565,50582,50598,50614,50631,50648,50665,50682,50699,50715,50732,50748,50765,50783,50798,50813,50829,50846,50863,50881,50898,50915,50932,50949,50965,50982,50999,51015,51031,51048,51065,51082,51099,51116,51132,51149,51165,51182,51197,51216,51232,51249,51266,51282,51298,51314,51330,51346,51364,51379,51397,51414,51431,51448,51465,51482,51499,51516,51532,51549,51565,51582,51599,51615,51632,51648,51665,51682,51699,51716,51732,51747,51762,51779,51795,51812,51829,51846,51863,51881,51898,51916,51931,51949,51965,51982,51999,52014,52031,52050,52065,52082,52098,52116,52132,52148,52165,52182,52199,52214,52231,52248,52265,52282,52299,52316,52333,52349,52365,52382,52399,52417,52431,52447,52465,52482,52499,52515,52530,52547,52565,52582,52599,52615,52632,52649,52666,52682,52699,52716,52732,52750,52763,52781,52797,52815,52832,52848,52865,52882,52898,52915,52932,52948,52964,52981,52997,53014,53032,53049,53065,53082,53099,53115,53132,53149,53164,53182,53198,53222,53233,53248,53263,53280,53299,53316,53332,53349,53365,53382,53398,53415,53432,53447,53463,53481,53496,53515,53532,53548,53566,53582,53599,53615,53632,53648,53665,53682,53699,53715,53732,53747,53764,53780,53799,53815,53832,53849,53864,53880,53898,53915,53932,53948,53965,53982,53999,54015,54032,54049,54066,54082,54099,54114,54131,54147,54165,54181,54199,54215,54232,54248,54266,54282,54299,54315,54331,54348,54365,54382,54398,54415,54432,54448,54465,54482,54498,54516,54532,54549,54565,54582,54599,54615,54632,54649,54664,54680,54707,54730,54747,54764,54781,54799,54815,54832,54849,54865,54882,54899,54915,54932,54948,54965,54982,54998,55015,55032,55049,55065,55082,55099,55115,55132,55148,55165,55182,55198,55215,55232,55248,55265,55282,55298,55315,55331,55347,55365,55381,55397,55415,55431,55448,55466,55482,55497,55513,55532,55549,55565,55582,55598,55615,55632,55648,55665,55682,55698,55715,55732,55751,55762,55779,55797,55813,55850,55872,55899,55912,55929,55946,55962,55979,55995,56012,56029,56046,56062,56079,56096,56114,56130,56147,56162,56179,56198,56213,56230,56249,56264,56281,56297,56314,56332,56347,56365,56381,56398,56415,56432,56448,56465,56481,56497,56514,56532,56549,56564,56580,56596,56613,56629,56648,56664,56680,56698,56714,56730,56747,56764,56781,56798,56815,56832,56848,56864,56881,56897,56914,56930,56949,56964,56981,56998,57015,57032,57048,57065,57082,57098,57115,57132,57148,57165,57182,57198,57216,57232,57248,57265,57281,57297,57314,57330,57347,57364,57382,57398,57415,57432,57448,57464,57482,57498,57514,57532,57549,57569,57580,57599,57613,57630,57648,57665,57682,57698,57714,57731,57746,57764,57782,57797,57815,57832,57847,57864,57880,57897,57915,57930,57948,57965,57982,57998,58015,58030,58047,58064,58082,58098,58115,58132,58148,58164,58180,58196,58213,58231,58246,58263,58281,58298,58315,58332,58348,58365,58381,58398,58415,58432,58448,58465,58481,58498,58515,58532,58548,58565,58581,58598,58615,58633,58645,58664,58681,58698,58715,58731,58747,58764,58782,58797,58815,58831,58848,58865,58882,58898,58915,58932,58948,58965,58982,58998,59016,59030,59046,59063,59081,59097,59115,59131,59148,59165,59181,59199,59215,59232,59249,59265,59282,59298,59315,59330,59347,59364,59381,59397,59412,59430,59448,59464,59482,59498,59515,59532,59548,59564,59582,59598,59615,59631,59648,59665,59681,59697,59715,59731,59747,59763,59780,59797,59815,59831,59848,59865,59881,59896,59912,59929,59947,59965,59980,59998,60014,60030,60047,60065,60082,60098,60115,60132,60148,60166,60183,60198,60212,60229,60245,60263,60280,60298,60314,60331,60348,60365,60383,60397,60415,60436,60448,60462,60479,60496,60515,60529,60545,60562,60579,60596,60612,60628,60646,60664,60680,60698,60715,60732,60747,60764,60782,60799,60815,60831,60848,60865,60882,60898,60915,60931,60948,60965,60981,60999,61015,61032,61048,61065,61081,61098,61115,61131,61148,61165,61183,61198,61215,61232,61248,61265,61282,61298,61315,61331,61348,61363,61382,61398,61414,61432,61448,61465,61482,61498,61515,61531,61547,61565,61581,61597,61613,61630,61647,61665,61681,61697,61714,61730,61746,61763,61779,61797,61814,61833,61846,61862,61879,61897,61913,61931,61948,61965,61982,61998,62015,62031,62048,62064,62080,62098,62115,62132,62148,62165,62181,62200,62215,62231,62248,62265,62282,62299,62315,62331,62347,62365,62381,62399,62415,62431,62446,62465,62480,62497,62515,62531,62548,62565,62581,62598,62614,62630,62647,62663,62680,62696,62713,62729,62746,62763,62780,62796,62813,62829,62845,62862,62879,62895,62912,62929,62945,62962,62979,62996,63013,63029,63047,63062,63079,63096,63114,63129,63145,63162,63179,63195,63212,63229,63245,63262,63279,63295,63312,63328,63345,63362,63379,63395,63412,63429,63445,63462,63479,63495,63512,63529,63545,63562,63579,63595,63612,63629,63646,63662,63679,63695,63712,63728,63745,63763,63778,63795,63812,63828,63845,63862,63879,63895,63912,63928,63945,63962,63979,63995,64012,64029,64046,64062,64079,64096,64112,64128,64145,64162,64179,64195,64212,64228,64245,64262,64279,64295,64312,64329,64345,64362,64378,64395,64412,64429,64445,64462,64479,64495,64512,64529,64546,64562,64580,64595,64612,64629,64646,64663,64681,64698,64714,64731,64746,64763,64780,64798,64814,64831,64847,64865,64881,64898,64915,64931,64948,64964,64981,64998,65015,65032,65048,65064,65080,65096,65113,65132,65148,65163,65180,65196,65213,65230,65246,65262,65279,65297,65313,65329,65345,65362,65379,65396,65412,65430,65447,65465,65479,65496,65513,65528,65545,65562,65578,65595,65612,65628,65645,65661,65680,65695,65712,65728,65746,65762,65779,65795,65812,65828,65845,65862,65878,65895,65912,65928,65945,65962,65978,65995,66011,66028,66045,66061,66079,66095,66112,66129,66145,66162,66179,66196,66213,66229,66245,66262,66279,66296,66314,66331,66346,66363,66379,66396,66413,66431,66448,66463,66480,66497,66514,66531,66547,66564,66580,66598,66614,66631,66647,66665,66679,66695,66713,66729,66746,66762,66778,66795,66812,66828,66845,66861,66878,66895,66913,66929,66947,66963,66981,66998,67014,67031,67048,67063,67081,67098,67114,67131,67148,67164,67181,67197,67214,67232,67248,67264,67283,67299,67314,67331,67350,67362,67380,67397,67423,67448,67465,67481,67498,67515,67531,67547,67562,67581,67597,67615,67631,67647,67665,67681,67698,67715,67731,67746,67764,67779,67796,67814,67830,67846,67864,67881,67898,67915,67931,67948,67966,67979,67995,68011,68029,68046,68062,68080,68097,68114,68131,68148,68165,68180,68198,68214,68231,68248,68264,68281,68298,68315,68331,68348,68365,68381,68398,68415,68431,68447,68464,68481,68498,68514,68531,68548,68564,68582,68596,68611,68629,68648,68664,68682,68697,68714,68731,68753,68779,68796,68813,68831,68848,68864,68882,68898,68914,68931,68947,68964,68979,68996,69013,69031,69048,69065,69081,69098,69115,69131,69148,69164,69181,69197,69213,69231,69248,69263,69280,69297,69313,69331,69348,69365,69381,69397,69415,69431,69448,69464,69481,69497,69513,69531,69548,69564,69581,69600,69614,69631,69648,69664,69681,69696,69714,69730,69746,69763,69780,69796,69814,69831,69848,69865,69881,69898,69914,69931,69948,69964,69979,69997,70015,70031,70047,70063,70081,70096,70113,70131,70148,70165,70188,70212,70230,70247,70263,70281,70298,70315,70330,70347,70363,70381,70398,70415,70431,70447,70464,70481,70498,70515,70530,70548,70564,70581,70598,70616,70631,70648,70665,70681,70698,70715,70731,70748,70762,70779,70796,70811,70828,70846,70864,70881,70898,70914,70931,70948,70964,70981,70998,71014,71031,71048,71064,71081,71098,71113,71131,71148,71163,71181,71198,71216,71231,71248,71264,71281,71297,71314,71332,71347,71365,71380,71398,71414,71431,71446,71462,71481,71498,71514,71532,71548,71564,71581,71598,71629,71645,71663,71680,71697,71714,71731,71748,71763,71779,71798,71814,71831,71848,71864,71881,71898,71913,71930,71947,71964,71981,71996,72013,72028,72044,72061,72079,72096,72114,72130,72146,72163,72181,72198,72214,72231,72247,72264,72281,72297,72314,72330,72347,72365,72379,72396,72413,72431,72447,72465,72479,72495,72511,72528,72545,72562,72580,72597,72614,72631,72649,72664,72681,72697,72715,72731,72749,72763,72778,72796,72814,72830,72846,72862,72879,72897,72913,72930,72947,72964,72980,72999,73013,73028,73045,73062,73079,73097,73114,73131,73148,73164,73180,73196,73214,73231,73248,73264,73281,73298,73314,73331,73348,73364,73381,73397,73413,73431,73446,73463,73480,73497,73514,73531,73547,73564,73581,73597,73614,73631,73648,73665,73680,73697,73714,73731,73747,73763,73780,73797,73814,73831,73847,73864,73881,73898,73914,73931,73947,73964,73981,73999,74013,74030,74047,74064,74081,74098,74114,74131,74148,74163,74179,74197,74213,74230,74246,74262,74281,74297,74314,74330,74346,74363,74399,74411,74428,74445,74462,74481,74497,74514,74531,74547,74564,74582,74598,74614,74631,74648,74663,74681,74697,74713,74729,74744,74762,74779,74795,74812,74830,74846,74864,74881,74897,74913,74931,74948,74964,74981,74998,75014,75031,75047,75064,75081,75097,75114,75131,75148,75164,75181,75198,75214,75229,75247,75264,75281,75298,75315,75331,75347,75364,75381,75398,75414,75431,75452,75466,75482,75500,75515,75532,75549,75566,75581,75599,75616,75630,75649,75665,75681,75697,75715,75732,75749,75763,75779,75796,75814,75832,75847,75865,75882,75898,75914,75933,75950,75964,75981,75999,76015,76033,76049,76067,76079,76095,76112,76129,76146,76164,76181,76198,76214,76229,76247,76264,76281,76298,76314,76331,76349,76364,76381,76398,76415,76431,76448,76465,76482,76499,76516,76531,76549,76565,76581,76598,76615,76632,76649,76665,76681,76698,76715,76732,76748,76764,76782,76798,76814,76832,76847,76865,76882,76898,76915,76931,76948,76966,76981,76998,77014,77031,77048,77065,77081,77099,77115,77131,77145,77162,77182,77198,77215,77232,77248,77264,77281,77298,77314,77330,77349,77364,77381,77398,77415,77431,77448,77465,77482,77499,77514,77533,77547,77565,77581,77598,77615,77631,77649,77664,77681,77698,77715,77731,77747,77764,77781,77797,77814,77831,77847,77864,77882,77898,77914,77931,77948,77965,77981,77998,78015,78032,78048,78065,78081,78098,78116,78131,78145,78163,78181,78198,78215,78232,78248,78264,78282,78298,78315,78331,78349,78365,78381,78399,78415,78432,78449,78465,78481,78498,78516,78531,78549,78563,78578,78597,78615,78631,78647,78664,78681,78699,78714,78731,78747,78764,78781,78798,78815,78831,78848,78865,78882,78899,78915,78932,78947,78965,78981,78998,79015,79030,79048,79065,79082,79098,79114,79132,79148,79165,79182,79198,79214,79232,79248,79266,79282,79298,79315,79332,79348,79365,79381,79398,79414,79432,79449,79464,79480,79498,79513,79532,79548,79564,79582,79598,79615,79632,79648,79665,79681,79698,79714,79731,79748,79764,79780,79799,79813,79831,79847,79864,79881,79899,79913,79931,79949,79967,79981,79999,80012,80030,80048,80064,80082,80097,80112,80129,80145,80162,80180,80197,80214,80232,80248,80265,80281,80297,80314,80332,80348,80364,80382,80398,80414,80432,80448,80464,80481,80499,80514,80532,80548,80565,80581,80597,80615,80631,80648,80664,80681,80698,80715,80731,80747,80765,80782,80798,80814,80831,80848,80864,80882,80898,80914,80932,80948,80964,80981,80999,81014,81031,81048,81065,81081,81100,81114,81131,81148,81164,81181,81199,81215,81235,81248,81264,81282,81300,81314,81332,81348,81365,81381,81401,81413,81428,81447,81464,81481,81498,81515,81531,81549,81563,81581,81598,81614,81631,81648,81664,81681,81697,81714,81731,81746,81764,81781,81798,81815,81831,81848,81865,81882,81897,81914,81931,81948,81964,81981,82000,82014,82031,82048,82064,82081,82098,82115,82131,82147,82165,82181,82198,82215,82230,82248,82265,82281,82298,82315,82331,82348,82364,82381,82398,82414,82431,82447,82465,82481,82498,82515,82531,82548,82565,82581,82597,82615,82632,82647,82665,82681,82698,82714,82732,82748,82763,82778,82794,82811,82829,82847,82865,82881,82898,82914,82932,82947,82967,82980,82998,83014,83032,83048,83064,83082,83097,83115,83133,83147,83165,83184,83198,83214,83232,83249,83265,83280,83299,83315,83331,83348,83364,83381,83398,83414,83431,83447,83474,83497,83514,83531,83547,83564,83580,83597,83614,83630,83647,83664,83680,83697,83714,83730,83746,83761,83779,83797,83814,83831,83847,83863,83881,83897,83914,83931,83947,83963,83979,83996,84013,84029,84048,84064,84079,84095,84113,84129,84146,84162,84179,84195,84215,84227,84244,84261,84278,84296,84313,84330,84347,84364,84380,84397,84413,84431,84447,84462,84480,84497,84513,84529,84545,84561,84579,84596,84614,84629,84645,84662,84678,84696,84713,84730,84746,84762,84780,84797,84814,84829,84846,84863,84879,84896,84913,84930,84946,84963,84978,84994,85011,85029,85045,85063,85079,85097,85113,85129,85146,85164,85181,85197,85212,85228,85245,85262,85279,85296,85314,85330,85348,85363,85380,85396,85413,85430,85448,85462,85479,85494,85511,85529,85547,85562,85589,85611,85629,85644,85662,85678,85696,85714,85730,85747,85762,85777,85795,85816,85828,85844,85861,85877,85894,85911,85928,85944,85961,85978,85994,86011,86027,86044,86061,86077,86095,86112,86129,86146,86162,86177,86194,86211,86227,86244,86261,86278,86294,86310,86328,86344,86361,86378,86394,86412,86430,86447,86464,86481,86497,86511,86527,86544,86561,86578,86595,86612,86629,86646,86662,86679,86698,86713,86729,86745,86762,86778,86795,86812,86827,86844,86862,86878,86895,86911,86927,86944,86961,86978,86994,87012,87029,87045,87062,87080,87095,87113,87129,87145,87163,87179,87196,87212,87228,87245,87261,87278,87295,87312,87329,87346,87362,87380,87396,87412,87428,87445,87463,87479,87496,87514,87529,87545,87562,87578,87595,87613,87629,87645,87661,87678,87694,87711,87728,87744,87761,87779,87797,87812,87829,87845,87861,87878,87895,87912,87929,87946,87962,87979,87995,88011,88028,88046,88062,88079,88096,88112,88128,88146,88162,88179,88195,88211,88227,88245,88261,88278,88294,88311,88329,88346,88362,88380,88396,88414,88430,88447,88462,88480,88495,88512,88530,88546,88562,88578,88594,88611,88627,88645,88662,88679,88695,88712,88732,88749,88761,88778,88794,88811,88827,88847,88861,88878,88894,88911,88928,88944,88961,88977,88994,89010,89027,89044,89060,89077,89095,89113,89131,89148,89164,89181,89197,89214,89231,89247,89264,89280,89297,89314,89329,89346,89364,89380,89397,89415,89429,89446,89463,89481,89496,89512,89528,89545,89562,89578,89596,89612,89631,89644,89661,89678,89695,89712,89728,89745,89762,89780,89797,89814,89830,89846,89861,89878,89897,89913,89930,89947,89964,89981,89997,90014,90029,90046,90064,90080,90096,90114,90130,90150],"hit":[null],"x":[-2.693877551020408,-2.693877551020408,-2.693877551020408,-2.693877551020408,-2.693877551020408,-2.693877551020408,-2.693877551020408,-2.693877551020408,-2.693877551020408,-2.693877551020408,-2.693877551020408,-2.693877551020408,-2.693877551020408,-2.693877551020408,-2.693877551020408,-2.693877551020408,-2.693877551020408,-2.693877551020408,-2.693877551020408,0.08843537414965986,0.19387755102040816,0.5306122448979592,0.6768707482993197,0.8061224489795918,0.8673469387755102,0.8945578231292517,0.9319727891156463,0.9693877551020408,0.9931972789115646,1.0578231292517006,1.098639455782313,1.1258503401360545,1.1360544217687074,1.1496598639455782,1.1564625850340136,1.1598639455782314,1.163265306122449,1.1666666666666667,1.1700680272108843,1.1734693877551021,1.1768707482993197,1.1768707482993197,1.1802721088435375,1.183673469387755,1.1870748299319729,1.1904761904761905,1.1904761904761905,1.1904761904761905,1.1904761904761905,1.183673469387755,1.1802721088435375,1.1802721088435375,1.1768707482993197,1.1768707482993197,1.1768707482993197,1.1768707482993197,1.1734693877551021,1.1734693877551021,1.1734693877551021,1.1734693877551021,1.1700680272108843,1.1700680272108843,1.1700680272108843,1.1700680272108843,1.1700680272108843,1.1666666666666667,1.1666666666666667,1.1666666666666667,1.163265306122449,1.1598639455782314,1.1496598639455782,1.1360544217687074,1.0748299319727892,0.9489795918367347,0.9489795918367347,0.9251700680272109,0.9013605442176871,0.8843537414965986,0.8775510204081632,0.8605442176870748,0.8503401360544217,0.8435374149659864,0.8367346938775511,0.8299319727891157,0.8299319727891157,0.8231292517006803,0.8061224489795918,0.7891156462585034,0.7551020408163265,0.7380952380952381,0.7346938775510204,0.7244897959183674,0.7142857142857143,0.7040816326530612,0.7006802721088435,0.6938775510204082,0.6870748299319728,0.6802721088435374,0.673469387755102,0.6666666666666666,0.6598639455782312,0.6564625850340136,0.6496598639455783,0.6428571428571429,0.6428571428571429,0.6360544217687075,0.6326530612244898,0.6292517006802721,0.6190476190476191,0.6122448979591837,0.608843537414966,0.5986394557823129,0.5952380952380952,0.5918367346938775,0.5884353741496599,0.5850340136054422,0.5816326530612245,0.5782312925170068,0.5782312925170068,0.5782312925170068,0.5748299319727891,0.5748299319727891,0.5714285714285714,0.5714285714285714,0.5714285714285714,0.5714285714285714,0.5714285714285714,0.5714285714285714,0.5714285714285714,0.5714285714285714,0.5714285714285714,0.5714285714285714,0.5714285714285714,0.5714285714285714,0.5714285714285714,0.5714285714285714,0.5714285714285714,0.5714285714285714,0.5714285714285714,0.5714285714285714,0.5714285714285714,0.5714285714285714,0.5714285714285714,0.5714285714285714,0.5714285714285714,0.5714285714285714,0.5714285714285714,0.5714285714285714,0.5714285714285714,0.5714285714285714,0.5714285714285714,0.5714285714285714,0.5714285714285714,0.5714285714285714,0.5714285714285714,0.5714285714285714,0.5714285714285714,0.5714285714285714,0.5714285714285714,0.5714285714285714,0.5714285714285714,0.5714285714285714,0.5714285714285714,0.5714285714285714,0.5714285714285714,0.5714285714285714,0.5714285714285714,0.5714285714285714,0.5714285714285714,0.5714285714285714,0.5714285714285714,0.5714285714285714,0.5714285714285714,0.5714285714285714,0.5714285714285714,0.5714285714285714,0.5714285714285714,0.5714285714285714,0.5714285714285714,0.5714285714285714,0.5714285714285714,0.5714285714285714,0.5714285714285714,0.5714285714285714,0.5714285714285714,0.5714285714285714,0.5714285714285714,0.5714285714285714,0.5714285714285714,0.5714285714285714,0.5714285714285714,0.5714285714285714,0.5714285714285714,0.5714285714285714,0.5714285714285714,0.5714285714285714,0.5714285714285714,0.5714285714285714,0.5714285714285714,0.5714285714285714,0.5714285714285714,0.5714285714285714,0.5714285714285714,0.5714285714285714,0.5714285714285714,0.5714285714285714,0.5714285714285714,0.5714285714285714,0.5714285714285714,0.5714285714285714,0.5714285714285714,0.5714285714285714,0.5714285714285714,0.5714285714285714,0.5714285714285714,0.5714285714285714,0.5714285714285714,0.5714285714285714,0.5714285714285714,0.5714285714285714,0.5714285714285714,0.5714285714285714,0.5714285714285714,0.5714285714285714,0.5714285714285714,0.5714285714285714,0.5714285714285714,0.5714285714285714,0.5714285714285714,0.5714285714285714,0.5714285714285714,0.5714285714285714,0.5714285714285714,0.5714285714285714,0.5714285714285714,0.5714285714285714,0.5714285714285714,0.5714285714285714,0.5714285714285714,0.5714285714285714,0.5714285714285714,0.5714285714285714,0.5714285714285714,0.5714285714285714,0.5714285714285714,0.5714285714285714,0.5714285714285714,0.5714285714285714,0.5714285714285714,0.5714285714285714,0.5714285714285714,0.5714285714285714,0.5714285714285714,0.5714285714285714,0.5714285714285714,0.5714285714285714,0.5714285714285714,0.5714285714285714,0.5714285714285714,0.5714285714285714,0.5714285714285714,0.5714285714285714,0.5714285714285714,0.5714285714285714,0.5714285714285714,0.5714285714285714,0.5714285714285714,0.5714285714285714,0.5714285714285714,0.5714285714285714,0.5714285714285714,0.5714285714285714,0.5714285714285714,0.5714285714285714,0.5714285714285714,0.5714285714285714,0.5714285714285714,0.5714285714285714,0.5714285714285714,0.5714285714285714,0.5714285714285714,0.5714285714285714,0.5714285714285714,0.5714285714285714,0.5714285714285714,0.5714285714285714,0.5714285714285714,0.5714285714285714,0.5714285714285714,0.5714285714285714,0.5714285714285714,0.5714285714285714,0.5714285714285714,0.5714285714285714,0.5714285714285714,0.5714285714285714,0.5714285714285714,0.5714285714285714,0.5714285714285714,0.5714285714285714,0.5714285714285714,0.5714285714285714,0.5714285714285714,0.5714285714285714,0.5714285714285714,0.5714285714285714,0.5714285714285714,0.5714285714285714,0.5714285714285714,0.5714285714285714,0.5714285714285714,0.5714285714285714,0.5714285714285714,0.5714285714285714,0.5714285714285714,0.5714285714285714,0.5714285714285714,0.5714285714285714,0.5714285714285714,0.5714285714285714,0.5714285714285714,0.5714285714285714,0.5714285714285714,0.5714285714285714,0.5714285714285714,0.5714285714285714,0.5714285714285714,0.5714285714285714,0.5714285714285714,0.5714285714285714,0.5714285714285714,0.5714285714285714,0.5714285714285714,0.5714285714285714,0.5714285714285714,0.5714285714285714,0.5714285714285714,0.5714285714285714,0.5714285714285714,0.5714285714285714,0.5714285714285714,0.5714285714285714,0.5714285714285714,0.5714285714285714,0.5714285714285714,0.5714285714285714,0.5714285714285714,0.5714285714285714,0.5714285714285714,0.5714285714285714,0.5714285714285714,0.5714285714285714,0.5714285714285714,0.5714285714285714,0.5714285714285714,0.5714285714285714,0.5714285714285714,0.5714285714285714,0.5714285714285714,0.5714285714285714,0.5714285714285714,0.5714285714285714,0.5714285714285714,0.5714285714285714,0.5714285714285714,0.5714285714285714,0.5714285714285714,0.5714285714285714,0.5714285714285714,0.5714285714285714,0.5714285714285714,0.5714285714285714,0.5714285714285714,0.5714285714285714,0.5714285714285714,0.5714285714285714,0.5714285714285714,0.5714285714285714,0.5714285714285714,0.5714285714285714,0.5714285714285714,0.5714285714285714,0.5714285714285714,0.5714285714285714,0.5714285714285714,0.5714285714285714,0.5714285714285714,0.5714285714285714,0.5714285714285714,0.5714285714285714,0.5714285714285714,0.5714285714285714,0.5714285714285714,0.5714285714285714,0.5714285714285714,0.5714285714285714,0.5714285714285714,0.5714285714285714,0.5714285714285714,0.5714285714285714,0.5714285714285714,0.5714285714285714,0.5714285714285714,0.5714285714285714,0.5714285714285714,0.5714285714285714,0.5714285714285714,0.5714285714285714,0.5714285714285714,0.5714285714285714,0.5714285714285714,0.5714285714285714,0.5714285714285714,0.5714285714285714,0.5714285714285714,0.5714285714285714,0.5714285714285714,0.5714285714285714,0.5714285714285714,0.5714285714285714,0.5714285714285714,0.5714285714285714,0.5714285714285714,0.5714285714285714,0.5714285714285714,0.5714285714285714,0.5714285714285714,0.5714285714285714,0.5714285714285714,0.5714285714285714,0.5714285714285714,0.5714285714285714,0.5714285714285714,0.5714285714285714,0.5714285714285714,0.5714285714285714,0.5714285714285714,0.5714285714285714,0.5714285714285714,0.5714285714285714,0.5714285714285714,0.5714285714285714,0.5714285714285714,0.5714285714285714,0.5714285714285714,0.5714285714285714,0.5714285714285714,0.5714285714285714,0.5714285714285714,0.5714285714285714,0.5714285714285714,0.5714285714285714,0.5714285714285714,0.5714285714285714,0.5714285714285714,0.5714285714285714,0.5714285714285714,0.5714285714285714,0.5714285714285714,0.5714285714285714,0.5714285714285714,0.5714285714285714,0.5714285714285714,0.5714285714285714,0.5714285714285714,0.5714285714285714,0.5714285714285714,0.5714285714285714,0.5714285714285714,0.5714285714285714,0.5714285714285714,0.5714285714285714,0.5714285714285714,0.5714285714285714,0.5714285714285714,0.5714285714285714,0.5714285714285714,0.5714285714285714,0.5714285714285714,0.5714285714285714,0.5714285714285714,0.5714285714285714,0.5714285714285714,0.5714285714285714,0.5714285714285714,0.5714285714285714,0.5714285714285714,0.5714285714285714,0.5714285714285714,0.5714285714285714,0.5714285714285714,0.5714285714285714,0.5714285714285714,0.5714285714285714,0.5714285714285714,0.5714285714285714,0.5714285714285714,0.5714285714285714,0.5714285714285714,0.5714285714285714,0.5714285714285714,0.564625850340136,0.5510204081632653,0.5238095238095238,0.5,0.47959183673469385,0.47959183673469385,0.4421768707482993,0.42857142857142855,0.41836734693877553,0.41156462585034015,0.4013605442176871,0.391156462585034,0.3877551020408163,0.37755102040816324,0.36394557823129253,0.3469387755102041,0.336734693877551,0.3129251700680272,0.2925170068027211,0.2857142857142857,0.2755102040816326,0.2687074829931973,0.2653061224489796,0.25510204081632654,0.24829931972789115,0.24489795918367346,0.23469387755102042,0.23129251700680273,0.22448979591836735,0.22108843537414966,0.21428571428571427,0.20408163265306123,0.19727891156462585,0.19387755102040816,0.1870748299319728,0.1836734693877551,0.18027210884353742,0.18027210884353742,0.17687074829931973,0.17687074829931973,0.17346938775510204,0.17006802721088435,0.17006802721088435,0.16666666666666666,0.16326530612244897,0.16326530612244897,0.1598639455782313,0.1598639455782313,0.1598639455782313,0.1598639455782313,0.1564625850340136,0.1564625850340136,0.1564625850340136,0.1564625850340136,0.15306122448979592,0.15306122448979592,0.14965986394557823,0.14965986394557823,0.14965986394557823,0.14625850340136054,0.14285714285714285,0.14285714285714285,0.14285714285714285,0.14285714285714285,0.13945578231292516,0.13945578231292516,0.13945578231292516,0.13945578231292516,0.13945578231292516,0.13945578231292516,0.13945578231292516,0.13945578231292516,0.13945578231292516,0.13945578231292516,0.13945578231292516,0.13945578231292516,0.13945578231292516,0.13945578231292516,0.13945578231292516,0.13945578231292516,0.13945578231292516,0.13945578231292516,0.13945578231292516,0.13945578231292516,0.13945578231292516,0.13945578231292516,0.13945578231292516,0.13945578231292516,0.13945578231292516,0.13945578231292516,0.13945578231292516,0.13945578231292516,0.13945578231292516,0.13945578231292516,0.13945578231292516,0.13945578231292516,0.13945578231292516,0.13945578231292516,0.13945578231292516,0.13945578231292516,0.13945578231292516,0.13945578231292516,0.13945578231292516,0.13945578231292516,0.13945578231292516,0.13945578231292516,0.13945578231292516,0.13945578231292516,0.13945578231292516,0.13945578231292516,0.13945578231292516,0.13945578231292516,0.13945578231292516,0.13945578231292516,0.13945578231292516,0.13945578231292516,0.13945578231292516,0.13945578231292516,0.13945578231292516,0.13945578231292516,0.13945578231292516,0.13945578231292516,0.13945578231292516,0.13945578231292516,0.13945578231292516,0.13945578231292516,0.13945578231292516,0.13945578231292516,0.13945578231292516,0.13945578231292516,0.13945578231292516,0.13945578231292516,0.13945578231292516,0.13945578231292516,0.13945578231292516,0.13945578231292516,0.13945578231292516,0.13945578231292516,0.13945578231292516,0.13945578231292516,0.13945578231292516,0.13945578231292516,0.13945578231292516,0.13945578231292516,0.13945578231292516,0.13945578231292516,0.13945578231292516,0.13945578231292516,0.13945578231292516,0.13945578231292516,0.13945578231292516,0.13945578231292516,0.13945578231292516,0.13945578231292516,0.13945578231292516,0.13945578231292516,0.13945578231292516,0.13945578231292516,0.13945578231292516,0.13945578231292516,0.13945578231292516,0.13945578231292516,0.13945578231292516,0.13945578231292516,0.13945578231292516,0.13945578231292516,0.13945578231292516,0.13945578231292516,0.13945578231292516,0.13945578231292516,0.13945578231292516,0.13945578231292516,0.13945578231292516,0.13945578231292516,0.13945578231292516,0.13945578231292516,0.13945578231292516,0.13945578231292516,0.13945578231292516,0.13945578231292516,0.13945578231292516,0.13945578231292516,0.13945578231292516,0.13945578231292516,0.13945578231292516,0.13945578231292516,0.13945578231292516,0.13945578231292516,0.13945578231292516,0.13945578231292516,0.13945578231292516,0.13945578231292516,0.13945578231292516,0.13945578231292516,0.13945578231292516,0.13945578231292516,0.13945578231292516,0.13945578231292516,0.13945578231292516,0.13945578231292516,0.13945578231292516,0.13945578231292516,0.13945578231292516,0.13945578231292516,0.13945578231292516,0.13945578231292516,0.13945578231292516,0.13945578231292516,0.13945578231292516,0.13945578231292516,0.13945578231292516,0.13945578231292516,0.13945578231292516,0.13945578231292516,0.13945578231292516,0.13945578231292516,0.13945578231292516,0.13945578231292516,0.13945578231292516,0.13945578231292516,0.13945578231292516,0.13945578231292516,0.13945578231292516,0.13945578231292516,0.13945578231292516,0.13945578231292516,0.13945578231292516,0.13945578231292516,0.13945578231292516,0.13945578231292516,0.13945578231292516,0.13945578231292516,0.13945578231292516,0.13945578231292516,0.13945578231292516,0.13945578231292516,0.13945578231292516,0.13945578231292516,0.13945578231292516,0.13945578231292516,0.13945578231292516,0.13945578231292516,0.13945578231292516,0.13945578231292516,0.13945578231292516,0.13945578231292516,0.13945578231292516,0.13945578231292516,0.13945578231292516,0.13945578231292516,0.13945578231292516,0.13945578231292516,0.13945578231292516,0.13945578231292516,0.13945578231292516,0.13945578231292516,0.13945578231292516,0.13945578231292516,0.13945578231292516,0.13945578231292516,0.13945578231292516,0.13945578231292516,0.13945578231292516,0.13945578231292516,0.13945578231292516,0.13945578231292516,0.13945578231292516,0.13945578231292516,0.13945578231292516,0.13945578231292516,0.13945578231292516,0.13945578231292516,0.13945578231292516,0.13945578231292516,0.13945578231292516,0.13945578231292516,0.13945578231292516,0.13945578231292516,0.13945578231292516,0.13945578231292516,0.13945578231292516,0.13945578231292516,0.13945578231292516,0.13945578231292516,0.13945578231292516,0.13945578231292516,0.13945578231292516,0.13945578231292516,0.13945578231292516,0.13945578231292516,0.13945578231292516,0.13945578231292516,0.13945578231292516,0.13945578231292516,0.13945578231292516,0.13945578231292516,0.13945578231292516,0.13945578231292516,0.13945578231292516,0.13945578231292516,0.13945578231292516,0.13945578231292516,0.13945578231292516,0.13945578231292516,0.13945578231292516,0.13945578231292516,0.13945578231292516,0.13945578231292516,0.13945578231292516,0.13945578231292516,0.13945578231292516,0.13945578231292516,0.13945578231292516,0.14285714285714285,0.14965986394557823,0.1598639455782313,0.17687074829931973,0.19727891156462585,0.21428571428571427,0.22108843537414966,0.23129251700680273,0.23469387755102042,0.24149659863945577,0.24149659863945577,0.24149659863945577,0.24149659863945577,0.24149659863945577,0.24149659863945577,0.24149659863945577,0.24149659863945577,0.24149659863945577,0.24149659863945577,0.24149659863945577,0.24149659863945577,0.24489795918367346,0.24489795918367346,0.24829931972789115,0.25170068027210885,0.25510204081632654,0.2585034013605442,0.2619047619047619,0.2653061224489796,0.2687074829931973,0.272108843537415,0.2755102040816326,0.2755102040816326,0.2789115646258503,0.2789115646258503,0.2789115646258503,0.2789115646258503,0.2789115646258503,0.2789115646258503,0.2789115646258503,0.2789115646258503,0.2789115646258503,0.2789115646258503,0.2789115646258503,0.2789115646258503,0.2789115646258503,0.2789115646258503,0.282312925170068,0.282312925170068,0.282312925170068,0.282312925170068,0.282312925170068,0.282312925170068,0.282312925170068,0.282312925170068,0.282312925170068,0.282312925170068,0.282312925170068,0.282312925170068,0.282312925170068,0.282312925170068,0.282312925170068,0.282312925170068,0.282312925170068,0.282312925170068,0.282312925170068,0.282312925170068,0.282312925170068,0.282312925170068,0.282312925170068,0.282312925170068,0.282312925170068,0.282312925170068,0.282312925170068,0.282312925170068,0.282312925170068,0.282312925170068,0.282312925170068,0.282312925170068,0.282312925170068,0.282312925170068,0.282312925170068,0.282312925170068,0.282312925170068,0.282312925170068,0.282312925170068,0.282312925170068,0.282312925170068,0.282312925170068,0.282312925170068,0.282312925170068,0.282312925170068,0.282312925170068,0.282312925170068,0.282312925170068,0.282312925170068,0.282312925170068,0.282312925170068,0.282312925170068,0.282312925170068,0.282312925170068,0.282312925170068,0.282312925170068,0.282312925170068,0.282312925170068,0.282312925170068,0.282312925170068,0.282312925170068,0.282312925170068,0.282312925170068,0.282312925170068,0.282312925170068,0.282312925170068,0.282312925170068,0.282312925170068,0.282312925170068,0.282312925170068,0.282312925170068,0.282312925170068,0.282312925170068,0.282312925170068,0.282312925170068,0.282312925170068,0.282312925170068,0.282312925170068,0.282312925170068,0.282312925170068,0.282312925170068,0.282312925170068,0.282312925170068,0.282312925170068,0.282312925170068,0.282312925170068,0.282312925170068,0.282312925170068,0.282312925170068,0.282312925170068,0.282312925170068,0.282312925170068,0.282312925170068,0.282312925170068,0.282312925170068,0.282312925170068,0.282312925170068,0.282312925170068,0.282312925170068,0.282312925170068,0.282312925170068,0.282312925170068,0.282312925170068,0.282312925170068,0.282312925170068,0.282312925170068,0.282312925170068,0.282312925170068,0.282312925170068,0.282312925170068,0.282312925170068,0.282312925170068,0.282312925170068,0.282312925170068,0.282312925170068,0.282312925170068,0.282312925170068,0.282312925170068,0.282312925170068,0.282312925170068,0.282312925170068,0.282312925170068,0.282312925170068,0.282312925170068,0.282312925170068,0.282312925170068,0.282312925170068,0.282312925170068,0.282312925170068,0.282312925170068,0.282312925170068,0.282312925170068,0.282312925170068,0.282312925170068,0.282312925170068,0.282312925170068,0.282312925170068,0.282312925170068,0.282312925170068,0.282312925170068,0.282312925170068,0.282312925170068,0.282312925170068,0.282312925170068,0.282312925170068,0.282312925170068,0.282312925170068,0.282312925170068,0.282312925170068,0.282312925170068,0.282312925170068,0.282312925170068,0.282312925170068,0.282312925170068,0.282312925170068,0.282312925170068,0.282312925170068,0.282312925170068,0.282312925170068,0.282312925170068,0.282312925170068,0.282312925170068,0.282312925170068,0.282312925170068,0.282312925170068,0.282312925170068,0.282312925170068,0.282312925170068,0.282312925170068,0.282312925170068,0.282312925170068,0.282312925170068,0.282312925170068,0.282312925170068,0.282312925170068,0.282312925170068,0.282312925170068,0.282312925170068,0.282312925170068,0.282312925170068,0.282312925170068,0.282312925170068,0.282312925170068,0.282312925170068,0.282312925170068,0.282312925170068,0.282312925170068,0.282312925170068,0.282312925170068,0.282312925170068,0.282312925170068,0.282312925170068,0.282312925170068,0.282312925170068,0.282312925170068,0.282312925170068,0.282312925170068,0.282312925170068,0.282312925170068,0.282312925170068,0.282312925170068,0.282312925170068,0.282312925170068,0.282312925170068,0.282312925170068,0.282312925170068,0.282312925170068,0.282312925170068,0.282312925170068,0.282312925170068,0.282312925170068,0.282312925170068,0.282312925170068,0.282312925170068,0.282312925170068,0.282312925170068,0.282312925170068,0.282312925170068,0.282312925170068,0.282312925170068,0.282312925170068,0.282312925170068,0.282312925170068,0.282312925170068,0.282312925170068,0.282312925170068,0.282312925170068,0.282312925170068,0.282312925170068,0.282312925170068,0.282312925170068,0.282312925170068,0.282312925170068,0.282312925170068,0.282312925170068,0.282312925170068,0.282312925170068,0.282312925170068,0.282312925170068,0.282312925170068,0.282312925170068,0.282312925170068,0.282312925170068,0.282312925170068,0.282312925170068,0.282312925170068,0.282312925170068,0.282312925170068,0.282312925170068,0.282312925170068,0.282312925170068,0.282312925170068,0.2857142857142857,0.2925170068027211,0.30612244897959184,0.3163265306122449,0.3231292517006803,0.3333333333333333,0.3435374149659864,0.35374149659863946,0.37755102040816324,0.3945578231292517,0.4013605442176871,0.40476190476190477,0.41156462585034015,0.41496598639455784,0.4217687074829932,0.43197278911564624,0.43537414965986393,0.4489795918367347,0.45918367346938777,0.48299319727891155,0.4931972789115646,0.5102040816326531,0.5204081632653061,0.5238095238095238,0.5306122448979592,0.5374149659863946,0.5408163265306123,0.5476190476190477,0.5510204081632653,0.5544217687074829,0.5544217687074829,0.5578231292517006,0.5612244897959183,0.564625850340136,0.564625850340136,0.564625850340136,0.564625850340136,0.5748299319727891,0.5782312925170068,0.5816326530612245,0.5850340136054422,0.5850340136054422,0.5850340136054422,0.5850340136054422,0.5850340136054422,0.5850340136054422,0.5850340136054422,0.5850340136054422,0.5850340136054422,0.5816326530612245,0.5816326530612245,0.5816326530612245,0.5816326530612245,0.5782312925170068,0.5782312925170068,0.5782312925170068,0.5782312925170068,0.5748299319727891,0.5748299319727891,0.5748299319727891,0.5714285714285714,0.5714285714285714,0.5680272108843537,0.5680272108843537,0.564625850340136,0.564625850340136,0.564625850340136,0.564625850340136,0.5612244897959183,0.5612244897959183,0.5612244897959183,0.5612244897959183,0.5578231292517006,0.5578231292517006,0.5578231292517006,0.5578231292517006,0.5544217687074829,0.5544217687074829,0.5544217687074829,0.5544217687074829,0.5544217687074829,0.5544217687074829,0.5544217687074829,0.5544217687074829,0.5544217687074829,0.5544217687074829,0.5578231292517006,0.5578231292517006,0.5578231292517006,0.5578231292517006,0.5612244897959183,0.5612244897959183,0.5612244897959183,0.564625850340136,0.564625850340136,0.564625850340136,0.5680272108843537,0.5680272108843537,0.5680272108843537,0.5680272108843537,0.5680272108843537,0.5680272108843537,0.5680272108843537,0.5680272108843537,0.5680272108843537,0.5680272108843537,0.5680272108843537,0.5680272108843537,0.5680272108843537,0.5680272108843537,0.5680272108843537,0.5680272108843537,0.5680272108843537,0.5680272108843537,0.5680272108843537,0.5680272108843537,0.5680272108843537,0.5680272108843537,0.5680272108843537,0.5680272108843537,0.5680272108843537,0.5680272108843537,0.5680272108843537,0.5680272108843537,0.5680272108843537,0.5680272108843537,0.5680272108843537,0.5680272108843537,0.5680272108843537,0.5680272108843537,0.5680272108843537,0.5680272108843537,0.5680272108843537,0.5680272108843537,0.5680272108843537,0.5680272108843537,0.5680272108843537,0.5680272108843537,0.5680272108843537,0.5680272108843537,0.5680272108843537,0.5680272108843537,0.5680272108843537,0.5680272108843537,0.5680272108843537,0.5680272108843537,0.5680272108843537,0.5680272108843537,0.5680272108843537,0.5680272108843537,0.5680272108843537,0.5680272108843537,0.5680272108843537,0.5680272108843537,0.5680272108843537,0.5680272108843537,0.5680272108843537,0.5680272108843537,0.5680272108843537,0.5680272108843537,0.5680272108843537,0.5680272108843537,0.5680272108843537,0.5680272108843537,0.5680272108843537,0.5680272108843537,0.5680272108843537,0.5680272108843537,0.5680272108843537,0.5680272108843537,0.5680272108843537,0.5680272108843537,0.5680272108843537,0.5680272108843537,0.5680272108843537,0.5680272108843537,0.5680272108843537,0.5680272108843537,0.5680272108843537,0.5680272108843537,0.5680272108843537,0.5680272108843537,0.5680272108843537,0.5680272108843537,0.5680272108843537,0.5680272108843537,0.5680272108843537,0.5680272108843537,0.5680272108843537,0.5680272108843537,0.5680272108843537,0.5680272108843537,0.5680272108843537,0.5680272108843537,0.5680272108843537,0.5680272108843537,0.5680272108843537,0.5680272108843537,0.5680272108843537,0.5680272108843537,0.5680272108843537,0.5680272108843537,0.5680272108843537,0.5680272108843537,0.5680272108843537,0.5680272108843537,0.5680272108843537,0.5680272108843537,0.5680272108843537,0.5680272108843537,0.5680272108843537,0.5680272108843537,0.5680272108843537,0.5680272108843537,0.5680272108843537,0.5680272108843537,0.5680272108843537,0.5680272108843537,0.5680272108843537,0.5680272108843537,0.5680272108843537,0.5680272108843537,0.5680272108843537,0.5680272108843537,0.5680272108843537,0.5680272108843537,0.5680272108843537,0.5680272108843537,0.5680272108843537,0.5680272108843537,0.5680272108843537,0.5680272108843537,0.5680272108843537,0.5680272108843537,0.5680272108843537,0.5680272108843537,0.5680272108843537,0.5680272108843537,0.5680272108843537,0.5680272108843537,0.5680272108843537,0.5680272108843537,0.5680272108843537,0.5680272108843537,0.5680272108843537,0.5680272108843537,0.5680272108843537,0.5680272108843537,0.5680272108843537,0.5680272108843537,0.5680272108843537,0.5680272108843537,0.5680272108843537,0.5680272108843537,0.5680272108843537,0.5680272108843537,0.5680272108843537,0.5680272108843537,0.5680272108843537,0.5680272108843537,0.5680272108843537,0.5680272108843537,0.5680272108843537,0.5680272108843537,0.5680272108843537,0.5680272108843537,0.5680272108843537,0.5680272108843537,0.5680272108843537,0.5680272108843537,0.5680272108843537,0.5680272108843537,0.5680272108843537,0.5680272108843537,0.5680272108843537,0.5680272108843537,0.5680272108843537,0.5680272108843537,0.5680272108843537,0.5680272108843537,0.5680272108843537,0.5680272108843537,0.5680272108843537,0.5680272108843537,0.5680272108843537,0.5680272108843537,0.5680272108843537,0.5680272108843537,0.5680272108843537,0.5680272108843537,0.5680272108843537,0.5680272108843537,0.5680272108843537,0.5680272108843537,0.5680272108843537,0.5680272108843537,0.5680272108843537,0.5680272108843537,0.5680272108843537,0.5680272108843537,0.5680272108843537,0.5680272108843537,0.564625850340136,0.564625850340136,0.564625850340136,0.564625850340136,0.564625850340136,0.564625850340136,0.564625850340136,0.564625850340136,0.564625850340136,0.564625850340136,0.564625850340136,0.564625850340136,0.564625850340136,0.564625850340136,0.564625850340136,0.564625850340136,0.564625850340136,0.564625850340136,0.564625850340136,0.564625850340136,0.564625850340136,0.564625850340136,0.564625850340136,0.564625850340136,0.564625850340136,0.564625850340136,0.564625850340136,0.564625850340136,0.564625850340136,0.564625850340136,0.564625850340136,0.564625850340136,0.564625850340136,0.564625850340136,0.564625850340136,0.564625850340136,0.564625850340136,0.564625850340136,0.564625850340136,0.564625850340136,0.564625850340136,0.564625850340136,0.564625850340136,0.564625850340136,0.564625850340136,0.564625850340136,0.564625850340136,0.564625850340136,0.564625850340136,0.564625850340136,0.564625850340136,0.564625850340136,0.564625850340136,0.564625850340136,0.564625850340136,0.564625850340136,0.564625850340136,0.564625850340136,0.564625850340136,0.564625850340136,0.564625850340136,0.564625850340136,0.564625850340136,0.564625850340136,0.564625850340136,0.564625850340136,0.564625850340136,0.564625850340136,0.564625850340136,0.564625850340136,0.564625850340136,0.564625850340136,0.564625850340136,0.564625850340136,0.564625850340136,0.564625850340136,0.564625850340136,0.564625850340136,0.564625850340136,0.564625850340136,0.564625850340136,0.564625850340136,0.564625850340136,0.564625850340136,0.564625850340136,0.564625850340136,0.5680272108843537,0.5680272108843537,0.5714285714285714,0.5816326530612245,0.5952380952380952,0.6020408163265306,0.608843537414966,0.6156462585034014,0.6190476190476191,0.6224489795918368,0.6292517006802721,0.6326530612244898,0.6326530612244898,0.6360544217687075,0.6360544217687075,0.6360544217687075,0.6360544217687075,0.6394557823129252,0.6394557823129252,0.6394557823129252,0.6394557823129252,0.6394557823129252,0.6428571428571429,0.6428571428571429,0.6428571428571429,0.6428571428571429,0.6428571428571429,0.6428571428571429,0.6428571428571429,0.6428571428571429,0.6428571428571429,0.6428571428571429,0.6428571428571429,0.6428571428571429,0.6394557823129252,0.6394557823129252,0.6292517006802721,0.6156462585034014,0.5782312925170068,0.5544217687074829,0.5476190476190477,0.54421768707483,0.5408163265306123,0.5374149659863946,0.5374149659863946,0.5374149659863946,0.5374149659863946,0.5340136054421769,0.5340136054421769,0.5340136054421769,0.5306122448979592,0.5306122448979592,0.5306122448979592,0.5306122448979592,0.5306122448979592,0.5306122448979592,0.5340136054421769,0.5340136054421769,0.5408163265306123,0.5476190476190477,0.5578231292517006,0.5612244897959183,0.564625850340136,0.564625850340136,0.564625850340136,0.564625850340136,0.5680272108843537,0.5680272108843537,0.5680272108843537,0.5680272108843537,0.5680272108843537,0.5680272108843537,0.5680272108843537,0.5680272108843537,0.5680272108843537,0.5680272108843537,0.5680272108843537,0.5680272108843537,0.5680272108843537,0.5680272108843537,0.5680272108843537,0.5680272108843537,0.5680272108843537,0.5680272108843537,0.5680272108843537,0.5680272108843537,0.5680272108843537,0.5680272108843537,0.5680272108843537,0.5680272108843537,0.5680272108843537,0.5680272108843537,0.5680272108843537,0.5680272108843537,0.5680272108843537,0.5680272108843537,0.5680272108843537,0.5680272108843537,0.5680272108843537,0.5680272108843537,0.5680272108843537,0.5680272108843537,0.5680272108843537,0.5680272108843537,0.5680272108843537,0.5680272108843537,0.5680272108843537,0.5680272108843537,0.5680272108843537,0.5680272108843537,0.5680272108843537,0.5680272108843537,0.5680272108843537,0.5680272108843537,0.5680272108843537,0.5680272108843537,0.5680272108843537,0.5680272108843537,0.5680272108843537,0.5680272108843537,0.5680272108843537,0.5680272108843537,0.5680272108843537,0.5680272108843537,0.5680272108843537,0.5680272108843537,0.5680272108843537,0.5680272108843537,0.5680272108843537,0.5680272108843537,0.5680272108843537,0.5680272108843537,0.5680272108843537,0.5680272108843537,0.5680272108843537,0.5680272108843537,0.5680272108843537,0.5680272108843537,0.5680272108843537,0.5680272108843537,0.5680272108843537,0.5680272108843537,0.5680272108843537,0.5680272108843537,0.5680272108843537,0.5680272108843537,0.5680272108843537,0.5680272108843537,0.5680272108843537,0.5680272108843537,0.5680272108843537,0.5680272108843537,0.5680272108843537,0.5680272108843537,0.5680272108843537,0.5680272108843537,0.5680272108843537,0.5680272108843537,0.5680272108843537,0.5680272108843537,0.5680272108843537,0.564625850340136,0.564625850340136,0.5612244897959183,0.5578231292517006,0.5578231292517006,0.5510204081632653,0.5510204081632653,0.5476190476190477,0.54421768707483,0.5374149659863946,0.5306122448979592,0.5238095238095238,0.5170068027210885,0.5136054421768708,0.5102040816326531,0.5102040816326531,0.5068027210884354,0.5068027210884354,0.5068027210884354,0.5034013605442177,0.5034013605442177,0.5034013605442177,0.5034013605442177,0.5,0.5,0.5,0.5,0.5,0.5,0.5,0.5,0.5,0.5,0.5,0.5,0.5,0.5,0.5,0.5,0.5,0.5,0.5,0.5,0.5,0.5,0.5,0.5,0.5,0.5,0.5,0.5,0.5,0.5,0.5,0.5,0.5,0.5,0.5,0.5,0.5,0.5,0.5,0.5,0.5,0.4931972789115646,0.4897959183673469,0.48639455782312924,0.48639455782312924,0.48639455782312924,0.48639455782312924,0.48299319727891155,0.48299319727891155,0.48299319727891155,0.48299319727891155,0.47959183673469385,0.47959183673469385,0.47959183673469385,0.47619047619047616,0.46938775510204084,0.42517006802721086,0.22108843537414966,0.04421768707482993,-0.12585034013605442,-0.1564625850340136,-0.16326530612244897,-0.17346938775510204,-0.1836734693877551,-0.19047619047619047,-0.19387755102040816,-0.19727891156462585,-0.20068027210884354,-0.20068027210884354,-0.20068027210884354,-0.20408163265306123,-0.20408163265306123,-0.20408163265306123,-0.20408163265306123,-0.20408163265306123,-0.20408163265306123,-0.20408163265306123,-0.20408163265306123,-0.20068027210884354,-0.19727891156462585,-0.19047619047619047,-0.1870748299319728,-0.17346938775510204,-0.1360544217687075,-0.11564625850340136,-0.07482993197278912,-0.05782312925170068,-0.047619047619047616,-0.04421768707482993,-0.03741496598639456,-0.034013605442176874,-0.030612244897959183,-0.030612244897959183,-0.030612244897959183,-0.030612244897959183,-0.030612244897959183,-0.030612244897959183,-0.030612244897959183,-0.030612244897959183,-0.030612244897959183,-0.030612244897959183,-0.030612244897959183,-0.030612244897959183,-0.030612244897959183,-0.030612244897959183,-0.030612244897959183,-0.030612244897959183,-0.030612244897959183,-0.030612244897959183,-0.030612244897959183,-0.030612244897959183,-0.030612244897959183,-0.030612244897959183,-0.030612244897959183,-0.030612244897959183,-0.030612244897959183,-0.027210884353741496,-0.027210884353741496,-0.02040816326530612,-0.02040816326530612,-0.017006802721088437,-0.017006802721088437,-0.013605442176870748,-0.013605442176870748,-0.013605442176870748,-0.013605442176870748,-0.01020408163265306,-0.01020408163265306,-0.01020408163265306,-0.01020408163265306,-0.01020408163265306,-0.01020408163265306,-0.006802721088435374,-0.006802721088435374,-0.006802721088435374,-0.006802721088435374,-0.006802721088435374,-0.006802721088435374,-0.003401360544217687,-0.003401360544217687,-0.003401360544217687,-0.003401360544217687,-0.003401360544217687,-0.003401360544217687,-0.003401360544217687,-0.003401360544217687,-0.003401360544217687,-0.003401360544217687,-0.003401360544217687,-0.003401360544217687,-0.003401360544217687,-0.003401360544217687,-0.003401360544217687,-0.003401360544217687,-0.003401360544217687,-0.003401360544217687,-0.003401360544217687,-0.003401360544217687,-0.003401360544217687,-0.003401360544217687,-0.003401360544217687,-0.003401360544217687,-0.003401360544217687,-0.003401360544217687,-0.003401360544217687,-0.003401360544217687,-0.003401360544217687,-0.003401360544217687,-0.003401360544217687,-0.003401360544217687,-0.003401360544217687,-0.003401360544217687,-0.003401360544217687,-0.003401360544217687,-0.003401360544217687,-0.003401360544217687,-0.003401360544217687,-0.003401360544217687,-0.003401360544217687,-0.003401360544217687,-0.003401360544217687,-0.003401360544217687,-0.003401360544217687,-0.003401360544217687,-0.003401360544217687,-0.003401360544217687,-0.003401360544217687,-0.003401360544217687,-0.003401360544217687,-0.003401360544217687,-0.003401360544217687,-0.003401360544217687,-0.003401360544217687,-0.003401360544217687,-0.003401360544217687,-0.003401360544217687,-0.003401360544217687,-0.003401360544217687,-0.003401360544217687,-0.003401360544217687,-0.003401360544217687,-0.003401360544217687,-0.003401360544217687,-0.003401360544217687,-0.003401360544217687,-0.003401360544217687,-0.003401360544217687,-0.003401360544217687,-0.003401360544217687,-0.003401360544217687,-0.003401360544217687,0.003401360544217687,0.017006802721088437,0.07142857142857142,0.16326530612244897,0.3299319727891156,0.4489795918367347,0.6190476190476191,0.6972789115646258,0.7551020408163265,0.8299319727891157,0.8809523809523809,0.9047619047619048,0.9387755102040817,0.9591836734693877,0.9659863945578231,0.9795918367346939,0.9931972789115646,0.9965986394557823,1.0034013605442176,1.0068027210884354,1.0068027210884354,1.010204081632653,1.010204081632653,1.0136054421768708,1.0136054421768708,1.0170068027210883,1.0170068027210883,1.0170068027210883,1.0170068027210883,1.0204081632653061,1.0204081632653061,1.0204081632653061,1.0204081632653061,1.0204081632653061,1.0204081632653061,1.0238095238095237,1.0238095238095237,1.0238095238095237,1.0272108843537415,1.030612244897959,1.030612244897959,1.030612244897959,1.030612244897959,1.030612244897959,1.030612244897959,1.030612244897959,1.030612244897959,1.030612244897959,1.030612244897959,1.030612244897959,1.030612244897959,1.030612244897959,1.030612244897959,1.030612244897959,1.030612244897959,1.030612244897959,1.030612244897959,1.030612244897959,1.030612244897959,1.030612244897959,1.030612244897959,1.030612244897959,1.030612244897959,1.030612244897959,1.030612244897959,1.030612244897959,1.030612244897959,1.030612244897959,1.030612244897959,1.030612244897959,1.030612244897959,1.030612244897959,1.030612244897959,1.0272108843537415,1.0136054421768708,0.9931972789115646,0.9727891156462585,0.9251700680272109,0.8673469387755102,0.8401360544217688,0.8299319727891157,0.8197278911564626,0.8061224489795918,0.7959183673469388,0.7585034013605442,0.6700680272108843,0.5986394557823129,0.40816326530612246,0.2755102040816326,0.20408163265306123,0.1836734693877551,0.1564625850340136,0.13945578231292516,0.1360544217687075,0.1292517006802721,0.12244897959183673,0.11904761904761904,0.11224489795918367,0.10884353741496598,0.1054421768707483,0.1054421768707483,0.10204081632653061,0.10204081632653061,0.10204081632653061,0.09863945578231292,0.09863945578231292,0.09863945578231292,0.09863945578231292,0.09863945578231292,0.09863945578231292,0.09863945578231292,0.09863945578231292,0.09863945578231292,0.09863945578231292,0.09863945578231292,0.09863945578231292,0.09863945578231292,0.09863945578231292,0.09863945578231292,0.09863945578231292,0.09863945578231292,0.09863945578231292,0.09863945578231292,0.09863945578231292,0.09863945578231292,0.09863945578231292,0.09863945578231292,0.09523809523809523,0.09523809523809523,0.08843537414965986,0.0782312925170068,0.06802721088435375,0.06462585034013606,0.061224489795918366,0.05442176870748299,0.05442176870748299,0.05102040816326531,0.05102040816326531,0.05102040816326531,0.05102040816326531,0.047619047619047616,0.047619047619047616,0.047619047619047616,0.047619047619047616,0.04421768707482993,0.04421768707482993,0.04421768707482993,0.04421768707482993,0.04421768707482993,0.04081632653061224,0.04081632653061224,0.04081632653061224,0.04081632653061224,0.04081632653061224,0.04081632653061224,0.04081632653061224,0.04421768707482993,0.05442176870748299,0.05782312925170068,0.06462585034013606,0.06802721088435375,0.06802721088435375,0.07142857142857142,0.07482993197278912,0.0782312925170068,0.0782312925170068,0.0782312925170068,0.08843537414965986,0.09523809523809523,0.11224489795918367,0.14285714285714285,0.16326530612244897,0.20068027210884354,0.2108843537414966,0.21768707482993196,0.22448979591836735,0.23129251700680273,0.23469387755102042,0.24149659863945577,0.24829931972789115,0.25170068027210885,0.2585034013605442,0.2653061224489796,0.2687074829931973,0.272108843537415,0.2755102040816326,0.2755102040816326,0.2755102040816326,0.2789115646258503,0.2789115646258503,0.2789115646258503,0.2789115646258503,0.282312925170068,0.282312925170068,0.282312925170068,0.282312925170068,0.282312925170068,0.282312925170068,0.282312925170068,0.282312925170068,0.282312925170068,0.282312925170068,0.2789115646258503,0.2755102040816326,0.2687074829931973,0.24489795918367346,0.23469387755102042,0.22108843537414966,0.2108843537414966,0.2108843537414966,0.20408163265306123,0.20408163265306123,0.20068027210884354,0.20068027210884354,0.19727891156462585,0.19727891156462585,0.19727891156462585,0.19727891156462585,0.19387755102040816,0.19387755102040816,0.19387755102040816,0.19387755102040816,0.19387755102040816,0.19047619047619047,0.19047619047619047,0.19047619047619047,0.19047619047619047,0.1870748299319728,0.1870748299319728,0.1870748299319728,0.1870748299319728,0.1836734693877551,0.1836734693877551,0.1836734693877551,0.1836734693877551,0.18027210884353742,0.18027210884353742,0.18027210884353742,0.18027210884353742,0.17687074829931973,0.17687074829931973,0.17687074829931973,0.17687074829931973,0.17687074829931973,0.17687074829931973,0.17687074829931973,0.17687074829931973,0.17687074829931973,0.17346938775510204,0.17346938775510204,0.17346938775510204,0.17346938775510204,0.17346938775510204,0.17006802721088435,0.17006802721088435,0.17006802721088435,0.17006802721088435,0.16666666666666666,0.16666666666666666,0.16666666666666666,0.16326530612244897,0.16326530612244897,0.16326530612244897,0.16326530612244897,0.1598639455782313,0.1598639455782313,0.1598639455782313,0.1598639455782313,0.1564625850340136,0.1564625850340136,0.1564625850340136,0.1564625850340136,0.15306122448979592,0.15306122448979592,0.15306122448979592,0.15306122448979592,0.15306122448979592,0.15306122448979592,0.15306122448979592,0.15306122448979592,0.15306122448979592,0.15306122448979592,0.15306122448979592,0.15306122448979592,0.15306122448979592,0.15306122448979592,0.15306122448979592,0.15306122448979592,0.15306122448979592,0.15306122448979592,0.15306122448979592,0.15306122448979592,0.15306122448979592,0.15306122448979592,0.15306122448979592,0.15306122448979592,0.15306122448979592,0.15306122448979592,0.15306122448979592,0.15306122448979592,0.15306122448979592,0.15306122448979592,0.15306122448979592,0.15306122448979592,0.15306122448979592,0.15306122448979592,0.15306122448979592,0.15306122448979592,0.15306122448979592,0.15306122448979592,0.15306122448979592,0.15306122448979592,0.15306122448979592,0.15306122448979592,0.15306122448979592,0.15306122448979592,0.15306122448979592,0.15306122448979592,0.15306122448979592,0.15306122448979592,0.15306122448979592,0.15306122448979592,0.15306122448979592,0.15306122448979592,0.15306122448979592,0.15306122448979592,0.15306122448979592,0.15306122448979592,0.15306122448979592,0.15306122448979592,0.15306122448979592,0.15306122448979592,0.15306122448979592,0.15306122448979592,0.15306122448979592,0.15306122448979592,0.15306122448979592,0.15306122448979592,0.15306122448979592,0.15306122448979592,0.15306122448979592,0.15306122448979592,0.15306122448979592,0.15306122448979592,0.15306122448979592,0.15306122448979592,0.15306122448979592,0.15306122448979592,0.15306122448979592,0.15306122448979592,0.15306122448979592,0.15306122448979592,0.15306122448979592,0.15306122448979592,0.15306122448979592,0.15306122448979592,0.15306122448979592,0.15306122448979592,0.15306122448979592,0.15306122448979592,0.15306122448979592,0.15306122448979592,0.15306122448979592,0.15306122448979592,0.24829931972789115,0.6224489795918368,0.7585034013605442,0.9081632653061225,0.9659863945578231,0.9829931972789115,0.9965986394557823,1.0068027210884354,1.010204081632653,1.010204081632653,1.010204081632653,1.010204081632653,1.010204081632653,1.010204081632653,1.010204081632653,1.010204081632653,1.010204081632653,1.010204081632653,1.010204