[{"success":true,"trial_type":"fullscreen","trial_index":0,"time_elapsed":3128,"internal_node_id":"0.0-0.0","protocol_sum":"","subject_identifier":507,"subject_sum":[231,134,111,220,102,114,248,39,199,111,97,36,202,62,234,255,68,175,248,183,202,244,238,20,105,178,171,136,126,126,120,117],"subject_pair":253,"STUDY_ID":"66a3ed3c5d10d0e7d8a6b9da","PROLIFIC_PID":"5d74001d391b6600175f433b","SESSION_ID":"66a41999272f23d1b660ce04","practice_instructions":1,"leaderboard_instructions":0,"bonus":0,"reveal_word":true,"self_rating":"2","confidence":"27"},{"view_history":"[{\"page_index\":0,\"viewing_time\":2277.600000000559}]","rt":2278.2000000001863,"trial_type":"instructions","trial_index":1,"time_elapsed":5408,"internal_node_id":"0.0-1.0","protocol_sum":"","subject_identifier":507,"subject_sum":[231,134,111,220,102,114,248,39,199,111,97,36,202,62,234,255,68,175,248,183,202,244,238,20,105,178,171,136,126,126,120,117],"subject_pair":253,"STUDY_ID":"66a3ed3c5d10d0e7d8a6b9da","PROLIFIC_PID":"5d74001d391b6600175f433b","SESSION_ID":"66a41999272f23d1b660ce04","practice_instructions":1,"leaderboard_instructions":0,"bonus":0,"reveal_word":true,"self_rating":"2","confidence":"27"},{"view_history":"[{\"page_index\":0,\"viewing_time\":7547.700000000186}]","rt":7548.100000000559,"trial_type":"instructions","trial_index":2,"time_elapsed":12957,"internal_node_id":"0.0-2.0-0.0","protocol_sum":"","subject_identifier":507,"subject_sum":[231,134,111,220,102,114,248,39,199,111,97,36,202,62,234,255,68,175,248,183,202,244,238,20,105,178,171,136,126,126,120,117],"subject_pair":253,"STUDY_ID":"66a3ed3c5d10d0e7d8a6b9da","PROLIFIC_PID":"5d74001d391b6600175f433b","SESSION_ID":"66a41999272f23d1b660ce04","practice_instructions":1,"leaderboard_instructions":0,"bonus":0,"reveal_word":true,"self_rating":"2","confidence":"27"},{"rt":4715.5999999996275,"responses":"{\"Q0\":\"... reveal the word with as <b>few letter guesses</b> as possible\"}","question_order":"[0]","trial_type":"survey-multi-choice","trial_index":3,"time_elapsed":17675,"internal_node_id":"0.0-2.0-1.0","protocol_sum":"","subject_identifier":507,"subject_sum":[231,134,111,220,102,114,248,39,199,111,97,36,202,62,234,255,68,175,248,183,202,244,238,20,105,178,171,136,126,126,120,117],"subject_pair":253,"correct":true,"test_part":"multichoice_nonpretend","STUDY_ID":"66a3ed3c5d10d0e7d8a6b9da","PROLIFIC_PID":"5d74001d391b6600175f433b","SESSION_ID":"66a41999272f23d1b660ce04","practice_instructions":1,"leaderboard_instructions":0,"bonus":0,"reveal_word":true,"self_rating":"2","confidence":"27"},{"view_history":"[{\"page_index\":0,\"viewing_time\":1146.5999999996275}]","rt":1147,"trial_type":"instructions","trial_index":4,"time_elapsed":18823,"internal_node_id":"0.0-3.0","protocol_sum":"","subject_identifier":507,"subject_sum":[231,134,111,220,102,114,248,39,199,111,97,36,202,62,234,255,68,175,248,183,202,244,238,20,105,178,171,136,126,126,120,117],"subject_pair":253,"STUDY_ID":"66a3ed3c5d10d0e7d8a6b9da","PROLIFIC_PID":"5d74001d391b6600175f433b","SESSION_ID":"66a41999272f23d1b660ce04","practice_instructions":1,"leaderboard_instructions":0,"bonus":0,"reveal_word":true,"self_rating":"2","confidence":"27"},{"word":"ZEBRA","click_log":{"letter":["","E","A","Z","B","R"],"t":[0,2893.7000000001863,5193.5,12010.100000000559,12876.100000000559,13626.600000000559],"hit":[null,1,1,1,1,1],"asked":["","E","EA","EAZ","EAZB","EAZBR"],"word_state":["_____","_E___","_E__A","ZE__A","ZEB_A","ZEBRA"]},"hover_log":{"letter":["?","?","?","?","?","?","?","?","?","?","?","?","?","?","?","?","?","?","?","?","?","?","?","?","?","S","S","S","S","S","S","S","S","S","?","?","?","?","?","?","?","?","?","?","?","?","?","?","?","?","?","?","?","?","?","?","?","?","?","?","?","?","?","?","?","?","?","?","?","?","?","?","?","?","?","?","?","?","?","?","?","?","?","?","?","?","?","?","?","?","?","?","?","?","?","?","?","?","?","?","?","?","?","?","?","?","?","?","?","?","?","?","?","?","?","?","?","?","?","S","S","?","?","?","K","?","L","L","?","?","?","?","?","?","?","D","D","D","D","D","D","D","D","D","D","D","?","?","?","?","?","E","E","E","E","E","E","E","E","E","E","E","E","E","E","E","E","E","E","E","E","E","E","E","E","E","E","E","E","E","E","E","E","E","E","E","E","E","E","E","E","E","E","E","E","E","E","E","E","E","E","E","E","E","E","E","E","E","E","E","E","E","E","E","E","E","E","E","E","E","E","E","E","E","E","E","E","E","E","E","E","E","E","E","E","E","E","E","E","E","E","E","E","E","E","E","E","?","?","?","?","?","?","?","?","?","?","?","?","?","?","?","?","?","?","?","?","?","?","?","?","?","?","?","?","?","?","?","?","?","?","C","?","B","B","?","?","A","A","A","A","A","A","A","A","A","A","A","A","A","A","A","A","A","A","A","A","A","A","A","A","A","A","A","A","A","A","A","A","A","A","A","A","A","A","A","A","A","A","A","A","A","A","A","A","A","A","A","A","A","A","A","A","A","A","A","A","A","A","A","?","?","?","?","?","?","?","?","?","?","?","?","?","?","?","?","?","?","?","?","?","?","?","?","?","?","?","?","?","?","?","?","?","B","B","?","?","?","?","?","?","?","?","?","?","?","?","?","?","?","?","?","?","?","?","?","?","?","?","?","?","?","?","?","?","?","?","?","?","?","?","?","?","?","?","?","?","?","?","?","?","?","?","?","?","?","?","?","?","?","?","?","?","?","?","?","?","?","?","?","?","?","?","?","?","?","?","?","?","?","?","?","?","?","?","?","?","?","?","?","?","?","?","?","?","?","?","?","?","?","?","?","?","?","?","?","?","?","?","?","?","?","?","?","?","?","?","?","?","?","?","?","?","?","?","?","?","?","?","?","?","?","?","?","?","?","?","?","?","?","?","?","?","?","?","?","?","?","?","?","?","?","?","?","?","?","?","?","?","?","?","?","?","?","?","?","?","?","?","?","?","?","?","?","?","?","?","?","?","?","?","?","?","?","?","?","?","?","?","?","?","?","?","?","?","?","?","?","?","?","?","?","?","?","?","?","?","?","?","?","?","?","?","?","?","?","?","?","?","?","?","?","?","?","?","?","?","?","?","?","?","?","?","?","?","?","?","?","?","?","?","?","?","?","?","?","?","?","?","?","?","?","?","?","?","?","?","?","?","?","?","?","?","?","?","?","?","?","?","?","?","?","?","?","?","?","?","?","?","?","?","?","?","?","?","?","?","?","?","?","?","?","?","?","?","D","?","?","O","O","?","?","?","?","?","?","?","?","?","?","?","?","?","?","?","Y","?","?","?","?","?","Z","Z","Z","Z","Z","Z","Z","Z","Z","Z","Z","Z","Z","Z","Z","Z","Z","Z","Z","Z","Z","Z","Z","Z","Z","Z","Z","Z","Z","Z","Z","Z","Z","?","Y","?","O","?","N","?","?","?","?","?","?","?","?","?","?","C","C","C","C","?","?","?","?","B","B","B","B","B","B","B","B","B","B","B","B","B","B","B","B","B","B","B","B","?","C","?","D","E","E","F","?","G","?","?","?","?","?","?","?","?","?","?","?","?","?","?","?","?","?","?","?","R","R","R","R","R","R","R","R","R","R","R","R","R","R","R","R","R","R","R","R","R","R","R","R","R","R","R","R","R","R","R","R","R","R","R","R","R","R","R","R","R","R","R","R","R","R","R","R","R","R","R","R","R","R","R","R","R","R","R","R","R","R","R","R","R","R","R","R","R","R","R","R","R","R","R","R","R","R","R","R","R","R","?","?","?","?","?","?","?","?","?","?","?","?","?","?","?","?","?","?","?","?","?","?","?","?","?","?","?","?","?","?","?","?","?","?","?","?","?","?","?","?","?","?","?","?","?","?","?","?","?","?"],"t":[22,31,47,64,81,97,113,130,149,164,182,198,215,231,248,265,282,298,315,331,348,366,382,399,413,433,447,465,481,497,514,532,549,565,582,599,614,632,647,664,681,699,715,731,747,765,782,799,815,832,849,865,882,898,915,930,947,964,981,998,1013,1030,1046,1065,1082,1098,1116,1131,1149,1165,1181,1199,1214,1230,1249,1265,1282,1299,1314,1330,1348,1364,1382,1398,1415,1430,1447,1465,1482,1499,1514,1532,1548,1565,1582,1598,1615,1632,1648,1664,1681,1698,1715,1732,1749,1765,1782,1798,1815,1831,1849,1865,1882,1898,1915,1931,1947,1965,1982,1996,2014,2031,2047,2065,2082,2097,2114,2132,2147,2165,2182,2198,2215,2232,2247,2264,2281,2297,2315,2331,2348,2364,2382,2399,2415,2430,2449,2465,2482,2499,2515,2532,2549,2563,2582,2598,2614,2631,2649,2665,2682,2699,2714,2730,2747,2764,2782,2797,2814,2831,2847,2864,2882,2897,2915,2930,2947,2965,2982,2998,3014,3033,3049,3064,3082,3098,3115,3132,3147,3165,3182,3198,3215,3232,3248,3265,3282,3299,3315,3332,3349,3365,3382,3399,3415,3431,3447,3465,3482,3499,3515,3531,3548,3565,3582,3598,3615,3632,3648,3668,3681,3698,3715,3730,3748,3764,3780,3798,3815,3832,3849,3865,3882,3899,3914,3930,3949,3965,3982,3998,4015,4031,4048,4064,4081,4097,4114,4131,4148,4165,4182,4198,4215,4232,4249,4264,4282,4299,4315,4332,4348,4365,4381,4399,4415,4432,4448,4465,4482,4498,4515,4532,4548,4565,4582,4598,4615,4632,4649,4664,4680,4697,4715,4730,4747,4765,4781,4797,4813,4832,4849,4865,4882,4897,4915,4931,4949,4964,4980,4997,5014,5030,5049,5064,5082,5099,5115,5131,5148,5165,5181,5197,5215,5230,5247,5265,5282,5298,5315,5332,5348,5365,5382,5397,5414,5432,5448,5464,5480,5498,5514,5531,5547,5565,5582,5598,5615,5631,5648,5665,5682,5698,5714,5730,5748,5765,5782,5799,5814,5832,5849,5865,5882,5897,5915,5932,5947,5964,5980,5997,6014,6032,6048,6065,6082,6098,6115,6132,6147,6164,6182,6198,6215,6232,6248,6265,6282,6298,6315,6331,6348,6365,6382,6399,6415,6431,6447,6464,6481,6497,6513,6532,6548,6565,6582,6597,6615,6631,6647,6665,6682,6699,6715,6731,6747,6764,6782,6797,6813,6830,6848,6865,6882,6898,6915,6930,6947,6965,6982,6999,7014,7031,7046,7065,7081,7098,7115,7132,7148,7165,7182,7198,7215,7231,7248,7265,7282,7298,7315,7332,7348,7365,7381,7398,7415,7432,7447,7465,7482,7498,7515,7532,7548,7565,7582,7598,7614,7631,7648,7665,7681,7698,7715,7730,7748,7764,7781,7798,7814,7831,7848,7865,7882,7897,7915,7931,7947,7964,7982,7998,8015,8031,8048,8063,8081,8099,8115,8132,8149,8165,8181,8197,8215,8231,8248,8265,8282,8298,8315,8332,8348,8365,8381,8398,8415,8432,8448,8465,8482,8499,8515,8532,8548,8565,8582,8598,8615,8632,8648,8664,8682,8698,8715,8730,8748,8765,8782,8798,8815,8832,8848,8865,8882,8898,8915,8931,8948,8965,8982,8998,9015,9031,9048,9065,9082,9098,9115,9132,9148,9165,9181,9198,9214,9231,9248,9265,9281,9298,9315,9331,9348,9365,9381,9398,9415,9432,9448,9465,9481,9498,9514,9531,9547,9564,9581,9597,9615,9631,9648,9665,9681,9698,9715,9731,9748,9765,9781,9798,9815,9831,9848,9864,9881,9898,9915,9931,9947,9964,9981,9998,10014,10031,10048,10065,10081,10098,10115,10131,10147,10165,10181,10198,10215,10232,10248,10265,10282,10298,10315,10331,10348,10365,10381,10398,10414,10431,10447,10465,10481,10498,10515,10532,10548,10565,10581,10598,10615,10631,10648,10664,10680,10698,10714,10731,10747,10764,10781,10798,10814,10831,10848,10864,10881,10898,10914,10931,10947,10964,10981,10997,11014,11031,11048,11065,11081,11098,11115,11131,11148,11164,11181,11198,11215,11231,11248,11264,11281,11298,11315,11332,11347,11364,11381,11398,11415,11431,11448,11465,11482,11498,11515,11531,11547,11565,11581,11598,11615,11632,11648,11665,11681,11698,11715,11731,11748,11764,11780,11798,11815,11832,11849,11865,11881,11898,11915,11931,11947,11964,11981,11998,12014,12031,12048,12065,12082,12097,12114,12131,12148,12165,12181,12197,12214,12231,12249,12264,12281,12297,12315,12331,12348,12365,12381,12398,12414,12432,12448,12464,12482,12498,12515,12532,12548,12565,12582,12598,12614,12631,12648,12665,12682,12698,12715,12731,12748,12765,12781,12797,12814,12831,12848,12865,12881,12898,12914,12931,12947,12964,12981,12997,13014,13031,13048,13065,13081,13098,13114,13131,13148,13164,13181,13198,13215,13231,13248,13264,13281,13298,13315,13332,13348,13363,13381,13398,13415,13432,13448,13463,13482,13498,13515,13531,13548,13564,13581,13598,13615,13636,13648,13664,13682,13698,13715,13731,13748,13765,13782,13798,13815,13832,13848,13864,13882,13898,13915,13931,13948,13965,13982,13998,14014,14032,14048,14064,14082,14098,14115,14132,14148,14165,14182,14198,14215,14231,14247,14264,14281,14298,14315,14332,14348,14365,14381,14398,14415,14432,14448,14465,14482,14497,14514,14531,14547,14564,14581,14597,14615,14632,14648,14665,14682,14698,14715,14731,14748,14765,14781,14798,14814,14831,14847,14864,14881,14898,14914,14931,14948,14965,14981,14998,15014,15031,15048,15065,15081,15098,15115,15131,15148,15165,15182,15198,15215,15232,15248,15265,15282,15298,15315,15331,15348,15365,15381,15398,15415,15431,15448,15465,15482,15498,15515,15531,15548,15565,15581,15598,15615,15634],"hit":[null],"x":[-1.5714285714285714,-1.5714285714285714,-1.5714285714285714,-1.5714285714285714,-1.5714285714285714,-1.5714285714285714,-1.5714285714285714,-1.5714285714285714,-1.5714285714285714,-1.5714285714285714,-1.5714285714285714,-1.5714285714285714,-1.5714285714285714,-1.5714285714285714,-1.5714285714285714,-1.5714285714285714,-1.5714285714285714,-1.5714285714285714,-1.5714285714285714,-1.5714285714285714,0.003401360544217687,0,-0.006802721088435374,-0.01020408163265306,-0.017006802721088437,-0.02040816326530612,-0.027210884353741496,-0.030612244897959183,-0.03741496598639456,-0.04081632653061224,-0.04081632653061224,-0.04421768707482993,-0.047619047619047616,-0.047619047619047616,-0.047619047619047616,-0.05102040816326531,-0.05442176870748299,-0.05782312925170068,-0.061224489795918366,-0.06462585034013606,-0.06462585034013606,-0.06802721088435375,-0.07142857142857142,-0.07142857142857142,-0.07142857142857142,-0.07142857142857142,-0.07142857142857142,-0.07142857142857142,-0.07142857142857142,-0.07142857142857142,-0.07142857142857142,-0.07142857142857142,-0.07142857142857142,-0.07142857142857142,-0.07142857142857142,-0.06802721088435375,-0.06802721088435375,-0.06802721088435375,-0.06802721088435375,-0.06802721088435375,-0.06802721088435375,-0.06802721088435375,-0.06802721088435375,-0.06802721088435375,-0.06462585034013606,-0.06462585034013606,-0.061224489795918366,-0.05782312925170068,-0.05102040816326531,-0.04421768707482993,-0.03741496598639456,-0.030612244897959183,-0.023809523809523808,-0.02040816326530612,-0.017006802721088437,-0.013605442176870748,-0.01020408163265306,-0.01020408163265306,-0.01020408163265306,-0.01020408163265306,-0.01020408163265306,-0.01020408163265306,-0.01020408163265306,-0.01020408163265306,-0.01020408163265306,-0.01020408163265306,-0.01020408163265306,-0.01020408163265306,-0.01020408163265306,-0.01020408163265306,-0.01020408163265306,-0.01020408163265306,-0.01020408163265306,-0.01020408163265306,-0.01020408163265306,-0.01020408163265306,-0.01020408163265306,-0.01020408163265306,-0.01020408163265306,-0.01020408163265306,-0.01020408163265306,-0.01020408163265306,-0.01020408163265306,-0.01020408163265306,-0.01020408163265306,-0.01020408163265306,-0.01020408163265306,-0.01020408163265306,-0.01020408163265306,-0.01020408163265306,-0.01020408163265306,-0.01020408163265306,-0.01020408163265306,-0.01020408163265306,-0.01020408163265306,-0.01020408163265306,-0.003401360544217687,0,0.01020408163265306,0.023809523809523808,0.05442176870748299,0.08843537414965986,0.11224489795918367,0.14965986394557823,0.1836734693877551,0.2108843537414966,0.23809523809523808,0.2619047619047619,0.2789115646258503,0.29591836734693877,0.3163265306122449,0.336734693877551,0.35714285714285715,0.37755102040816324,0.3945578231292517,0.41156462585034015,0.42517006802721086,0.4387755102040816,0.4489795918367347,0.4523809523809524,0.45918367346938777,0.46258503401360546,0.46598639455782315,0.46938775510204084,0.47278911564625853,0.47619047619047616,0.48299319727891155,0.4897959183673469,0.4965986394557823,0.5068027210884354,0.5136054421768708,0.5204081632653061,0.5306122448979592,0.5374149659863946,0.54421768707483,0.5476190476190477,0.5510204081632653,0.5544217687074829,0.5612244897959183,0.564625850340136,0.5680272108843537,0.5680272108843537,0.5714285714285714,0.5714285714285714,0.5714285714285714,0.5714285714285714,0.5714285714285714,0.5714285714285714,0.5714285714285714,0.5714285714285714,0.5714285714285714,0.5714285714285714,0.5714285714285714,0.5714285714285714,0.5714285714285714,0.5714285714285714,0.5714285714285714,0.5714285714285714,0.5714285714285714,0.5714285714285714,0.5714285714285714,0.5714285714285714,0.5714285714285714,0.5714285714285714,0.5714285714285714,0.5714285714285714,0.5714285714285714,0.5714285714285714,0.5714285714285714,0.5714285714285714,0.5714285714285714,0.5714285714285714,0.5714285714285714,0.5714285714285714,0.5714285714285714,0.5714285714285714,0.5714285714285714,0.5714285714285714,0.5714285714285714,0.5714285714285714,0.5714285714285714,0.5714285714285714,0.5714285714285714,0.5714285714285714,0.5714285714285714,0.5714285714285714,0.5714285714285714,0.5714285714285714,0.5714285714285714,0.5714285714285714,0.5714285714285714,0.5714285714285714,0.5714285714285714,0.5714285714285714,0.5714285714285714,0.5714285714285714,0.5714285714285714,0.5714285714285714,0.5714285714285714,0.5714285714285714,0.5714285714285714,0.5714285714285714,0.5714285714285714,0.5714285714285714,0.5714285714285714,0.5714285714285714,0.5714285714285714,0.5714285714285714,0.5714285714285714,0.5714285714285714,0.5680272108843537,0.564625850340136,0.5612244897959183,0.5578231292517006,0.5544217687074829,0.5476190476190477,0.54421768707483,0.5408163265306123,0.5374149659863946,0.5306122448979592,0.5272108843537415,0.5238095238095238,0.5238095238095238,0.5204081632653061,0.5170068027210885,0.5170068027210885,0.5170068027210885,0.5136054421768708,0.5136054421768708,0.5136054421768708,0.5102040816326531,0.5102040816326531,0.5102040816326531,0.5102040816326531,0.5102040816326531,0.5102040816326531,0.5102040816326531,0.5068027210884354,0.5034013605442177,0.4965986394557823,0.4931972789115646,0.4897959183673469,0.48639455782312924,0.48299319727891155,0.47959183673469385,0.47959183673469385,0.47619047619047616,0.47619047619047616,0.47619047619047616,0.47278911564625853,0.47278911564625853,0.47278911564625853,0.47278911564625853,0.46938775510204084,0.46938775510204084,0.46258503401360546,0.4557823129251701,0.4421768707482993,0.4217687074829932,0.3945578231292517,0.3231292517006803,0.282312925170068,0.22108843537414966,0.1598639455782313,0.11224489795918367,0.08503401360544217,0.061224489795918366,0.04421768707482993,0.030612244897959183,0.023809523809523808,0.013605442176870748,0.006802721088435374,0,-0.01020408163265306,-0.013605442176870748,-0.02040816326530612,-0.027210884353741496,-0.030612244897959183,-0.030612244897959183,-0.030612244897959183,-0.030612244897959183,-0.030612244897959183,-0.030612244897959183,-0.030612244897959183,-0.027210884353741496,-0.027210884353741496,-0.027210884353741496,-0.027210884353741496,-0.027210884353741496,-0.027210884353741496,-0.027210884353741496,-0.027210884353741496,-0.027210884353741496,-0.027210884353741496,-0.027210884353741496,-0.027210884353741496,-0.027210884353741496,-0.027210884353741496,-0.027210884353741496,-0.027210884353741496,-0.027210884353741496,-0.027210884353741496,-0.027210884353741496,-0.027210884353741496,-0.027210884353741496,-0.027210884353741496,-0.027210884353741496,-0.027210884353741496,-0.027210884353741496,-0.027210884353741496,-0.027210884353741496,-0.027210884353741496,-0.027210884353741496,-0.027210884353741496,-0.027210884353741496,-0.027210884353741496,-0.027210884353741496,-0.027210884353741496,-0.027210884353741496,-0.027210884353741496,-0.027210884353741496,-0.027210884353741496,-0.02040816326530612,-0.017006802721088437,-0.01020408163265306,-0.003401360544217687,0.003401360544217687,0.01020408163265306,0.02040816326530612,0.030612244897959183,0.04421768707482993,0.05102040816326531,0.05782312925170068,0.06802721088435375,0.07142857142857142,0.0782312925170068,0.08163265306122448,0.08503401360544217,0.08843537414965986,0.09183673469387756,0.09523809523809523,0.09863945578231292,0.09863945578231292,0.10204081632653061,0.10204081632653061,0.10204081632653061,0.10204081632653061,0.10204081632653061,0.10204081632653061,0.10204081632653061,0.10204081632653061,0.10204081632653061,0.10204081632653061,0.10204081632653061,0.10204081632653061,0.10204081632653061,0.10204081632653061,0.10204081632653061,0.10204081632653061,0.10204081632653061,0.10204081632653061,0.10204081632653061,0.10204081632653061,0.10884353741496598,0.12244897959183673,0.13945578231292516,0.15306122448979592,0.16326530612244897,0.16666666666666666,0.17006802721088435,0.17346938775510204,0.17346938775510204,0.17687074829931973,0.18027210884353742,0.1836734693877551,0.1836734693877551,0.1870748299319728,0.19047619047619047,0.19387755102040816,0.19727891156462585,0.20408163265306123,0.20748299319727892,0.2108843537414966,0.21428571428571427,0.21768707482993196,0.22108843537414966,0.22448979591836735,0.22448979591836735,0.22789115646258504,0.22789115646258504,0.22789115646258504,0.22789115646258504,0.22789115646258504,0.22789115646258504,0.22789115646258504,0.22789115646258504,0.22789115646258504,0.22789115646258504,0.22789115646258504,0.22789115646258504,0.22789115646258504,0.22789115646258504,0.22789115646258504,0.22789115646258504,0.22789115646258504,0.22789115646258504,0.22789115646258504,0.22789115646258504,0.22789115646258504,0.22789115646258504,0.22789115646258504,0.22789115646258504,0.22789115646258504,0.22789115646258504,0.22789115646258504,0.22789115646258504,0.22789115646258504,0.22789115646258504,0.22789115646258504,0.22789115646258504,0.22789115646258504,0.22789115646258504,0.22789115646258504,0.22789115646258504,0.22789115646258504,0.22789115646258504,0.22789115646258504,0.22789115646258504,0.22789115646258504,0.22789115646258504,0.22789115646258504,0.22789115646258504,0.22789115646258504,0.22789115646258504,0.22789115646258504,0.22789115646258504,0.22789115646258504,0.22789115646258504,0.22789115646258504,0.22789115646258504,0.22789115646258504,0.22789115646258504,0.22789115646258504,0.22789115646258504,0.22789115646258504,0.22789115646258504,0.22789115646258504,0.22789115646258504,0.22789115646258504,0.22789115646258504,0.22789115646258504,0.22789115646258504,0.22789115646258504,0.22789115646258504,0.22789115646258504,0.22789115646258504,0.22789115646258504,0.22789115646258504,0.22789115646258504,0.22789115646258504,0.22789115646258504,0.22789115646258504,0.22789115646258504,0.22789115646258504,0.22789115646258504,0.22789115646258504,0.22789115646258504,0.22789115646258504,0.22789115646258504,0.22789115646258504,0.22789115646258504,0.22789115646258504,0.22789115646258504,0.22789115646258504,0.22789115646258504,0.22789115646258504,0.22789115646258504,0.22789115646258504,0.22789115646258504,0.22789115646258504,0.22789115646258504,0.22789115646258504,0.22789115646258504,0.22789115646258504,0.22789115646258504,0.22789115646258504,0.22789115646258504,0.22789115646258504,0.22789115646258504,0.22789115646258504,0.22789115646258504,0.22789115646258504,0.22789115646258504,0.22789115646258504,0.22789115646258504,0.22789115646258504,0.22789115646258504,0.22789115646258504,0.22789115646258504,0.22789115646258504,0.22789115646258504,0.22789115646258504,0.22789115646258504,0.22789115646258504,0.22789115646258504,0.22789115646258504,0.22789115646258504,0.22789115646258504,0.22789115646258504,0.22789115646258504,0.22789115646258504,0.22789115646258504,0.22789115646258504,0.22789115646258504,0.22789115646258504,0.22789115646258504,0.22789115646258504,0.22789115646258504,0.22789115646258504,0.22789115646258504,0.22789115646258504,0.22789115646258504,0.22789115646258504,0.22789115646258504,0.22789115646258504,0.22789115646258504,0.22789115646258504,0.22789115646258504,0.22789115646258504,0.22789115646258504,0.22789115646258504,0.22789115646258504,0.22789115646258504,0.22789115646258504,0.22789115646258504,0.22789115646258504,0.22789115646258504,0.22789115646258504,0.22789115646258504,0.22789115646258504,0.22789115646258504,0.22789115646258504,0.22789115646258504,0.22789115646258504,0.22789115646258504,0.22789115646258504,0.22789115646258504,0.22789115646258504,0.22789115646258504,0.22789115646258504,0.22789115646258504,0.22789115646258504,0.22789115646258504,0.22789115646258504,0.22789115646258504,0.22789115646258504,0.22789115646258504,0.22789115646258504,0.22789115646258504,0.22789115646258504,0.22789115646258504,0.22789115646258504,0.22789115646258504,0.22789115646258504,0.22789115646258504,0.22789115646258504,0.22789115646258504,0.22789115646258504,0.22789115646258504,0.22789115646258504,0.22789115646258504,0.22789115646258504,0.22789115646258504,0.22789115646258504,0.22789115646258504,0.22789115646258504,0.22789115646258504,0.22789115646258504,0.22789115646258504,0.22789115646258504,0.22789115646258504,0.22789115646258504,0.22789115646258504,0.22789115646258504,0.22789115646258504,0.22789115646258504,0.22789115646258504,0.22789115646258504,0.22789115646258504,0.22789115646258504,0.22789115646258504,0.22789115646258504,0.22789115646258504,0.22789115646258504,0.22789115646258504,0.22789115646258504,0.22789115646258504,0.22789115646258504,0.22789115646258504,0.22789115646258504,0.22789115646258504,0.22789115646258504,0.22789115646258504,0.22789115646258504,0.22789115646258504,0.22789115646258504,0.22789115646258504,0.22789115646258504,0.22789115646258504,0.22789115646258504,0.22789115646258504,0.22789115646258504,0.22789115646258504,0.22789115646258504,0.22789115646258504,0.22789115646258504,0.22789115646258504,0.22789115646258504,0.22789115646258504,0.22789115646258504,0.22789115646258504,0.22789115646258504,0.22789115646258504,0.22789115646258504,0.22789115646258504,0.22789115646258504,0.22789115646258504,0.22789115646258504,0.22789115646258504,0.22789115646258504,0.22789115646258504,0.22789115646258504,0.22789115646258504,0.22789115646258504,0.22789115646258504,0.22789115646258504,0.22789115646258504,0.22789115646258504,0.22789115646258504,0.22789115646258504,0.22789115646258504,0.22789115646258504,0.22789115646258504,0.22789115646258504,0.22789115646258504,0.22789115646258504,0.22789115646258504,0.22789115646258504,0.23129251700680273,0.24149659863945577,0.25510204081632654,0.2857142857142857,0.3163265306122449,0.36054421768707484,0.40816326530612246,0.48639455782312924,0.5476190476190477,0.6156462585034014,0.6904761904761905,0.7482993197278912,0.7857142857142857,0.8095238095238095,0.8197278911564626,0.8197278911564626,0.8197278911564626,0.8197278911564626,0.8197278911564626,0.8197278911564626,0.8197278911564626,0.8197278911564626,0.8197278911564626,0.8197278911564626,0.8197278911564626,0.8333333333333334,0.8435374149659864,0.8877551020408163,0.9047619047619048,0.9217687074829932,0.9319727891156463,0.935374149659864,0.9387755102040817,0.9421768707482994,0.9455782312925171,0.9489795918367347,0.9523809523809523,0.95578231292517,0.9591836734693877,0.9625850340136054,0.9659863945578231,0.9693877551020408,0.9693877551020408,0.9693877551020408,0.9693877551020408,0.9693877551020408,0.9693877551020408,0.9693877551020408,0.9693877551020408,0.9693877551020408,0.9693877551020408,0.9693877551020408,0.9693877551020408,0.9693877551020408,0.9693877551020408,0.9693877551020408,0.9693877551020408,0.9693877551020408,0.9693877551020408,0.9693877551020408,0.9693877551020408,0.9693877551020408,0.9693877551020408,0.9693877551020408,0.9693877551020408,0.9523809523809523,0.9319727891156463,0.8877551020408163,0.8095238095238095,0.7278911564625851,0.6428571428571429,0.5884353741496599,0.5238095238095238,0.47619047619047616,0.42857142857142855,0.3945578231292517,0.3673469387755102,0.35374149659863946,0.3401360544217687,0.32653061224489793,0.3163265306122449,0.3129251700680272,0.29931972789115646,0.2891156462585034,0.2755102040816326,0.2619047619047619,0.24829931972789115,0.22789115646258504,0.2108843537414966,0.19727891156462585,0.1836734693877551,0.17346938775510204,0.16666666666666666,0.1598639455782313,0.1564625850340136,0.15306122448979592,0.15306122448979592,0.15306122448979592,0.15306122448979592,0.15306122448979592,0.15306122448979592,0.15306122448979592,0.15306122448979592,0.15306122448979592,0.15306122448979592,0.15306122448979592,0.15306122448979592,0.15306122448979592,0.15306122448979592,0.18027210884353742,0.21428571428571427,0.2619047619047619,0.35714285714285715,0.4557823129251701,0.5408163265306123,0.6258503401360545,0.7482993197278912,0.8027210884353742,0.8639455782312925,0.9115646258503401,0.9319727891156463,0.95578231292517,0.9761904761904762,0.9897959183673469,1,1.010204081632653,1.0170068027210883,1.0238095238095237,1.0272108843537415,1.034013605442177,1.0408163265306123,1.0476190476190477,1.054421768707483,1.0612244897959184,1.0714285714285714,1.0782312925170068,1.0850340136054422,1.0918367346938775,1.098639455782313,1.1020408163265305,1.1088435374149659,1.1088435374149659,1.1122448979591837,1.1122448979591837,1.1122448979591837,1.1122448979591837,1.1122448979591837,1.1122448979591837,1.1122448979591837,1.1122448979591837,1.1122448979591837,1.1122448979591837,1.1122448979591837,1.1122448979591837,1.1122448979591837,1.1122448979591837,1.1122448979591837,1.1122448979591837,1.1122448979591837,1.1122448979591837,1.1122448979591837,1.1122448979591837,1.1122448979591837,1.1122448979591837,1.1122448979591837,1.1122448979591837,1.1122448979591837,1.1122448979591837,1.1122448979591837,1.1122448979591837,1.1122448979591837,1.1122448979591837,1.1122448979591837,1.1122448979591837,1.1122448979591837,1.1122448979591837,1.1122448979591837,1.1122448979591837,1.1122448979591837,1.1122448979591837,1.1122448979591837,1.1122448979591837,1.1122448979591837,1.1122448979591837,1.1122448979591837,1.1122448979591837,1.1122448979591837,1.1122448979591837,1.1122448979591837,1.1122448979591837,1.1122448979591837,1.1122448979591837,1.1122448979591837,1.1122448979591837,1.1122448979591837,1.1122448979591837,1.1122448979591837,1.1122448979591837,1.1122448979591837,1.1122448979591837,1.1122448979591837,1.1122448979591837,1.1122448979591837,1.1122448979591837,1.1122448979591837,1.1122448979591837,1.1122448979591837,1.1122448979591837,1.1122448979591837,1.1122448979591837,1.1122448979591837,1.1122448979591837,1.1122448979591837,1.1122448979591837,1.1122448979591837,1.1122448979591837,1.1122448979591837,1.1122448979591837,1.1224489795918366,1.1360544217687074,1.1598639455782314,1.1904761904761905,1.2448979591836735,1.2755102040816326,1.2925170068027212,1.3095238095238095,1.3197278911564625,1.3265306122448979,1.3299319727891157,1.3299319727891157,1.3333333333333333,1.3333333333333333,1.3333333333333333,1.3333333333333333,1.3333333333333333,1.3333333333333333,1.3333333333333333,1.3333333333333333,1.3333333333333333,1.3333333333333333,1.3333333333333333,1.3333333333333333,1.3333333333333333,1.3333333333333333,1.3333333333333333,1.3333333333333333,1.3333333333333333,1.3333333333333333,1.3333333333333333,1.3333333333333333,1.3333333333333333,1.3333333333333333,1.3333333333333333,1.3333333333333333,1.3333333333333333,1.3333333333333333,1.3333333333333333,1.3333333333333333,1.3333333333333333,1.3333333333333333,1.3333333333333333,1.3333333333333333,1.3333333333333333,1.3333333333333333,1.3333333333333333,1.3333333333333333,1.3333333333333333,1.3333333333333333,1.3333333333333333,1.3333333333333333],"y":[-2.9166666666666665,-2.9166666666666665,-2.9166666666666665,-2.9166666666666665,-2.9166666666666665,-2.9166666666666665,-2.9166666666666665,-2.9166666666666665,-2.9166666666666665,-2.9166666666666665,-2.9166666666666665,-2.9166666666666665,-2.9166666666666665,-2.9166666666666665,-2.9166666666666665,-2.9166666666666665,-2.9166666666666665,-2.9166666666666665,-2.9166666666666665,-2.9166666666666665,0.669047619047619,0.6976190476190476,0.7452380952380953,0.7833333333333333,0.8119047619047619,0.85,0.888095238095238,0.9166666666666666,0.9547619047619048,1.0023809523809524,1.0214285714285714,1.05,1.069047619047619,1.088095238095238,1.1071428571428572,1.1357142857142857,1.1642857142857144,1.2023809523809523,1.2404761904761905,1.269047619047619,1.3071428571428572,1.3452380952380953,1.3833333333333333,1.4023809523809523,1.430952380952381,1.4404761904761905,1.45,1.45,1.45,1.45,1.45,1.45,1.45,1.45,1.45,1.45,1.45,1.45,1.45,1.45,1.45,1.45,1.4404761904761905,1.4404761904761905,1.4214285714285715,1.4214285714285715,1.411904761904762,1.3928571428571428,1.3642857142857143,1.3452380952380953,1.3261904761904761,1.3071428571428572,1.2880952380952382,1.269047619047619,1.2595238095238095,1.25,1.25,1.25,1.25,1.25,1.25,1.25,1.25,1.25,1.25,1.25,1.25,1.25,1.25,1.25,1.25,1.25,1.25,1.25,1.25,1.25,1.25,1.25,1.25,1.25,1.25,1.25,1.25,1.25,1.25,1.25,1.25,1.25,1.25,1.25,1.25,1.25,1.25,1.25,1.25,1.2404761904761905,1.2214285714285715,1.2023809523809523,1.1642857142857144,1.1166666666666667,1.0119047619047619,0.8976190476190476,0.8119047619047619,0.6976190476190476,0.6023809523809524,0.5071428571428571,0.430952380952381,0.36428571428571427,0.31666666666666665,0.26904761904761904,0.23095238095238096,0.20238095238095238,0.18333333333333332,0.16428571428571428,0.14523809523809525,0.1261904761904762,0.1261904761904762,0.11666666666666667,0.11666666666666667,0.11666666666666667,0.11666666666666667,0.11666666666666667,0.11666666666666667,0.11666666666666667,0.10714285714285714,0.09761904761904762,0.0880952380952381,0.07857142857142857,0.06904761904761905,0.05952380952380952,0.05,0.04047619047619048,0.04047619047619048,0.030952380952380953,0.030952380952380953,0.02142857142857143,0.02142857142857143,0.011904761904761904,0.011904761904761904,0.002380952380952381,0.002380952380952381,-0.007142857142857143,-0.007142857142857143,-0.007142857142857143,-0.007142857142857143,-0.007142857142857143,-0.007142857142857143,-0.007142857142857143,-0.007142857142857143,-0.007142857142857143,-0.007142857142857143,-0.007142857142857143,-0.007142857142857143,-0.007142857142857143,-0.007142857142857143,-0.007142857142857143,-0.007142857142857143,-0.007142857142857143,-0.007142857142857143,-0.007142857142857143,-0.007142857142857143,-0.007142857142857143,-0.007142857142857143,-0.007142857142857143,-0.007142857142857143,-0.007142857142857143,-0.007142857142857143,-0.007142857142857143,-0.007142857142857143,-0.007142857142857143,-0.007142857142857143,-0.007142857142857143,-0.007142857142857143,-0.007142857142857143,-0.007142857142857143,-0.007142857142857143,-0.007142857142857143,-0.007142857142857143,-0.007142857142857143,-0.007142857142857143,-0.007142857142857143,-0.007142857142857143,-0.007142857142857143,-0.007142857142857143,-0.007142857142857143,-0.007142857142857143,-0.007142857142857143,-0.007142857142857143,-0.007142857142857143,-0.007142857142857143,-0.007142857142857143,-0.007142857142857143,-0.007142857142857143,-0.007142857142857143,-0.007142857142857143,-0.007142857142857143,-0.007142857142857143,-0.007142857142857143,-0.007142857142857143,-0.007142857142857143,-0.007142857142857143,-0.007142857142857143,-0.007142857142857143,-0.007142857142857143,-0.007142857142857143,-0.007142857142857143,-0.007142857142857143,-0.007142857142857143,-0.007142857142857143,-0.007142857142857143,-0.007142857142857143,0.002380952380952381,0.002380952380952381,0.011904761904761904,0.02142857142857143,0.02142857142857143,0.02142857142857143,0.030952380952380953,0.030952380952380953,0.04047619047619048,0.04047619047619048,0.04047619047619048,0.05,0.05,0.05,0.05,0.05952380952380952,0.05952380952380952,0.05952380952380952,0.06904761904761905,0.06904761904761905,0.06904761904761905,0.06904761904761905,0.06904761904761905,0.07857142857142857,0.07857142857142857,0.09761904761904762,0.10714285714285714,0.11666666666666667,0.1261904761904762,0.14523809523809525,0.14523809523809525,0.15476190476190477,0.16428571428571428,0.1738095238095238,0.1738095238095238,0.18333333333333332,0.18333333333333332,0.18333333333333332,0.18333333333333332,0.18333333333333332,0.19285714285714287,0.19285714285714287,0.19285714285714287,0.19285714285714287,0.19285714285714287,0.19285714285714287,0.20238095238095238,0.20238095238095238,0.20238095238095238,0.1738095238095238,0.15476190476190477,0.14523809523809525,0.14523809523809525,0.1357142857142857,0.1261904761904762,0.11666666666666667,0.10714285714285714,0.09761904761904762,0.09761904761904762,0.09761904761904762,0.09761904761904762,0.09761904761904762,0.09761904761904762,0.09761904761904762,0.09761904761904762,0.09761904761904762,0.0880952380952381,0.0880952380952381,0.07857142857142857,0.06904761904761905,0.06904761904761905,0.06904761904761905,0.05952380952380952,0.05952380952380952,0.05952380952380952,0.05952380952380952,0.05952380952380952,0.05952380952380952,0.05952380952380952,0.05952380952380952,0.05952380952380952,0.05952380952380952,0.05952380952380952,0.05952380952380952,0.05952380952380952,0.05952380952380952,0.05952380952380952,0.05952380952380952,0.05952380952380952,0.05952380952380952,0.05952380952380952,0.05952380952380952,0.05952380952380952,0.05952380952380952,0.05952380952380952,0.05952380952380952,0.05952380952380952,0.05952380952380952,0.05952380952380952,0.05952380952380952,0.05952380952380952,0.05952380952380952,0.05952380952380952,0.05952380952380952,0.05952380952380952,0.05952380952380952,0.05952380952380952,0.05952380952380952,0.05952380952380952,0.05952380952380952,0.05952380952380952,0.05952380952380952,0.06904761904761905,0.07857142857142857,0.0880952380952381,0.09761904761904762,0.09761904761904762,0.10714285714285714,0.11666666666666667,0.1261904761904762,0.1357142857142857,0.14523809523809525,0.15476190476190477,0.16428571428571428,0.1738095238095238,0.1738095238095238,0.18333333333333332,0.19285714285714287,0.20238095238095238,0.2119047619047619,0.2119047619047619,0.22142857142857142,0.22142857142857142,0.22142857142857142,0.22142857142857142,0.22142857142857142,0.22142857142857142,0.22142857142857142,0.22142857142857142,0.22142857142857142,0.22142857142857142,0.22142857142857142,0.22142857142857142,0.22142857142857142,0.22142857142857142,0.22142857142857142,0.22142857142857142,0.22142857142857142,0.22142857142857142,0.22142857142857142,0.19285714285714287,0.16428571428571428,0.0880952380952381,-0.03571428571428571,-0.17857142857142858,-0.32142857142857145,-0.45476190476190476,-0.5214285714285715,-0.5595238095238095,-0.5880952380952381,-0.6071428571428571,-0.6261904761904762,-0.6452380952380953,-0.6738095238095239,-0.6928571428571428,-0.7119047619047619,-0.7309523809523809,-0.75,-0.7690476190476191,-0.8071428571428572,-0.8357142857142857,-0.8738095238095238,-0.9023809523809524,-0.9404761904761905,-0.969047619047619,-1.026190476190476,-1.0547619047619048,-1.0833333333333333,-1.1023809523809525,-1.111904761904762,-1.111904761904762,-1.111904761904762,-1.111904761904762,-1.111904761904762,-1.111904761904762,-1.1214285714285714,-1.1214285714285714,-1.1214285714285714,-1.1214285714285714,-1.130952380952381,-1.130952380952381,-1.130952380952381,-1.130952380952381,-1.130952380952381,-1.130952380952381,-1.130952380952381,-1.130952380952381,-1.130952380952381,-1.130952380952381,-1.130952380952381,-1.130952380952381,-1.130952380952381,-1.130952380952381,-1.130952380952381,-1.130952380952381,-1.130952380952381,-1.130952380952381,-1.130952380952381,-1.130952380952381,-1.130952380952381,-1.130952380952381,-1.130952380952381,-1.130952380952381,-1.130952380952381,-1.130952380952381,-1.130952380952381,-1.130952380952381,-1.130952380952381,-1.130952380952381,-1.130952380952381,-1.130952380952381,-1.130952380952381,-1.130952380952381,-1.130952380952381,-1.130952380952381,-1.130952380952381,-1.130952380952381,-1.130952380952381,-1.130952380952381,-1.130952380952381,-1.130952380952381,-1.130952380952381,-1.130952380952381,-1.130952380952381,-1.130952380952381,-1.130952380952381,-1.130952380952381,-1.130952380952381,-1.130952380952381,-1.130952380952381,-1.130952380952381,-1.130952380952381,-1.130952380952381,-1.130952380952381,-1.130952380952381,-1.130952380952381,-1.130952380952381,-1.130952380952381,-1.130952380952381,-1.130952380952381,-1.130952380952381,-1.130952380952381,-1.130952380952381,-1.130952380952381,-1.130952380952381,-1.130952380952381,-1.130952380952381,-1.130952380952381,-1.130952380952381,-1.130952380952381,-1.130952380952381,-1.130952380952381,-1.130952380952381,-1.130952380952381,-1.130952380952381,-1.130952380952381,-1.130952380952381,-1.130952380952381,-1.130952380952381,-1.130952380952381,-1.130952380952381,-1.130952380952381,-1.130952380952381,-1.130952380952381,-1.130952380952381,-1.130952380952381,-1.130952380952381,-1.130952380952381,-1.130952380952381,-1.130952380952381,-1.130952380952381,-1.130952380952381,-1.130952380952381,-1.130952380952381,-1.130952380952381,-1.130952380952381,-1.130952380952381,-1.130952380952381,-1.130952380952381,-1.130952380952381,-1.130952380952381,-1.130952380952381,-1.130952380952381,-1.130952380952381,-1.130952380952381,-1.130952380952381,-1.130952380952381,-1.130952380952381,-1.130952380952381,-1.130952380952381,-1.130952380952381,-1.130952380952381,-1.130952380952381,-1.130952380952381,-1.130952380952381,-1.130952380952381,-1.130952380952381,-1.130952380952381,-1.130952380952381,-1.130952380952381,-1.130952380952381,-1.130952380952381,-1.130952380952381,-1.130952380952381,-1.130952380952381,-1.130952380952381,-1.130952380952381,-1.130952380952381,-1.130952380952381,-1.130952380952381,-1.130952380952381,-1.130952380952381,-1.130952380952381,-1.130952380952381,-1.130952380952381,-1.130952380952381,-1.130952380952381,-1.130952380952381,-1.130952380952381,-1.130952380952381,-1.130952380952381,-1.130952380952381,-1.130952380952381,-1.130952380952381,-1.130952380952381,-1.130952380952381,-1.130952380952381,-1.130952380952381,-1.130952380952381,-1.130952380952381,-1.130952380952381,-1.130952380952381,-1.130952380952381,-1.130952380952381,-1.130952380952381,-1.130952380952381,-1.130952380952381,-1.130952380952381,-1.130952380952381,-1.130952380952381,-1.130952380952381,-1.130952380952381,-1.130952380952381,-1.130952380952381,-1.130952380952381,-1.130952380952381,-1.130952380952381,-1.130952380952381,-1.130952380952381,-1.130952380952381,-1.130952380952381,-1.130952380952381,-1.130952380952381,-1.130952380952381,-1.130952380952381,-1.130952380952381,-1.130952380952381,-1.130952380952381,-1.130952380952381,-1.130952380952381,-1.130952380952381,-1.130952380952381,-1.130952380952381,-1.130952380952381,-1.130952380952381,-1.130952380952381,-1.130952380952381,-1.130952380952381,-1.130952380952381,-1.130952380952381,-1.130952380952381,-1.130952380952381,-1.130952380952381,-1.130952380952381,-1.130952380952381,-1.130952380952381,-1.130952380952381,-1.130952380952381,-1.130952380952381,-1.130952380952381,-1.130952380952381,-1.130952380952381,-1.130952380952381,-1.130952380952381,-1.130952380952381,-1.130952380952381,-1.130952380952381,-1.130952380952381,-1.130952380952381,-1.130952380952381,-1.130952380952381,-1.130952380952381,-1.130952380952381,-1.130952380952381,-1.130952380952381,-1.130952380952381,-1.130952380952381,-1.130952380952381,-1.130952380952381,-1.130952380952381,-1.130952380952381,-1.130952380952381,-1.130952380952381,-1.130952380952381,-1.130952380952381,-1.130952380952381,-1.130952380952381,-1.130952380952381,-1.130952380952381,-1.130952380952381,-1.130952380952381,-1.130952380952381,-1.130952380952381,-1.130952380952381,-1.130952380952381,-1.130952380952381,-1.130952380952381,-1.130952380952381,-1.130952380952381,-1.130952380952381,-1.130952380952381,-1.130952380952381,-1.130952380952381,-1.130952380952381,-1.130952380952381,-1.130952380952381,-1.0833333333333333,-1.0357142857142858,-0.9214285714285714,-0.7976190476190477,-0.6166666666666667,-0.4928571428571429,-0.35,-0.1976190476190476,0.02142857142857143,0.1738095238095238,0.3357142857142857,0.4976190476190476,0.6214285714285714,0.6976190476190476,0.7547619047619047,0.7738095238095238,0.7738095238095238,0.7738095238095238,0.7738095238095238,0.7738095238095238,0.7738095238095238,0.7738095238095238,0.7738095238095238,0.7738095238095238,0.7738095238095238,0.7738095238095238,0.7833333333333333,0.7928571428571428,0.8595238095238096,0.8976190476190476,0.9261904761904762,0.9547619047619048,0.9738095238095238,0.9833333333333333,1.0023809523809524,1.0119047619047619,1.0214285714285714,1.0404761904761906,1.05,1.0595238095238095,1.069047619047619,1.069047619047619,1.069047619047619,1.0785714285714285,1.0785714285714285,1.0785714285714285,1.069047619047619,1.0595238095238095,1.05,1.05,1.05,1.05,1.05,1.05,1.05,1.05,1.05,1.05,1.05,1.05,1.05,1.05,1.05,1.05,1.05,1.05,1.05,1.0119047619047619,0.9261904761904762,0.7738095238095238,0.6214285714285714,0.5071428571428571,0.44047619047619047,0.38333333333333336,0.34523809523809523,0.31666666666666665,0.28809523809523807,0.25952380952380955,0.24047619047619048,0.20238095238095238,0.18333333333333332,0.16428571428571428,0.16428571428571428,0.15476190476190477,0.15476190476190477,0.14523809523809525,0.14523809523809525,0.1357142857142857,0.11666666666666667,0.10714285714285714,0.09761904761904762,0.07857142857142857,0.06904761904761905,0.05952380952380952,0.05952380952380952,0.05,0.05,0.05,0.05,0.05,0.05,0.05,0.05,0.05,0.05,0.05,0.05,0.05,0.05,0.05,0.05,0.05,0.05,0.05,0.05,0.05,0.05,0.05,0.07857142857142857,0.1261904761904762,0.16428571428571428,0.18333333333333332,0.20238095238095238,0.22142857142857142,0.24047619047619048,0.25,0.26904761904761904,0.2785714285714286,0.28809523809523807,0.2976190476190476,0.2976190476190476,0.30714285714285716,0.31666666666666665,0.3261904761904762,0.34523809523809523,0.36428571428571427,0.38333333333333336,0.39285714285714285,0.4119047619047619,0.42142857142857143,0.430952380952381,0.45,0.45,0.4595238095238095,0.4595238095238095,0.4595238095238095,0.4595238095238095,0.4595238095238095,0.4595238095238095,0.4595238095238095,0.4595238095238095,0.4595238095238095,0.4595238095238095,0.4595238095238095,0.4595238095238095,0.4595238095238095,0.4595238095238095,0.4595238095238095,0.4595238095238095,0.4595238095238095,0.4595238095238095,0.4595238095238095,0.4595238095238095,0.4595238095238095,0.4595238095238095,0.4595238095238095,0.4595238095238095,0.4595238095238095,0.4595238095238095,0.4595238095238095,0.4595238095238095,0.4595238095238095,0.4595238095238095,0.4595238095238095,0.4595238095238095,0.4595238095238095,0.4595238095238095,0.4595238095238095,0.4595238095238095,0.4595238095238095,0.4595238095238095,0.4595238095238095,0.4595238095238095,0.4595238095238095,0.4595238095238095,0.4595238095238095,0.4595238095238095,0.4595238095238095,0.4595238095238095,0.4595238095238095,0.4595238095238095,0.4595238095238095,0.4595238095238095,0.4595238095238095,0.4595238095238095,0.4595238095238095,0.4595238095238095,0.4595238095238095,0.4595238095238095,0.4595238095238095,0.4595238095238095,0.4595238095238095,0.4595238095238095,0.4595238095238095,0.4595238095238095,0.4595238095238095,0.4595238095238095,0.4595238095238095,0.4595238095238095,0.4595238095238095,0.4595238095238095,0.4595238095238095,0.4595238095238095,0.4595238095238095,0.4595238095238095,0.4595238095238095,0.4595238095238095,0.4595238095238095,0.45,0.42142857142857143,0.3738095238095238,0.2976190476190476,0.22142857142857142,0.05952380952380952,-0.03571428571428571,-0.09285714285714286,-0.14047619047619048,-0.16904761904761906,-0.1976190476190476,-0.20714285714285716,-0.21666666666666667,-0.21666666666666667,-0.2261904761904762,-0.2261904761904762,-0.2261904761904762,-0.2261904761904762,-0.2261904761904762,-0.2261904761904762,-0.2261904761904762,-0.2261904761904762,-0.2261904761904762,-0.2261904761904762,-0.2261904761904762,-0.2261904761904762,-0.2261904761904762,-0.2261904761904762,-0.2261904761904762,-0.2261904761904762,-0.2261904761904762,-0.2261904761904762,-0.2261904761904762,-0.2261904761904762,-0.2261904761904762,-0.2261904761904762,-0.2261904761904762,-0.2261904761904762,-0.2261904761904762,-0.2261904761904762,-0.2261904761904762,-0.2261904761904762,-0.2261904761904762,-0.2261904761904762,-0.2261904761904762,-0.2261904761904762,-0.2261904761904762,-0.2261904761904762,-0.2261904761904762,-0.2261904761904762,-0.2261904761904762,-0.2261904761904762,-0.2261904761904762]},"final_keyboard_state":["E","A","Z","B","R"],"num_clicks":5,"points":15,"cheat":false,"trial_type":"Hangman","trial_index":5,"time_elapsed":34461,"internal_node_id":"0.0-4.0","protocol_sum":"","subject_identifier":507,"subject_sum":[231,134,111,220,102,114,248,39,199,111,97,36,202,62,234,255,68,175,248,183,202,244,238,20,105,178,171,136,126,126,120,117],"subject_pair":253,"STUDY_ID":"66a3ed3c5d10d0e7d8a6b9da","PROLIFIC_PID":"5d74001d391b6600175f433b","SESSION_ID":"66a41999272f23d1b660ce04","practice_instructions":1,"leaderboard_instructions":0,"bonus":0,"reveal_word":true,"self_rating":"2","confidence":"27"},{"view_history":"[{\"page_index\":0,\"viewing_time\":3092.9000000003725},{\"page_index\":1,\"viewing_time\":10300.299999999814}]","rt":13394.300000000745,"trial_type":"instructions","trial_index":6,"time_elapsed":47857,"internal_node_id":"0.0-5.0","protocol_sum":"","subject_identifier":507,"subject_sum":[231,134,111,220,102,114,248,39,199,111,97,36,202,62,234,255,68,175,248,183,202,244,238,20,105,178,171,136,126,126,120,117],"subject_pair":253,"STUDY_ID":"66a3ed3c5d10d0e7d8a6b9da","PROLIFIC_PID":"5d74001d391b6600175f433b","SESSION_ID":"66a41999272f23d1b660ce04","practice_instructions":1,"leaderboard_instructions":0,"bonus":0,"reveal_word":true,"self_rating":"2","confidence":"27"},{"rt":4565.200000000186,"responses":"{\"Q0\":\"...from <b>a previous session</b> that is not part of the upcoming tournament.\"}","question_order":"[0]","trial_type":"survey-multi-choice","trial_index":7,"time_elapsed":52425,"internal_node_id":"0.0-6.0","protocol_sum":"","subject_identifier":507,"subject_sum":[231,134,111,220,102,114,248,39,199,111,97,36,202,62,234,255,68,175,248,183,202,244,238,20,105,178,171,136,126,126,120,117],"subject_pair":253,"correct":true,"test_part":"multichoice_leaderboard","STUDY_ID":"66a3ed3c5d10d0e7d8a6b9da","PROLIFIC_PID":"5d74001d391b6600175f433b","SESSION_ID":"66a41999272f23d1b660ce04","practice_instructions":1,"leaderboard_instructions":0,"bonus":0,"reveal_word":true,"self_rating":"2","confidence":"27"},{"view_history":"[{\"page_index\":0,\"viewing_time\":5630.5999999996275}]","rt":5631.0999999996275,"trial_type":"instructions","trial_index":8,"time_elapsed":58057,"internal_node_id":"0.0-8.0","protocol_sum":"","subject_identifier":507,"subject_sum":[231,134,111,220,102,114,248,39,199,111,97,36,202,62,234,255,68,175,248,183,202,244,238,20,105,178,171,136,126,126,120,117],"subject_pair":253,"STUDY_ID":"66a3ed3c5d10d0e7d8a6b9da","PROLIFIC_PID":"5d74001d391b6600175f433b","SESSION_ID":"66a41999272f23d1b660ce04","practice_instructions":1,"leaderboard_instructions":0,"bonus":0,"reveal_word":true,"self_rating":"2","confidence":"27"},{"rt":5364.700000000186,"responses":"{\"Q0\":\"...players' leaderboard position (in terms of <b>points</b>) in an <b>upcoming tournament.</b>\"}","question_order":"[0]","trial_type":"survey-multi-choice","trial_index":9,"time_elapsed":63424,"internal_node_id":"0.0-9.0","protocol_sum":"","subject_identifier":507,"subject_sum":[231,134,111,220,102,114,248,39,199,111,97,36,202,62,234,255,68,175,248,183,202,244,238,20,105,178,171,136,126,126,120,117],"subject_pair":253,"correct":true,"test_part":"multichoice_tournament","STUDY_ID":"66a3ed3c5d10d0e7d8a6b9da","PROLIFIC_PID":"5d74001d391b6600175f433b","SESSION_ID":"66a41999272f23d1b660ce04","practice_instructions":1,"leaderboard_instructions":0,"bonus":0,"reveal_word":true,"self_rating":"2","confidence":"27"},{"view_history":"[{\"page_index\":0,\"viewing_time\":7997.5}]","rt":7998,"trial_type":"instructions","trial_index":10,"time_elapsed":71422,"internal_node_id":"0.0-11.0","protocol_sum":"","subject_identifier":507,"subject_sum":[231,134,111,220,102,114,248,39,199,111,97,36,202,62,234,255,68,175,248,183,202,244,238,20,105,178,171,136,126,126,120,117],"subject_pair":253,"STUDY_ID":"66a3ed3c5d10d0e7d8a6b9da","PROLIFIC_PID":"5d74001d391b6600175f433b","SESSION_ID":"66a41999272f23d1b660ce04","practice_instructions":1,"leaderboard_instructions":0,"bonus":0,"reveal_word":true,"self_rating":"2","confidence":"27"},{"view_history":"[{\"page_index\":0,\"viewing_time\":11699.399999999441}]","rt":11699.799999999814,"trial_type":"instructions","trial_index":11,"time_elapsed":83123,"internal_node_id":"0.0-12.0-0.0","protocol_sum":"","subject_identifier":507,"subject_sum":[231,134,111,220,102,114,248,39,199,111,97,36,202,62,234,255,68,175,248,183,202,244,238,20,105,178,171,136,126,126,120,117],"subject_pair":253,"STUDY_ID":"66a3ed3c5d10d0e7d8a6b9da","PROLIFIC_PID":"5d74001d391b6600175f433b","SESSION_ID":"66a41999272f23d1b660ce04","practice_instructions":1,"leaderboard_instructions":0,"bonus":0,"reveal_word":true,"self_rating":"2","confidence":"27"},{"rt":6983.899999999441,"response":"THIRTY FOUR","responses":["THIRTY FOUR"],"trial_type":"type-this","trial_index":12,"time_elapsed":90612,"internal_node_id":"0.0-12.0-1.0","protocol_sum":"","subject_identifier":507,"subject_sum":[231,134,111,220,102,114,248,39,199,111,97,36,202,62,234,255,68,175,248,183,202,244,238,20,105,178,171,136,126,126,120,117],"subject_pair":253,"STUDY_ID":"66a3ed3c5d10d0e7d8a6b9da","PROLIFIC_PID":"5d74001d391b6600175f433b","SESSION_ID":"66a41999272f23d1b660ce04","practice_instructions":1,"leaderboard_instructions":0,"bonus":0,"reveal_word":true,"self_rating":"2","confidence":"27"},{"word":"THIRTY FOUR","click_log":{"letter":["","A","E","O","I","F","U","R","T","H","Y"],"t":[0,4409.5,5225.0999999996275,5858.799999999814,6458.700000000186,8758,9641.400000000373,10592.099999999627,12408.700000000186,13858.700000000186,14675.5],"hit":[null,0,0,1,1,1,1,2,2,1,1],"asked":["","A","AE","AEO","AEOI","AEOIF","AEOIFU","AEOIFUR","AEOIFURT","AEOIFURTH","AEOIFURTHY"],"word_state":["______ ____","______ ____","______ ____","______ _O__","__I___ _O__","__I___ FO__","__I___ FOU_","__IR__ FOUR","T_IRT_ FOUR","THIRT_ FOUR","THIRTY FOUR"]},"hover_log":{"letter":["?","?","?","?","?","?","?","?","?","?","?","?","?","?","?","?","?","?","?","?","?","?","?","?","?","?","?","?","?","?","?","?","?","?","?","?","?","?","?","?","?","?","?","?","?","?","?","?","?","?","?","?","?","?","?","?","?","?","?","?","?","?","?","?","?","?","?","?","?","?","?","?","?","?","?","?","?","?","?","?","?","?","?","?","?","?","?","?","?","?","?","?","?","?","?","?","?","?","?","?","?","?","?","?","?","?","?","?","?","?","?","?","?","?","?","?","?","?","?","?","?","?","?","?","?","?","?","?","?","?","?","?","?","?","?","?","?","?","?","?","?","?","?","?","?","?","?","?","?","?","?","?","?","?","?","?","?","?","?","?","?","?","?","?","?","?","?","?","?","?","?","?","?","?","?","?","?","?","?","?","?","?","?","?","?","?","?","?","?","?","?","?","?","?","?","?","?","?","?","?","?","?","?","?","?","?","?","?","?","?","?","?","?","?","?","?","?","?","?","?","?","?","?","?","?","?","?","?","?","?","?","?","?","?","?","?","?","?","?","?","?","?","?","?","?","?","?","?","?","?","?","?","?","?","?","?","?","?","?","?","?","?","?","?","?","?","?","?","?","?","?","?","?","?","?","?","?","?","?","?","?","?","?","?","?","?","?","?","?","?","?","?","?","?","?","?","?","?","?","?","?","?","?","?","?","?","?","?","?","?","?","?","?","?","?","?","?","?","?","?","?","?","?","?","?","?","?","?","?","?","?","?","?","?","?","?","?","?","?","?","?","?","?","?","?","?","?","?","?","?","?","?","?","?","?","?","?","?","?","?","?","?","?","?","?","?","?","?","?","?","?","?","?","?","?","?","?","?","?","?","?","?","?","?","?","?","?","?","?","?","?","?","?","?","?","?","?","?","?","?","?","?","?","?","?","?","?","?","?","?","?","?","?","?","?","?","?","?","?","?","?","?","?","?","?","?","?","?","?","?","?","?","?","?","?","?","?","?","?","?","?","?","?","?","?","?","?","?","?","?","?","?","?","?","?","?","?","?","?","?","?","?","?","?","?","?","?","?","?","?","?","?","?","?","?","?","?","?","?","?","?","?","?","?","?","?","?","?","?","?","?","?","?","?","?","?","?","?","?","?","?","?","?","?","?","?","?","?","?","?","?","?","?","?","?","?","?","?","?","?","?","?","?","?","?","?","?","?","?","?","?","?","?","?","?","?","?","?","?","?","?","?","?","?","?","?","?","?","?","?","?","?","?","?","?","?","?","?","?","?","?","?","?","?","?","?","?","?","?","?","?","?","?","?","?","?","?","?","?","?","?","?","?","?","?","?","?","?","?","?","?","?","?","?","?","?","?","?","?","?","?","?","?","?","?","?","?","?","?","?","?","?","?","?","?","?","?","?","?","?","?","?","?","?","?","?","?","?","?","?","?","?","?","?","?","?","?","?","?","?","?","?","?","?","?","?","?","?","?","?","?","?","?","?","?","?","?","?","?","?","?","?","?","?","?","?","?","?","?","?","?","?","?","?","?","?","?","?","?","?","?","?","?","?","?","?","?","?","?","?","?","?","?","?","?","?","?","?","?","?","?","?","?","?","?","?","?","?","?","?","?","?","?","?","?","?","?","?","?","?","?","?","?","?","?","?","?","?","?","?","?","?","?","?","?","?","?","?","?","?","?","?","?","?","?","?","?","?","?","?","?","?","?","?","?","?","?","?","?","?","?","?","?","?","?","?","?","?","?","?","?","?","?","?","?","?","?","?","?","?","?","?","?","?","?","?","?","?","?","?","?","?","?","?","?","?","?","?","?","?","?","?","?","?","?","?","?","?","?","?","?","?","?","?","?","?","?","?","?","?","?","?","?","?","?","?","?","?","?","?","?","?","?","?","?","?","?","?","?","?","?","?","?","?","?","?","?","?","?","?","?","?","?","?","?","?","?","?","?","?","?","?","?","?","?","?","?","?","?","?","?","?","?","?","?","?","?","?","?","?","?","?","?","?","?","?","?","?","?","?","?","?","?","?","?","?","?","?","?","?","?","?","?","?","?","?","?","?","?","?","?","?","?","?","?","?","?","?","?","?","?","?","?","?","?","?","?","?","?","?","?","?","?","?","?","?","?","?","?","?","?","?","?","?","?","?","?","?","?","?","?","?","?","?","?","?","?","?","?","?","?","?","?","?","?","?","?","?","?","?","?","?","?","?","?","?","?","?","?","?","?","?","?","?","?","?","?","?","?","?","?","?","?","?","?","?","?","?","?","?","?","?","?","?","?","?","?","?","?","?","?","?","?","?","?","?","?","?","?","?","?","?","?","?","?","?","?","?","?","?","?","?","?","?","?","?","?","?","?","?","?","?","?","?","?","?","?","?","?","?","?","?","?","?","?","?","?","?","?","?","?","?","?","?","?","?","?","?","?","?","?","?","?","?","?","?","?","?","?","?","?","?","?","?","?","?","?","?","?","?","?","?","?","?","?","?","?","?","?","?","?","?","?","?","?","?","?","?","?","?","?","?","?","?","?","?","?","?","?","?","?","?","?","?","?","?","?","?","?","?","?","?","?","?","?","?","?","?","?","?","?","?","?","?","?","?","?","?","?","?","?","?","?","?","?","?","?","?","?","?","?","?","?","?","?","?","?","?","?","?","?","?","?","?","?","?","?","?","?","?","?","?","?","?","?","?","?","?","?","?","?","?","?","?","?","?","?","?","?","?","?","?","?","?","?","?","?","?","?","?","?","?","?","?","?","?","?","?","?","?","?","?","?","?","?","?","?","?","?","?","?","?","?","?","?","?","?","?","?","?","?","?","?","?","?","?","?","?","?","?","?","?","?","?","?","?","?","?","?","?","?","?","?","?","?","?","?","?","?","?","?","?","?","?","?","?","?","?","?","?","?","?","?","?","?","?","?","?","?","?","?","?","?","?","?","?","?","?","?","?","?","?","?","?","?","?","?","?","?","?","?","?","?","?","?","?","?","?","?","?","?","?","?","?","?","?","?","?","?","?","?","?","?","?","?","?","?","?","?","?","?","?","?","?","?","?","?","?","?","?","?","?","?","?","?","?","?","?","?","?","?","?","?","?","?","?","?","?","?","?","?","?","?","?","?","?","?","?","?","?","?","?","?","?","?","?","?","?","?","?","?","?","?","?","?","?","?","?","?","?","?","?","?","?","?","?","?","?","?","?","?","?","?","?","?","?","?","?","?","?","?","?","?","?","?","?","?","?","?","?","?","?","?","?","?","?","?","?","?","?","?","?","?","?","?","?","?","?","?","?","?","?","?","?","?","?","?","?","?","?","?","?","?","?","?","?","?","?","?","?","?","?","?","?","?","?","?","?","?","?","?","?","?","?","?","?","?","?","?","?","?","?","?","?","?","?","?","?","?","?","?","?","?","?","?","?","?","?","?","?","?","?","?","?","?","?","?","?","?","?","?","?","?","?","?","?","?","?","?","?","?","?","?","?","?","?","?","?","?","?","?","?","?","?","?","?","?","?","?","?","?","?","?","?","?","?","?","?","?","?","?","?","?","?","?","?","?","?","?","?","?","?","?","?","?","?","?","?","?","?","?","?","?","?","?","?","?","?","?","?","?","?","?","?","?","?","?","?","?","?","?","?","?","?","?","?","?","?","?","?","?","?","?","?","?","?","?","?","?","?","?","?","?","?","?","?","?","?","?","?","?","?","?","?","?","?","?","?","?","?","?","?","?","?","?","?","?","?","?","?","?","?","?","?","?","?","?","?","?","?","?","?","?","?","?","?","?","?","?","?","?","?","?","?","?","?","?","?","?","?","?","?","?","?","?","?","?","?","?","?","?","?","?","?","?","?","?","?","?","?","?","?","?","?","?","?","?","?","?","?","?","?","?","?","?","?","?","?","?","?","?","?","?","?","?","?","?","?","?","?","?","?","?","?","?","?","?","?","?","?","?","?","?","?","?","?","?","?","?","?","?","?","?","?","?","?","?","?","?","?","?","?","?","?","?","?","?","?","?","?","?","?","?","?","?","?","?","?","?","?","?","?","?","?","?","?","?","?","?","?","?","?","?","?","?","?","?","?","?","?","?","?","?","?","?","?","?","?","?","?","?","?","?","?","?","?","?","?","?","?","?","?","?","?","?","?","?","?","?","?","?","?","?","?","?","?","?","?","?","?","?","?","?","?","?","?","?","?","?","?","?","?","?","?","?","?","?","?","?","?","?","?","?","?","?","?","?","?","?","?","?","?","?","?","?","?","?","?","?","?","?","?","?","?","?","?","?","?","?","?","?","?","?","?","?","?","?","?","?","?","?","?","?","?","?","?","?","?","?","?","?","?","?","?","?","?","?","?","?","?","?","?","?","?","?","?","?","?","?","?","?","?","?","?","?","?","?","?","?","?","?","?","?","?","?","?","?","?","?","?","?","?","?","?","?","?","?","?","?","?","?","?","?","?","?","?","?","?","?","?","?","?","?","?","?","?","?","?","?","?","?","?","?","?","?","?","?","?","?","?","?","?","?","?","?","?","?","?","?","?","?","?","?","?","?","?","?","?","?","?","?","?","?","?","?","?","?","?","?","?","?","?","?","?","?","?","?","?","?","?","?","?","?","?","?","?","?","?","?","?","?","?","?","?","?","?","?","?","?","?","?","?","?","?","?","?","?","?","?","?","?","?","?","?","?","?","?","?","?","?","?","?","?","?","?","?","?","?","?","?","?","?","?","?","?","?","?","?","?","?","?","?","?","?","?","?","?","?","?","?","?","?","?","?","?","?","?","?","?","?","?","?","?","?","?","?","?","?","?","?","?","?","?","?","?","?","?","?","?","?","?","?","?","?","?","?","?","?","?","?","?","?","?","?","?","?","?","?","?","?","?","?","?","?","?","?","?","?","?","?","?","?","?","?","?","?","?","?","?","?","?","?","?","?","?","?","?","?","?","?","?","?","?","?","?","?","?","?","?","?","?","?","?","?","?","?","?","?","?","?","?","?","?","?","?","?","?","?","?","?","?","?","?","?","?","?","?","?","?","?","?","?","?","?","?","?","?","?","?","?","?","?","?","?","?","?","?","?","?","?","?","?","?","?","?","?","?","?","?","?","?","?","?","?","?","?","?","?","?","?","?","?","?","?","?","?","?","?","?","?","?","?","?","?","?","?","?","?","?","?","?","?","?","?","?","?","?","?","?","?","?","?","?","?","?","?","?","?","?","?","?","?","?","?","?","?","?","?","?","?","?","?","?","?","?","?","?","?","?","?","?","?","?","?","?","?","?","?","?","?","?","?","?","?","?","?","?","?","?","?","?","?","?","?","?","?","?","?","?","?","?","?","?","?","?","?","?","?","?","?","?","?","?","?","?","?","?","?","?","?","?","?","?","?","?","?","?","?","?","?","?","?","?","?","?","?","?","?","?","?","?","?","?","?","?","?","?","?","?","?","?","?","?","?","?","?","?","?","?","?","?","?","?","?","?","?","?","?","?","?","?","?","?","?","?","?","?","?","?","?","?","?","?","?","?","?","?","?","?","?","?","?","?","?","?","?","?","?","?","?","?","?","?","?","?","?","?","?","?","?","?","?","?","?","?","?","?","?","?","?","?","?","?","?","?","?","?","?","?","?","?","?","?","?","?","?","?","?","?","?","?","?","?","?","?","?","?","?","?","?","?","?","?","?","?","?","?","?","?","?","?","?","?","?","?","?","?","?","?","?","?","?","?","?","?","?","?","?","?","?","?","?","?","?","?","?","?","?","?","?","?","?","?","?","?","?","?","?","?","?","?","?","?","?","?","?","?","?","?","?","?","?","?","?","?","?","?","?","?","?","?","?","?","?","?","?","?","?","?","?","?","?","?","?","?","?","?","?","?","?","?","?","?","?","?","?","?","?","?","?","?","?","?","?","?","?","?","?","?","?","?","?","?","?","?","?","?","?","?","?","?","?","?","?","?","?","?","?","?","?","?","?","?","?","?","?","?","?","?","?","?","?","?","?","?","?","?","?","?","?","?","?","?","?","?","?","?","?","?","?","?","?","?","?","?","?","?","?","?","?","?","?","?","?","?","?","?","?","?","?","?","?","?","?","?","?","?","?","?","?","?","?","?","?","?","?","?","?","?","?","?","?","?","?","?","?","?","?","?","?","?","?","?","?","?","?","?","?","?","?","?","?","?","?","?","?","?","?","?","?","?","?","?","?","?","?","?","?","?","?","?","?","?","?","?","?","?","?","?","?","?","?","?","?","?","?","?","?","?","?","?","?","?","?","?","?","?","?","?","?","?","?","?","?","?","?","?","?","?","?","?","?","?","?","?","?","?","?","?","?","?","?","?","?","?","?","?","?","?","?","?","?","?","?","?","?","?","?","?","?","?","?","?","?","?","?","?","?","?","?","?","?","?","?","?","?","?","?","?","?","?","?","?","?","?","?","?","?","?","?","?","?","?","?","?","?","?","?","?","?","?","?","?","?","?","?","?","?","?","?","?","?","?","?","?","?","?","?","?","?","?","?","?","?","?","?","?","?","?","?","?","?","?","?","?","?","?","?","?","?","?","?","?","?","?","?","?","?","?","?","?","?","?","?","?","?","?","?","?","?","?","?","?","?","?","?","?","?","?","?","?","?","?","?","?","?","?","?","?","?","?","?","?","?","?","?","?","?","?","?","?","?","?","?","?","?","?","?","?","?","?","?","?","?","?","?","?","?","?","?","?","?","?","?","?","?","?","?","?","?","?","?","?","?","?","?","?","?","?","?","?","?","?","?","?","?","?","?","?","?","?","?","?","?","?","?","?","?","?","?","?","?","?","?","?","?","?","?","?","?","?","?","?","?","?","?","?","?","?","?","?","?","?","?","?","?","?","?","?","?","?","?","?","?","?","?","?","?","?","?","?","?","?","?","?","?","?","?","?","?","?","?","?","?","?","?","?","?","?","?","?","?","?","?","?","?","?","?","?","?","?","?","?","?","?","?","?","?","?","?","?","?","?","?","?","?","?","?","?","?","?","?","?","?","?","?","?","?","?","?","?","?","?","?","?","?","?","?","?","?","?","?","?","?","?","?","?","?","?","?","?","?","?","?","?","?","?","?","?","?","?","?","?","?","?","?","?","?","?","?","?","?","?","?","?","?","?","?","?","?","?","?","?","?","?","?","?","?","?","?","?","?","?","?","?","?","?","?","?","?","?","?","?","?","?","?","?","?","?","?","?","?","?","?","?","?","?","?","?","?","?","?","?","?","?","?","?","?","?","?","?","?","?","?","?","?","?","?","?","?","?","?","?","?","?","?","?","?","?","?","?","?","?","?","?","?","?","?","?","?","?","?","?","?","?","?","?","?","?","?","?","?","?","?","?","?","?","?","?","?","?","?","?","?","?","?","?","?","?","?","?","?","?","?","?","?","?","?","?","?","?","?","?","?","?","?","?","?","?","?","?","?","?","?","?","?","?","?","?","?","?","?","?","?","?","?","?","?","?","?","?","?","?","?","?","?","?","?","?","?","?","?","?","?","?","?","?","?","?","?","?","?","?","?","?","?","?","?","?","?","?","?","?","?","?","?","?","?","?","?","?","?","?","?","?","?","?","?","?","?","?","?","?","?","?","?","?","?","?","?","?","?","?","?","?","?","?","?","?","?","?","?","?","?","?","?","?","?","?","?","?","?","?","?","?","?","?","?","?","?","?","?","?","?","?","?","?","?","?","?","?","?","?","?","?","?","?","?","?","?","?","?","?","?","?","?","?","?","?","?","?","?","?","?","?","?","?","?","?","?","?","?","?","?","?","?","?","?","?","?","?","?","?","?","?","?","?","?","?","?","?","?","?","?","?","?","?","?","?","?","?","?","?","?","?","?","?","?","?","?","?","?","?","?","?","?","?","?","?","?","?","?","?","?","?","?","?","?","?","?","?","?","?","?","?","?","?","?","?","?","?","?","?","?","?","?","?","?","?","?","?","?","?","?","?","?","?","?","?","?","?","?","?","?","?","?","?","?","?","?","?","?","?","?","?","?","?","?","?","?","?","?","?","?","?","?","?","?","?","?","?","?","?","?","?","?","?","?","?","?","?","?","?","?","?","?","?","?","?","?","?","?","?","?","?","?","?","?","?","?","?","?","?","?","?","?","?","?","?","?","?","?","?","?","?","?","?","?","?","?","?","?","?","?","?","?","?","?","?","?","?","?","?","?","?","?","?","?","?","?","?","?","?","?","?","?","?","?","?","?","?","?","?","?","?","?","?","?","?","?","?","?","?","?","?","?","?","?","?","?","?","?","?","?","?","?","?","?","?","?","?","?","?","?","?","?","?","?","?","?","?","?","?","?","?","?","?","?","?","?","?","?","?","?","?","?","?","?","?","?","?","?","?","?","?","?","?","?","?","?","?","?","?","?","?","?","?","?","?","?","?","?","?","?","?","?","?","?","?","?","?","?","?","?","?","?","?","?","?","?","?","?","?","?","?","?","?","?","?","?","?","?","?","?","?","?","?","?","?","?","?","?","?","?","?","?","?","?","?","?","?","?","?","?","?","?","?","?","?","?","?","?","?","?","?","?","?","?","?","?","?","?","?","?","?","?","?","?","?","?","?","?","?","?","?","?","?","?","?","?","?","?","?","?","?","?","?","?","?","?","?","?","?","?","?","?","?","?","?","?","?","?","?","?","?","?","?","?","?","?","?","?","?","?","?","?","?","?","?","?","?","?","?","?","?","?","?","?","?","?","?","?","?","?","?","?","?","?","?","?","?","?","?","?","?","?","?","?","?","?","?","?","?","?","?","?","?","?","?","?","?","?","?","?","?","?","?","?","?","?","?","?","?","?","?","?","?","?","?","?","?","?","?","?","?","?","?","?","?","?","?","?","?","?","?","?","?","?","?","?","?","?","?","?","?","?","?","?","?","?","?","?","?","?","?","?","?","?","?","?","?","?","?","?","?","?","?","?","?","?","?","?","?","?","?","?","?","?","?","?","?","?","?","?","?","?","?","?","?","?","?","?","?","?","?","?","?","?","?","?","?","?","?","?","?","?","?","?","?","?","?","?","?","?","?","?","?","?","?","?","?","?","?","?","?","?","?","?","?","?","?","?","?","?","?","?","?","?","?","?","?","?","?","?","?","?","?","?","?","?","?","?","?","?","?","?","?","?","?","?","?","?","?","?","?","?","?","?","?","?","?","?","?","?","?","?","?","?","?","?","?","?","?","?","?","?","?","?","?","?","?","?","?","?","?","?","?","?","?","?","?","?","?","?","?","?","?","?","?","?","?","?","?","?","?","?","?","?","?","?","?","?","?","?","?","?","?","?","?","?","?","?","?","?","?","?","?","?","?","?","?","?","?","?","?","?","?","?","?","?","?","?","?","?","?","?","?","?","?","?","?","?","?","?","?","?","?","?","?","?","?","?","?","?","?","?","?","?","?","?","?","?","?","?","?","?","?","?","?","?","?","?","?","?","?","?","?","?","?","?","?","?","?","?","?","?","?","?","?","?","?","?","?","?","?","?","?","?","?","?","?","?","?","?","?","?","?","?","?","?","?","?","?","?","?","?","?","?","?","?","?","?","?","?","?","?","?","?","?","?","?","?","?","?","?","?","?","?","?","?","?","?","?","?","?","?","?","?","?","?","?","?","?","?","?","?","?","?","?","?","?","?","?","?","?","?","?","?","?","?","?","?","?","?","?","?","?","?","?","?","?","?","?","?","?","?","?","?","?","?","?","?","?","?","?","?","?","?","?","?","?","?","?","?","?","?","?","?","?","?","?","?","?","?","?","?","?","?","?","?","?","?","?","?","?","?","?","?","?","?","?","?","?","?","?","?","?","?","?","?","?","?","?","?","?","?","?","?","?","?","?","?","?","?","?","?","?","?","?","?","?","?","?","?","?","?","?","?","?","?","?","?","?","?","?","?","?","?","?","?","?","?","?","?","?","?","?","?","?","?","?","?","?","?","?","?","?","?","?","?","?","?","?","?","?","?","?","?","?","?","?","?","?","?","?","?","?","?","?","?","?","?","?","?","?","?","?","?","?","?","?","?","?","?","?","?","?","?","?","?","?","?","?","?","?","?","?","?","?","?","?","?","?","?","?","?","?","?","?","?","?","?","?","?","?","?","?","?","?","?","?","?","?","?","?","?","?","?","?","?","?","?","?","?","?","?","?","?","?","?","?","?","?","?","?","?","?","?","?","?","?","?","?","?","?","?","?","?","?","?","?","?","?","?","?","?","?","?","?","?","?","?","?","?","?","?","?","?","?","?","?","?","?","?","?","?","?","?","?","?","?","?","?","?","?","?","?","?","?","?","?","?","?","?","?","?","?","?","?","?","?","?","?","?","?","?","?","?","?","?","?","?","?","?","?","?","?","?","?","?","?","?","?","?","?","?","?","?","?","?","?","?","?","?","?","?","?","?","?","?","?","?","?","?","?","?","?","?","?","?","?","?","?","?","?","?","?","?","?","?","?","?","?","?","?","?","?","?","?","?","?","?","?","?","?","?","?","?","?","?","?","?","?","?","?","?","?","?","?","?","?","?","?","?","?","?","?","?","?","?","?","?","?","?","?","?","?","?","?","?","?","?","?","?","?","?","?","?","?","?","?","?","?","?","?","?","?","?","?","?","?","?","?","?","?","?","?","?","?","?","?","?","?","?","?","?","?","?","?","?","?","?","?","?","?","?","?","?","?","?","?","?","?","?","?","?","?","?","?","?","?","?","?","?","?","?","?","?","?","?","?","?","?","?","?","?","?","?","?","?","?","?","?","?","?","?","?","?","?","?","?","?","?","?","?","?","?","?","?","?","?","?","?","?","?","?","?","?","?","?","?","?","?","?","?","?","?","?","?","?","?","?","?","?","?","?","?","?","?","?","?","?","?","?","?","?","?","?","?","?","?","?","?","?","?","?","?","?","?","?","?","?","?","?","?","?","?","?","?","?","?","?","?","?","?","?","?","?","?","?","?","?","?","?","?","?","?","?","?","?","?","?","?","?","?","?","?","?","?","?","?","?","?","?","?","?","?","?","?","?","?","?","?","?","?","?","?","?","?","?","?","?","?","?","?","?","?","?","?","?","?","?","?","?","?","?","?","?","?","?","?","?","?","?","?","?","?","?","?","?","?","?","?","?","?","?","?","?","?","?","?","?","?","?","?","?","?","?","?","?","?","?","?","?","?","?","?","?","?","?","?","?","?","?","?","?","?","?","?","?","?","?","?","?","?","?","?","?","?","?","?","?","?","?","?","?","?","?","?","?","?","?","?","?","?","?","?","?","?","?","?","?","?","?","?","?","?","?","?","?","?","?","?","?","?","?","?","?","?","?","?","?","?","?","?","?","?","?","?","?","?","?","?","?","?","?","?","?","?","?","?","?","?","?","?","?","?","?","?","?","?","?","?","?","?","?","?","?","?","?","?","?","?","?","?","?","?","?","?","?","?","?","?","?","?","?","?","?","?","?","?","?","?","?","?","?","?","?","?","?","?","?","?","?","?","?","?","?","?","?","?","?","?","?","?","?","?","?","?","?","?","?","?","?","?","?","?","?","?","?","?","?","?","?","?","?","?","?","?","?","?","?","?","?","?","?","?","?","?","?","?","?","?","?","?","?","?","?","?","?","?","?","?","?","?","?","?","?","?","?","?","?","?","?","?","?","?","?","?","?","?","?","?","?","?","?","?","?","?","?","?","?","?","?","?","?","?","?","?","?","?","?","?","?","?","?","?","?","?","?","?","?","?","?","?","?","?","?","?","?","?","?","?","?","?","?","?","?","?","?","?","?","?","?","?","?","?","?","?","?","?","?","?","?","?","?","?","?","?","?","?","?","?","?","?","?","?","?","?","?","?","?","?","?","?","?","?","?","?","?","?","?","?","?","?","?","?","?","?","?","?","?","?","?","?","?","?","?","?","?","?","?","?","?","?","?","?","?","?","?","?","?","?","?","?","?","?","?","?","?","?","?","?","?","?","?","?","?","?","?","?","?","?","?","?","?","?","?","?","?","?","?","?","?","?","?","?","?","?","?","?","?","?","?","?","?","?","?","?","?","?","?","?","?","?","?","?","?","?","?","?","?","?","?","?","?","?","?","?","?","?","?","?","?","?","?","?","?","?","?","?","?","?","?","?","?","?","?","?","?","?","?","?","?","?","?","?","?","?","?","?","?","?","?","?","?","?","?","?","?","?","?","?","?","?","?","?","?","?","?","?","?","?","?","?","?","?","?","?","?","?","?","?","?","?","?","?","?","?","?","?","?","?","?","?","?","?","?","?","?","?","?","?","?","?","?","?","?","?","?","?","?","?","?","?","?","?","?","?","?","?","?","?","?","?","?","?","?","?","?","?","?","?","?","?","?","?","?","?","?","?","?","?","?","?","?","?","?","?","?","?","?","?","?","?","?","?","?","?","?","?","?","?","?","?","?","?","?","?","?","?","?","?","?","?","?","?","?","?","?","?","?","?","?","?","?","?","?","?","?","?","?","?","?","?","?","?","?","?","?","?","?","?","?","?","?","?","?","?","?","?","?","?","?","?","?","?","?","?","?","?","?","?","?","?","?","?","?","?","?","?","?","?","?","?","?","?","?","?","?","?","?","?","?","?","?","?","?","?","?","?","?","?","?","?","?","?","?","?","?","?","?","?","?","?","?","?","?","?","?","?","?","?","?","?","?","?","?","?","?","?","?","?","?","?","?","?","?","?","?","?","?","?","?","?","?","?","?","?","?","?","?","?","?","?","?","?","?","?","?","?","?","?","?","?","?","?","?","?","?","?","?","?","?","?","?","?","?","?","?","?","?","?","?","?","?","?","?","?","?","?","?","?","?","?","?","?","?","?","?","?","?","?","?","?","?","?","?","?","?","?","?","?","?","?","?","?","?","?","?","?","?","?","?","?","?","?","?","?","?","?","?","?","?","?","?","?","?","?","?","?","?","?","?","?","?","?","?","?","?","?","?","?","?","?","?","?","?","?","?","?","?","?","?","?","?","?","?","?","?","?","?","?","?","?","?","?","?","?","?","?","?","?","?","?","?","?","?","?","?","?","?","?","?","?","?","?","?","?","?","?","?","?","?","?","?","?","?","?","?","?","?","?","?","?","?","?","?","?","?","?","?","?","?","?","?","?","?","?","?","?","?","?","?","?","?","?","?","?","?","?","?","?","?","?","?","?","?","?","?","?","?","?","?","?","?","?","?","?","?","?","?","?","?","?","?","?","?","?","?","?","?","?","?","?","?","?","?","?","?","?","?","?","?","?","?","?","?","?","?","?","?","?","?","?","?","?","?","?","?","?","?","?","?","?","?","?","?","?","?","?","?","?","?","?","?","?","?","?","?","?","?","?","?","?","?","?","?","?","?","?","?","?","?","?","?","?","?","?","?","?","?","?","?","?","?","?","?","?","?","?","?","?","?","?","?","?","?","?","?","?","?","?","?","?","?","?","?","?","?","?","?","?","?","?","?","?","?","?","?","?","?","?","?","?","?","?","?","?","?","?","?","?","?","?","?","?","?","?","?","?","?","?","?","?","?","?","?","?","?","?","?","?","?","?","?","?","?","?","?","?","?","?","?","?","?","?","?","?","?","?","?","?","?","?","?","?","?","?","?","?","?","?","?","?","?","?","?","?","?","?","?","?","?","?","?","?","?","?","?","?","?","?","?","?","?","?","?","?","?","?","?","?","?","?","?","?","?","?","?","?","?","?","?","?","?","?","?","?","?","?","?","?","?","?","?","?","?","?","?","?","?","?","?","?","?","?","?","?","?","?","?","?","?","?","?","?","?","?","?","?","?","?","?","?","?","?","?","?","?","?","?","?","?","?","?","?","?","?","?","?","?","?","?","?","?","?","?","?","?","?","?","?","?","?","?","?","?","?","?","?","?","?","?","?","?","?","?","?","?","?","?","?","?","?","?","?","?","?","?","?","?","?","?","?","?","?","?","?","?","?","?","?","?","?","?","?","?","?","?","?","?","?","?","?","?","?","?","?","?","?","?","?","?","?","?","?","?","?","?","?","?","?","?","?","?","?","?","?","?","?","?","?","?","?","?","?","?","?","?","?","?","?","?","?","?","?","?","?","?","?","?","?","?","?","?","?","?","?","?","?","?","?","?","?","?","?","?","?","?","?","?","?","?","?","?","?","?","?","?","?","?","?","?","?","?","?","?","?","?","?","?","?","?","?","?","?","?","?","?","?","?","?","?","?","?","?","?","?","?","?","?","?","?","?","?","?","?","?","?","?","?","?","?","?","?","?","?","?","?","?","?","?","?","?","?","?","?","?","?","?","?","?","?","?","?","?","?","?","?","?","?","?","?","?","?","?","?","?","?","?","?","?","?","?","?","?","?","?","?","?","?","?","?","?","?","?","?","?","?","?","?","?","?","?","?","?","?","?","?","?","?","?","?","?","?","?","?","?","?","?","?","?","?","?","?","?","?","?","?","?","?","?","?","?","?","?","?","?","?","?","?","?","?","?","?","?","?","?","?","?","?","?","?","?","?","?","?","?","?","?","?","?","?","?","?","?","?","?","?","?","?","?","?","?","?","?","?","?","?","?","?","?","?","?","?","?","?","?","?","?","?","?","?","?","?","?","?","?","?","?","?","?","?","?","?","?","?","?","?","?","?","?","?","?","?","?","?","?","?","?","?","?","?","?","?","?","?","?","?","?","?","?","?","?","?","?","?","?","?","?","?","?","?","?","?","?","?","?","?","?","?","?","?","?","?","?","?","?","?","?","?","?","?","?","?","?","?","?","?","?","?","?","?","?","?","?","?","?","?","?","?","?","?","?","?","?","?","?","?","?","?","?","?","?","?","?","?","?","?","?","?","?","?","?","?","?","?","?","?","?","?","?","?","?","?","?","?","?","?","?","?","?","?","?","?","?","?","?","?","?","?","?","?","?","?","?","?","?","?","?","?","?","?","?","?","?","?","?","?","?","?","?","?","?","?","?","?","?","?","?","?","?","?","?","?","?","?","?","?","?","?","?","?","?","?","?","?","?","?","?","?","?","?","?","?","?","?","?","?","?","?","?","?","?","?","?","?","?","?","?","?","?","?","?","?","?","?","?","?","?","?","?","?","?","?","?","?","?","?","?","?","?","?","?","?","?","?","?","?","?","?","?","?","?","?","?","?","?","?","?","?","?","?","?","?","?","?","?","?","?","?","?","?","?","?","?","?","?","?","?","?","?","?","?","?","?","?","?","?","?","?","?","?","?","?","?","?","?","?","?","?","?","?","?","?","?","?","?","?","?","?","?","?","?","?","?","?","?","?","?","?","?","?","?","?","?","?","?","?","?","?","?","?","?","?","?","?","?","?","?","?","?","?","?","?","?","?","?","?","?","?","?","?","?","?","?","?","?","?","?","?","?","?","?","?","?","?","?","?","?","?","?","?","?","?","?","?","?","?","?","?","?","?","?","?","?","?","?","?","?","?","?","?","?","?","?","?","?","?","?","?","?","?","?","?","?","?","?","?","?","?","?","?","?","?","?","?","?","?","?","?","?","?","?","?","?","?","?","?","?","?","?","?","?","?","?","?","?","?","?","?","?","?","?","?","?","?","?","?","?","?","?","?","?","?","?","?","?","?","?","?","?","?","?","?","?","?","?","?","?","?","?","?","?","?","?","?","?","?","?","?","?","?","?","?","?","?","?","?","?","?","?","?","?","?","?","?","?","?","?","?","?","?","?","?","?","?","?","?","?","?","?","?","?","?","?","?","?","?","?","?","?","?","?","?","?","?","?","?","?","?","?","?","?","?","?","?","?","?","?","?","?","?","?","?","?","?","?","?","?","?","?","?","?","?","?","?","?","?","?","?","?","?","?","?","?","?","?","?","?","?","?","?","?","?","?","?","?","?","?","?","?","?","?","?","?","?","?","?","?","?","?","?","?","?","?","?","?","?","?","?","?","?","?","?","?","?","?","?","?","?","?","?","?","?","?","?","?","?","?","?","?","?","?","?","?","?","?","?","?","?","?","?","?","?","?","?","?","?","?","?","?","?","?","?","?","?","?","?","?","?","?","?","?","?","?","?","?","?","?","?","?","?","?","?","?","?","?","?","?","?","?","?","?","?","?","?","?","?","?","?","?","?","?","?","?","?","?","?","?","?","?","?","?","?","?","?","?","?","?","?","?","?","?","?","?","?","?","?","?","?","?","?","?","?","?","?","?","?","?","?","?","?","?","?","?","?","?","?","?","?","?","?","?","?","?","?","?","?","?","?","?","?","?","?","?","?","?","?","?","?","?","?","?","?","?","?","?","?","?","?","?","?","?","?","?","?","?","?","?","?","?","?","?","?","?","?","?","?","?","?","?","?","?","?","?","?","?","?","?","?","?","?","?","?","?","?","?","?","?","?","?","?","?","?","?","?","?","?","?","?","?","?","?","?","?","?","?","?","?","?","?","?","?","?","?","?","?","?","?","?","?","?","?","?","?","?","?","?","?","?","?","?","?","?","?","?","?","?","?","?","?","?","?","?","?","?","?","?","?","?","?","?","?","?","?","?","?","?","?","?","?","?","?","?","?","?","?","?","?","?","?","?","?","?","?","?","?","?","?","?","?","?","?","?","?","?","?","?","?","?","?","?","?","?","?","?","?","?","?","?","?","?","?","?","?","?","?","?","?","?","?","?","?","?","?","?","?","?","?","?","?","?","?","?","?","?","?","?","?","?","?","?","?","?","?","?","?","?","?","?","?","?","?","?","?","?","?","?","?","?","?","?","?","?","?","?","?","?","?","?","?","?","?","?","?","?","?","?","?","?","?","?","?","?","?","?","?","?","?","?","?","?","?","?","?","?","?","?","?","?","?","?","?","?","?","?","?","?","?","?","?","?","?","?","?","?","?","?","?","?","?","?","?","?","?","?","?","?","?","?","?","?","?","?","?","?","?","?","?","?","?","?","?","?","?","?","?","?","?","?","?","?","?","?","?","?","?","?","?","?","?","?","?","?","?","?","?","?","?","?","?","?","?","?","?","?","?","?","?","?","?","?","?","?","?","?","?","?","?","?","?","?","?","?","?","?","?","?","?","?","?","?","?","?","?","?","?","?","?","?","?","?","?","?","?","?","?","?","?","?","?","?","?","?","?","?","?","?","?","?","?","?","?","?","?","?","?","?","?","?","?","?","?","?","?","?","?","?","?","?","?","?","?","?","?","?","?","?","?","?","?","?","?","?","?","?","?","?","?","?","?","?","?","?","?","?","?","?","?","?","?","?","?","?","?","?","?","?","?","?","?","?","?","?","?","?","?","?","?","?","?","?","?","?","?","?","?","?","?","?","?","?","?","?","?","?","?","?","?","?","?","?","?","?","?","?","?","?","?","?","?","?","?","?","?","?","?","?","?","?","?","?","?","?","?","?","?","?","?","?","?","?","?","?","?","?","?","?","?","?","?","?","?","?","?","?","?","?","?","?","?","?","?","?","?","?","?","?","?","?","?","?","?","?","?","?","?","?","?","?","?","?","?","?","?","?","?","?","?","?","?","?","?","?","?","?","?","?","?","?","?","?","?","?","?","?","?","?","?","?","?","?","?","?","?","?","?","?","?","?","?","?","?","?","?","?","?","?","?","?","?","?","?","?","?","?","?","?","?","?","?","?","?","?","?","?","?","?","?","?","?","?","?","?","?","?","?","?","?","?","?","?","?","?","?","?","?","?","?","?","?","?","?","?","?","?","?","?","?","?","?","?","?","?","?","?","?","?","?","?","?","?","?","?","?","?","?","?","?","?","?","?","?","?","?","?","?","?","?","?","?","?","?","?","?","?","?","?","?","?","?","?","?","?","?","?","?","?","?","?","?","?","?","?","?","?","?","?","?","?","?","?","?","?","?","?","?","?","?","?","?","?","?","?","?","?","?","?","?","?","?","?","?","?","?","?","?","?","?","?","?","?","?","?","?","?","?","?","?","?","?","?","?","?","?","?","?","?","?","?","?","?","?","?","?","?","?","?","?","?","?","?","?","?","?","?","?","?","?","?","?","?","?","?","?","?","?","?","?","?","?","?","?","?","?","?","?","?","?","?","?","?","?","?","?","?","?","?","?","?","?","?","?","?","?","?","?","?","?","?","?","?","?","?","?","?","?","?","?","?","?","?","?","?","?","?","?","?","?","?","?","?","?","?","?","?","?","?","?","?","?","?","?","?","?","?","?","?","?","?","?","?","?","?","?","?","?","?","?","?","?","?","?","?","?","?","?","?","?","?","?","?","?","?","?","?","?","?","?","?","?","?","?","?","?","?","?","?","?","?","?","?","?","?","?","?","?","?","?","?","?","?","?","?","?","?","?","?","?","?","?","?","?","?","?","?","?","?","?","?","?","?","?","?","?","?","?","?","?","?","?","?","?","?","?","?","?","?","?","?","?","?","?","?","?","?","?","?","?","?","?","?","?","?","?","?","?","?","?","?","?","?","?","?","?","?","?","?","?","?","?","?","?","?","?","?","?","?","?","?","?","?","?","?","?","?","?","?","?","?","?","?","?","?","?","?","?","?","?","?","?","?","?","?","?","?","?","?","?","?","?","?","?","?","?","?","?","?","?","?","?","?","?","?","?","?","?","?","?","?","?","?","?","?","?","?","?","?","?","?","?","?","?","?","?","?","?","?","?","?","?","?","?","?","?","?","?","?","?","?","?","?","?","?","?","?","?","?","?","?","?","?","?","?","?","?","?","?","?","?","?","?","?","?","?","?","?","?","?","?","?","?","?","?","?","?","?","?","?","?","?","?","?","?","?","?","?","?","?","?","?","?","?","?","?","?","?","?","?","?","?","?","?","?","?","?","?","?","?","?","?","?","?","?","?","?","?","?","?","?","?","?","?","?","?","?","?","?","?","?","?","?","?","?","?","?","?","?","?","?","?","?","?","?","?","?","?","?","?","?","?","?","?","?","?","?","?","?","?","?","?","?","?","?","?","?","?","?","?","?","?","?","?","?","?","?","?","?","?","?","?","?","?","?","?","?","?","?","?","?","?","?","?","?","?","?","?","?","?","?","?","?","?","?","?","?","?","?","?","?","?","?","?","?","?","?","?","?","?","?","?","?","?","?","?","?","?","?","?","?","?","?","?","?","?","?","?","?","?","?","?","?","?","?","?","?","?","?","?","?","?","?","?","?","?","?","?","?","?","?","?","?","?","?","?","?","?","?","?","?","?","?","?","?","?","?","?","?","?","?","?","?","?","?","?","?","?","?","?","?","?","?","?","?","?","?","?","?","?","?","?","?","?","?","?","?","?","?","?","?","?","?","?","?","?","?","?","?","?","?","?","?","?","?","?","?","?","?","?","?","?","?","?","?","?","?","?","?","?","?","?","?","?","?","?","?","?","?","?","?","?","?","?","?","?","?","?","?","?","?","?","?","?","?","?","?","?","?","?","?","?","?","?","?","?","?","?","?","?","?","?","?","?","?","?","?","?","?","?","?","?","?","?","?","?","?","?","?","?","?","?","?","?","?","?","?","?","?","?","?","?","?","?","?","?","?","?","?","?","?","?","?","?","?","?","?","?","?","?","?","?","?","?","?","?","?","?","?","?","?","?","?","?","?","?","?","?","?","?","?","?","?","?","?","?","?","?","?","?","?","?","?","?","?","?","?","?","?","?","?","?","?","?","?","?","?","?","?","?","?","?","?","?","?","?","?","?","?","?","?","?","?","?","?","?","?","?","?","?","?","?","?","?","?","?","?","?","?","?","?","?","?","?","?","?","?","?","?","?","?","?","?","?","?","?","?","?","?","?","?","?","?","?","?","?","?","?","?","?","?","?","?","?","?","?","?","?","?","?","?","?","?","?","?","?","?","?","?","?","?","?","?","?","?","?","?","?","?","?","?","?","?","?","?","?","?","?","?","?","?","?","?","?","?","?","?","?","?","?","?","?","?","?","?","?","?","?","?","?","?","?","?","?","?","?","?","?","?","?","?","?","?","?","?","?","?","?","?","?","?","?","?","?","?","?","?","?","?","?","?","?","?","?","?","?","?","?","?","?","?","?","?","?","?","?","?","?","?","?","?","?","?","?","?","?","?","?","?","?","?","?","?","?","?","?","?","?","?","?","?","?","?","?","?","?","?","?","?","?","?","?","?","?","?","?","?","?","?","?","?","?","?","?","?","?","?","?","?","?","?","?","?","?","?","?","?","?","?","?","?","?","?","?","?","?","?","?","?","?","?","?","?","?","?","?","?","?","?","?","?","?","?","?","?","?","?","?","?","?","?","?","?","?","?","?","?","?","?","?","?","?","?","?","?","?","?","?","?","?","?","?","?","?","?","?","?","?","?","?","?","?","?","?","?","?","?","?","?","?","?","?","?","?","?","?","?","?","?","?","?","?","?","?","?","?","?","?","?","?","?","?","?","?","?","?","?","?","?","?","?","?","?","?","?","?","?","?","?","?","?","?","?","?","?","?","?","?","?","?","?","?","?","?","?","?","?","?","?","?","?","?","?","?","?","?","?","?","?","?","?","?","?","?","?","?","?","?","?","?","?","?","?","?","?","?","?","?","?","?","?","?","?","?","?","?","?","?","?","?","?","?","?","?","?","?","?","?","?","?","?","?","?","?","?","?","?","?","?","?","?","?","?","?","?","?","?","?","?","?","?","?","?","?","?","?","?","?","?","?","?","?","?","?","?","?","?","?","?","?","?","?","?","?","?","?","?","?","?","?","?","?","?","?","?","?","?","?","?","?","?","?","?","?","?","?","?","?","?","?","?","?","?","?","?","?","?","?","?","?","?","?","?","?","?","?","?","?","?","?","?","?","?","?","?","?","?","?","?","?","?","?","?","?","?","?","?","?","?","?","?","?","?","?","?","?","?","?","?","?","?","?","?","?","?","?","?","?","?","?","?","?","?","?","?","?","?","?","?","?","?","?","?","?","?","?","?","?","?","?","?","?","?","?","?","?","?","?","?","?","?","?","?","?","?","?","?","?","?","?","?","?","?","?","?","?","?","?","?","?","?","?","?","?","?","?","?","?","?","?","?","?","?","?","?","?","?","?","?","?","?","?","?","?","?","?","?","?","?","?","?","?","?","?","?","?","?","?","?","?","?","?","?","?","?","?","?","?","?","?","?","?","?","?","?","?","?","?","?","?","?","?","?","?","?","?","?","?","?","?","?","?","?","?","?","?","?","?","?","?","?","?","?","?","?","?","?","?","?","?","?","?","?","?","?","?","?","?","?","?","?","?","?","?","?","?","?","?","?","?","?","?","?","?","?","?","?","?","?","?","?","?","?","?","?","?","?","?","?","?","?","?","?","?","?","?","?","?","?","?","?","?","?","?","?","?","?","?","?","?","?","?","?","?","?","?","?","?","?","?","?","?","?","?","?","?","?","?","?","?","?","?","?","?","?","?","?","?","?","?","?","?","?","?","?","?","?","?","?","?","?","?","?","?","?","?","?","?","?","?","?","?","?","?","?","?","?","?","?","?","?","?","?","?","?","?","?","?","?","?","?","?","?","?","?","?","?","?","?","?","?","?","?","?","?","?","?","?","?","?","?","?","?","?","?","?","?","?","?","?","?","?","?","?","?","?","?","?","?","?","?","?","?","?","?","?","?","?","?","?","?","?","?","?","?","?","?","?","?","?","?","?","?","?","?","?","?","?","?","?","?","?","?","?","?","?","?","?","?","?","?","?","?","?","?","?","?","?","?","?","?","?","?","?","?","?","?","?","?","?","?","?","?","?","?","?","?","?","?","?","?","?","?","?","?","?","?","?","?","?","?","?","?","?","?","?","?","?","?","?","?","?","?","?","?","?","?","?","?","?","?","?","?","?","?","?","?","?","?","?","?","?","?","?","?","?","?","?","?","?","?","?","?","?","?","?","?","?","?","?","?","?","?","?","?","?","?","?","?","?","?","?","?","?","?","?","?","?","?","?","?","?","?","?","?","?","?","?","?","?","?","?","?","?","?","?","?","?","?","?","?","?","?","?","?","?","?","?","?","?","?","?","?","?","?","?","?","?","?","?","?","?","?","?","?","?","?","?","?","?","?","?","?","?","?","?","?","?","?","?","?","?","?","?","?","?","?","?","?","?","?","?","?","?","?","?","?","?","?","?","?","?","?","?","?","?","?","?","?","?","?","?","?","?","?","?","?","?","?","?","?","?","?","?","?","?","?","?","?","?","?","?","?","?","?","?","?","?","?","?","?","?","?","?","?","?","?","?","?","?","?","?","?","?","?","?","?","?","?","?","?","?","?","?","?","?","?","?","?","?","?","?","?","?","?","?","?","?","?","?","?","?","?","?","?","?","?","?","?","?","?","?","?","?","?","?","?","?","?","?","?","?","?","?","?","?","?","?","?","?","?","?","?","?","?","?","?","?","?","?","?","?","?","?","?","?","?","?","?","?","?","?","?","?","?","?","?","?","?","?","?","?","?","?","?","?","?","?","?","?","?","?","?","?","?","?","?","?","?","?","?","?","?","?","?","?","?","?","?","?","?","?","?","?","?","?","?","?","?","?","?","?","?","?","?","?","?","?","?","?","?","?","?","?","?","?","?","?","?","?","?","?","?","?","?","?","?","?","?","?","?","?","?","?","?","?","?","?","?","?","?","?","?","?","?","?","?","?","?","?","?","?","?","?","?","?","?","?","?","?","?","?","?","?","?","?","?","?","?","?","?","?","?","?","?","?","?","?","?","?","?","?","?","?","?","?","?","?","?","?","?","?","?","?","?","?","?","?","?","?","?","?","?","?","?","?","?","?","?","?","?","?","?","?","?","?","?","?","?","?","?","?","?","?","?","?","?","?","?","?","?","?","?","?","?","?","?","?","?","?","?","?","?","?","?","?","?","?","?","?","?","?","?","?","?","?","?","?","?","?","?","?","?","?","?","?","?","?","?","?","?","?","?","?","?","?","?","?","?","?","?","?","?","?","?","?","?","?","?","?","?","?","?","?","?","?","?","?","?","?","?","?","?","?","?","?","?","?","?","?","?","?","?","?","?","?","?","?","?","?","?","?","?","?","?","?","?","?","?","?","?","?","?","?","?","?","?","?","?","?","?","?","?","?","?","?","?","?","?","?","?","?","?","?","?","?","?","?","?","?","?","?","?","?","?","?","?","?","?","?","?","?","?","?","?","?","?","?","?","?","?","?","?","?","?","?","?","?","?","?","?","?","?","?","?","?","?","?","?","?","?","?","?","?","?","?","?","?","?","?","?","?","?","?","?","?","?","?","?","?","?","?","?","?","?","?","?","?","?","?","?","?","?","?","?","?","?","?","?","?","?","?","?","?","?","?","?","?","?","?","?","?","?","?","?","?","?","?","?","?","?","?","?","?","?","?","?","?","?","?","?","?","?","?","?","?","?","?","?","?","?","?","?","?","?","?","?","?","?","?","?","?","?","?","?","?","?","?","?","?","?","?","?","?","?","?","?","?","?","?","?","?","?","?","?","?","?","?","?","?","?","?","?","?","?","?","?","?","?","?","?","?","?","?","?","?","?","?","?","?","?","?","?","?","?","?","?","?","?","?","?","?","?","?","?","?","?","?","?","?","?","?","?","?","?","?","?","?","?","?","?","?","?","?","?","?","?","?","?","?","?","?","?","?","?","?","?","?","?","?","?","?","?","?","?","?","?","?","?","?","?","?","?","?","?","?","?","?","?","?","?","?","?","?","?","?","?","?","?","?","?","?","?","?","?","?","?","?","?","?","?","?","?","?","?","?","?","?","?","?","?","?","?","?","?","?","?","?","?","?","?","?","?","?","?","?","?","?","?","?","?","?","?","?","?","?","?","?","?","?","?","?","?","?","?","?","?","?","?","?","?","?","?","?","?","?","?","?","?","?","?","?","?","?","?","?","?","?","?","?","?","?","?","?","?","?","?","?","?","?","?","?","?","?","?","?","?","?","?","?","?","?","?","?","?","?","?","?","?","?","?","?","?","?","?","?","?","?","?","?","?","?","?","?","?","?","?","?","?","?","?","?","?","?","?","?","?","?","?","?","?","?","?","?","?","?","?","?","?","?","?","?","?","?","?","?","?","?","?","?","?","?","?","?","?","?","?","?","?","?","?","?","?","?","?","?","?","?","?","?","?","?","?","?","?","?","?","?","?","?","?","?","?","?","?","?","?","?","?","?","?","?","?","?","?","?","?","?","?","?","?","?","?","?","?","?","?","?","?","?","?","?","?","?","?","?","?","?","?","?","?","?","?","?","?","?","?","?","?","?","?","?","?","?","?","?","?","?","?","?","?","?","?","?","?","?","?","?","?","?","?","?","?","?","?","?","?","?","?","?","?","?","?","?","?","?","?","?","?","?","?","?","?","?","?","?","?","?","?","?","?","?","?","?","?","?","?","?","?","?","?","?","?","?","?","?","?","?","?","?","?","?","?","?","?","?","?","?","?","?","?","?","?","?","?","?","?","?","?","?","?","?","?","?","?","?","?","?","?","?","?","?","?","?","?","?","?","?","?","?","?","?","?","?","?","?","?","?","?","?","?","?","?","?","?","?","?","?","?","?","?","?","?","?","?","?","?","?","?","?","?","?","?","?","?","?","?","?","?","?","?","?","?","?","?","?","?","?","?","?","?","?","?","?","?","?","?","?","?","?","?","?","?","?","?","?","?","?","?","?","?","?","?","?","?","?","?","?","?","?","?","?","?","?","?","?","?","?","?","?","?","?","?","?","?","?","?","?","?","?","?","?","?","?","?","?","?","?","?","?","?","?","?","?","?","?","?","?","?","?","?","?","?","?","?","?","?","?","?","?","?","?","?","?","?","?","?","?","?","?","?","?","?","?","?","?","?","?","?","?","?","?","?","?","?","?","?","?","?","?","?","?","?","?","?","?","?","?","?","?","?","?","?","?","?","?","?","?","?","?","?","?","?","?","?","?","?","?","?","?","?","?","?","?","?","?","?","?","?","?","?","?","?","?","?","?","?","?","?","?","?","?","?","?","?","?","?","?","?","?","?","?","?","?","?","?","?","?","?","?","?","?","?","?","?","?","?","?","?","?","?","?","?","?","?","?","?","?","?","?","?","?","?","?","?","?","?","?","?","?","?","?","?","?","?","?","?","?","?","?","?","?","?","?","?","?","?","?","?","?","?","?","?","?","?","?","?","?","?","?","?","?","?","?","?","?","?","?","?","?","?","?","?","?","?","?","?","?","?","?","?","?","?","?","?","?","?","?","?","?","?","?","?","?","?","?","?","?","?","?","?","?","?","?","?","?","?","?","?","?","?","?","?","?","?","?","?","?","?","?","?","?","?","?","?","?","?","?","?","?","?","?","?","?","?","?","?","?","?","?","?","?","?","?","?","?","?","?","?","?","?","?","?","?","?","?","?","?","?","?","?","?","?","?","?","?","?","?","?","?","?","?","?","?","?","?","?","?","?","?","?","?","?","?","?","?","?","?","?","?","?","?","?","?","?","?","?","?","?","?","?","?","?","?","?","?","?","?","?","?","?","?","?","?","?","?","?","?","?","?","?","?","?","?","?","?","?","?","?","?","?","?","?","?","?","?","?","?","?","?","?","?","?","?","?","?","?","?","?","?","?","?","?","?","?","?","?","?","?","?","?","?","?","?","?","?","?","?","?","?","?","?","?","?","?","?","?","?","?","?","?","?","?","?","?","?","?","?","?","?","?","?","?","?","?","?","?","?","?","?","?","?","?","?","?","?","?","?","?","?","?","?","?","?","?","?","?","?","?","?","?","?","?","?","?","?","?","?","?","?","?","?","?","?","?","?","?","?","?","?","?","?","?","?","?","?","?","?","?","?","?","?","?","?","?","?","?","?","?","?","?","?","?","?","?","?","?","?","?","?","?","?","?","?","?","?","?","?","?","?","?","?","?","?","?","?","?","?","?","?","?","?","?","?","?","?","?","?","?","?","?","?","?","?","?","?","?","?","?","?","?","?","?","?","?","?","?","?","?","?","?","?","?","?","?","?","?","?","?","?","?","?","?","?","?","?","?","?","?","?","?","?","?","?","?","?","?","?","?","?","?","?","?","?","?","?","?","?","?","?","?","?","?","?","?","?","?","?","?","?","?","?","?","?","?","?","?","?","?","?","?","?","?","?","?","?","?","?","?","?","?","?","?","?","?","?","?","?","?","?","?","?","?","?","?","?","?","?","?","?","?","?","?","?","?","?","?","?","?","?","?","?","?","?","?","?","?","?","?","?","?","?","?","?","?","?","?","?","?","?","?","?","?","?","?","?","?","?","?","?","?","?","?","?","?","?","?","?","?","?","?","?","?","?","?","?","?","?","?","?","?","?","?","?","?","?","?","?","?","?","?","?","?","?","?","?","?","?","?","?","?","?","?","?","?","?","?","?","?","?","?","?","?","?","?","?"