[{"success":true,"trial_type":"fullscreen","trial_index":0,"time_elapsed":5528,"internal_node_id":"0.0-0.0","protocol_sum":"","subject_identifier":201,"subject_sum":[173,87,54,104,101,18,110,85,100,158,203,35,174,29,72,136,117,68,151,110,254,164,106,72,235,93,133,166,238,180,211,6],"subject_pair":100,"STUDY_ID":"669eec2e4270c76bc184a38e","PROLIFIC_PID":"666e20c484d272cadcc536c9","SESSION_ID":"669ef08ef0fcd2f1a3e67568","practice_instructions":1,"leaderboard_instructions":0,"bonus":0,"reveal_word":true,"self_rating":"3","confidence":"69"},{"view_history":"[{\"page_index\":0,\"viewing_time\":4171.100000008941}]","rt":4171.4000000059605,"trial_type":"instructions","trial_index":1,"time_elapsed":9701,"internal_node_id":"0.0-1.0","protocol_sum":"","subject_identifier":201,"subject_sum":[173,87,54,104,101,18,110,85,100,158,203,35,174,29,72,136,117,68,151,110,254,164,106,72,235,93,133,166,238,180,211,6],"subject_pair":100,"STUDY_ID":"669eec2e4270c76bc184a38e","PROLIFIC_PID":"666e20c484d272cadcc536c9","SESSION_ID":"669ef08ef0fcd2f1a3e67568","practice_instructions":1,"leaderboard_instructions":0,"bonus":0,"reveal_word":true,"self_rating":"3","confidence":"69"},{"view_history":"[{\"page_index\":0,\"viewing_time\":39601.70000000298}]","rt":39601.90000000596,"trial_type":"instructions","trial_index":2,"time_elapsed":49304,"internal_node_id":"0.0-2.0-0.0","protocol_sum":"","subject_identifier":201,"subject_sum":[173,87,54,104,101,18,110,85,100,158,203,35,174,29,72,136,117,68,151,110,254,164,106,72,235,93,133,166,238,180,211,6],"subject_pair":100,"STUDY_ID":"669eec2e4270c76bc184a38e","PROLIFIC_PID":"666e20c484d272cadcc536c9","SESSION_ID":"669ef08ef0fcd2f1a3e67568","practice_instructions":1,"leaderboard_instructions":0,"bonus":0,"reveal_word":true,"self_rating":"3","confidence":"69"},{"rt":9585.199999988079,"responses":"{\"Q0\":\"... reveal the word with as <b>few letter guesses</b> as possible\"}","question_order":"[0]","trial_type":"survey-multi-choice","trial_index":3,"time_elapsed":58891,"internal_node_id":"0.0-2.0-1.0","protocol_sum":"","subject_identifier":201,"subject_sum":[173,87,54,104,101,18,110,85,100,158,203,35,174,29,72,136,117,68,151,110,254,164,106,72,235,93,133,166,238,180,211,6],"subject_pair":100,"correct":true,"test_part":"multichoice_nonpretend","STUDY_ID":"669eec2e4270c76bc184a38e","PROLIFIC_PID":"666e20c484d272cadcc536c9","SESSION_ID":"669ef08ef0fcd2f1a3e67568","practice_instructions":1,"leaderboard_instructions":0,"bonus":0,"reveal_word":true,"self_rating":"3","confidence":"69"},{"view_history":"[{\"page_index\":0,\"viewing_time\":1341.7000000029802}]","rt":1342,"trial_type":"instructions","trial_index":4,"time_elapsed":60234,"internal_node_id":"0.0-3.0","protocol_sum":"","subject_identifier":201,"subject_sum":[173,87,54,104,101,18,110,85,100,158,203,35,174,29,72,136,117,68,151,110,254,164,106,72,235,93,133,166,238,180,211,6],"subject_pair":100,"STUDY_ID":"669eec2e4270c76bc184a38e","PROLIFIC_PID":"666e20c484d272cadcc536c9","SESSION_ID":"669ef08ef0fcd2f1a3e67568","practice_instructions":1,"leaderboard_instructions":0,"bonus":0,"reveal_word":true,"self_rating":"3","confidence":"69"},{"word":"ZEBRA","click_log":{"letter":["","A","E","I","U","T","L","D","N","P","H","R","J","B","C","Z"],"t":[0,13998.40000000596,19260.20000000298,23854.20000000298,29387,30112.20000000298,30803,31629.90000000596,32288.20000000298,33078.20000000298,33962.09999999404,34658.59999999404,40871.09999999404,42373.29999999702,43897.90000000596,50375.90000000596],"hit":[null,1,1,0,0,0,0,0,0,0,0,1,0,1,0,1],"asked":["","A","AE","AEI","AEIU","AEIUT","AEIUTL","AEIUTLD","AEIUTLDN","AEIUTLDNP","AEIUTLDNPH","AEIUTLDNPHR","AEIUTLDNPHRJ","AEIUTLDNPHRJB","AEIUTLDNPHRJBC","AEIUTLDNPHRJBCZ"],"word_state":["_____","____A","_E__A","_E__A","_E__A","_E__A","_E__A","_E__A","_E__A","_E__A","_E__A","_E_RA","_E_RA","_EBRA","_EBRA","ZEBRA"]},"hover_log":{"letter":["?","?","?","?","J","J","?","?","B","?","?","?","?","?","?","?","?","?","?","?","?","?","?","?","?","?","?","?","?","?","?","?","?","?","?","?","?","?","?","?","?","?","?","?","?","?","?","?","?","?","?","?","?","?","?","?","?","?","?","?","?","?","?","?","?","?","?","?","?","?","?","?","?","?","?","?","?","?","?","?","?","?","?","?","?","?","?","?","?","?","?","?","?","?","?","?","?","?","?","?","?","?","?","?","?","?","?","?","?","?","?","?","?","?","?","?","?","?","?","?","?","?","?","?","?","?","?","?","?","?","?","?","?","?","?","?","?","?","?","?","?","?","?","?","?","?","?","?","?","?","?","?","?","?","?","?","?","?","?","?","?","?","?","?","?","?","?","?","?","?","?","?","?","?","?","?","?","?","?","?","?","?","?","?","?","?","?","?","?","?","?","?","?","?","?","?","?","?","?","?","?","?","?","?","?","?","?","?","?","?","?","?","?","?","?","?","?","?","?","?","?","?","?","?","?","?","?","?","?","?","?","?","?","?","?","?","?","?","?","?","?","?","?","?","?","?","?","?","?","?","?","?","?","?","?","?","?","?","?","?","?","?","?","?","?","?","?","?","?","?","?","?","?","?","?","?","?","?","?","?","?","?","?","?","?","?","?","?","?","?","?","?","?","?","?","?","?","?","?","?","?","?","?","?","?","?","?","?","?","?","?","?","?","?","?","?","?","?","?","?","?","?","?","?","?","?","?","?","?","?","?","?","?","?","?","?","?","?","?","?","?","?","?","?","?","?","?","?","?","?","?","?","?","?","?","?","?","?","?","?","?","?","?","?","?","?","?","?","?","?","?","?","?","?","?","?","?","?","?","?","?","?","?","?","?","?","?","?","?","?","?","?","?","?","?","?","?","?","?","?","?","?","?","?","?","?","?","?","?","?","?","?","?","?","?","?","?","?","?","?","?","?","?","?","?","?","?","?","?","?","?","?","?","?","?","?","?","?","?","?","?","?","?","?","?","?","?","?","?","?","?","?","?","?","?","?","?","D","D","D","D","D","?","M","M","M","M","M","M","M","M","M","M","M","M","M","M","M","M","M","M","M","M","M","M","M","M","M","M","M","?","?","?","?","?","?","?","?","C","C","C","C","C","C","C","C","C","?","?","?","?","?","?","?","?","?","?","?","?","?","?","?","?","?","?","?","?","?","D","D","D","D","D","D","D","D","D","D","D","D","D","D","D","D","D","D","D","D","D","D","D","D","D","D","D","D","D","D","D","D","D","D","D","D","D","D","D","D","D","D","D","D","D","?","?","?","?","?","?","?","?","?","?","?","?","?","?","?","?","?","?","?","?","?","?","?","?","?","?","?","?","?","?","?","?","?","?","?","?","?","?","?","?","?","?","?","?","?","?","?","?","?","?","?","?","?","?","?","?","?","?","?","?","?","?","?","?","?","?","?","?","?","?","?","?","?","?","?","?","?","?","?","?","?","?","?","?","?","?","?","?","?","?","?","?","?","?","?","?","?","?","?","?","?","?","?","?","?","?","?","?","?","?","?","?","C","C","C","C","C","C","C","C","C","C","C","C","C","C","C","C","C","C","C","C","C","C","C","C","C","C","C","C","C","C","C","C","C","C","C","C","C","C","C","C","C","C","C","C","C","C","C","C","C","C","C","C","C","C","C","C","C","C","C","C","C","C","C","C","C","C","C","C","C","C","C","C","C","C","C","C","C","C","C","C","C","C","C","C","C","C","C","C","C","C","C","C","C","C","C","C","C","C","C","C","C","C","C","C","C","C","C","C","C","C","C","C","C","C","C","C","C","C","C","C","?","?","?","?","?","?","?","?","?","?","?","?","?","?","?","?","A","A","A","A","A","A","A","A","A","A","A","A","A","A","A","A","A","A","A","A","A","A","A","?","?","?","?","?","?","K","K","K","K","K","K","K","K","K","K","K","K","K","K","K","K","K","K","K","K","K","K","K","K","K","K","K","K","K","K","K","K","K","K","K","K","K","K","K","K","K","K","K","K","K","K","K","K","K","?","?","?","?","?","?","?","?","?","?","?","?","?","?","?","?","?","?","?","?","?","?","?","?","?","?","?","?","?","?","?","?","?","?","?","?","?","?","?","?","?","?","?","?","?","?","?","?","?","?","?","?","?","?","?","?","?","?","?","?","?","?","?","?","?","?","?","?","?","?","?","?","?","?","?","?","?","?","?","?","?","?","?","?","?","?","?","?","?","?","?","?","?","?","?","?","?","?","?","?","?","?","?","?","?","?","?","?","?","?","?","?","?","?","?","?","?","?","?","?","?","?","?","?","?","?","?","?","?","?","?","?","?","?","?","?","?","?","?","?","?","?","?","?","?","?","?","?","?","?","?","?","?","?","?","?","?","?","?","?","?","?","?","?","?","?","?","?","?","?","?","?","?","?","?","?","?","?","?","?","?","?","?","?","?","?","?","?","?","?","?","?","C","C","C","C","C","C","C","C","C","C","C","C","C","C","C","?","?","?","?","?","?","?","?","?","?","?","?","?","?","?","?","?","?","?","?","?","?","?","?","?","?","?","?","E","E","E","E","E","E","E","E","E","E","E","E","E","E","E","E","E","E","E","E","E","E","E","E","E","E","E","?","?","?","?","?","?","?","?","M","M","M","M","M","M","M","M","M","M","M","M","M","M","M","M","M","M","M","M","M","M","M","M","M","M","M","M","M","M","M","M","M","M","M","M","M","M","M","M","M","M","M","M","M","M","M","M","M","M","M","M","M","M","M","M","M","M","M","M","M","M","M","M","M","M","M","M","M","M","M","M","M","M","M","M","M","M","M","M","M","M","M","M","M","M","M","M","M","M","M","M","M","M","M","M","M","M","M","M","M","M","M","M","M","M","M","M","M","M","M","M","M","M","M","M","M","M","M","M","M","M","M","M","M","M","M","M","M","M","M","M","M","M","M","M","M","M","M","M","M","M","M","M","M","M","M","M","M","M","M","M","M","M","M","M","M","M","M","M","M","M","M","M","M","M","M","M","M","M","M","M","M","M","M","M","M","M","M","M","M","M","M","M","M","M","M","M","M","M","M","M","M","M","M","M","M","M","M","M","M","M","M","M","M","M","M","M","M","M","M","M","M","M","M","M","M","M","M","M","?","?","?","?","?","F","?","?","H","I","I","I","I","I","I","I","I","I","I","I","I","I","I","I","I","I","I","I","I","I","I","I","I","I","I","I","I","I","I","I","I","I","I","I","I","I","I","I","I","I","I","I","I","I","I","I","I","?","?","?","?","Q","Q","?","?","Y","Y","?","?","?","?","?","?","?","?","?","?","?","?","?","?","?","?","?","?","?","?","?","?","?","?","?","?","?","?","?","?","?","?","?","?","?","?","?","?","?","?","?","?","?","?","?","?","?","?","?","X","X","X","X","X","X","X","X","X","X","X","X","X","X","X","X","X","X","X","X","X","X","X","X","X","X","X","X","X","X","X","X","X","X","X","X","X","X","X","X","X","X","X","X","X","X","X","X","X","X","X","X","X","X","X","X","X","X","X","X","X","?","?","?","O","O","O","O","O","O","O","O","O","O","O","O","O","O","O","O","O","O","O","O","O","O","O","O","O","O","O","O","O","O","O","O","O","O","O","O","O","O","O","O","O","O","O","O","O","O","O","O","O","O","O","O","O","O","O","O","O","O","O","O","O","O","O","O","O","O","O","O","O","O","O","O","O","O","O","O","O","O","O","O","O","O","O","O","O","O","O","O","O","O","O","O","O","O","O","O","O","O","O","?","?","?","?","?","?","?","?","?","?","?","?","?","?","?","?","?","?","?","?","?","?","?","?","?","?","?","?","?","?","?","?","?","?","?","?","?","?","?","N","N","N","M","M","M","M","M","?","?","L","L","L","L","?","?","?","?","?","?","?","?","?","?","?","?","?","?","?","?","?","?","?","?","?","?","?","?","?","?","?","U","U","U","U","U","U","U","U","U","U","U","U","U","U","U","U","U","U","U","U","U","U","U","U","U","U","U","U","U","U","U","U","U","U","U","U","?","T","T","T","T","T","T","T","T","T","T","T","T","T","T","T","T","T","T","T","T","T","T","T","T","T","T","T","T","T","T","T","T","T","T","T","T","?","?","?","L","L","L","L","L","L","L","L","L","L","L","L","L","L","L","L","L","L","L","L","L","L","L","L","L","L","L","L","L","L","L","L","L","L","L","L","L","L","L","L","L","L","L","L","L","L","L","L","?","?","?","?","?","?","?","?","?","?","?","?","D","D","D","D","D","D","D","D","D","D","D","D","D","D","D","D","?","M","M","M","M","M","M","M","M","M","M","M","M","M","M","M","M","M","M","M","?","?","N","N","N","N","N","N","N","N","N","N","N","N","N","N","N","N","N","N","N","N","N","N","N","N","N","N","N","N","N","N","?","O","O","O","O","O","O","O","O","O","O","O","O","O","O","O","O","P","P","P","P","P","P","P","P","P","P","P","P","P","P","P","P","P","P","P","P","P","P","P","P","P","P","P","?","?","?","G","?","?","?","?","?","?","?","?","?","?","?","?","?","?","?","?","?","?","?","?","?","H","H","H","H","H","H","H","H","H","H","H","H","H","H","H","H","H","H","H","H","H","?","?","Q","Q","Q","Q","Q","Q","Q","Q","Q","Q","Q","Q","Q","Q","Q","Q","Q","Q","?","?","?","?","?","?","R","R","R","R","R","R","R","R","R","R","R","R","R","R","R","R","R","R","R","R","R","R","R","R","R","R","R","?","?","?","?","?","?","?","?","?","Z","Z","Z","?","?","?","Y","Y","Y","Y","Y","Y","Y","Y","Y","Y","Y","Y","Y","Y","Y","Y","Y","Y","Y","Y","Y","Y","Y","Y","Y","Y","Y","Y","Y","Y","Y","Y","Y","Y","Y","Y","Y","Y","Y","Y","Y","Y","Y","Y","Y","Y","Y","Y","Y","Y","Y","Y","Y","Y","Y","Y","Y","Y","Y","Y","Y","Y","Y","Y","Y","Y","Y","Y","Y","Y","Y","Y","Y","Y","Y","Y","Y","Y","Y","Y","Y","Y","Y","Y","Y","?","?","?","Q","Q","Q","Q","?","?","?","?","?","?","?","?","?","?","?","?","?","?","?","?","?","?","?","?","?","?","?","?","?","?","?","?","?","?","?","?","?","?","?","?","?","?","?","?","?","?","?","?","?","?","?","?","?","?","?","?","?","?","?","?","?","?","?","?","?","?","?","?","?","?","?","?","?","?","?","?","?","?","?","?","?","?","?","?","?","?","?","?","?","?","?","?","?","?","?","?","?","?","?","?","?","?","?","?","?","?","?","?","?","?","?","?","?","?","?","?","?","?","?","?","?","?","?","?","?","?","P","?","O","O","N","N","?","M","M","M","M","M","M","M","M","?","?","?","L","L","L","L","L","L","L","L","L","L","L","L","L","L","L","L","L","L","L","L","L","L","L","L","?","?","K","K","K","K","K","K","K","K","K","K","K","K","K","K","K","?","?","?","?","?","?","?","?","?","?","?","?","?","?","?","?","?","?","?","?","?","?","?","?","?","?","?","?","?","?","?","?","?","?","?","J","J","J","J","J","J","J","J","J","J","J","J","J","J","J","J","J","J","J","J","J","J","J","J","J","J","J","J","J","J","J","J","J","J","J","J","J","J","J","?","K","K","K","L","L","M","M","?","N","?","O","?","?","?","?","?","?","?","?","?","?","?","?","?","P","?","?","?","?","?","?","F","F","F","F","F","?","?","E","E","E","E","E","E","E","E","E","E","E","E","D","D","D","D","?","?","C","C","C","C","C","C","C","C","C","?","?","?","B","B","B","B","B","B","B","B","B","B","B","B","B","B","B","B","B","B","B","B","B","B","B","B","B","B","B","B","B","B","B","B","B","B","?","B","B","B","B","?","?","?","?","?","?","?","?","?","?","?","?","?","?","?","?","?","?","C","C","C","C","C","C","C","C","C","C","C","C","C","C","C","C","C","C","C","C","C","C","C","C","C","?","?","?","?","?","?","?","?","?","C","C","C","C","C","C","C","C","C","C","C","C","C","C","C","C","C","C","C","C","C","C","C","C","C","C","C","C","C","C","C","C","C","C","C","C","C","C","C","C","C","C","C","C","C","C","C","C","C","C","C","C","C","C","C","C","C","C","C","C","C","C","C","C","C","C","C","C","C","C","C","C","C","C","C","C","C","C","C","C","C","C","C","C","?","?","?","?","D","D","D","?","E","E","E","E","E","E","E","E","E","E","E","E","E","?","?","F","F","F","F","F","F","F","F","F","F","F","F","F","F","F","F","F","F","F","F","F","F","F","F","F","F","F","F","F","F","F","F","?","?","O","O","O","O","O","O","O","O","?","?","?","?","?","?","?","?","?","?","?","?","?","?","X","X","X","X","X","?","?","?","?","?","?","?","?","W","W","W","W","W","W","W","W","W","W","W","W","W","W","W","W","W","W","W","W","W","W","W","W","W","W","W","W","W","W","W","W","W","W","W","W","W","W","W","W","W","W","W","W","W","W","W","W","W","W","W","W","W","W","W","W","W","W","W","W","W","W","W","W","W","W","W","W","W","W","W","W","W","W","W","W","W","W","W","W","W","W","W","W","?","V","U","U","U","U","?","T","T","T","T","T","T","T","T","T","?","?","?","?","?","S","S","S","S","S","S","S","S","S","S","S","S","S","S","S","S","S","S","S","S","S","S","S","S","S","S","S","S","S","S","S","S","S","S","S","S","S","S","S","S","S","S","S","S","S","S","S","S","S","S","S","S","S","S","S","S","S","S","?","T","T","?","?","?","?","?","?","?","W","W","?","?","?","?","?","?","?","?","?","X","X","X","X","X","X","X","Y","Y","Y","Y","Y","Y","Y","Y","Y","Y","?","?","?","?","?","?","?","?","?","?","Z","Z","Z","Z","Z","Z","Z","Z","Z","Z","Z","Z","Z","Z","Z","Z","Z","Z","Z","Z","Z","Z","Z","Z","?","?","?","?","?","F","?","?","?","?","?","?","?","?","?","?","?","?","?","?","?","?","?","?","?","?","?","?","?","?","?","?","?","?","?","?","?","?","?","?","?","?","?","?","?","?","?","?","?","?","?","?","?","?","?","?","?","?","?","?","?","?","?","?","?","?","?","?","?","?","?","?","?","?","?","?","?","?","?","?","?","?","?","?","?","?","?","?","?","?","?","?","?","?","?","?","?","?","?","?","?","?","?","?","?","?","?","?","?","?","?","?"],"t":[67,70,96,112,131,146,163,179,196,213,229,246,262,279,296,312,329,346,362,379,396,412,429,446,462,479,496,512,529,546,563,580,596,612,629,646,662,679,696,712,729,746,762,779,796,812,829,846,862,879,896,912,929,946,962,979,996,1012,1029,1046,1063,1079,1096,1113,1129,1146,1163,1179,1196,1212,1229,1246,1263,1279,1296,1312,1329,1346,1362,1379,1396,1414,1429,1446,1462,1479,1496,1512,1529,1546,1562,1579,1596,1612,1629,1646,1662,1679,1697,1713,1729,1746,1762,1779,1796,1812,1829,1846,1862,1879,1896,1912,1929,1946,1962,1979,1996,2012,2029,2046,2063,2079,2096,2112,2130,2146,2163,2180,2196,2212,2229,2246,2263,2279,2296,2313,2329,2346,2363,2379,2396,2413,2430,2446,2463,2479,2496,2513,2529,2546,2563,2580,2596,2613,2629,2646,2663,2679,2696,2713,2729,2746,2763,2779,2796,2813,2829,2846,2863,2879,2896,2913,2929,2946,2963,2979,2996,3013,3030,3047,3063,3080,3097,3113,3130,3147,3163,3180,3196,3213,3229,3246,3262,3279,3296,3313,3329,3346,3364,3380,3396,3412,3429,3446,3463,3479,3496,3513,3529,3546,3563,3579,3596,3613,3629,3646,3663,3679,3696,3713,3729,3746,3763,3779,3796,3813,3829,3846,3863,3879,3896,3913,3930,3946,3963,3979,3996,4013,4030,4046,4063,4080,4096,4113,4129,4146,4163,4179,4196,4213,4229,4246,4263,4280,4296,4313,4329,4346,4363,4379,4396,4413,4429,4446,4463,4480,4496,4513,4530,4546,4563,4580,4596,4613,4629,4646,4663,4680,4696,4713,4729,4746,4763,4780,4796,4813,4830,4846,4863,4880,4896,4913,4929,4946,4963,4980,4996,5013,5030,5046,5063,5080,5096,5113,5130,5146,5163,5180,5196,5213,5230,5246,5263,5279,5296,5313,5330,5346,5363,5379,5396,5413,5429,5446,5463,5479,5496,5513,5529,5546,5563,5580,5596,5613,5630,5646,5663,5680,5696,5713,5730,5746,5763,5780,5796,5813,5830,5846,5863,5880,5896,5913,5929,5946,5963,5980,5996,6013,6029,6046,6063,6079,6096,6113,6129,6146,6163,6180,6196,6213,6230,6246,6263,6280,6296,6313,6330,6346,6363,6379,6397,6413,6430,6446,6463,6480,6496,6513,6530,6546,6563,6579,6596,6613,6629,6646,6663,6679,6696,6713,6729,6746,6763,6780,6796,6813,6830,6846,6863,6880,6897,6913,6930,6946,6963,6979,6996,7013,7030,7046,7063,7080,7096,7113,7130,7146,7163,7179,7197,7213,7230,7246,7263,7280,7296,7313,7329,7346,7363,7380,7396,7413,7430,7446,7463,7480,7496,7513,7530,7547,7563,7579,7597,7613,7630,7647,7663,7682,7696,7713,7730,7746,7763,7780,7796,7813,7830,7846,7863,7880,7896,7913,7930,7946,7963,7980,7996,8013,8030,8046,8063,8080,8096,8113,8130,8147,8163,8180,8197,8214,8230,8247,8263,8281,8297,8314,8331,8347,8364,8380,8397,8413,8430,8447,8463,8480,8497,8513,8530,8547,8564,8580,8596,8613,8630,8646,8663,8680,8697,8713,8730,8746,8763,8780,8796,8813,8830,8846,8863,8880,8896,8913,8930,8947,8963,8980,8996,9013,9030,9046,9063,9080,9097,9113,9130,9146,9163,9180,9197,9213,9230,9246,9263,9280,9297,9313,9331,9347,9363,9380,9396,9413,9430,9446,9463,9480,9496,9513,9530,9546,9563,9580,9597,9613,9630,9646,9663,9680,9697,9713,9730,9746,9763,9780,9796,9813,9830,9847,9863,9880,9896,9913,9930,9947,9963,9980,9996,10013,10030,10046,10063,10080,10096,10113,10130,10146,10163,10180,10197,10213,10230,10246,10263,10280,10297,10314,10330,10347,10363,10380,10397,10413,10430,10447,10463,10480,10496,10513,10530,10546,10564,10580,10597,10613,10630,10647,10664,10680,10697,10713,10730,10747,10763,10780,10797,10814,10830,10847,10864,10880,10897,10914,10930,10947,10963,10980,10997,11013,11030,11047,11064,11081,11097,11114,11130,11147,11163,11180,11197,11213,11230,11247,11264,11280,11297,11314,11330,11347,11364,11381,11397,11413,11430,11447,11463,11480,11497,11514,11530,11547,11563,11580,11597,11614,11630,11647,11663,11680,11697,11714,11730,11747,11764,11780,11797,11814,11830,11847,11863,11880,11897,11914,11930,11947,11963,11980,11997,12013,12030,12047,12064,12080,12097,12114,12130,12147,12164,12181,12197,12213,12230,12247,12263,12280,12297,12314,12330,12347,12364,12380,12397,12413,12430,12447,12464,12480,12497,12514,12530,12547,12564,12580,12597,12614,12630,12647,12664,12681,12697,12714,12730,12747,12764,12781,12797,12814,12831,12847,12864,12880,12897,12914,12930,12947,12964,12980,12997,13014,13030,13047,13064,13081,13097,13114,13130,13147,13164,13180,13197,13214,13230,13247,13264,13281,13297,13314,13330,13347,13364,13381,13397,13414,13432,13447,13465,13481,13497,13514,13530,13547,13564,13581,13598,13613,13630,13647,13664,13680,13697,13714,13730,13747,13764,13780,13797,13814,13831,13847,13864,13880,13897,13914,13930,13947,13964,13981,13998,14015,14031,14048,14064,14081,14097,14114,14131,14147,14164,14181,14198,14214,14231,14247,14264,14281,14297,14314,14330,14347,14364,14380,14397,14414,14431,14447,14464,14481,14497,14514,14531,14547,14564,14580,14597,14614,14630,14647,14664,14680,14697,14714,14731,14747,14764,14781,14797,14814,14831,14847,14864,14881,14897,14914,14931,14948,14964,14981,14997,15014,15031,15048,15064,15081,15097,15114,15130,15147,15164,15181,15197,15214,15231,15247,15264,15281,15297,15314,15331,15347,15364,15381,15397,15414,15431,15447,15464,15481,15497,15514,15531,15548,15564,15581,15597,15614,15631,15647,15664,15680,15697,15714,15731,15747,15764,15780,15798,15814,15831,15847,15864,15880,15898,15914,15931,15947,15964,15980,15997,16014,16030,16047,16064,16081,16097,16114,16130,16147,16164,16181,16197,16214,16231,16247,16264,16281,16297,16314,16331,16347,16364,16381,16397,16414,16431,16447,16464,16480,16497,16514,16531,16548,16564,16581,16597,16614,16630,16647,16664,16681,16697,16714,16731,16747,16764,16781,16797,16814,16831,16847,16864,16881,16897,16914,16931,16948,16965,16981,16998,17014,17031,17047,17064,17081,17098,17114,17131,17147,17164,17181,17197,17214,17231,17247,17264,17281,17297,17314,17331,17347,17364,17381,17397,17414,17431,17448,17464,17481,17498,17514,17531,17548,17564,17581,17598,17615,17631,17648,17664,17681,17697,17714,17731,17748,17764,17781,17798,17814,17831,17848,17864,17881,17898,17914,17931,17948,17964,17981,17998,18014,18031,18047,18064,18081,18098,18114,18131,18147,18164,18181,18198,18214,18231,18248,18264,18281,18297,18314,18331,18348,18364,18381,18397,18414,18431,18448,18464,18481,18498,18514,18531,18548,18565,18581,18598,18614,18632,18649,18666,18682,18699,18715,18732,18748,18765,18781,18798,18814,18831,18847,18864,18881,18897,18914,18931,18947,18964,18981,18997,19014,19031,19048,19065,19081,19098,19114,19131,19147,19164,19181,19197,19214,19231,19248,19264,19281,19298,19314,19332,19348,19364,19381,19398,19414,19431,19448,19464,19481,19498,19514,19531,19548,19564,19581,19598,19614,19631,19648,19664,19681,19698,19715,19731,19748,19764,19781,19798,19814,19831,19848,19865,19881,19898,19915,19931,19948,19964,19981,19998,20015,20031,20048,20065,20081,20098,20115,20131,20148,20164,20181,20198,20215,20231,20248,20264,20281,20298,20314,20331,20348,20365,20381,20398,20415,20431,20448,20465,20481,20498,20515,20531,20548,20565,20581,20598,20615,20631,20648,20665,20681,20698,20715,20731,20748,20765,20781,20798,20815,20831,20848,20865,20881,20898,20915,20931,20948,20964,20981,20998,21015,21031,21048,21065,21082,21098,21115,21131,21148,21164,21181,21198,21215,21231,21248,21265,21281,21298,21314,21331,21348,21365,21381,21398,21415,21431,21448,21465,21481,21498,21514,21531,21548,21565,21582,21598,21615,21631,21648,21665,21681,21698,21715,21731,21748,21765,21781,21798,21814,21832,21848,21865,21881,21898,21915,21932,21948,21965,21981,21998,22015,22031,22048,22065,22081,22098,22114,22131,22148,22165,22181,22198,22214,22231,22249,22265,22281,22299,22315,22331,22348,22365,22381,22398,22414,22431,22448,22465,22481,22498,22514,22531,22548,22565,22581,22598,22615,22631,22648,22665,22681,22698,22715,22732,22748,22765,22781,22798,22815,22832,22848,22865,22881,22898,22915,22931,22948,22965,22982,22998,23015,23031,23048,23065,23082,23098,23115,23131,23148,23165,23182,23198,23215,23231,23248,23265,23282,23299,23315,23332,23348,23365,23381,23398,23415,23431,23448,23465,23481,23498,23515,23532,23548,23565,23581,23598,23615,23631,23648,23665,23681,23698,23715,23731,23748,23765,23782,23799,23815,23833,23848,23869,23882,23898,23915,23932,23948,23965,23981,23998,24015,24031,24048,24065,24081,24098,24115,24132,24148,24165,24182,24198,24215,24232,24248,24265,24282,24300,24316,24332,24349,24365,24382,24398,24415,24432,24448,24465,24481,24498,24515,24531,24548,24565,24582,24598,24615,24631,24649,24665,24682,24698,24715,24732,24748,24765,24781,24798,24815,24832,24848,24865,24882,24898,24915,24932,24948,24965,24982,24998,25015,25032,25048,25065,25082,25098,25115,25132,25150,25165,25182,25198,25215,25231,25248,25265,25281,25298,25315,25332,25348,25365,25381,25399,25415,25431,25449,25465,25481,25498,25515,25531,25548,25565,25582,25598,25615,25632,25648,25665,25682,25698,25715,25731,25748,25765,25782,25798,25815,25832,25848,25865,25882,25898,25915,25932,25948,25965,25982,25998,26015,26032,26049,26065,26082,26099,26115,26132,26149,26165,26182,26198,26216,26232,26248,26265,26282,26298,26315,26332,26349,26366,26382,26398,26415,26432,26448,26465,26481,26498,26515,26531,26548,26565,26582,26598,26616,26632,26648,26665,26682,26699,26715,26732,26749,26766,26782,26799,26815,26832,26849,26865,26882,26899,26915,26932,26949,26965,26982,26998,27015,27032,27048,27065,27082,27099,27116,27132,27149,27165,27182,27199,27215,27232,27249,27266,27282,27299,27315,27332,27349,27365,27382,27399,27415,27432,27449,27465,27482,27499,27515,27532,27549,27565,27582,27599,27615,27632,27649,27665,27682,27699,27715,27732,27748,27765,27782,27799,27816,27832,27849,27865,27883,27899,27915,27932,27949,27966,27983,27999,28015,28032,28049,28065,28082,28099,28116,28132,28149,28165,28182,28199,28215,28232,28249,28265,28282,28299,28315,28332,28349,28366,28382,28399,28415,28432,28449,28465,28482,28499,28516,28532,28549,28565,28582,28599,28615,28632,28649,28666,28682,28699,28716,28732,28749,28765,28782,28799,28815,28832,28849,28866,28882,28899,28916,28932,28949,28966,28983,28999,29016,29033,29049,29066,29082,29099,29115,29132,29149,29165,29182,29199,29215,29232,29249,29265,29282,29299,29315,29332,29349,29365,29382,29399,29416,29432,29449,29465,29482,29499,29516,29532,29549,29566,29582,29599,29616,29632,29650,29666,29682,29699,29716,29732,29749,29766,29782,29799,29816,29832,29849,29866,29882,29899,29916,29932,29949,29966,29982,29999,30016,30032,30049,30065,30082,30099,30116,30132,30149,30165,30182,30199,30216,30232,30249,30266,30282,30299,30315,30332,30349,30366,30382,30399,30416,30432,30449,30466,30483,30499,30516,30533,30549,30567,30582,30599,30616,30632,30649,30665,30682,30699,30715,30732,30749,30766,30782,30799,30816,30832,30849,30865,30882,30899,30916,30932,30949,30966,30983,30999,31016,31032,31049,31066,31082,31099,31116,31133,31149,31166,31182,31199,31216,31232,31249,31266,31282,31299,31316,31332,31349,31365,31382,31399,31416,31432,31449,31466,31482,31499,31516,31532,31549,31566,31582,31599,31615,31632,31649,31666,31682,31699,31716,31732,31749,31766,31782,31799,31816,31832,31849,31865,31882,31899,31916,31932,31949,31966,31982,31999,32016,32032,32049,32066,32083,32100,32116,32133,32149,32166,32183,32199,32216,32232,32249,32266,32282,32299,32316,32332,32349,32366,32382,32399,32416,32433,32449,32466,32482,32499,32516,32532,32549,32566,32583,32600,32616,32633,32650,32666,32683,32699,32716,32733,32749,32766,32782,32799,32816,32832,32849,32866,32883,32899,32916,32932,32949,32966,32983,32999,33016,33033,33049,33066,33083,33099,33116,33133,33149,33166,33183,33199,33216,33233,33249,33266,33283,33300,33316,33332,33349,33366,33383,33399,33416,33433,33449,33466,33482,33500,33516,33532,33549,33566,33583,33599,33616,33632,33649,33666,33683,33699,33716,33732,33749,33766,33783,33799,33816,33833,33849,33866,33882,33899,33916,33932,33949,33966,33983,33999,34016,34033,34050,34066,34083,34100,34116,34133,34151,34167,34183,34199,34217,34233,34249,34266,34282,34299,34316,34332,34349,34366,34383,34399,34416,34432,34449,34466,34483,34499,34516,34533,34550,34566,34582,34599,34616,34633,34649,34666,34683,34699,34716,34733,34749,34766,34783,34799,34816,34833,34849,34866,34883,34899,34916,34933,34950,34966,34983,35000,35016,35033,35049,35066,35083,35100,35116,35133,35150,35166,35183,35200,35216,35233,35250,35266,35283,35299,35316,35333,35350,35366,35383,35399,35416,35433,35449,35466,35483,35499,35516,35533,35549,35566,35583,35599,35616,35633,35650,35666,35683,35699,35716,35733,35749,35766,35783,35799,35816,35833,35850,35866,35883,35900,35916,35933,35949,35966,35983,35999,36016,36033,36050,36066,36083,36099,36116,36133,36150,36166,36183,36200,36216,36233,36250,36266,36283,36300,36316,36333,36350,36366,36384,36399,36416,36433,36450,36466,36483,36500,36517,36533,36550,36566,36583,36600,36616,36633,36650,36667,36683,36700,36716,36733,36750,36766,36783,36800,36816,36833,36850,36866,36883,36899,36916,36933,36950,36966,36983,37000,37016,37033,37050,37066,37083,37100,37117,37133,37150,37166,37183,37199,37216,37233,37250,37266,37283,37299,37316,37333,37350,37366,37383,37399,37416,37433,37450,37468,37483,37500,37516,37533,37550,37567,37583,37600,37617,37633,37650,37667,37683,37700,37716,37733,37750,37767,37783,37800,37816,37833,37850,37867,37883,37900,37916,37933,37950,37966,37983,38000,38016,38033,38050,38067,38084,38100,38116,38133,38150,38167,38183,38200,38216,38233,38250,38266,38283,38299,38316,38333,38350,38366,38383,38400,38416,38433,38450,38466,38483,38500,38517,38533,38550,38567,38583,38599,38616,38633,38650,38666,38683,38699,38716,38733,38750,38766,38783,38800,38816,38833,38850,38866,38884,38900,38916,38933,38950,38967,38983,39000,39017,39034,39050,39067,39083,39100,39117,39133,39150,39167,39183,39200,39216,39233,39250,39267,39284,39300,39317,39333,39350,39367,39384,39400,39417,39433,39450,39466,39483,39500,39516,39533,39550,39567,39583,39600,39617,39634,39650,39667,39683,39700,39716,39733,39750,39766,39783,39800,39817,39833,39850,39866,39883,39900,39917,39933,39950,39966,39983,40000,40016,40033,40050,40066,40083,40100,40117,40133,40150,40166,40183,40200,40217,40234,40250,40267,40283,40300,40316,40333,40350,40367,40383,40400,40416,40433,40450,40466,40483,40500,40517,40533,40550,40567,40583,40600,40617,40634,40650,40667,40683,40700,40717,40734,40750,40767,40783,40800,40817,40833,40850,40867,40884,40900,40917,40934,40950,40967,40984,41000,41017,41034,41050,41068,41084,41100,41117,41133,41150,41167,41184,41200,41217,41234,41250,41266,41283,41300,41317,41333,41350,41367,41383,41400,41417,41433,41450,41467,41483,41500,41517,41534,41550,41567,41583,41600,41617,41633,41650,41667,41684,41700,41717,41734,41750,41767,41784,41800,41817,41834,41850,41867,41884,41900,41917,41934,41950,41967,41983,42000,42017,42034,42051,42067,42084,42100,42117,42134,42150,42167,42184,42200,42217,42233,42250,42267,42283,42300,42317,42333,42350,42367,42383,42400,42417,42434,42450,42467,42483,42500,42517,42534,42550,42567,42584,42600,42617,42634,42650,42667,42684,42700,42717,42734,42751,42767,42784,42800,42817,42834,42850,42867,42884,42900,42917,42934,42951,42967,42983,43001,43017,43034,43050,43067,43084,43101,43117,43134,43150,43167,43184,43200,43217,43234,43251,43267,43284,43301,43317,43334,43351,43367,43384,43400,43417,43434,43450,43467,43484,43500,43517,43534,43550,43567,43584,43600,43617,43634,43650,43667,43684,43700,43717,43734,43750,43767,43784,43800,43817,43834,43851,43867,43883,43900,43917,43933,43950,43967,43984,44000,44017,44034,44050,44067,44084,44101,44117,44134,44150,44167,44184,44200,44217,44234,44250,44267,44284,44300,44317,44334,44351,44367,44383,44400,44417,44434,44451,44468,44485,44501,44518,44535,44550,44568,44584,44600,44617,44634,44650,44667,44683,44700,44717,44734,44750,44767,44784,44801,44817,44833,44850,44867,44884,44900,44917,44934,44950,44967,44984,45000,45017,45034,45050,45067,45084,45101,45117,45134,45151,45168,45184,45201,45217,45234,45250,45267,45284,45300,45317,45334,45350,45367,45384,45400,45417,45434,45451,45467,45484,45501,45518,45534,45551,45567,45584,45600,45617,45634,45651,45667,45684,45700,45717,45734,45751,45767,45784,45800,45817,45834,45850,45867,45884,45900,45917,45934,45951,45967,45984,46001,46018,46034,46050,46067,46084,46101,46117,46134,46150,46167,46184,46201,46217,46234,46250,46267,46284,46300,46317,46334,46351,46368,46384,46401,46417,46434,46452,46468,46484,46500,46517,46534,46550,46567,46584,46601,46618,46634,46651,46668,46684,46701,46717,46734,46750,46767,46784,46800,46817,46834,46851,46867,46884,46901,46917,46934,46951,46968,46984,47001,47017,47034,47051,47067,47084,47101,47117,47134,47151,47168,47184,47201,47218,47234,47251,47267,47284,47301,47317,47334,47351,47367,47384,47400,47417,47434,47451,47467,47485,47501,47518,47534,47551,47568,47584,47601,47617,47634,47651,47667,47684,47701,47717,47734,47751,47767,47784,47801,47817,47834,47851,47867,47884,47900,47917,47934,47951,47967,47984,48001,48018,48035,48051,48068,48085,48101,48118,48134,48151,48168,48184,48201,48218,48234,48251,48268,48285,48301,48318,48334,48351,48368,48385,48401,48417,48434,48451,48467,48484,48501,48518,48534,48551,48567,48585,48601,48617,48634,48651,48667,48684,48701,48717,48734,48751,48768,48784,48801,48817,48834,48851,48868,48884,48901,48918,48934,48951,48967,48984,49001,49018,49034,49051,49068,49087,49101,49118,49134,49151,49167,49184,49201,49217,49234,49251,49268,49284,49301,49318,49334,49351,49368,49384,49401,49418,49434,49451,49468,49484,49501,49518,49534,49551,49567,49584,49601,49618,49635,49651,49667,49684,49701,49718,49734,49751,49768,49784,49801,49818,49834,49851,49868,49885,49901,49918,49934,49951,49968,49984,50001,50018,50034,50051,50068,50084,50101,50117,50134,50151,50168,50185,50201,50218,50234,50251,50268,50286,50301,50318,50334,50351,50367,50385,50401,50418,50434,50451,50468,50485,50501,50518,50535,50551,50568,50584,50602,50619,50635,50651,50668,50685,50702,50718,50734,50751,50767,50784,50801,50817,50834,50851,50868,50884,50901,50918,50934,50951,50968,50984,51001,51018,51034,51051,51068,51084,51101,51118,51134,51151,51168,51184,51201,51218,51234,51251,51268,51284,51301,51318,51335,51351,51368,51385,51401,51418,51435,51451,51468,51485,51501,51518,51535,51551,51568,51585,51601,51618,51634,51651,51667,51685,51701,51718,51735,51751,51768,51784,51801,51818,51834,51851,51868,51885,51901,51918,51935,51951,51968,51985,52001,52018,52035,52051,52068,52085,52101,52118,52135,52151,52168,52185,52201,52218,52234,52251,52268,52285,52301,52318,52335,52351,52368,52386],"hit":[null],"x":[-1.751700680272109,-1.751700680272109,-1.751700680272109,-1.751700680272109,-0.02891156462585034,0.00510204081632653,0.04931972789115646,0.0935374149659864,0.15476190476190477,0.21258503401360543,0.27380952380952384,0.31802721088435376,0.33843537414965985,0.358843537414966,0.3792517006802721,0.39285714285714285,0.4030612244897959,0.4064625850340136,0.4098639455782313,0.4098639455782313,0.4098639455782313,0.4098639455782313,0.4098639455782313,0.4098639455782313,0.4098639455782313,0.4098639455782313,0.4098639455782313,0.4098639455782313,0.4098639455782313,0.4098639455782313,0.4098639455782313,0.4098639455782313,0.4098639455782313,0.4098639455782313,0.4098639455782313,0.4098639455782313,0.4098639455782313,0.4098639455782313,0.4098639455782313,0.4098639455782313,0.4098639455782313,0.4098639455782313,0.4098639455782313,0.4098639455782313,0.4098639455782313,0.4098639455782313,0.4098639455782313,0.4098639455782313,0.4098639455782313,0.4098639455782313,0.4098639455782313,0.4098639455782313,0.4098639455782313,0.4098639455782313,0.4098639455782313,0.4098639455782313,0.4098639455782313,0.4098639455782313,0.4098639455782313,0.4098639455782313,0.4098639455782313,0.4098639455782313,0.4098639455782313,0.4098639455782313,0.4098639455782313,0.4098639455782313,0.4098639455782313,0.4098639455782313,0.4098639455782313,0.4098639455782313,0.4098639455782313,0.4098639455782313,0.4098639455782313,0.4098639455782313,0.4098639455782313,0.4098639455782313,0.4098639455782313,0.4098639455782313,0.4098639455782313,0.4098639455782313,0.4098639455782313,0.4098639455782313,0.4098639455782313,0.4098639455782313,0.4098639455782313,0.4098639455782313,0.4098639455782313,0.4098639455782313,0.4098639455782313,0.4098639455782313,0.4098639455782313,0.4098639455782313,0.4098639455782313,0.4098639455782313,0.4098639455782313,0.4098639455782313,0.4098639455782313,0.4098639455782313,0.413265306122449,0.4166666666666667,0.4200680272108844,0.4200680272108844,0.4200680272108844,0.4200680272108844,0.4200680272108844,0.4200680272108844,0.4200680272108844,0.4200680272108844,0.4200680272108844,0.4200680272108844,0.4200680272108844,0.4200680272108844,0.4200680272108844,0.4200680272108844,0.4200680272108844,0.4200680272108844,0.4200680272108844,0.4200680272108844,0.4200680272108844,0.4200680272108844,0.4200680272108844,0.4200680272108844,0.4200680272108844,0.4200680272108844,0.4200680272108844,0.4200680272108844,0.4200680272108844,0.4200680272108844,0.4200680272108844,0.4200680272108844,0.4200680272108844,0.4200680272108844,0.42346938775510207,0.4336734693877551,0.44047619047619047,0.44387755102040816,0.45068027210884354,0.45068027210884354,0.45068027210884354,0.44727891156462585,0.44727891156462585,0.44727891156462585,0.44727891156462585,0.44727891156462585,0.44727891156462585,0.44727891156462585,0.44727891156462585,0.44727891156462585,0.44727891156462585,0.44727891156462585,0.44727891156462585,0.44727891156462585,0.44727891156462585,0.44727891156462585,0.44727891156462585,0.44727891156462585,0.44727891156462585,0.44727891156462585,0.44727891156462585,0.44727891156462585,0.44727891156462585,0.44727891156462585,0.44727891156462585,0.44727891156462585,0.44727891156462585,0.44727891156462585,0.44727891156462585,0.44727891156462585,0.44727891156462585,0.44727891156462585,0.44727891156462585,0.44727891156462585,0.44727891156462585,0.44727891156462585,0.44727891156462585,0.44727891156462585,0.44727891156462585,0.44727891156462585,0.45068027210884354,0.45068027210884354,0.45068027210884354,0.4302721088435374,0.4098639455782313,0.4030612244897959,0.39625850340136054,0.38945578231292516,0.3792517006802721,0.3622448979591837,0.3486394557823129,0.34183673469387754,0.33503401360544216,0.33163265306122447,0.3282312925170068,0.32142857142857145,0.31802721088435376,0.3112244897959184,0.3078231292517007,0.304421768707483,0.2976190476190476,0.2942176870748299,0.2942176870748299,0.2942176870748299,0.2942176870748299,0.2942176870748299,0.2942176870748299,0.2942176870748299,0.2942176870748299,0.2942176870748299,0.2942176870748299,0.2942176870748299,0.304421768707483,0.3282312925170068,0.34183673469387754,0.3554421768707483,0.37244897959183676,0.3792517006802721,0.3826530612244898,0.3826530612244898,0.3826530612244898,0.3826530612244898,0.3826530612244898,0.3826530612244898,0.3826530612244898,0.3826530612244898,0.3826530612244898,0.3826530612244898,0.3826530612244898,0.3826530612244898,0.38605442176870747,0.4098639455782313,0.44727891156462585,0.4744897959183674,0.5051020408163265,0.5255102040816326,0.5357142857142857,0.5357142857142857,0.5357142857142857,0.5357142857142857,0.5357142857142857,0.5357142857142857,0.5357142857142857,0.5357142857142857,0.5357142857142857,0.5357142857142857,0.5357142857142857,0.5357142857142857,0.5357142857142857,0.5357142857142857,0.5357142857142857,0.5357142857142857,0.5357142857142857,0.5493197278911565,0.5799319727891157,0.5901360544217688,0.6003401360544217,0.6241496598639455,0.6479591836734694,0.6615646258503401,0.6717687074829932,0.6751700680272109,0.6785714285714286,0.6819727891156463,0.6819727891156463,0.6819727891156463,0.6819727891156463,0.6819727891156463,0.6819727891156463,0.6819727891156463,0.6819727891156463,0.6887755102040817,0.6921768707482994,0.6955782312925171,0.6989795918367347,0.6989795918367347,0.6989795918367347,0.6989795918367347,0.6989795918367347,0.6989795918367347,0.6989795918367347,0.6989795918367347,0.6989795918367347,0.70578231292517,0.7568027210884354,0.7908163265306123,0.8180272108843537,0.8384353741496599,0.858843537414966,0.8758503401360545,0.8826530612244898,0.8860544217687075,0.8860544217687075,0.8860544217687075,0.8860544217687075,0.8860544217687075,0.8860544217687075,0.8860544217687075,0.8860544217687075,0.8860544217687075,0.8860544217687075,0.8860544217687075,0.8860544217687075,0.8894557823129252,0.8996598639455783,0.9064625850340136,0.9132653061224489,0.9132653061224489,0.9132653061224489,0.9166666666666666,0.9166666666666666,0.9166666666666666,0.9166666666666666,0.9166666666666666,0.9166666666666666,0.9166666666666666,0.9166666666666666,0.9268707482993197,0.9302721088435374,0.9302721088435374,0.9302721088435374,0.9302721088435374,0.9302721088435374,0.9302721088435374,0.9302721088435374,0.9302721088435374,0.9302721088435374,0.9302721088435374,0.9302721088435374,0.9302721088435374,0.9302721088435374,0.9302721088435374,0.9302721088435374,0.9302721088435374,0.9302721088435374,0.9302721088435374,0.9302721088435374,0.9302721088435374,0.9302721088435374,0.9302721088435374,0.9302721088435374,0.9302721088435374,0.9302721088435374,0.9302721088435374,0.9302721088435374,0.9302721088435374,0.9302721088435374,0.9302721088435374,0.9302721088435374,0.9302721088435374,0.9302721088435374,0.9302721088435374,0.9302721088435374,0.9302721088435374,0.9302721088435374,0.9302721088435374,0.9302721088435374,0.9302721088435374,0.9302721088435374,0.9302721088435374,0.9302721088435374,0.9302721088435374,0.9302721088435374,0.9302721088435374,0.9302721088435374,0.9302721088435374,0.9302721088435374,0.9302721088435374,0.9302721088435374,0.9302721088435374,0.9302721088435374,0.9302721088435374,0.9302721088435374,0.9302721088435374,0.9302721088435374,0.9302721088435374,0.9302721088435374,0.9302721088435374,0.9302721088435374,0.9302721088435374,0.9302721088435374,0.9302721088435374,0.9302721088435374,0.9302721088435374,0.9336734693877551,0.9404761904761905,0.9438775510204082,0.9438775510204082,0.9438775510204082,0.9438775510204082,0.9438775510204082,0.9438775510204082,0.9438775510204082,0.9438775510204082,0.9438775510204082,0.9438775510204082,0.9438775510204082,0.9438775510204082,0.9438775510204082,0.9438775510204082,0.9438775510204082,0.9438775510204082,0.9438775510204082,0.9438775510204082,0.9438775510204082,0.9438775510204082,0.9438775510204082,0.9438775510204082,0.9438775510204082,0.9438775510204082,0.9438775510204082,0.9438775510204082,0.9438775510204082,0.9438775510204082,0.9438775510204082,0.9438775510204082,0.9438775510204082,0.9438775510204082,0.9438775510204082,0.9438775510204082,0.9438775510204082,0.9438775510204082,0.9438775510204082,0.9438775510204082,0.9438775510204082,0.9438775510204082,0.9438775510204082,0.9438775510204082,0.9438775510204082,0.9438775510204082,0.9438775510204082,0.9438775510204082,0.9132653061224489,0.8962585034013606,0.8792517006802721,0.8792517006802721,0.8792517006802721,0.8792517006802721,0.8792517006802721,0.8792517006802721,0.8792517006802721,0.8792517006802721,0.8792517006802721,0.8792517006802721,0.8792517006802721,0.8656462585034014,0.7874149659863946,0.6683673469387755,0.5697278911564626,0.5153061224489796,0.4846938775510204,0.4642857142857143,0.4574829931972789,0.45068027210884354,0.44387755102040816,0.44047619047619047,0.4302721088435374,0.4200680272108844,0.413265306122449,0.4098639455782313,0.4098639455782313,0.4098639455782313,0.413265306122449,0.4200680272108844,0.4268707482993197,0.4370748299319728,0.44727891156462585,0.4574829931972789,0.4608843537414966,0.4642857142857143,0.467687074829932,0.4710884353741497,0.4744897959183674,0.4744897959183674,0.4744897959183674,0.4744897959183674,0.4744897959183674,0.4744897959183674,0.4744897959183674,0.4744897959183674,0.477891156462585,0.477891156462585,0.4812925170068027,0.4812925170068027,0.4812925170068027,0.4812925170068027,0.4812925170068027,0.4812925170068027,0.4744897959183674,0.4574829931972789,0.44387755102040816,0.4268707482993197,0.4064625850340136,0.39285714285714285,0.38605442176870747,0.3792517006802721,0.37244897959183676,0.3656462585034014,0.32482993197278914,0.2976190476190476,0.28061224489795916,0.27721088435374147,0.27380952380952384,0.27380952380952384,0.27380952380952384,0.27380952380952384,0.28741496598639454,0.3010204081632653,0.31462585034013607,0.33163265306122447,0.33843537414965985,0.33843537414965985,0.33843537414965985,0.33843537414965985,0.33843537414965985,0.33843537414965985,0.33843537414965985,0.34523809523809523,0.3520408163265306,0.358843537414966,0.3622448979591837,0.36904761904761907,0.37244897959183676,0.37244897959183676,0.37244897959183676,0.37244897959183676,0.37244897959183676,0.37244897959183676,0.37244897959183676,0.37244897959183676,0.3826530612244898,0.3826530612244898,0.38605442176870747,0.39285714285714285,0.39965986394557823,0.4030612244897959,0.4098639455782313,0.4098639455782313,0.413265306122449,0.4200680272108844,0.42346938775510207,0.4302721088435374,0.4302721088435374,0.4302721088435374,0.4302721088435374,0.4302721088435374,0.4302721088435374,0.4302721088435374,0.4302721088435374,0.4302721088435374,0.4302721088435374,0.4302721088435374,0.4302721088435374,0.4302721088435374,0.4336734693877551,0.4336734693877551,0.44047619047619047,0.44387755102040816,0.44727891156462585,0.44727891156462585,0.45068027210884354,0.45068027210884354,0.45068027210884354,0.45068027210884354,0.45068027210884354,0.45068027210884354,0.45068027210884354,0.45068027210884354,0.45068027210884354,0.45068027210884354,0.45068027210884354,0.45068027210884354,0.45068027210884354,0.4574829931972789,0.4608843537414966,0.4710884353741497,0.4846938775510204,0.49489795918367346,0.5017006802721088,0.5051020408163265,0.5051020408163265,0.5051020408163265,0.5051020408163265,0.5051020408163265,0.5051020408163265,0.5051020408163265,0.5051020408163265,0.5051020408163265,0.5051020408163265,0.5051020408163265,0.5051020408163265,0.5051020408163265,0.5051020408163265,0.5051020408163265,0.5051020408163265,0.5051020408163265,0.5051020408163265,0.5051020408163265,0.49829931972789115,0.49829931972789115,0.49829931972789115,0.49829931972789115,0.49829931972789115,0.49829931972789115,0.49829931972789115,0.49829931972789115,0.49829931972789115,0.49829931972789115,0.49829931972789115,0.49829931972789115,0.49829931972789115,0.49829931972789115,0.49829931972789115,0.49829931972789115,0.49829931972789115,0.49829931972789115,0.49829931972789115,0.49829931972789115,0.49829931972789115,0.49829931972789115,0.49829931972789115,0.49829931972789115,0.49829931972789115,0.49829931972789115,0.49829931972789115,0.49829931972789115,0.49829931972789115,0.49829931972789115,0.49829931972789115,0.49829931972789115,0.49829931972789115,0.49829931972789115,0.49829931972789115,0.49829931972789115,0.49829931972789115,0.49829931972789115,0.49829931972789115,0.49829931972789115,0.49829931972789115,0.49829931972789115,0.49829931972789115,0.49829931972789115,0.49829931972789115,0.49829931972789115,0.49829931972789115,0.49829931972789115,0.49829931972789115,0.49829931972789115,0.49829931972789115,0.49829931972789115,0.49829931972789115,0.49829931972789115,0.49829931972789115,0.49829931972789115,0.49829931972789115,0.49829931972789115,0.49829931972789115,0.49829931972789115,0.49829931972789115,0.49829931972789115,0.49829931972789115,0.49829931972789115,0.49829931972789115,0.49829931972789115,0.49829931972789115,0.49829931972789115,0.49829931972789115,0.49829931972789115,0.49829931972789115,0.49829931972789115,0.5017006802721088,0.5051020408163265,0.5051020408163265,0.5051020408163265,0.5051020408163265,0.5051020408163265,0.5051020408163265,0.5051020408163265,0.5051020408163265,0.4914965986394558,0.4744897959183674,0.4574829931972789,0.4370748299319728,0.42346938775510207,0.39965986394557823,0.3758503401360544,0.3486394557823129,0.32142857142857145,0.3010204081632653,0.29081632653061223,0.28401360544217685,0.28061224489795916,0.27380952380952384,0.27380952380952384,0.27040816326530615,0.27040816326530615,0.27040816326530615,0.27040816326530615,0.27040816326530615,0.27040816326530615,0.27040816326530615,0.27040816326530615,0.27040816326530615,0.27040816326530615,0.26700680272108845,0.26700680272108845,0.2602040816326531,0.2568027210884354,0.2534013605442177,0.25,0.2465986394557823,0.24319727891156462,0.23979591836734693,0.23639455782312926,0.23299319727891157,0.23299319727891157,0.23299319727891157,0.23299319727891157,0.23299319727891157,0.23299319727891157,0.23299319727891157,0.23299319727891157,0.23299319727891157,0.23299319727891157,0.23299319727891157,0.23299319727891157,0.23299319727891157,0.23299319727891157,0.23299319727891157,0.23299319727891157,0.23299319727891157,0.23299319727891157,0.23299319727891157,0.23299319727891157,0.23299319727891157,0.23299319727891157,0.23299319727891157,0.23299319727891157,0.23299319727891157,0.23299319727891157,0.23299319727891157,0.23299319727891157,0.23299319727891157,0.23299319727891157,0.23299319727891157,0.23299319727891157,0.23299319727891157,0.23299319727891157,0.23299319727891157,0.23299319727891157,0.23299319727891157,0.23299319727891157,0.23299319727891157,0.23299319727891157,0.23299319727891157,0.23299319727891157,0.23299319727891157,0.23299319727891157,0.23299319727891157,0.23299319727891157,0.23299319727891157,0.23299319727891157,0.23299319727891157,0.23299319727891157,0.23299319727891157,0.23299319727891157,0.23299319727891157,0.23299319727891157,0.23299319727891157,0.23299319727891157,0.23299319727891157,0.23299319727891157,0.23299319727891157,0.23299319727891157,0.23299319727891157,0.23299319727891157,0.23299319727891157,0.23299319727891157,0.23299319727891157,0.23299319727891157,0.23299319727891157,0.23299319727891157,0.23299319727891157,0.23299319727891157,0.23299319727891157,0.23299319727891157,0.23299319727891157,0.23299319727891157,0.23299319727891157,0.23299319727891157,0.23299319727891157,0.23299319727891157,0.23299319727891157,0.23299319727891157,0.23299319727891157,0.23299319727891157,0.23299319727891157,0.23299319727891157,0.23299319727891157,0.23299319727891157,0.23299319727891157,0.23639455782312926,0.23639455782312926,0.2465986394557823,0.26360544217687076,0.27380952380952384,0.27721088435374147,0.27721088435374147,0.27721088435374147,0.27721088435374147,0.27721088435374147,0.27721088435374147,0.2568027210884354,0.2227891156462585,0.195578231292517,0.1717687074829932,0.15816326530612246,0.1377551020408163,0.12755102040816327,0.09013605442176871,0.06972789115646258,0.04931972789115646,0.0391156462585034,0.02891156462585034,0.01870748299319728,0.008503401360544218,0.00510204081632653,-0.0017006802721088435,-0.0017006802721088435,-0.00510204081632653,-0.00510204081632653,-0.00510204081632653,-0.00510204081632653,-0.00510204081632653,-0.00510204081632653,-0.0017006802721088435,-0.0017006802721088435,-0.0017006802721088435,-0.0017006802721088435,-0.0017006802721088435,-0.0017006802721088435,-0.0017006802721088435,-0.0017006802721088435,-0.0017006802721088435,0.011904761904761904,0.02891156462585034,0.04251700680272109,0.05612244897959184,0.07993197278911565,0.10034013605442177,0.11394557823129252,0.13095238095238096,0.15136054421768708,0.16156462585034015,0.1649659863945578,0.1717687074829932,0.17517006802721088,0.17857142857142858,0.18197278911564627,0.18197278911564627,0.18197278911564627,0.18197278911564627,0.18197278911564627,0.18197278911564627,0.18197278911564627,0.18197278911564627,0.18197278911564627,0.18197278911564627,0.18197278911564627,0.18197278911564627,0.18197278911564627,0.18197278911564627,0.18197278911564627,0.18197278911564627,0.18197278911564627,0.18197278911564627,0.18197278911564627,0.18197278911564627,0.18197278911564627,0.18197278911564627,0.18197278911564627,0.18197278911564627,0.18197278911564627,0.18197278911564627,0.18197278911564627,0.18197278911564627,0.18197278911564627,0.18197278911564627,0.18197278911564627,0.18197278911564627,0.18197278911564627,0.18197278911564627,0.18197278911564627,0.18197278911564627,0.18197278911564627,0.18197278911564627,0.18197278911564627,0.18197278911564627,0.18537414965986396,0.1921768707482993,0.1921768707482993,0.1989795918367347,0.20238095238095238,0.20578231292517007,0.20578231292517007,0.20578231292517007,0.20578231292517007,0.20578231292517007,0.21258503401360543,0.21598639455782312,0.2227891156462585,0.2261904761904762,0.22959183673469388,0.22959183673469388,0.22959183673469388,0.22959183673469388,0.22959183673469388,0.22959183673469388,0.22959183673469388,0.22959183673469388,0.22959183673469388,0.22959183673469388,0.22959183673469388,0.22959183673469388,0.22959183673469388,0.22959183673469388,0.22959183673469388,0.22959183673469388,0.22959183673469388,0.22959183673469388,0.22959183673469388,0.22959183673469388,0.22959183673469388,0.22959183673469388,0.22959183673469388,0.22959183673469388,0.22959183673469388,0.22959183673469388,0.22959183673469388,0.22959183673469388,0.22959183673469388,0.22959183673469388,0.22959183673469388,0.22959183673469388,0.22959183673469388,0.22959183673469388,0.22959183673469388,0.22959183673469388,0.22959183673469388,0.22959183673469388,0.22959183673469388,0.22959183673469388,0.22959183673469388,0.22959183673469388,0.22959183673469388,0.22959183673469388,0.22959183673469388,0.22959183673469388,0.22959183673469388,0.22959183673469388,0.22959183673469388,0.22959183673469388,0.22959183673469388,0.22959183673469388,0.22959183673469388,0.22959183673469388,0.22959183673469388,0.22959183673469388,0.22959183673469388,0.22959183673469388,0.22959183673469388,0.22959183673469388,0.22959183673469388,0.22959183673469388,0.22959183673469388,0.22959183673469388,0.22959183673469388,0.22959183673469388,0.22959183673469388,0.22959183673469388,0.22959183673469388,0.22959183673469388,0.22959183673469388,0.22959183673469388,0.22959183673469388,0.22959183673469388,0.22959183673469388,0.22959183673469388,0.22959183673469388,0.22959183673469388,0.22959183673469388,0.22959183673469388,0.22959183673469388,0.22959183673469388,0.22959183673469388,0.22959183673469388,0.22959183673469388,0.22959183673469388,0.22959183673469388,0.22959183673469388,0.22959183673469388,0.22959183673469388,0.22959183673469388,0.22959183673469388,0.22959183673469388,0.22959183673469388,0.22959183673469388,0.22959183673469388,0.22959183673469388,0.22959183673469388,0.22959183673469388,0.22959183673469388,0.22959183673469388,0.22959183673469388,0.22959183673469388,0.23299319727891157,0.23639455782312926,0.23979591836734693,0.24319727891156462,0.2465986394557823,0.2465986394557823,0.2465986394557823,0.2465986394557823,0.2465986394557823,0.2465986394557823,0.2465986394557823,0.2465986394557823,0.2465986394557823,0.2465986394557823,0.2465986394557823,0.2465986394557823,0.2465986394557823,0.2465986394557823,0.2465986394557823,0.2465986394557823,0.2465986394557823,0.2465986394557823,0.2465986394557823,0.2465986394557823,0.2465986394557823,0.2465986394557823,0.2465986394557823,0.2465986394557823,0.2465986394557823,0.2465986394557823,0.2465986394557823,0.2465986394557823,0.2465986394557823,0.2465986394557823,0.2465986394557823,0.2465986394557823,0.2465986394557823,0.2465986394557823,0.2465986394557823,0.2465986394557823,0.2465986394557823,0.2465986394557823,0.2465986394557823,0.2465986394557823,0.2465986394557823,0.2465986394557823,0.2465986394557823,0.2465986394557823,0.2465986394557823,0.2465986394557823,0.2465986394557823,0.2465986394557823,0.2465986394557823,0.2465986394557823,0.2465986394557823,0.2465986394557823,0.2465986394557823,0.2465986394557823,0.2465986394557823,0.2465986394557823,0.2465986394557823,0.2465986394557823,0.2465986394557823,0.2465986394557823,0.2465986394557823,0.2465986394557823,0.2465986394557823,0.2465986394557823,0.2465986394557823,0.2465986394557823,0.2465986394557823,0.2465986394557823,0.2465986394557823,0.2465986394557823,0.2465986394557823,0.2465986394557823,0.25,0.25,0.25,0.25,0.25,0.25,0.25,0.25,0.25,0.25,0.2534013605442177,0.2534013605442177,0.2602040816326531,0.26360544217687076,0.27040816326530615,0.29081632653061223,0.3112244897959184,0.33163265306122447,0.3486394557823129,0.3656462585034014,0.3826530612244898,0.39625850340136054,0.4064625850340136,0.42346938775510207,0.44727891156462585,0.4846938775510204,0.5221088435374149,0.5493197278911565,0.5663265306122449,0.576530612244898,0.576530612244898,0.5799319727891157,0.5799319727891157,0.5799319727891157,0.5799319727891157,0.5799319727891157,0.5799319727891157,0.5799319727891157,0.5799319727891157,0.5799319727891157,0.5799319727891157,0.5799319727891157,0.5731292517006803,0.5731292517006803,0.5731292517006803,0.5731292517006803,0.576530612244898,0.5799319727891157,0.5799319727891157,0.5799319727891157,0.5799319727891157,0.5697278911564626,0.5561224489795918,0.5527210884353742,0.5527210884353742,0.5527210884353742,0.5527210884353742,0.5527210884353742,0.5527210884353742,0.5527210884353742,0.5527210884353742,0.5527210884353742,0.5527210884353742,0.5527210884353742,0.5527210884353742,0.5527210884353742,0.5527210884353742,0.5459183673469388,0.5391156462585034,0.5357142857142857,0.532312925170068,0.5289115646258503,0.5255102040816326,0.5187074829931972,0.5153061224489796,0.5119047619047619,0.5051020408163265,0.5017006802721088,0.49489795918367346,0.4914965986394558,0.4846938775510204,0.4812925170068027,0.4744897959183674,0.4710884353741497,0.467687074829932,0.467687074829932,0.467687074829932,0.467687074829932,0.467687074829932,0.467687074829932,0.467687074829932,0.467687074829932,0.467687074829932,0.467687074829932,0.467687074829932,0.467687074829932,0.467687074829932,0.467687074829932,0.467687074829932,0.467687074829932,0.467687074829932,0.467687074829932,0.467687074829932,0.467687074829932,0.467687074829932,0.467687074829932,0.467687074829932,0.467687074829932,0.467687074829932,0.467687074829932,0.467687074829932,0.467687074829932,0.467687074829932,0.467687074829932,0.467687074829932,0.467687074829932,0.467687074829932,0.467687074829932,0.467687074829932,0.467687074829932,0.467687074829932,0.467687074829932,0.467687074829932,0.467687074829932,0.467687074829932,0.467687074829932,0.467687074829932,0.467687074829932,0.467687074829932,0.467687074829932,0.467687074829932,0.467687074829932,0.467687074829932,0.467687074829932,0.467687074829932,0.467687074829932,0.467687074829932,0.467687074829932,0.467687074829932,0.467687074829932,0.467687074829932,0.467687074829932,0.467687074829932,0.467687074829932,0.467687074829932,0.467687074829932,0.467687074829932,0.467687074829932,0.467687074829932,0.467687074829932,0.467687074829932,0.467687074829932,0.467687074829932,0.467687074829932,0.467687074829932,0.467687074829932,0.467687074829932,0.467687074829932,0.467687074829932,0.467687074829932,0.467687074829932,0.467687074829932,0.467687074829932,0.467687074829932,0.467687074829932,0.467687074829932,0.467687074829932,0.467687074829932,0.467687074829932,0.467687074829932,0.467687074829932,0.467687074829932,0.467687074829932,0.467687074829932,0.467687074829932,0.467687074829932,0.467687074829932,0.467687074829932,0.467687074829932,0.467687074829932,0.467687074829932,0.467687074829932,0.467687074829932,0.467687074829932,0.467687074829932,0.467687074829932,0.467687074829932,0.467687074829932,0.467687074829932,0.467687074829932,0.467687074829932,0.467687074829932,0.467687074829932,0.467687074829932,0.467687074829932,0.467687074829932,0.467687074829932,0.467687074829932,0.467687074829932,0.467687074829932,0.467687074829932,0.467687074829932,0.467687074829932,0.467687074829932,0.467687074829932,0.467687074829932,0.467687074829932,0.467687074829932,0.467687074829932,0.467687074829932,0.467687074829932,0.467687074829932,0.467687074829932,0.467687074829932,0.467687074829932,0.467687074829932,0.467687074829932,0.467687074829932,0.467687074829932,0.467687074829932,0.467687074829932,0.467687074829932,0.467687074829932,0.467687074829932,0.467687074829932,0.467687074829932,0.467687074829932,0.467687074829932,0.467687074829932,0.467687074829932,0.467687074829932,0.467687074829932,0.467687074829932,0.467687074829932,0.467687074829932,0.467687074829932,0.467687074829932,0.467687074829932,0.467687074829932,0.467687074829932,0.467687074829932,0.467687074829932,0.467687074829932,0.467687074829932,0.467687074829932,0.467687074829932,0.467687074829932,0.467687074829932,0.467687074829932,0.467687074829932,0.467687074829932,0.467687074829932,0.467687074829932,0.467687074829932,0.467687074829932,0.467687074829932,0.467687074829932,0.467687074829932,0.467687074829932,0.467687074829932,0.467687074829932,0.467687074829932,0.467687074829932,0.467687074829932,0.467687074829932,0.467687074829932,0.467687074829932,0.467687074829932,0.467687074829932,0.467687074829932,0.467687074829932,0.467687074829932,0.467687074829932,0.467687074829932,0.467687074829932,0.467687074829932,0.467687074829932,0.467687074829932,0.467687074829932,0.467687074829932,0.467687074829932,0.467687074829932,0.467687074829932,0.467687074829932,0.467687074829932,0.467687074829932,0.467687074829932,0.467687074829932,0.467687074829932,0.467687074829932,0.467687074829932,0.467687074829932,0.467687074829932,0.467687074829932,0.467687074829932,0.467687074829932,0.467687074829932,0.467687074829932,0.467687074829932,0.477891156462585,0.4914965986394558,0.5187074829931972,0.5527210884353742,0.6003401360544217,0.6683673469387755,0.7329931972789115,0.7976190476190477,0.9200680272108843,1.0187074829931972,1.1071428571428572,1.1581632653061225,1.1819727891156462,1.1819727891156462,1.1819727891156462,1.1819727891156462,1.1819727891156462,1.1819727891156462,1.1819727891156462,1.1819727891156462,1.1819727891156462,1.1819727891156462,1.1819727891156462,1.1819727891156462,1.1819727891156462,1.1819727891156462,1.1819727891156462,1.1819727891156462,1.1819727891156462,1.1819727891156462,1.1819727891156462,1.1819727891156462,1.1819727891156462,1.1819727891156462,1.1819727891156462,1.1819727891156462,1.1819727891156462,1.1819727891156462,1.1819727891156462,1.1819727891156462,1.1819727891156462,1.1819727891156462,1.1819727891156462,1.1819727891156462,1.1819727891156462,1.1819727891156462,1.1819727891156462,1.1819727891156462,1.1819727891156462,1.1819727891156462,1.1819727891156462,1.1819727891156462,1.1819727891156462,1.1819727891156462,1.1819727891156462,1.1717687074829932,1.1581632653061225,1.1411564625850341,1.130952380952381,1.120748299319728,1.1105442176870748,1.0799319727891157,1.0493197278911566,1.0153061224489797,0.967687074829932,0.9200680272108843,0.8758503401360545,0.8418367346938775,0.8112244897959183,0.8010204081632653,0.7874149659863946,0.7704081632653061,0.7534013605442177,0.7329931972789115,0.7227891156462585,0.7227891156462585,0.7227891156462585,0.7227891156462585,0.7227891156462585,0.7227891156462585,0.7227891156462585,0.7227891156462585,0.7227891156462585,0.7227891156462585,0.7227891156462585,0.7227891156462585,0.7227891156462585,0.7227891156462585,0.7227891156462585,0.7227891156462585,0.7227891156462585,0.7193877551020408,0.7159863945578231,0.7159863945578231,0.7159863945578231,0.7159863945578231,0.7159863945578231,0.7159863945578231,0.7159863945578231,0.7159863945578231,0.7125850340136054,0.7125850340136054,0.7091836734693877,0.7091836734693877,0.7091836734693877,0.7091836734693877,0.7091836734693877,0.7023809523809523,0.7023809523809523,0.6989795918367347,0.6989795918367347,0.6989795918367347,0.6955782312925171,0.6955782312925171,0.6921768707482994,0.6887755102040817,0.6819727891156463,0.6819727891156463,0.6785714285714286,0.6751700680272109,0.6751700680272109,0.6751700680272109,0.6751700680272109,0.6751700680272109,0.6751700680272109,0.6751700680272109,0.6751700680272109,0.6751700680272109,0.6751700680272109,0.6751700680272109,0.6751700680272109,0.6751700680272109,0.6751700680272109,0.6751700680272109,0.6751700680272109,0.6751700680272109,0.6751700680272109,0.6751700680272109,0.6751700680272109,0.6751700680272109,0.6751700680272109,0.6751700680272109,0.6751700680272109,0.6751700680272109,0.6751700680272109,0.6751700680272109,0.6751700680272109,0.6751700680272109,0.6751700680272109,0.6751700680272109,0.6751700680272109,0.6751700680272109,0.6751700680272109,0.6751700680272109,0.6751700680272109,0.6751700680272109,0.6751700680272109,0.6751700680272109,0.6751700680272109,0.6751700680272109,0.6751700680272109,0.6751700680272109,0.6751700680272109,0.6751700680272109,0.6751700680272109,0.6751700680272109,0.6751700680272109,0.6751700680272109,0.6751700680272109,0.6751700680272109,0.6751700680272109,0.6751700680272109,0.6751700680272109,0.6751700680272109,0.6751700680272109,0.6751700680272109,0.6819727891156463,0.6887755102040817,0.6989795918367347,0.7023809523809523,0.7091836734693877,0.7125850340136054,0.7193877551020408,0.7193877551020408,0.7193877551020408,0.7193877551020408,0.7193877551020408,0.7193877551020408,0.7193877551020408,0.7193877551020408,0.7193877551020408,0.7193877551020408,0.7193877551020408,0.7193877551020408,0.7193877551020408,0.7193877551020408,0.7193877551020408,0.7193877551020408,0.7193877551020408,0.7193877551020408,0.7193877551020408,0.7193877551020408,0.7193877551020408,0.7193877551020408,0.7193877551020408,0.7193877551020408,0.7193877551020408,0.7193877551020408,0.7193877551020408,0.7193877551020408,0.7193877551020408,0.7193877551020408,0.7193877551020408,0.7193877551020408,0.7193877551020408,0.7193877551020408,0.7193877551020408,0.7193877551020408,0.7193877551020408,0.7193877551020408,0.7193877551020408,0.7193877551020408,0.7193877551020408,0.7193877551020408,0.7193877551020408,0.7193877551020408,0.7193877551020408,0.7193877551020408,0.7193877551020408,0.7193877551020408,0.7193877551020408,0.7193877551020408,0.7193877551020408,0.7193877551020408,0.7193877551020408,0.7193877551020408,0.7193877551020408,0.7193877551020408,0.7193877551020408,0.7193877551020408,0.7193877551020408,0.7193877551020408,0.7193877551020408,0.7193877551020408,0.7193877551020408,0.7193877551020408,0.7193877551020408,0.7193877551020408,0.7193877551020408,0.7193877551020408,0.7193877551020408,0.7193877551020408,0.7193877551020408,0.7193877551020408,0.7193877551020408,0.7193877551020408,0.7193877551020408,0.7193877551020408,0.7193877551020408,0.7193877551020408,0.7193877551020408,0.7193877551020408,0.7193877551020408,0.7193877551020408,0.7193877551020408,0.7193877551020408,0.7193877551020408,0.7193877551020408,0.7193877551020408,0.7193877551020408,0.7193877551020408,0.7193877551020408,0.7193877551020408,0.7193877551020408,0.7193877551020408,0.7193877551020408,0.7227891156462585,0.7329931972789115,0.7397959183673469,0.7465986394557823,0.75,0.7568027210884354,0.7602040816326531,0.7670068027210885,0.7704081632653061,0.7772108843537415,0.7772108843537415,0.7772108843537415,0.7772108843537415,0.7772108843537415,0.7772108843537415,0.7772108843537415,0.7772108843537415,0.7772108843537415,0.7772108843537415,0.7772108843537415,0.7772108843537415,0.7772108843537415,0.7772108843537415,0.7772108843537415,0.7772108843537415,0.7772108843537415,0.7772108843537415,0.7772108843537415,0.7772108843537415,0.7772108843537415,0.7772108843537415,0.7772108843537415,0.7738095238095238,0.7704081632653061,0.7670068027210885,0.7636054421768708,0.7602040816326531,0.75,0.7397959183673469,0.7227891156462585,0.7091836734693877,0.6887755102040817,0.6513605442176871,0.6139455782312925,0.5697278911564626,0.5493197278911565,0.4642857142857143,0.44387755102040816,0.4302721088435374,0.413265306122449,0.39285714285714285,0.36904761904761907,0.3486394557823129,0.31802721088435376,0.2942176870748299,0.27040816326530615,0.2568027210884354,0.2465986394557823,0.24319727891156462,0.24319727891156462,0.24319727891156462,0.24319727891156462,0.24319727891156462,0.24319727891156462,0.24319727891156462,0.24319727891156462,0.2465986394557823,0.2465986394557823,0.2465986394557823,0.2465986394557823,0.2465986394557823,0.24319727891156462,0.24319727891156462,0.23979591836734693,0.23299319727891157,0.23299319727891157,0.22959183673469388,0.22959183673469388,0.22959183673469388,0.22959183673469388,0.22959183673469388,0.22959183673469388,0.22959183673469388,0.22959183673469388,0.23299319727891157,0.23639455782312926,0.23639455782312926,0.23639455782312926,0.23639455782312926,0.23639455782312926,0.23639455782312926,0.23639455782312926,0.23639455782312926,0.23639455782312926,0.23639455782312926,0.23639455782312926,0.23639455782312926,0.23639455782312926,0.23639455782312926,0.23639455782312926,0.23639455782312926,0.23639455782312926,0.23639455782312926,0.23639455782312926,0.23639455782312926,0.23639455782312926,0.23639455782312926,0.23639455782312926,0.23639455782312926,0.23639455782312926,0.23639455782312926,0.23639455782312926,0.23639455782312926,0.23639455782312926,0.23639455782312926,0.23639455782312926,0.23639455782312926,0.23639455782312926,0.23639455782312926,0.23299319727891157,0.21258503401360543,0.1921768707482993,0.17857142857142858,0.1649659863945578,0.16156462585034015,0.16156462585034015,0.16156462585034015,0.16156462585034015,0.16156462585034015,0.16156462585034015,0.16156462585034015,0.16156462585034015,0.16156462585034015,0.16156462585034015,0.16156462585034015,0.16156462585034015,0.16156462585034015,0.16156462585034015,0.16156462585034015,0.16156462585034015,0.16156462585034015,0.16156462585034015,0.16156462585034015,0.15816326530612246,0.15816326530612246,0.15136054421768708,0.15136054421768708,0.15136054421768708,0.15136054421768708,0.15136054421768708,0.15136054421768708,0.15136054421768708,0.15136054421768708,0.15136054421768708,0.15816326530612246,0.16156462585034015,0.17517006802721088,0.1921768707482993,0.21598639455782312,0.23299319727891157,0.24319727891156462,0.2465986394557823,0.2534013605442177,0.2568027210884354,0.2568027210884354,0.2568027210884354,0.2568027210884354,0.25,0.25,0.24319727891156462,0.24319727891156462,0.24319727891156462,0.24319727891156462,0.24319727891156462,0.24319727891156462,0.24319727891156462,0.24319727891156462,0.24319727891156462,0.24319727891156462,0.24319727891156462,0.24319727891156462,0.24319727891156462,0.23979591836734693,0.23639455782312926,0.23639455782312926,0.23639455782312926,0.23639455782312926,0.23639455782312926,0.23979591836734693,0.2602040816326531,0.27721088435374147,0.28741496598639454,0.2976190476190476,0.3010204081632653,0.3010204081632653,0.3010204081632653,0.3010204081632653,0.3010204081632653,0.3010204081632653,0.3010204081632653,0.3010204081632653,0.3010204081632653,0.3010204081632653,0.3010204081632653,0.304421768707483,0.3078231292517007,0.31462585034013607,0.31802721088435376,0.31802721088435376,0.31802721088435376,0.31802721088435376,0.31802721088435376,0.31802721088435376,0.32142857142857145,0.32482993197278914,0.33163265306122447,0.33503401360544216,0.34183673469387754,0.3554421768707483,0.36904761904761907,0.3826530612244898,0.38945578231292516,0.39625850340136054,0.39965986394557823,0.39965986394557823,0.4030612244897959,0.4030612244897959,0.4030612244897959,0.4030612244897959,0.4030612244897959,0.4030612244897959,0.4030612244897959,0.4030612244897959,0.4030612244897959,0.4030612244897959,0.39965986394557823,0.39625850340136054,0.39965986394557823,0.413265306122449,0.4336734693877551,0.44387755102040816,0.45068027210884354,0.45068027210884354,0.45068027210884354,0.45068027210884354,0.45068027210884354,0.45068027210884354,0.45068027210884354,0.45068027210884354,0.45068027210884354,0.45408163265306123,0.4608843537414966,0.4642857142857143,0.4642857142857143,0.4642857142857143,0.4744897959183674,0.49489795918367346,0.5153061224489796,0.5289115646258503,0.5391156462585034,0.5459183673469388,0.5595238095238095,0.5629251700680272,0.5629251700680272,0.5629251700680272,0.5629251700680272,0.5629251700680272,0.5629251700680272,0.5629251700680272,0.5629251700680272,0.5629251700680272,0.5629251700680272,0.5629251700680272,0.5629251700680272,0.5629251700680272,0.5629251700680272,0.5629251700680272,0.5629251700680272,0.5629251700680272,0.5629251700680272,0.5629251700680272,0.5629251700680272,0.5629251700680272,0.5629251700680272,0.5629251700680272,0.5663265306122449,0.5901360544217688,0.6173469387755102,0.6547619047619048,0.6921768707482994,0.7193877551020408,0.7363945578231292,0.7465986394557823,0.75,0.75,0.7534013605442177,0.7568027210884354,0.7602040816326531,0.7602040816326531,0.7602040816326531,0.7602040816326531,0.7602040816326531,0.7602040816326531,0.7636054421768708,0.7636054421768708,0.8078231292517006,0.814625850340136,0.8384353741496599,0.8384353741496599,0.8384353741496599,0.8384353741496599,0.8384353741496599,0.8384353741496599,0.8384353741496599,0.8384353741496599,0.8384353741496599,0.8384353741496599,0.8384353741496599,0.8384353741496599,0.8384353741496599,0.8384353741496599,0.8384353741496599,0.8384353741496599,0.8384353741496599,0.8384353741496599,0.8384353741496599,0.8384353741496599,0.8384353741496599,0.8384353741496599,0.8384353741496599,0.8418367346938775,0.858843537414966,0.8758503401360545,0.8860544217687075,0.8996598639455783,0.9132653061224489,0.9336734693877551,0.9438775510204082,0.9574829931972789,0.967687074829932,0.9744897959183674,0.9880952380952381,1.0051020408163265,1.0119047619047619,1.0153061224489797,1.0153061224489797,1.0153061224489797,1.0153061224489797,1.0153061224489797,1.0153061224489797,1.0153061224489797,1.0153061224489797,1.0153061224489797,1.0153061224489797,1.0153061224489797,1.0153061224489797,1.0153061224489797,1.0153061224489797,1.0085034013605443,1.0085034013605443,1.0051020408163265,1.0051020408163265,1.0051020408163265,1.0051020408163265,1.0051020408163265,1.0051020408163265,1.0051020408163265,1.0051020408163265,1.0051020408163265,1.0051020408163265,1.0051020408163265,1.0051020408163265,1.0051020408163265,1.0051020408163265,1.0051020408163265,1.0051020408163265,0.9982993197278912,0.9982993197278912,0.9982993197278912,0.9982993197278912,0.9982993197278912,0.9982993197278912,1.001700680272109,1.001700680272109,1.001700680272109,1.001700680272109,1.001700680272109,1.001700680272109,1.001700680272109,1.001700680272109,1.001700680272109,1.001700680272109,1.0085034013605443,1.022108843537415,1.032312925170068,1.0425170068027212,1.0459183673469388,1.0561224489795917,1.0595238095238095,1.066326530612245,1.0697278911564625,1.0765306122448979,1.0765306122448979,1.0833333333333333,1.086734693877551,1.0901360544217686,1.0901360544217686,1.0901360544217686,1.0901360544217686,1.0901360544217686,1.0901360544217686,1.0901360544217686,1.0901360544217686,1.0901360544217686,1.0901360544217686,1.0901360544217686,1.0901360544217686,1.0901360544217686,1.0901360544217686,1.0901360544217686,1.0901360544217686,1.0901360544217686,1.0901360544217686,1.0901360544217686,1.0901360544217686,1.0901360544217686,1.0901360544217686,1.0901360544217686,1.0901360544217686,1.0901360544217686,1.0901360544217686,1.0833333333333333,1.066326530612245,1.0561224489795917,1.0459183673469388,1.0425170068027212,1.0357142857142858,1.032312925170068,1.0255102040816326,1.0085034013605443,0.9948979591836735,0.9744897959183674,0.9540816326530612,0.9404761904761905,0.923469387755102,0.9166666666666666,0.9098639455782312,0.9030612244897959,0.8996598639455783,0.8996598639455783,0.8962585034013606,0.8928571428571429,0.8928571428571429,0.8894557823129252,0.8894557823129252,0.8894557823129252,0.8894557823129252,0.8894557823129252,0.8894557823129252,0.8860544217687075,0.8860544217687075,0.8860544217687075,0.8860544217687075,0.8860544217687075,0.8860544217687075,0.8860544217687075,0.8860544217687075,0.8860544217687075,0.8860544217687075,0.8860544217687075,0.8860544217687075,0.8860544217687075,0.8860544217687075,0.8860544217687075,0.8860544217687075,0.8860544217687075,0.8860544217687075,0.8860544217687075,0.8860544217687075,0.8860544217687075,0.8860544217687075,0.8860544217687075,0.8860544217687075,0.8860544217687075,0.8860544217687075,0.8860544217687075,0.8860544217687075,0.8860544217687075,0.8860544217687075,0.8860544217687075,0.8860544217687075,0.8860544217687075,0.8860544217687075,0.8860544217687075,0.8860544217687075,0.8860544217687075,0.8860544217687075,0.8860544217687075,0.8860544217687075,0.8860544217687075,0.8860544217687075,0.8860544217687075,0.8860544217687075,0.8860544217687075,0.8860544217687075,0.8860544217687075,0.8860544217687075,0.8860544217687075,0.8860544217687075,0.8860544217687075,0.8860544217687075,0.8860544217687075,0.8860544217687075,0.8860544217687075,0.8860544217687075,0.8860544217687075,0.8860544217687075,0.8860544217687075,0.8860544217687075,0.8860544217687075,0.8860544217687075,0.8860544217687075,0.8792517006802721,0.8792517006802721,0.8758503401360545,0.8758503401360545,0.8758503401360545,0.8758503401360545,0.8758503401360545,0.8758503401360545,0.8860544217687075,0.9166666666666666,0.9506802721088435,0.9710884353741497,0.9880952380952381,1.0051020408163265,1.022108843537415,1.0425170068027212,1.0527210884353742,1.066326530612245,1.0731292517006803,1.0731292517006803,1.0731292517006803,1.0731292517006803,1.0731292517006803,1.0731292517006803,1.0731292517006803,1.0731292517006803,1.0731292517006803,1.0731292517006803,1.0731292517006803,1.0731292517006803,1.0731292517006803,1.0731292517006803,1.0731292517006803,1.0731292517006803,1.0731292517006803,1.0731292517006803,1.0731292517006803,1.0731292517006803,1.0731292517006803,1.0731292517006803,1.0731292517006803,1.0731292517006803,1.0731292517006803,1.0731292517006803,1.0731292517006803,1.0731292517006803,1.0731292517006803,1.0731292517006803,1.0731292517006803,1.0731292517006803,1.0731292517006803,1.0731292517006803,1.0731292517006803,1.0731292517006803,1.0731292517006803,1.0731292517006803,1.0731292517006803,1.0731292517006803,1.0731292517006803,1.0731292517006803,1.0731292517006803,1.0731292517006803,1.0731292517006803,1.0731292517006803,1.0731292517006803,1.0731292517006803,1.0731292517006803,1.0731292517006803,1.0697278911564625,1.0697278911564625,1.066326530612245,1.066326530612245,1.066326530612245,1.066326530612245,1.066326530612245,1.066326530612245,1.066326530612245,1.066326530612245,1.066326530612245,1.066326530612245,1.066326530612245,1.066326530612245,1.0629251700680271,1.0595238095238095,1.0595238095238095,1.0595238095238095,1.0595238095238095,1.0595238095238095,1.0595238095238095,1.0595238095238095,1.0595238095238095,1.0595238095238095,1.0561224489795917,1.0561224489795917,1.0493197278911566,1.0493197278911566,1.0459183673469388,1.0425170068027212,1.0391156462585034,1.0391156462585034,1.0391156462585034,1.0357142857142858,1.0357142857142858,1.032312925170068,1.032312925170068,1.0289115646258504,1.0289115646258504,1.0289115646258504,1.0289115646258504,1.0255102040816326,1.0255102040816326,1.0255102040816326,1.0255102040816326,1.0255102040816326,1.0255102040816326,1.0255102040816326,1.0255102040816326,1.022108843537415,1.0187074829931972,1.0187074829931972,1.0187074829931972,1.0187074829931972,1.0187074829931972,1.0187074829931972,1.0187074829931972,1.0187074829931972,1.0187074829931972,1.0187074829931972,1.0187074829931972,1.0187074829931972,1.0187074829931972,1.0187074829931972,1.0187074829931972,1.0187074829931972,1.0153061224489797,0.9948979591836735,0.9710884353741497,0.8996598639455783,0.8282312925170068,0.7636054421768708,0.7125850340136054,0.6615646258503401,0.6241496598639455,0.5799319727891157,0.5051020408163265,0.467687074829932,0.44727891156462585,0.44047619047619047,0.44047619047619047,0.44047619047619047,0.4370748299319728,0.4098639455782313,0.3826530612244898,0.37244897959183676,0.3656462585034014,0.3486394557823129,0.32142857142857145,0.29081632653061223,0.27040816326530615,0.2568027210884354,0.2568027210884354,0.2534013605442177,0.2534013605442177,0.2534013605442177,0.2534013605442177,0.25,0.25,0.2465986394557823,0.2465986394557823,0.2465986394557823,0.2465986394557823,0.2465986394557823,0.2465986394557823,0.2465986394557823,0.2465986394557823,0.2465986394557823,0.2465986394557823,0.2465986394557823,0.2465986394557823,0.23979591836734693,0.2193877551020408,0.195578231292517,0.15816326530612246,0.15136054421768708,0.1377551020408163,0.13435374149659865,0.12755102040816327,0.12414965986394558,0.12074829931972789,0.11734693877551021,0.11394557823129252,0.11054421768707483,0.11054421768707483,0.10714285714285714,0.10374149659863946,0.09693877551020408,0.0935374149659864,0.08333333333333333,0.07993197278911565,0.07653061224489796,0.07653061224489796,0.07653061224489796,0.07653061224489796,0.07653061224489796,0.07653061224489796,0.07312925170068027,0.07312925170068027,0.07312925170068027,0.07312925170068027,0.07312925170068027,0.07312925170068027,0.07312925170068027,0.07312925170068027,0.07312925170068027,0.07312925170068027,0.07312925170068027,0.07312925170068027,0.07312925170068027,0.07312925170068027,0.07312925170068027,0.07312925170068027,0.07312925170068027,0.06972789115646258,0.0663265306122449,0.06292517006802721,0.06292517006802721,0.06292517006802721,0.06292517006802721,0.06292517006802721,0.06292517006802721,0.06292517006802721,0.06292517006802721,0.04931972789115646,0.03571428571428571,0.02891156462585034,0.02891156462585034,0.02891156462585034,0.02891156462585034,0.02891156462585034,0.02891156462585034,0.02891156462585034,0.02891156462585034,0.02891156462585034,0.02891156462585034,0.02891156462585034,0.02891156462585034,0.02891156462585034,0.02891156462585034,0.02891156462585034,0.02891156462585034,0.02891156462585034,0.02891156462585034,0.02891156462585034,0.02891156462585034,0.02891156462585034,0.02891156462585034,0.02891156462585034,0.02891156462585034,0.02891156462585034,0.02891156462585034,0.02891156462585034,0.02891156462585034,0.02891156462585034,0.02891156462585034,0.02891156462585034,0.02891156462585034,0.025510204081632654,0.025510204081632654,0.025510204081632654,0.02891156462585034,0.04931972789115646,0.0663265306122449,0.08673469387755102,0.13095238095238096,0.18537414965986396,0.25,0.34183673469387754,0.4030612244897959,0.45408163265306123,0.5119047619047619,0.5663265306122449,0.641156462585034,0.7125850340136054,0.7840136054421769,0.8010204081632653,0.8078231292517006,0.8078231292517006,0.8078231292517006,0.814625850340136,0.8180272108843537,0.8248299319727891,0.8282312925170068,0.8316326530612245,0.8384353741496599,0.8418367346938775,0.8418367346938775,0.8350340136054422,0.7976190476190477,0.7806122448979592,0.7636054421768708,0.7534013605442177,0.7431972789115646,0.7363945578231292,0.7227891156462585,0.7091836734693877,0.6921768707482994,0.685374149659864,0.6649659863945578,0.6479591836734694,0.6343537414965986,0.6241496598639455,0.6241496598639455,0.6207482993197279,0.6139455782312925,0.6105442176870748,0.6037414965986394,0.6003401360544217,0.6003401360544217,0.6003401360544217,0.6003401360544217,0.6003401360544217,0.5391156462585034,0.4812925170068027,0.4302721088435374,0.39625850340136054,0.3758503401360544,0.358843537414966,0.34523809523809523,0.33163265306122447,0.304421768707483,0.28401360544217685,0.26700680272108845,0.2568027210884354,0.2465986394557823,0.24319727891156462,0.23979591836734693,0.22959183673469388,0.2227891156462585,0.20918367346938777,0.20238095238095238,0.1989795918367347,0.195578231292517,0.18877551020408162,0.18537414965986396,0.17857142857142858,0.17517006802721088,0.17517006802721088,0.17517006802721088,0.17517006802721088,0.17517006802721088,0.17517006802721088,0.17517006802721088,0.17517006802721088,0.17517006802721088,0.17517006802721088,0.17517006802721088,0.17517006802721088,0.17517006802721088,0.17517006802721088,0.17517006802721088,0.17517006802721088,0.17517006802721088,0.17517006802721088,0.17517006802721088,0.17517006802721088,0.17517006802721088,0.17517006802721088,0.17517006802721088,0.17517006802721088,0.18197278911564627,0.18537414965986396,0.18537414965986396,0.1921768707482993,0.195578231292517,0.1989795918367347,0.1989795918367347,0.1989795918367347,0.1989795918367347,0.1989795918367347,0.20238095238095238,0.20578231292517007,0.20918367346938777,0.20918367346938777,0.20918367346938777,0.20918367346938777,0.20918367346938777,0.21258503401360543,0.21258503401360543,0.21258503401360543,0.21258503401360543,0.21598639455782312,0.21598639455782312,0.2193877551020408,0.2193877551020408,0.2227891156462585,0.2261904761904762,0.2261904761904762,0.22959183673469388,0.23299319727891157,0.23639455782312926,0.23639455782312926,0.23979591836734693,0.23979591836734693,0.23979591836734693,0.24319727891156462,0.2465986394557823,0.25,0.25,0.25,0.25,0.25,0.2534013605442177,0.2534013605442177,0.2534013605442177,0.2534013605442177,0.2534013605442177,0.2534013605442177,0.2534013605442177,0.2534013605442177,0.2568027210884354,0.2602040816326531,0.2602040816326531,0.2568027210884354,0.2568027210884354,0.2602040816326531,0.26360544217687076,0.26360544217687076,0.26700680272108845,0.26700680272108845,0.27380952380952384,0.28061224489795916,0.28401360544217685,0.29081632653061223,0.29081632653061223,0.29081632653061223,0.29081632653061223,0.28741496598639454,0.28401360544217685,0.28401360544217685,0.28401360544217685,0.28401360544217685,0.28401360544217685,0.28401360544217685,0.28401360544217685,0.28401360544217685,0.28401360544217685,0.28401360544217685,0.28401360544217685,0.28401360544217685,0.28401360544217685,0.28401360544217685,0.28401360544217685,0.28401360544217685,0.28401360544217685,0.28401360544217685,0.28401360544217685,0.28401360544217685,0.28401360544217685,0.28401360544217685,0.28401360544217685,0.28401360544217685,0.28401360544217685,0.28401360544217685,0.28401360544217685,0.28401360544217685,0.28401360544217685,0.28401360544217685,0.28401360544217685,0.28401360544217685,0.28401360544217685,0.28401360544217685,0.28401360544217685,0.28401360544217685,0.28401360544217685,0.28401360544217685,0.28401360544217685,0.28401360544217685,0.28741496598639454,0.29081632653061223,0.2976190476190476,0.3010204081632653,0.304421768707483,0.3112244897959184,0.31462585034013607,0.31462585034013607,0.31802721088435376,0.31802721088435376,0.31802721088435376,0.31802721088435376,0.31802721088435376,0.31802721088435376,0.31802721088435376,0.31802721088435376,0.32142857142857145,0.32482993197278914,0.32482993197278914,0.32482993197278914,0.32482993197278914,0.32482993197278914,0.32482993197278914,0.32482993197278914,0.32482993197278914,0.32482993197278914,0.32482993197278914,0.32482993197278914,0.32482993197278914,0.32482993197278914,0.32482993197278914,0.32482993197278914,0.32482993197278914,0.32482993197278914,0.32482993197278914,0.32482993197278914,0.32482993197278914,0.32482993197278914,0.33503401360544216,0.3520408163265306,0.36904761904761907,0.3792517006802721,0.4268707482993197,0.4574829931972789,0.477891156462585,0.49829931972789115,0.5153061224489796,0.5357142857142857,0.5527210884353742,0.5731292517006803,0.5935374149659864,0.6037414965986394,0.6139455782312925,0.6173469387755102,0.6173469387755102,0.6173469387755102,0.6207482993197279,0.6207482993197279,0.6275510204081632,0.6377551020408163,0.6513605442176871,0.6649659863945578,0.6717687074829932,0.6785714285714286,0.6819727891156463,0.6887755102040817,0.6921768707482994,0.6955782312925171,0.6955782312925171,0.6955782312925171,0.6955782312925171,0.6955782312925171,0.6955782312925171,0.6955782312925171,0.6955782312925171,0.6955782312925171,0.6955782312925171,0.6955782312925171,0.6955782312925171,0.6955782312925171,0.6955782312925171,0.6955782312925171,0.6955782312925171,0.6955782312925171,0.6955782312925171,0.6955782312925171,0.6955782312925171,0.6955782312925171,0.6955782312925171,0.6955782312925171,0.6955782312925171,0.6955782312925171,0.6989795918367347,0.7023809523809523,0.70578231292517,0.70578231292517,0.6989795918367347,0.6989795918367347,0.6989795918367347,0.7023809523809523,0.70578231292517,0.7091836734693877,0.7091836734693877,0.7125850340136054,0.7159863945578231,0.7193877551020408,0.7261904761904762,0.7261904761904762,0.7295918367346939,0.7295918367346939,0.7295918367346939,0.7295918367346939,0.7295918367346939,0.7295918367346939,0.7295918367346939,0.7295918367346939,0.7295918367346939,0.7261904761904762,0.7193877551020408,0.70578231292517,0.6921768707482994,0.6683673469387755,0.6547619047619048,0.641156462585034,0.6343537414965986,0.6309523809523809,0.6309523809523809,0.6309523809523809,0.6309523809523809,0.6309523809523809,0.6241496598639455,0.6207482993197279,0.6139455782312925,0.6139455782312925,0.6105442176870748,0.6071428571428571,0.6071428571428571,0.6071428571428571,0.6071428571428571,0.5935374149659864,0.5867346938775511,0.5833333333333334,0.5833333333333334,0.5833333333333334,0.5833333333333334,0.5833333333333334,0.5833333333333334,0.5833333333333334,0.5833333333333334,0.5833333333333334,0.5833333333333334,0.5833333333333334,0.5833333333333334,0.5833333333333334,0.5833333333333334,0.5833333333333334,0.5833333333333334,0.5833333333333334,0.5833333333333334,0.5833333333333334,0.5833333333333334,0.5833333333333334,0.5833333333333334,0.5833333333333334,0.5833333333333334,0.5833333333333334,0.5833333333333334,0.5833333333333334,0.5833333333333334,0.5833333333333334,0.5833333333333334,0.5833333333333334,0.5833333333333334,0.5833333333333334,0.5833333333333334,0.5833333333333334,0.5833333333333334,0.5833333333333334,0.5833333333333334,0.5833333333333334,0.5833333333333334,0.5833333333333334,0.5833333333333334,0.5833333333333334,0.5833333333333334,0.5833333333333334,0.5833333333333334,0.5833333333333334,0.5833333333333334,0.5833333333333334,0.5833333333333334,0.5833333333333334,0.5833333333333334,0.5833333333333334,0.5833333333333334,0.5833333333333334,0.5833333333333334,0.5833333333333334,0.5833333333333334,0.5833333333333334,0.5833333333333334,0.5833333333333334,0.5833333333333334,0.5833333333333334,0.5833333333333334,0.5833333333333334,0.5833333333333334,0.5833333333333334,0.5833333333333334,0.5833333333333334,0.5833333333333334,0.5833333333333334,0.5833333333333334,0.576530612244898,0.5017006802721088,0.38605442176870747,0.31462585034013607,0.28061224489795916,0.26700680272108845,0.23979591836734693,0.21258503401360543,0.18537414965986396,0.1683673469387755,0.16156462585034015,0.15816326530612246,0.15476190476190477,0.1377551020408163,0.12074829931972789,0.10034013605442177,0.08673469387755102,0.08333333333333333,0.08333333333333333,0.07993197278911565,0.07653061224489796,0.06972789115646258,0.05272108843537415,0.04931972789115646,0.04931972789115646,0.04931972789115646,0.04931972789115646,0.04931972789115646,0.04931972789115646,0.04931972789115646,0.04931972789115646,0.04931972789115646,0.04931972789115646,0.04931972789115646,0.04931972789115646,0.04931972789115646,0.04931972789115646,0.04931972789115646,0.04931972789115646,0.04931972789115646,0.04931972789115646,0.04931972789115646,0.04931972789115646,0.04931972789115646,0.04931972789115646,0.04931972789115646,0.04931972789115646,0.04931972789115646,0.04931972789115646,0.04931972789115646,0.04931972789115646,0.04931972789115646,0.04931972789115646,0.04931972789115646,0.04931972789115646,0.04931972789115646,0.04931972789115646,0.04931972789115646,0.04931972789115646,0.04931972789115646,0.04931972789115646,0.0391156462585034,0.03571428571428571,0.03231292517006803,0.02891156462585034,0.025510204081632654,0.022108843537414966,0.015306122448979591,0.011904761904761904,0.011904761904761904,0.011904761904761904,0.011904761904761904,0.011904761904761904,0.011904761904761904,0.011904761904761904,0.011904761904761904,0.011904761904761904,0.011904761904761904,0.015306122448979591,0.02891156462585034,0.07312925170068027,0.12755102040816327,0.17857142857142858,0.22959183673469388,0.3078231292517007,0.37244897959183676,0.42346938775510207,0.4608843537414966,0.4846938775510204,0.5153061224489796,0.5527210884353742,0.6037414965986394,0.6275510204081632,0.6479591836734694,0.6513605442176871,0.6513605442176871,0.6513605442176871,0.6513605442176871,0.6513605442176871,0.6513605442176871,0.6581632653061225,0.6615646258503401,0.6683673469387755,0.6717687074829932,0.6819727891156463,0.70578231292517,0.7397959183673469,0.7670068027210885,0.8010204081632653,0.8180272108843537,0.8282312925170068,0.8316326530612245,0.8350340136054422,0.8520408163265306,0.8656462585034014,0.8826530612244898,0.8962585034013606,0.9064625850340136,0.9098639455782312,0.9166666666666666,0.9268707482993197,0.9438775510204082,0.9472789115646258,0.9506802721088435,0.9506802721088435,0.9540816326530612,0.9540816326530612,0.9540816326530612,0.967687074829932,0.9812925170068028,0.9948979591836735,1.0051020408163265,1.0085034013605443,1.0085034013605443,1.0085034013605443,1.0085034013605443,1.0085034013605443,1.0085034013605443,1.0085034013605443,1.0085034013605443,1.0085034013605443,1.0085034013605443,1.0085034013605443,1.0085034013605443,1.0085034013605443,1.0085034013605443,1.0085034013605443,1.0085034013605443,1.0085034013605443,1.0085034013605443,1.0085034013605443,1.0085034013605443,0.9914965986394558,0.9642857142857143,0.9200680272108843,0.858843537414966,0.7840136054421769,0.7159863945578231,0.6513605442176871,0.6003401360544217,0.5935374149659864,0.5935374149659864,0.5935374149659864,0.5935374149659864,0.5935374149659864,0.5935374149659864,0.5935374149659864,0.5935374149659864,0.5935374149659864,0.5935374149659864,0.5935374149659864,0.5935374149659864,0.5935374149659864,0.5935374149659864,0.5935374149659864,0.5935374149659864,0.5935374149659864,0.5935374149659864,0.5935374149659864,0.5935374149659864,0.5935374149659864,0.5969387755102041,0.6037414965986394,0.6139455782312925,0.6207482993197279,0.6241496598639455,0.6275510204081632,0.6377551020408163,0.6445578231292517,0.6479591836734694,0.6479591836734694,0.6479591836734694,0.6479591836734694,0.6479591836734694,0.6479591836734694,0.6479591836734694,0.6479591836734694,0.6479591836734694,0.6479591836734694,0.6479591836734694,0.6479591836734694,0.6479591836734694,0.6479591836734694,0.6479591836734694,0.6479591836734694,0.6479591836734694,0.6479591836734694,0.6479591836734694,0.6479591836734694,0.6479591836734694,0.6479591836734694,0.6479591836734694,0.6479591836734694,0.6479591836734694,0.6479591836734694,0.6479591836734694,0.6479591836734694,0.6479591836734694,0.6479591836734694,0.6479591836734694,0.6479591836734694,0.6479591836734694,0.6479591836734694,0.6479591836734694,0.6479591836734694,0.6479591836734694,0.6479591836734694,0.6479591836734694,0.6479591836734694,0.6479591836734694,0.6479591836734694,0.6479591836734694,0.6479591836734694,0.6479591836734694,0.6479591836734694,0.6479591836734694,0.6479591836734694,0.6479591836734694,0.6479591836734694,0.6479591836734694,0.6479591836734694,0.6479591836734694,0.6479591836734694,0.6479591836734694,0.6479591836734694,0.6479591836734694,0.6479591836734694,0.6479591836734694,0.6479591836734694,0.6479591836734694,0.6479591836734694,0.6479591836734694,0.6479591836734694,0.6479591836734694,0.6479591836734694,0.6479591836734694,0.6479591836734694,0.6479591836734694,0.6479591836734694,0.6479591836734694,0.6479591836734694,0.6479591836734694,0.6479591836734694,0.6479591836734694],"y":[-3.0476190476190474,-3.0476190476190474,-3.0476190476190474,-3.0476190476190474,0.5666666666666667,0.43333333333333335,0.2619047619047619,0.1,-0.04285714285714286,-0.21428571428571427,-0.3476190476190476,-0.4714285714285714,-0.5285714285714286,-0.5666666666666667,-0.6142857142857143,-0.6428571428571429,-0.680952380952381,-0.6904761904761905,-0.7,-0.7,-0.7,-0.7,-0.7,-0.7,-0.7,-0.7,-0.7,-0.7,-0.7,-0.7,-0.7,-0.7,-0.7,-0.7,-0.7,-0.7,-0.7,-0.7,-0.7,-0.7,-0.7,-0.7,-0.7,-0.7,-0.7,-0.7,-0.7,-0.7,-0.7,-0.7,-0.7,-0.7,-0.7,-0.7,-0.7,-0.7,-0.7,-0.7,-0.7,-0.7,-0.7,-0.7,-0.7,-0.7,-0.7,-0.7,-0.7,-0.7,-0.7,-0.7,-0.7,-0.7,-0.7,-0.7,-0.7,-0.7,-0.7,-0.7,-0.7,-0.7,-0.7,-0.7,-0.7,-0.7,-0.7,-0.7,-0.7,-0.7,-0.7,-0.7,-0.7,-0.7,-0.7,-0.7,-0.7,-0.7,-0.7,-0.7,-0.7095238095238096,-0.7285714285714285,-0.7285714285714285,-0.7285714285714285,-0.7285714285714285,-0.7285714285714285,-0.7285714285714285,-0.7285714285714285,-0.7285714285714285,-0.7285714285714285,-0.7285714285714285,-0.7285714285714285,-0.7285714285714285,-0.7285714285714285,-0.7285714285714285,-0.7285714285714285,-0.7285714285714285,-0.7285714285714285,-0.7285714285714285,-0.7285714285714285,-0.7285714285714285,-0.7285714285714285,-0.7285714285714285,-0.7285714285714285,-0.7285714285714285,-0.7285714285714285,-0.7285714285714285,-0.7285714285714285,-0.7285714285714285,-0.7285714285714285,-0.7285714285714285,-0.7285714285714285,-0.7285714285714285,-0.7285714285714285,-0.7571428571428571,-0.8142857142857143,-0.8428571428571429,-0.8809523809523809,-0.9476190476190476,-0.9857142857142858,-1.0142857142857142,-1.0238095238095237,-1.0238095238095237,-1.0238095238095237,-1.0238095238095237,-1.0238095238095237,-1.0238095238095237,-1.0238095238095237,-1.0238095238095237,-1.0238095238095237,-1.0238095238095237,-1.0238095238095237,-1.0238095238095237,-1.0238095238095237,-1.0238095238095237,-1.0238095238095237,-1.0238095238095237,-1.0238095238095237,-1.0238095238095237,-1.0238095238095237,-1.0238095238095237,-1.0238095238095237,-1.0238095238095237,-1.0238095238095237,-1.0238095238095237,-1.0238095238095237,-1.0238095238095237,-1.0238095238095237,-1.0238095238095237,-1.0238095238095237,-1.0238095238095237,-1.0238095238095237,-1.0238095238095237,-1.0238095238095237,-1.0238095238095237,-1.0238095238095237,-1.0238095238095237,-1.0238095238095237,-1.0238095238095237,-1.0238095238095237,-1.0714285714285714,-1.0904761904761904,-1.1,-1.1285714285714286,-1.1666666666666667,-1.1857142857142857,-1.1952380952380952,-1.2047619047619047,-1.2142857142857142,-1.2142857142857142,-1.2142857142857142,-1.2142857142857142,-1.2142857142857142,-1.2142857142857142,-1.223809523809524,-1.2333333333333334,-1.2428571428571429,-1.2523809523809524,-1.2619047619047619,-1.2619047619047619,-1.2809523809523808,-1.2904761904761906,-1.2904761904761906,-1.2904761904761906,-1.2904761904761906,-1.2904761904761906,-1.2904761904761906,-1.2904761904761906,-1.2904761904761906,-1.2904761904761906,-1.2904761904761906,-1.2904761904761906,-1.2904761904761906,-1.2904761904761906,-1.2904761904761906,-1.2904761904761906,-1.2904761904761906,-1.2904761904761906,-1.2809523809523808,-1.2809523809523808,-1.2809523809523808,-1.2809523809523808,-1.2714285714285714,-1.2714285714285714,-1.2714285714285714,-1.2714285714285714,-1.2714285714285714,-1.2714285714285714,-1.2714285714285714,-1.2714285714285714,-1.2714285714285714,-1.2619047619047619,-1.2619047619047619,-1.2714285714285714,-1.2809523809523808,-1.2809523809523808,-1.2904761904761906,-1.2904761904761906,-1.2904761904761906,-1.2904761904761906,-1.2904761904761906,-1.2904761904761906,-1.2904761904761906,-1.2904761904761906,-1.2904761904761906,-1.2904761904761906,-1.2904761904761906,-1.2904761904761906,-1.2904761904761906,-1.2904761904761906,-1.2904761904761906,-1.2904761904761906,-1.2904761904761906,-1.2523809523809524,-1.1666666666666667,-1.138095238095238,-1.1285714285714286,-1.0904761904761904,-1.0333333333333334,-1.0238095238095237,-1.0142857142857142,-1.0142857142857142,-1.0142857142857142,-1.0142857142857142,-1.0142857142857142,-1.0142857142857142,-1.0142857142857142,-1.0142857142857142,-1.0142857142857142,-1.0142857142857142,-1.042857142857143,-1.061904761904762,-1.0714285714285714,-1.0904761904761904,-1.0904761904761904,-1.0904761904761904,-1.0904761904761904,-1.0904761904761904,-1.0904761904761904,-1.0904761904761904,-1.0904761904761904,-1.0904761904761904,-1.0904761904761904,-1.0904761904761904,-1.119047619047619,-1.1285714285714286,-1.1476190476190475,-1.1571428571428573,-1.1571428571428573,-1.1571428571428573,-1.1571428571428573,-1.1571428571428573,-1.1571428571428573,-1.1571428571428573,-1.1571428571428573,-1.1571428571428573,-1.1571428571428573,-1.1571428571428573,-1.1571428571428573,-1.1571428571428573,-1.1571428571428573,-1.1571428571428573,-1.1571428571428573,-1.1666666666666667,-1.1952380952380952,-1.2142857142857142,-1.223809523809524,-1.223809523809524,-1.223809523809524,-1.223809523809524,-1.223809523809524,-1.223809523809524,-1.223809523809524,-1.223809523809524,-1.223809523809524,-1.223809523809524,-1.2428571428571429,-1.2619047619047619,-1.2714285714285714,-1.2714285714285714,-1.2714285714285714,-1.2714285714285714,-1.2714285714285714,-1.2714285714285714,-1.2714285714285714,-1.2714285714285714,-1.2714285714285714,-1.2714285714