[{"success":true,"trial_type":"fullscreen","trial_index":0,"time_elapsed":2612,"internal_node_id":"0.0-0.0","protocol_sum":"","subject_identifier":421,"subject_sum":[210,157,83,112,29,60,133,158,41,225,185,0,40,238,193,202,142,47,41,67,145,152,182,224,54,198,9,81,251,69,138,161],"subject_pair":210,"STUDY_ID":"66a22c0758a3d5c9d26873c6","PROLIFIC_PID":"663a5c3ef84d9c74ea3c07a1","SESSION_ID":"66a2ae3b0b8100bf9c5774f4","practice_instructions":1,"leaderboard_instructions":0,"bonus":0,"reveal_word":true,"self_rating":"5","confidence":"77"},{"view_history":"[{\"page_index\":0,\"viewing_time\":4126}]","rt":4127,"trial_type":"instructions","trial_index":1,"time_elapsed":6742,"internal_node_id":"0.0-1.0","protocol_sum":"","subject_identifier":421,"subject_sum":[210,157,83,112,29,60,133,158,41,225,185,0,40,238,193,202,142,47,41,67,145,152,182,224,54,198,9,81,251,69,138,161],"subject_pair":210,"STUDY_ID":"66a22c0758a3d5c9d26873c6","PROLIFIC_PID":"663a5c3ef84d9c74ea3c07a1","SESSION_ID":"66a2ae3b0b8100bf9c5774f4","practice_instructions":1,"leaderboard_instructions":0,"bonus":0,"reveal_word":true,"self_rating":"5","confidence":"77"},{"view_history":"[{\"page_index\":0,\"viewing_time\":31221}]","rt":31221,"trial_type":"instructions","trial_index":2,"time_elapsed":37973,"internal_node_id":"0.0-2.0-0.0","protocol_sum":"","subject_identifier":421,"subject_sum":[210,157,83,112,29,60,133,158,41,225,185,0,40,238,193,202,142,47,41,67,145,152,182,224,54,198,9,81,251,69,138,161],"subject_pair":210,"STUDY_ID":"66a22c0758a3d5c9d26873c6","PROLIFIC_PID":"663a5c3ef84d9c74ea3c07a1","SESSION_ID":"66a2ae3b0b8100bf9c5774f4","practice_instructions":1,"leaderboard_instructions":0,"bonus":0,"reveal_word":true,"self_rating":"5","confidence":"77"},{"rt":10739,"responses":"{\"Q0\":\"... reveal the word with as <b>few letter guesses</b> as possible\"}","question_order":"[0]","trial_type":"survey-multi-choice","trial_index":3,"time_elapsed":48716,"internal_node_id":"0.0-2.0-1.0","protocol_sum":"","subject_identifier":421,"subject_sum":[210,157,83,112,29,60,133,158,41,225,185,0,40,238,193,202,142,47,41,67,145,152,182,224,54,198,9,81,251,69,138,161],"subject_pair":210,"correct":true,"test_part":"multichoice_nonpretend","STUDY_ID":"66a22c0758a3d5c9d26873c6","PROLIFIC_PID":"663a5c3ef84d9c74ea3c07a1","SESSION_ID":"66a2ae3b0b8100bf9c5774f4","practice_instructions":1,"leaderboard_instructions":0,"bonus":0,"reveal_word":true,"self_rating":"5","confidence":"77"},{"view_history":"[{\"page_index\":0,\"viewing_time\":1071}]","rt":1071,"trial_type":"instructions","trial_index":4,"time_elapsed":49789,"internal_node_id":"0.0-3.0","protocol_sum":"","subject_identifier":421,"subject_sum":[210,157,83,112,29,60,133,158,41,225,185,0,40,238,193,202,142,47,41,67,145,152,182,224,54,198,9,81,251,69,138,161],"subject_pair":210,"STUDY_ID":"66a22c0758a3d5c9d26873c6","PROLIFIC_PID":"663a5c3ef84d9c74ea3c07a1","SESSION_ID":"66a2ae3b0b8100bf9c5774f4","practice_instructions":1,"leaderboard_instructions":0,"bonus":0,"reveal_word":true,"self_rating":"5","confidence":"77"},{"word":"ZEBRA","click_log":{"letter":["","L","A","K","S","J","T","P","O","N","M","C","D","E","F","G","H","I","R","Z","B"],"t":[0,3634,8501.999999999993,14001.999999999993,16051.999999999993,16984.999999999993,17751.999999999993,18651.999999999993,19203.999999999993,19750.999999999993,20384.999999999993,20900.999999999993,21284.999999999993,21817.999999999993,22334.999999999993,22817.999999999993,23218.999999999993,23651.999999999993,24001.999999999993,24535.999999999993,26784.999999999993],"hit":[null,0,1,0,0,0,0,0,0,0,0,0,0,1,0,0,0,0,1,1,1],"asked":["","L","LA","LAK","LAKS","LAKSJ","LAKSJT","LAKSJTP","LAKSJTPO","LAKSJTPON","LAKSJTPONM","LAKSJTPONMC","LAKSJTPONMCD","LAKSJTPONMCDE","LAKSJTPONMCDEF","LAKSJTPONMCDEFG","LAKSJTPONMCDEFGH","LAKSJTPONMCDEFGHI","LAKSJTPONMCDEFGHIR","LAKSJTPONMCDEFGHIRZ","LAKSJTPONMCDEFGHIRZB"],"word_state":["_____","_____","____A","____A","____A","____A","____A","____A","____A","____A","____A","____A","____A","_E__A","_E__A","_E__A","_E__A","_E__A","_E_RA","ZE_RA","ZEBRA"]},"hover_log":{"letter":["?","?","?","?","?","?","S","?","T","T","?","U","U","U","?","?","?","?","?","?","U","?","?","?","?","?","C","C","?","?","?","?","?","?","?","?","?","?","?","?","?","?","?","?","?","C","C","?","L","L","?","?","?","T","T","T","T","T","T","T","T","T","?","?","?","C","?","?","?","?","?","?","?","?","?","?","?","?","?","?","?","?","?","?","?","C","C","C","C","C","C","C","C","C","C","C","C","C","C","C","C","C","C","C","C","C","?","?","D","D","D","?","E","E","E","E","E","E","E","E","E","E","E","E","E","E","E","E","E","E","E","E","E","E","E","E","E","E","E","E","E","E","E","E","E","E","E","?","F","F","F","?","G","G","G","G","G","G","G","G","G","G","G","G","G","G","G","G","G","G","G","G","G","?","F","F","?","E","E","E","?","D","D","D","D","?","?","?","?","?","?","?","?","?","?","?","?","?","L","L","L","L","L","L","L","L","L","L","L","L","L","L","L","L","L","L","L","L","L","L","L","L","L","L","L","L","L","L","L","L","L","L","L","L","L","L","L","L","L","L","L","L","L","L","L","L","L","L","L","L","L","L","L","L","L","L","L","L","L","L","L","L","L","L","L","L","L","L","L","L","L","L","L","L","L","L","L","L","L","L","L","L","L","L","?","?","?","C","C","C","?","?","?","?","?","?","?","?","?","?","C","C","C","C","C","C","?","?","?","?","?","?","?","?","?","?","?","?","?","?","?","?","?","?","?","?","?","?","?","?","?","?","?","?","?","L","L","L","L","L","L","L","L","L","L","L","L","L","L","L","L","L","L","L","L","L","L","L","L","L","L","L","L","L","L","L","L","L","L","L","L","L","L","L","L","L","L","L","L","L","L","L","L","L","L","?","M","M","M","M","M","M","M","M","M","M","M","M","M","M","M","M","M","M","M","M","M","M","M","?","?","?","?","?","C","C","?","?","?","B","B","B","B","B","B","B","B","B","B","B","B","B","B","B","B","B","B","B","B","B","?","?","A","A","A","A","A","A","A","A","A","A","A","A","A","A","A","A","A","A","A","A","A","A","A","A","A","A","A","A","A","A","A","A","A","A","A","A","A","A","A","A","A","A","A","A","A","A","A","A","A","A","A","A","A","A","A","A","A","A","A","A","A","A","A","A","A","A","A","A","A","A","A","A","A","A","A","A","A","A","A","A","A","A","A","A","A","A","A","A","A","A","A","A","A","A","A","A","A","A","A","A","A","A","A","A","A","A","A","A","A","A","A","A","?","?","?","?","?","?","?","?","L","L","L","M","M","M","M","?","?","?","?","?","?","?","?","?","?","?","?","?","?","?","?","?","?","?","?","?","?","?","?","N","N","N","?","?","?","?","?","?","?","?","?","?","?","?","?","?","?","?","?","?","?","?","?","?","?","?","?","?","?","?","?","?","?","?","?","?","?","X","X","X","X","X","X","X","X","?","?","?","?","?","?","Y","Y","Y","Y","Y","Y","Y","Y","Y","Y","Y","Y","Y","Y","Y","Y","Y","Y","Y","Y","Y","Y","Y","Y","Y","Y","Y","Y","Y","Y","?","?","?","Z","Z","Z","Z","Z","Z","Z","?","?","?","?","?","?","?","?","?","?","?","?","?","?","?","?","?","?","?","?","?","?","?","?","?","?","?","?","?","?","?","?","?","?","?","?","?","?","?","?","?","R","R","R","R","?","?","?","?","?","?","?","?","?","?","?","?","?","?","?","?","?","?","?","?","?","?","?","?","?","?","R","R","R","R","R","R","R","R","R","R","R","R","R","?","?","?","?","?","?","?","?","Q","Q","Q","Q","Q","Q","?","P","P","P","?","?","?","?","?","?","?","?","?","?","?","?","?","?","?","?","?","?","?","?","?","M","?","?","L","L","?","?","?","?","?","?","?","?","?","?","?","?","?","K","K","K","K","K","K","K","K","K","K","K","K","K","K","K","K","K","K","K","K","K","K","K","K","K","K","K","K","K","K","K","K","K","K","K","K","K","K","K","K","K","K","K","K","K","K","K","K","K","K","K","K","K","K","K","K","K","K","K","K","K","K","K","K","K","K","K","K","K","K","K","K","K","K","K","K","K","K","K","K","K","?","?","?","?","?","?","?","?","?","?","?","?","?","?","?","?","?","?","?","?","?","?","?","?","?","?","?","?","?","?","?","?","?","S","S","S","S","S","S","S","S","S","S","S","S","S","S","S","S","S","S","S","S","S","S","S","S","S","S","S","S","S","S","S","S","S","S","S","S","S","S","S","S","S","S","S","S","S","S","S","S","S","S","S","?","?","?","?","?","?","?","?","J","J","J","J","J","J","J","J","J","J","J","J","J","J","J","J","J","J","J","J","J","J","J","J","J","J","J","J","J","J","J","J","J","J","J","J","J","J","J","J","J","J","J","?","?","?","?","?","?","T","T","T","T","T","T","T","T","T","T","T","T","T","T","T","T","T","T","T","T","T","T","T","T","T","T","T","T","T","T","T","T","T","?","U","U","U","U","U","?","V","?","?","?","N","N","N","N","N","?","?","?","O","O","O","O","O","?","P","P","P","P","P","P","P","P","P","P","P","P","P","P","P","P","P","P","P","P","P","P","P","P","P","?","?","O","O","O","O","O","O","O","O","O","O","O","O","O","O","O","O","O","O","O","O","O","O","O","O","O","O","O","O","O","O","O","O","O","O","O","O","O","?","?","N","N","N","N","N","N","N","N","N","N","N","N","N","N","N","N","N","N","N","N","N","N","N","N","N","N","N","N","N","N","N","?","?","?","?","?","M","M","M","M","M","M","M","M","M","M","M","M","M","M","M","M","M","M","M","M","M","M","M","M","M","M","M","?","?","?","?","C","C","C","C","C","C","C","C","C","C","C","C","C","C","C","C","C","C","C","C","?","D","D","D","D","D","D","D","D","D","D","D","D","D","D","D","D","D","D","D","D","D","D","D","D","D","D","D","D","D","D","D","D","D","D","D","D","D","?","E","E","E","E","E","E","E","E","E","E","E","E","E","E","E","E","E","E","E","E","E","E","?","F","F","F","F","F","F","F","F","F","F","F","F","F","F","F","F","F","F","F","F","F","F","F","F","F","F","F","F","F","F","F","F","?","G","G","G","G","G","G","G","G","G","G","G","G","G","G","G","G","G","G","G","G","G","?","H","H","H","H","H","H","H","H","H","H","H","H","H","H","H","H","H","H","H","H","H","H","H","H","H","H","H","H","?","?","I","I","I","I","I","I","I","I","I","I","I","I","I","I","?","?","?","?","?","R","R","R","R","R","R","R","R","R","R","R","R","R","R","R","R","R","R","R","R","R","?","?","?","?","?","?","?","Z","Z","Z","Z","Z","Z","Z","Z","Z","Z","Z","Z","Z","Z","Z","Z","Z","Z","Z","Z","Z","Z","Z","Z","Z","Z","Z","Z","Z","Z","Z","Z","Z","Z","Z","Z","Z","Z","Z","Z","Z","Z","Z","Z","Z","Z","Z","Z","Z","Z","Z","Z","Z","Z","Z","Y","Y","X","X","?","?","?","M","M","M","M","M","M","M","M","M","M","M","M","M","M","M","M","M","M","M","M","?","?","?","?","V","V","?","?","W","W","W","W","W","W","W","W","W","W","W","W","W","W","W","W","W","W","?","?","?","?","?","?","?","?","?","?","?","?","M","M","?","?","?","?","C","C","C","C","C","C","C","C","C","C","C","C","B","B","B","B","B","B","B","B","B","B","B","B","B","B","B","B","B","B","B","B","B","B","B","B","B","B","B","B","B","B","B","B","B","B","B","B","B","B","B","B","?","?","?","?","L","L","L","?","?","V","V","?","?","?","?","?","?","?","?","?","?","?","?","?","?","?","?","?","?","?","?","?","?","?","?","?","?","?","?","?","?","?","?","?","?","?","?","?","?","?","?","?","?","?","?","?","?","?","?","?","?","?","?","?","?","?","?","?","?","?","?","?","?","?","?","?","?","?","?","?","?","?","?","?","?","?","?","?","?","?","?","?","?"],"t":[42,65,75,96,108,126,144,163,177,196,209,226,241,260,273,292,309,324,344,363,379,393,412,429,441,458,474,490,507,523,543,558,574,594,608,625,643,659,674,691,707,723,741,759,773,790,807,825,842,859,880,893,912,926,944,959,974,992,1007,1024,1040,1061,1076,1100,1108,1125,1142,1157,1174,1190,1208,1225,1242,1258,1276,1292,1310,1326,1342,1360,1376,1391,1408,1424,1441,1460,1477,1495,1512,1526,1542,1557,1575,1592,1607,1623,1642,1658,1677,1693,1712,1727,1744,1758,1775,1792,1807,1825,1842,1858,1874,1893,1910,1926,1941,1970,1976,1992,2009,2026,2042,2059,2075,2092,2109,2125,2142,2159,2175,2190,2207,2225,2242,2258,2274,2293,2308,2325,2341,2358,2374,2392,2409,2425,2441,2458,2475,2490,2509,2524,2544,2559,2577,2591,2608,2628,2641,2658,2674,2692,2709,2725,2741,2757,2773,2791,2807,2823,2842,2859,2875,2892,2908,2924,2945,2961,2975,2992,3009,3024,3040,3057,3075,3091,3107,3126,3145,3161,3177,3192,3208,3223,3240,3257,3273,3290,3307,3324,3344,3362,3377,3392,3409,3424,3446,3459,3474,3492,3509,3526,3542,3559,3575,3592,3608,3626,3655,3666,3694,3711,3728,3744,3759,3776,3793,3809,3826,3842,3858,3876,3893,3908,3926,3943,3961,3975,4000,4008,4025,4041,4059,4074,4091,4111,4126,4143,4158,4175,4192,4209,4226,4241,4259,4275,4292,4308,4326,4341,4359,4376,4393,4409,4425,4441,4459,4477,4490,4508,4524,4542,4559,4575,4595,4611,4626,4644,4658,4675,4691,4708,4723,4741,4759,4776,4795,4811,4827,4842,4860,4876,4891,4907,4925,4942,4960,4976,4994,5010,5028,5043,5059,5075,5091,5107,5124,5142,5157,5177,5194,5211,5225,5243,5260,5274,5292,5309,5325,5342,5359,5376,5394,5408,5426,5442,5458,5476,5493,5507,5525,5542,5558,5575,5591,5606,5625,5641,5660,5676,5692,5708,5724,5740,5758,5776,5790,5808,5826,5841,5857,5875,5892,5909,5926,5942,5959,5975,5991,6009,6025,6044,6058,6075,6092,6109,6125,6142,6159,6175,6190,6209,6226,6242,6258,6275,6291,6309,6325,6340,6358,6375,6391,6407,6428,6443,6461,6476,6492,6509,6524,6542,6558,6575,6592,6610,6626,6642,6658,6675,6691,6709,6726,6742,6759,6776,6792,6810,6825,6845,6858,6877,6893,6908,6925,6941,6957,6975,6992,7008,7028,7045,7059,7075,7092,7109,7125,7142,7158,7175,7191,7210,7225,7242,7259,7275,7291,7309,7325,7341,7358,7374,7390,7407,7424,7442,7462,7475,7492,7508,7525,7542,7559,7576,7592,7609,7624,7642,7659,7676,7692,7709,7726,7740,7758,7775,7791,7808,7825,7845,7859,7879,7900,7909,7925,7942,7957,7976,7993,8008,8027,8040,8058,8074,8092,8107,8125,8143,8159,8175,8192,8208,8225,8244,8259,8276,8292,8308,8325,8342,8359,8376,8392,8409,8426,8441,8459,8476,8493,8509,8525,8542,8559,8576,8593,8609,8626,8643,8660,8676,8693,8709,8725,8742,8759,8775,8793,8809,8826,8843,8858,8876,8892,8909,8928,8948,8957,8974,8991,9007,9024,9043,9057,9074,9092,9107,9124,9144,9158,9175,9190,9208,9225,9242,9259,9276,9295,9312,9327,9344,9359,9377,9392,9408,9425,9442,9459,9477,9491,9512,9528,9543,9560,9575,9591,9609,9626,9642,9659,9676,9692,9709,9726,9742,9759,9776,9793,9809,9826,9843,9859,9878,9893,9910,9927,9945,9960,9976,9991,10009,10026,10042,10059,10076,10093,10112,10127,10142,10159,10175,10193,10209,10226,10243,10259,10276,10291,10309,10326,10342,10359,10375,10392,10409,10426,10442,10459,10476,10493,10508,10527,10544,10560,10577,10592,10608,10625,10642,10657,10675,10693,10708,10728,10745,10761,10777,10793,10810,10825,10841,10858,10875,10892,10909,10928,10943,10963,10976,10994,11008,11026,11041,11057,11075,11091,11108,11124,11146,11161,11177,11192,11210,11225,11242,11257,11275,11292,11308,11325,11345,11361,11377,11392,11412,11424,11442,11459,11475,11492,11508,11526,11545,11562,11577,11593,11610,11625,11643,11659,11676,11693,11709,11725,11743,11759,11776,11792,11808,11826,11843,11859,11876,11893,11909,11925,11942,11963,11977,11994,12010,12026,12042,12058,12074,12091,12108,12124,12143,12161,12178,12195,12209,12225,12243,12258,12274,12292,12307,12326,12345,12359,12374,12392,12408,12426,12442,12459,12475,12493,12508,12525,12542,12559,12574,12592,12609,12626,12642,12658,12676,12691,12709,12725,12744,12761,12777,12793,12811,12826,12844,12859,12875,12892,12908,12925,12943,12959,12978,12995,13010,13027,13043,13058,13076,13092,13107,13125,13143,13158,13178,13193,13211,13225,13243,13258,13275,13293,13309,13328,13343,13360,13376,13393,13409,13426,13443,13459,13476,13493,13507,13525,13543,13559,13575,13593,13612,13627,13644,13660,13676,13691,13709,13725,13742,13759,13778,13795,13812,13826,13843,13860,13875,13893,13908,13925,13942,13959,13975,13993,14009,14026,14042,14059,14078,14093,14109,14125,14143,14160,14176,14192,14208,14226,14242,14259,14276,14291,14309,14326,14343,14359,14376,14393,14410,14426,14442,14459,14475,14493,14509,14526,14542,14557,14575,14592,14612,14628,14645,14660,14676,14694,14708,14726,14742,14758,14775,14793,14810,14826,14842,14858,14876,14893,14909,14926,14943,14960,14976,14993,15009,15028,15043,15059,15076,15092,15110,15125,15141,15159,15176,15192,15213,15227,15245,15260,15276,15294,15310,15325,15342,15358,15375,15393,15409,15427,15445,15461,15477,15493,15510,15525,15541,15559,15576,15592,15610,15625,15643,15661,15676,15694,15709,15726,15743,15758,15774,15793,15810,15825,15845,15862,15876,15892,15910,15926,15943,15959,15976,15993,16010,16026,16043,16059,16076,16092,16108,16126,16141,16158,16176,16193,16209,16226,16243,16260,16276,16292,16309,16326,16343,16359,16376,16393,16410,16426,16443,16460,16476,16495,16509,16526,16544,16557,16575,16592,16607,16625,16644,16662,16677,16695,16710,16727,16742,16759,16776,16792,16809,16825,16843,16860,16877,16893,16909,16926,16943,16960,16975,16993,17010,17026,17043,17060,17076,17093,17109,17125,17143,17160,17176,17193,17210,17226,17243,17260,17279,17295,17312,17326,17343,17359,17375,17392,17408,17426,17444,17459,17479,17497,17511,17528,17544,17559,17577,17593,17608,17626,17643,17660,17677,17693,17709,17725,17743,17757,17774,17792,17810,17826,17843,17860,17876,17893,17910,17926,17942,17959,17976,17993,18010,18025,18042,18060,18077,18095,18112,18126,18144,18160,18176,18192,18209,18226,18242,18259,18275,18295,18312,18328,18344,18361,18376,18393,18410,18425,18442,18459,18478,18494,18512,18529,18544,18559,18575,18593,18609,18626,18643,18660,18676,18693,18709,18726,18743,18760,18775,18792,18808,18825,18843,18858,18876,18893,18910,18927,18944,18961,18976,18993,19009,19025,19042,19059,19076,19091,19108,19124,19150,19174,19192,19209,19224,19242,19259,19274,19293,19310,19326,19342,19359,19376,19392,19410,19426,19443,19458,19474,19492,19508,19526,19541,19559,19576,19591,19608,19624,19642,19659,19676,19693,19710,19726,19742,19758,19776,19792,19809,19826,19842,19858,19874,19891,19908,19926,19942,19960,19976,19992,20008,20025,20041,20058,20075,20092,20110,20125,20146,20162,20176,20192,20211,20227,20242,20259,20275,20291,20307,20325,20343,20359,20375,20392,20408,20425,20441,20459,20475,20492,20508,20525,20541,20559,20574,20594,20609,20625,20641,20658,20675,20691,20708,20725,20741,20759,20776,20791,20808,20826,20842,20859,20876,20892,20908,20925,20941,20959,20976,20992,21010,21026,21041,21058,21075,21092,21108,21125,21144,21161,21177,21193,21209,21226,21243,21260,21277,21291,21308,21326,21341,21358,21375,21392,21408,21425,21442,21458,21475,21491,21509,21525,21543,21560,21576,21593,21609,21627,21642,21659,21675,21692,21708,21725,21741,21760,21776,21793,21809,21825,21841,21858,21874,21893,21908,21926,21942,21959,21976,21992,22010,22025,22042,22060,22075,22092,22110,22125,22144,22160,22175,22193,22210,22226,22242,22259,22275,22291,22308,22327,22343,22360,22375,22393,22410,22425,22442,22459,22475,22492,22509,22524,22541,22558,22575,22592,22609,22626,22643,22659,22675,22691,22709,22725,22742,22759,22775,22792,22810,22825,22842,22858,22875,22892,22908,22925,22942,22959,22975,22991,23009,23025,23043,23060,23076,23093,23109,23125,23141,23159,23175,23192,23208,23226,23242,23258,23276,23293,23310,23327,23343,23360,23374,23394,23410,23428,23446,23461,23476,23492,23508,23525,23542,23559,23575,23592,23608,23626,23643,23659,23677,23693,23709,23725,23742,23760,23776,23793,23811,23828,23844,23862,23878,23893,23910,23926,23943,23958,23975,23992,24008,24026,24043,24059,24075,24093,24109,24125,24141,24159,24175,24192,24208,24225,24243,24261,24277,24292,24310,24325,24341,24359,24375,24392,24409,24426,24443,24459,24476,24492,24509,24526,24544,24560,24575,24594,24611,24627,24644,24660,24676,24692,24708,24726,24743,24759,24776,24793,24810,24825,24842,24860,24876,24892,24909,24925,24943,24960,24975,24992,25010,25026,25043,25059,25075,25095,25110,25125,25142,25159,25175,25193,25209,25225,25242,25259,25276,25293,25310,25326,25342,25358,25375,25393,25408,25426,25442,25460,25477,25493,25511,25525,25542,25558,25575,25592,25609,25625,25642,25659,25676,25694,25710,25726,25743,25758,25775,25792,25809,25825,25842,25859,25876,25893,25909,25925,25943,25959,25976,25992,26008,26025,26041,26059,26075,26093,26111,26126,26142,26159,26176,26192,26210,26225,26243,26262,26276,26296,26313,26327,26345,26359,26376,26393,26410,26426,26443,26459,26475,26494,26510,26527,26544,26559,26576,26592,26609,26626,26643,26659,26677,26692,26709,26725,26743,26759,26776,26795,26808,26826,26843,26860,26876,26893,26909,26926,26943,26961,26976,26992,27010,27026,27043,27060,27076,27092,27109,27128,27143,27160,27177,27192,27208,27226,27242,27260,27275,27293,27310,27328,27345,27361,27376,27393,27409,27426,27442,27459,27476,27493,27510,27528,27544,27560,27576,27593,27609,27626,27643,27660,27676,27693,27710,27727,27743,27760,27776,27793,27809,27826,27845,27858,27875,27892,27910,27926,27943,27960,27976,27993,28010,28026,28042,28060,28076,28092,28110,28126,28143,28160,28176,28192,28210,28226,28243,28259,28275,28293,28309,28326,28343,28360,28375,28392,28410,28426,28443,28460,28476,28493,28510,28527,28543,28561,28576,28593,28610,28627,28643,28660,28676,28693,28710,28727,28743,28760,28775,28792],"hit":[null],"x":[-1.8775510204081634,-1.8775510204081634,-1.8775510204081634,-1.8775510204081634,-1.8775510204081634,-1.8775510204081634,0.04421768707482993,0.05782312925170068,0.12244897959183673,0.17687074829931973,0.22789115646258504,0.25510204081632654,0.2857142857142857,0.30952380952380953,0.3231292517006803,0.3299319727891156,0.3333333333333333,0.3333333333333333,0.336734693877551,0.3401360544217687,0.3435374149659864,0.3435374149659864,0.3435374149659864,0.3435374149659864,0.3435374149659864,0.3435374149659864,0.3333333333333333,0.3299319727891156,0.3231292517006803,0.3231292517006803,0.3197278911564626,0.3197278911564626,0.3197278911564626,0.3197278911564626,0.3197278911564626,0.3197278911564626,0.3197278911564626,0.3197278911564626,0.3197278911564626,0.3197278911564626,0.3197278911564626,0.3197278911564626,0.3197278911564626,0.3197278911564626,0.3163265306122449,0.29591836734693877,0.282312925170068,0.2619047619047619,0.24149659863945577,0.23129251700680273,0.21768707482993196,0.20748299319727892,0.19727891156462585,0.19047619047619047,0.1870748299319728,0.1836734693877551,0.1836734693877551,0.1836734693877551,0.1836734693877551,0.1836734693877551,0.1836734693877551,0.1836734693877551,0.1870748299319728,0.21768707482993196,0.24489795918367346,0.2789115646258503,0.29591836734693877,0.3163265306122449,0.3333333333333333,0.3435374149659864,0.35034013605442177,0.36054421768707484,0.36394557823129253,0.3673469387755102,0.3707482993197279,0.3707482993197279,0.3707482993197279,0.3707482993197279,0.3673469387755102,0.35714285714285715,0.3469387755102041,0.3231292517006803,0.30272108843537415,0.2857142857142857,0.272108843537415,0.2619047619047619,0.25510204081632654,0.25170068027210885,0.24829931972789115,0.24489795918367346,0.24489795918367346,0.24489795918367346,0.24489795918367346,0.24489795918367346,0.24489795918367346,0.24489795918367346,0.24489795918367346,0.24489795918367346,0.24829931972789115,0.25170068027210885,0.25510204081632654,0.2585034013605442,0.2653061224489796,0.272108843537415,0.2891156462585034,0.30952380952380953,0.3435374149659864,0.3673469387755102,0.3945578231292517,0.4217687074829932,0.4523809523809524,0.48639455782312924,0.5170068027210885,0.5306122448979592,0.5306122448979592,0.5306122448979592,0.5306122448979592,0.5306122448979592,0.5306122448979592,0.5306122448979592,0.5306122448979592,0.5306122448979592,0.5306122448979592,0.5306122448979592,0.5306122448979592,0.5306122448979592,0.5306122448979592,0.5306122448979592,0.5306122448979592,0.5306122448979592,0.5306122448979592,0.5306122448979592,0.5306122448979592,0.5306122448979592,0.5306122448979592,0.5306122448979592,0.5306122448979592,0.5306122448979592,0.5306122448979592,0.5306122448979592,0.5306122448979592,0.5306122448979592,0.5306122448979592,0.5306122448979592,0.5408163265306123,0.5680272108843537,0.5952380952380952,0.6326530612244898,0.673469387755102,0.7142857142857143,0.7517006802721088,0.7891156462585034,0.8197278911564626,0.8469387755102041,0.8707482993197279,0.8843537414965986,0.8843537414965986,0.8843537414965986,0.8843537414965986,0.8843537414965986,0.8843537414965986,0.8843537414965986,0.8843537414965986,0.8843537414965986,0.8843537414965986,0.8843537414965986,0.8843537414965986,0.8843537414965986,0.8843537414965986,0.8843537414965986,0.8843537414965986,0.8673469387755102,0.8333333333333334,0.7891156462585034,0.7380952380952381,0.6904761904761905,0.6462585034013606,0.608843537414966,0.5714285714285714,0.54421768707483,0.4931972789115646,0.46938775510204084,0.445578231292517,0.4217687074829932,0.3945578231292517,0.3673469387755102,0.3469387755102041,0.32653061224489793,0.3163265306122449,0.30952380952380953,0.30612244897959184,0.30272108843537415,0.29931972789115646,0.29591836734693877,0.2925170068027211,0.2891156462585034,0.2857142857142857,0.282312925170068,0.2789115646258503,0.2789115646258503,0.2789115646258503,0.2789115646258503,0.2789115646258503,0.282312925170068,0.282312925170068,0.2857142857142857,0.2857142857142857,0.2857142857142857,0.2857142857142857,0.2857142857142857,0.2857142857142857,0.2857142857142857,0.2857142857142857,0.2857142857142857,0.2857142857142857,0.2857142857142857,0.2857142857142857,0.2857142857142857,0.2857142857142857,0.2857142857142857,0.2857142857142857,0.2857142857142857,0.2857142857142857,0.2857142857142857,0.2857142857142857,0.2857142857142857,0.2857142857142857,0.2857142857142857,0.2857142857142857,0.2857142857142857,0.2857142857142857,0.2857142857142857,0.2857142857142857,0.2857142857142857,0.2857142857142857,0.2857142857142857,0.2857142857142857,0.2857142857142857,0.2857142857142857,0.2891156462585034,0.2925170068027211,0.29591836734693877,0.29931972789115646,0.29931972789115646,0.29931972789115646,0.29931972789115646,0.29931972789115646,0.29931972789115646,0.29931972789115646,0.29931972789115646,0.29931972789115646,0.29931972789115646,0.29931972789115646,0.29931972789115646,0.29931972789115646,0.29931972789115646,0.29931972789115646,0.29931972789115646,0.29931972789115646,0.29931972789115646,0.29931972789115646,0.29931972789115646,0.29931972789115646,0.29931972789115646,0.29931972789115646,0.29931972789115646,0.29591836734693877,0.2925170068027211,0.2891156462585034,0.2891156462585034,0.2857142857142857,0.282312925170068,0.282312925170068,0.2789115646258503,0.2789115646258503,0.2755102040816326,0.2755102040816326,0.272108843537415,0.272108843537415,0.272108843537415,0.272108843537415,0.272108843537415,0.272108843537415,0.272108843537415,0.272108843537415,0.272108843537415,0.2755102040816326,0.2789115646258503,0.2857142857142857,0.29591836734693877,0.30272108843537415,0.30612244897959184,0.30952380952380953,0.30952380952380953,0.30952380952380953,0.30952380952380953,0.30952380952380953,0.30952380952380953,0.30952380952380953,0.30612244897959184,0.30272108843537415,0.29931972789115646,0.2925170068027211,0.282312925170068,0.2789115646258503,0.272108843537415,0.2687074829931973,0.2653061224489796,0.2619047619047619,0.2619047619047619,0.2585034013605442,0.2585034013605442,0.25510204081632654,0.25510204081632654,0.25170068027210885,0.25170068027210885,0.24829931972789115,0.24829931972789115,0.24829931972789115,0.24489795918367346,0.24489795918367346,0.24489795918367346,0.24489795918367346,0.24489795918367346,0.24149659863945577,0.24149659863945577,0.24149659863945577,0.24149659863945577,0.24149659863945577,0.24149659863945577,0.24149659863945577,0.24149659863945577,0.24149659863945577,0.24489795918367346,0.24829931972789115,0.25170068027210885,0.25170068027210885,0.25510204081632654,0.25510204081632654,0.2585034013605442,0.2619047619047619,0.2619047619047619,0.2653061224489796,0.2653061224489796,0.2653061224489796,0.2687074829931973,0.2687074829931973,0.2687074829931973,0.2687074829931973,0.2687074829931973,0.2687074829931973,0.2687074829931973,0.2687074829931973,0.2687074829931973,0.2687074829931973,0.2687074829931973,0.2687074829931973,0.2687074829931973,0.2687074829931973,0.2687074829931973,0.2687074829931973,0.2687074829931973,0.2687074829931973,0.2687074829931973,0.2687074829931973,0.2687074829931973,0.2687074829931973,0.2687074829931973,0.2687074829931973,0.2687074829931973,0.2687074829931973,0.2687074829931973,0.2687074829931973,0.2687074829931973,0.2687074829931973,0.2687074829931973,0.2687074829931973,0.2687074829931973,0.2687074829931973,0.272108843537415,0.2755102040816326,0.2857142857142857,0.29591836734693877,0.3163265306122449,0.336734693877551,0.36394557823129253,0.3979591836734694,0.4217687074829932,0.4421768707482993,0.46258503401360546,0.46938775510204084,0.47278911564625853,0.47278911564625853,0.47278911564625853,0.47278911564625853,0.47278911564625853,0.47278911564625853,0.47278911564625853,0.47278911564625853,0.47278911564625853,0.47278911564625853,0.47278911564625853,0.47278911564625853,0.47278911564625853,0.47278911564625853,0.46598639455782315,0.4489795918367347,0.43197278911564624,0.40476190476190477,0.38095238095238093,0.35714285714285715,0.336734693877551,0.3163265306122449,0.2857142857142857,0.2619047619047619,0.24829931972789115,0.22789115646258504,0.21428571428571427,0.20068027210884354,0.19047619047619047,0.1836734693877551,0.1836734693877551,0.1836734693877551,0.1836734693877551,0.1836734693877551,0.1836734693877551,0.1836734693877551,0.1836734693877551,0.1836734693877551,0.1836734693877551,0.1836734693877551,0.1836734693877551,0.1836734693877551,0.1836734693877551,0.1836734693877551,0.1836734693877551,0.16666666666666666,0.13945578231292516,0.11564625850340136,0.09183673469387756,0.06802721088435375,0.05782312925170068,0.04421768707482993,0.04081632653061224,0.03741496598639456,0.03741496598639456,0.03741496598639456,0.03741496598639456,0.03741496598639456,0.03741496598639456,0.03741496598639456,0.03741496598639456,0.03741496598639456,0.03741496598639456,0.03741496598639456,0.03741496598639456,0.03741496598639456,0.03741496598639456,0.03741496598639456,0.03741496598639456,0.03741496598639456,0.03741496598639456,0.03741496598639456,0.03741496598639456,0.03741496598639456,0.04081632653061224,0.04081632653061224,0.04081632653061224,0.04081632653061224,0.04081632653061224,0.04081632653061224,0.04081632653061224,0.04081632653061224,0.04081632653061224,0.04081632653061224,0.04081632653061224,0.04081632653061224,0.03741496598639456,0.03741496598639456,0.034013605442176874,0.034013605442176874,0.030612244897959183,0.030612244897959183,0.030612244897959183,0.027210884353741496,0.027210884353741496,0.027210884353741496,0.027210884353741496,0.027210884353741496,0.023809523809523808,0.023809523809523808,0.023809523809523808,0.023809523809523808,0.023809523809523808,0.023809523809523808,0.023809523809523808,0.023809523809523808,0.023809523809523808,0.02040816326530612,0.02040816326530612,0.02040816326530612,0.02040816326530612,0.02040816326530612,0.02040816326530612,0.02040816326530612,0.02040816326530612,0.02040816326530612,0.02040816326530612,0.02040816326530612,0.02040816326530612,0.02040816326530612,0.02040816326530612,0.02040816326530612,0.02040816326530612,0.02040816326530612,0.02040816326530612,0.02040816326530612,0.02040816326530612,0.02040816326530612,0.02040816326530612,0.02040816326530612,0.02040816326530612,0.02040816326530612,0.02040816326530612,0.02040816326530612,0.02040816326530612,0.02040816326530612,0.02040816326530612,0.02040816326530612,0.02040816326530612,0.02040816326530612,0.02040816326530612,0.02040816326530612,0.023809523809523808,0.023809523809523808,0.023809523809523808,0.023809523809523808,0.023809523809523808,0.027210884353741496,0.027210884353741496,0.030612244897959183,0.030612244897959183,0.030612244897959183,0.034013605442176874,0.034013605442176874,0.034013605442176874,0.03741496598639456,0.03741496598639456,0.04081632653061224,0.04081632653061224,0.04421768707482993,0.04421768707482993,0.047619047619047616,0.05102040816326531,0.05442176870748299,0.061224489795918366,0.07142857142857142,0.08163265306122448,0.09863945578231292,0.12244897959183673,0.16666666666666666,0.20068027210884354,0.24489795918367346,0.2891156462585034,0.336734693877551,0.38095238095238093,0.42517006802721086,0.4489795918367347,0.47619047619047616,0.4965986394557823,0.5102040816326531,0.5170068027210885,0.5170068027210885,0.5204081632653061,0.5204081632653061,0.5204081632653061,0.5204081632653061,0.5204081632653061,0.5204081632653061,0.5204081632653061,0.5204081632653061,0.5204081632653061,0.5204081632653061,0.5204081632653061,0.5204081632653061,0.5204081632653061,0.5204081632653061,0.5204081632653061,0.5204081632653061,0.5204081632653061,0.5204081632653061,0.5204081632653061,0.5204081632653061,0.5306122448979592,0.5374149659863946,0.5510204081632653,0.564625850340136,0.5782312925170068,0.6122448979591837,0.6326530612244898,0.6462585034013606,0.6632653061224489,0.6768707482993197,0.6870748299319728,0.6904761904761905,0.6904761904761905,0.6904761904761905,0.6904761904761905,0.6904761904761905,0.6904761904761905,0.6904761904761905,0.6904761904761905,0.6904761904761905,0.6904761904761905,0.6904761904761905,0.6904761904761905,0.6904761904761905,0.6904761904761905,0.6904761904761905,0.6904761904761905,0.6904761904761905,0.6904761904761905,0.6904761904761905,0.6904761904761905,0.6904761904761905,0.6904761904761905,0.6904761904761905,0.6938775510204082,0.6972789115646258,0.7040816326530612,0.7108843537414966,0.7142857142857143,0.7210884353741497,0.7278911564625851,0.7312925170068028,0.7346938775510204,0.7414965986394558,0.7482993197278912,0.7551020408163265,0.7619047619047619,0.7687074829931972,0.7789115646258503,0.7857142857142857,0.7959183673469388,0.8027210884353742,0.8129251700680272,0.8231292517006803,0.8333333333333334,0.8367346938775511,0.8401360544217688,0.8435374149659864,0.8469387755102041,0.8503401360544217,0.8503401360544217,0.8503401360544217,0.8537414965986394,0.8571428571428571,0.8605442176870748,0.8605442176870748,0.8639455782312925,0.8673469387755102,0.8673469387755102,0.8707482993197279,0.8741496598639455,0.8775510204081632,0.8809523809523809,0.8843537414965986,0.8843537414965986,0.8877551020408163,0.891156462585034,0.8945578231292517,0.8979591836734694,0.9047619047619048,0.9115646258503401,0.9149659863945578,0.9217687074829932,0.9251700680272109,0.935374149659864,0.9421768707482994,0.9523809523809523,0.9625850340136054,0.9727891156462585,0.9863945578231292,1,1.034013605442177,1.054421768707483,1.0782312925170068,1.1020408163265305,1.1156462585034013,1.1326530612244898,1.1462585034013606,1.1564625850340136,1.1598639455782314,1.163265306122449,1.163265306122449,1.163265306122449,1.1394557823129252,1.1394557823129252,1.1394557823129252,1.1394557823129252,1.1394557823129252,1.1394557823129252,1.1394557823129252,1.1394557823129252,1.1394557823129252,1.1394557823129252,1.1394557823129252,1.1394557823129252,1.1394557823129252,1.1394557823129252,1.1394557823129252,1.1394557823129252,1.1394557823129252,1.1394557823129252,1.1428571428571428,1.1496598639455782,1.153061224489796,1.1598639455782314,1.163265306122449,1.1700680272108843,1.1768707482993197,1.1802721088435375,1.183673469387755,1.1870748299319729,1.1904761904761905,1.1904761904761905,1.1938775510204083,1.1972789115646258,1.1972789115646258,1.2006802721088434,1.2006802721088434,1.2040816326530612,1.2040816326530612,1.2040816326530612,1.2040816326530612,1.2040816326530612,1.2074829931972788,1.2074829931972788,1.2074829931972788,1.2074829931972788,1.2074829931972788,1.2074829931972788,1.2074829931972788,1.2074829931972788,1.2074829931972788,1.2074829931972788,1.2074829931972788,1.2074829931972788,1.2074829931972788,1.2074829931972788,1.2074829931972788,1.2074829931972788,1.2074829931972788,1.2074829931972788,1.2040816326530612,1.1938775510204083,1.1802721088435375,1.1734693877551021,1.163265306122449,1.1564625850340136,1.1496598639455782,1.1428571428571428,1.1360544217687074,1.129251700680272,1.1258503401360545,1.119047619047619,1.1122448979591837,1.1020408163265305,1.0952380952380953,1.0850340136054422,1.0816326530612246,1.0782312925170068,1.0714285714285714,1.064625850340136,1.0612244897959184,1.0578231292517006,1.054421768707483,1.0510204081632653,1.0476190476190477,1.0442176870748299,1.0408163265306123,1.0238095238095237,0.9761904761904762,0.935374149659864,0.8979591836734694,0.8605442176870748,0.8435374149659864,0.8197278911564626,0.8027210884353742,0.7959183673469388,0.7925170068027211,0.7925170068027211,0.7925170068027211,0.7925170068027211,0.7925170068027211,0.7925170068027211,0.7925170068027211,0.7925170068027211,0.7925170068027211,0.7925170068027211,0.7925170068027211,0.7925170068027211,0.7925170068027211,0.782312925170068,0.7551020408163265,0.7074829931972789,0.6054421768707483,0.5272108843537415,0.4421768707482993,0.3673469387755102,0.32653061224489793,0.2857142857142857,0.2687074829931973,0.2585034013605442,0.25170068027210885,0.24829931972789115,0.24489795918367346,0.23809523809523808,0.23469387755102042,0.22448979591836735,0.22108843537414966,0.21428571428571427,0.20748299319727892,0.19727891156462585,0.19047619047619047,0.1836734693877551,0.17687074829931973,0.17346938775510204,0.16666666666666666,0.16326530612244897,0.1598639455782313,0.1598639455782313,0.1598639455782313,0.1598639455782313,0.1598639455782313,0.1598639455782313,0.1598639455782313,0.1598639455782313,0.1598639455782313,0.1598639455782313,0.1598639455782313,0.1598639455782313,0.1598639455782313,0.1598639455782313,0.1598639455782313,0.1598639455782313,0.1598639455782313,0.1598639455782313,0.1598639455782313,0.1598639455782313,0.1598639455782313,0.1598639455782313,0.1598639455782313,0.1598639455782313,0.1598639455782313,0.1598639455782313,0.1598639455782313,0.1598639455782313,0.1598639455782313,0.1598639455782313,0.1598639455782313,0.1598639455782313,0.1598639455782313,0.1598639455782313,0.1598639455782313,0.1598639455782313,0.1598639455782313,0.1598639455782313,0.1598639455782313,0.1598639455782313,0.16326530612244897,0.16326530612244897,0.16326530612244897,0.16666666666666666,0.16666666666666666,0.17006802721088435,0.17006802721088435,0.17346938775510204,0.17346938775510204,0.17687074829931973,0.18027210884353742,0.18027210884353742,0.1836734693877551,0.1836734693877551,0.1870748299319728,0.1870748299319728,0.1870748299319728,0.1870748299319728,0.1870748299319728,0.1870748299319728,0.1870748299319728,0.1870748299319728,0.1870748299319728,0.1870748299319728,0.1870748299319728,0.1870748299319728,0.1870748299319728,0.1870748299319728,0.1870748299319728,0.1870748299319728,0.1870748299319728,0.1870748299319728,0.17687074829931973,0.16666666666666666,0.15306122448979592,0.13945578231292516,0.1292517006802721,0.12585034013605442,0.11904761904761904,0.11564625850340136,0.10884353741496598,0.1054421768707483,0.10204081632653061,0.09863945578231292,0.09523809523809523,0.09183673469387756,0.08843537414965986,0.08163265306122448,0.0782312925170068,0.07482993197278912,0.07142857142857142,0.06462585034013606,0.061224489795918366,0.05782312925170068,0.05442176870748299,0.05102040816326531,0.05102040816326531,0.05102040816326531,0.047619047619047616,0.047619047619047616,0.047619047619047616,0.047619047619047616,0.04421768707482993,0.04421768707482993,0.04421768707482993,0.04421768707482993,0.04421768707482993,0.04421768707482993,0.04421768707482993,0.04421768707482993,0.04081632653061224,0.04081632653061224,0.03741496598639456,0.03741496598639456,0.034013605442176874,0.034013605442176874,0.030612244897959183,0.030612244897959183,0.030612244897959183,0.027210884353741496,0.027210884353741496,0.027210884353741496,0.027210884353741496,0.027210884353741496,0.027210884353741496,0.027210884353741496,0.027210884353741496,0.027210884353741496,0.027210884353741496,0.027210884353741496,0.027210884353741496,0.027210884353741496,0.027210884353741496,0.027210884353741496,0.027210884353741496,0.027210884353741496,0.027210884353741496,0.027210884353741496,0.027210884353741496,0.027210884353741496,0.027210884353741496,0.027210884353741496,0.027210884353741496,0.027210884353741496,0.027210884353741496,0.027210884353741496,0.027210884353741496,0.027210884353741496,0.027210884353741496,0.027210884353741496,0.027210884353741496,0.027210884353741496,0.027210884353741496,0.027210884353741496,0.027210884353741496,0.027210884353741496,0.027210884353741496,0.027210884353741496,0.027210884353741496,0.027210884353741496,0.027210884353741496,0.027210884353741496,0.027210884353741496,0.027210884353741496,0.027210884353741496,0.027210884353741496,0.027210884353741496,0.027210884353741496,0.027210884353741496,0.027210884353741496,0.023809523809523808,0.023809523809523808,0.023809523809523808,0.023809523809523808,0.023809523809523808,0.023809523809523808,0.023809523809523808,0.023809523809523808,0.023809523809523808,0.023809523809523808,0.023809523809523808,0.023809523809523808,0.023809523809523808,0.023809523809523808,0.023809523809523808,0.023809523809523808,0.023809523809523808,0.023809523809523808,0.023809523809523808,0.023809523809523808,0.023809523809523808,0.023809523809523808,0.023809523809523808,0.023809523809523808,0.023809523809523808,0.023809523809523808,0.023809523809523808,0.023809523809523808,0.023809523809523808,0.023809523809523808,0.023809523809523808,0.023809523809523808,0.023809523809523808,0.023809523809523808,0.023809523809523808,0.023809523809523808,0.023809523809523808,0.023809523809523808,0.023809523809523808,0.027210884353741496,0.030612244897959183,0.03741496598639456,0.05102040816326531,0.061224489795918366,0.07482993197278912,0.08503401360544217,0.09863945578231292,0.10884353741496598,0.12244897959183673,0.1292517006802721,0.1360544217687075,0.13945578231292516,0.14625850340136054,0.14965986394557823,0.15306122448979592,0.15306122448979592,0.15306122448979592,0.15306122448979592,0.15306122448979592,0.15306122448979592,0.15306122448979592,0.15306122448979592,0.15306122448979592,0.15306122448979592,0.15306122448979592,0.15306122448979592,0.15306122448979592,0.15306122448979592,0.15306122448979592,0.15306122448979592,0.15306122448979592,0.15306122448979592,0.15306122448979592,0.15306122448979592,0.15306122448979592,0.15306122448979592,0.15306122448979592,0.15306122448979592,0.1598639455782313,0.17346938775510204,0.19727891156462585,0.21428571428571427,0.23469387755102042,0.2585034013605442,0.2789115646258503,0.30612244897959184,0.3299319727891156,0.3707482993197279,0.445578231292517,0.46598639455782315,0.5272108843537415,0.5476190476190477,0.5680272108843537,0.5816326530612245,0.5986394557823129,0.6122448979591837,0.6224489795918368,0.6292517006802721,0.6394557823129252,0.6530612244897959,0.6666666666666666,0.6836734693877551,0.717687074829932,0.7380952380952381,0.7619047619047619,0.7789115646258503,0.7993197278911565,0.8129251700680272,0.826530612244898,0.8401360544217688,0.8435374149659864,0.8435374149659864,0.8435374149659864,0.8435374149659864,0.8435374149659864,0.8435374149659864,0.8401360544217688,0.8401360544217688,0.8401360544217688,0.8401360544217688,0.8401360544217688,0.8401360544217688,0.8401360544217688,0.8401360544217688,0.8401360544217688,0.8401360544217688,0.8401360544217688,0.8401360544217688,0.8401360544217688,0.826530612244898,0.8095238095238095,0.7891156462585034,0.7755102040816326,0.7653061224489796,0.7585034013605442,0.7517006802721088,0.7448979591836735,0.7380952380952381,0.7346938775510204,0.7312925170068028,0.7278911564625851,0.7278911564625851,0.7278911564625851,0.7278911564625851,0.7278911564625851,0.7278911564625851,0.7278911564625851,0.7278911564625851,0.7278911564625851,0.7278911564625851,0.7278911564625851,0.7278911564625851,0.7278911564625851,0.7278911564625851,0.7278911564625851,0.7278911564625851,0.7278911564625851,0.7278911564625851,0.7278911564625851,0.7278911564625851,0.7278911564625851,0.7278911564625851,0.7278911564625851,0.7278911564625851,0.7278911564625851,0.7278911564625851,0.7244897959183674,0.7074829931972789,0.6836734693877551,0.6666666666666666,0.6462585034013606,0.6326530612244898,0.6224489795918368,0.6156462585034014,0.6122448979591837,0.608843537414966,0.608843537414966,0.608843537414966,0.608843537414966,0.608843537414966,0.608843537414966,0.608843537414966,0.608843537414966,0.608843537414966,0.608843537414966,0.608843537414966,0.608843537414966,0.608843537414966,0.608843537414966,0.6054421768707483,0.5986394557823129,0.5884353741496599,0.5748299319727891,0.5612244897959183,0.5510204081632653,0.5408163265306123,0.5340136054421769,0.5306122448979592,0.5238095238095238,0.5238095238095238,0.5204081632653061,0.5170068027210885,0.5136054421768708,0.5102040816326531,0.5068027210884354,0.5034013605442177,0.5,0.4931972789115646,0.48639455782312924,0.48299319727891155,0.47278911564625853,0.46598639455782315,0.45918367346938777,0.45918367346938777,0.45918367346938777,0.45918367346938777,0.45918367346938777,0.45918367346938777,0.45918367346938777,0.45918367346938777,0.45918367346938777,0.45918367346938777,0.45918367346938777,0.45918367346938777,0.45918367346938777,0.45918367346938777,0.45918367346938777,0.45918367346938777,0.45918367346938777,0.45918367346938777,0.45918367346938777,0.45918367346938777,0.4523809523809524,0.43197278911564624,0.4013605442176871,0.3741496598639456,0.35714285714285715,0.3435374149659864,0.3299319727891156,0.3197278911564626,0.3163265306122449,0.3163265306122449,0.3129251700680272,0.3129251700680272,0.3129251700680272,0.3129251700680272,0.3129251700680272,0.3129251700680272,0.3129251700680272,0.3129251700680272,0.3129251700680272,0.3129251700680272,0.3129251700680272,0.3129251700680272,0.3129251700680272,0.3129251700680272,0.3163265306122449,0.3197278911564626,0.3333333333333333,0.3469387755102041,0.3843537414965986,0.40816326530612246,0.43197278911564624,0.4489795918367347,0.46258503401360546,0.47278911564625853,0.47959183673469385,0.47959183673469385,0.47959183673469385,0.47959183673469385,0.47959183673469385,0.47959183673469385,0.47959183673469385,0.47959183673469385,0.47959183673469385,0.47959183673469385,0.47959183673469385,0.47959183673469385,0.47959183673469385,0.47959183673469385,0.47959183673469385,0.47959183673469385,0.47959183673469385,0.46938775510204084,0.43537414965986393,0.41836734693877553,0.40476190476190477,0.3979591836734694,0.3979591836734694,0.3979591836734694,0.3979591836734694,0.40476190476190477,0.41156462585034015,0.42517006802721086,0.4421768707482993,0.45918367346938777,0.47959183673469385,0.5068027210884354,0.5238095238095238,0.5306122448979592,0.5306122448979592,0.5306122448979592,0.5374149659863946,0.5374149659863946,0.5374149659863946,0.5374149659863946,0.5374149659863946,0.5374149659863946,0.5374149659863946,0.5374149659863946,0.5374149659863946,0.5374149659863946,0.5374149659863946,0.5374149659863946,0.5374149659863946,0.5374149659863946,0.5476190476190477,0.5680272108843537,0.5952380952380952,0.6156462585034014,0.6530612244897959,0.6666666666666666,0.6802721088435374,0.6904761904761905,0.6972789115646258,0.7040816326530612,0.7074829931972789,0.7074829931972789,0.7074829931972789,0.7074829931972789,0.7074829931972789,0.7074829931972789,0.7074829931972789,0.7074829931972789,0.7074829931972789,0.7074829931972789,0.7074829931972789,0.7074829931972789,0.7074829931972789,0.7074829931972789,0.7074829931972789,0.7074829931972789,0.7074829931972789,0.7074829931972789,0.7074829931972789,0.7074829931972789,0.7074829931972789,0.7074829931972789,0.7108843537414966,0.717687074829932,0.7312925170068028,0.7448979591836735,0.7619047619047619,0.7857142857142857,0.8095238095238095,0.8299319727891157,0.8469387755102041,0.8639455782312925,0.8673469387755102,0.8673469387755102,0.8673469387755102,0.8673469387755102,0.8673469387755102,0.8673469387755102,0.8673469387755102,0.8673469387755102,0.8673469387755102,0.8673469387755102,0.8673469387755102,0.8673469387755102,0.8673469387755102,0.8673469387755102,0.8707482993197279,0.8809523809523809,0.8979591836734694,0.9251700680272109,0.9421768707482994,0.95578231292517,0.9761904761904762,0.9863945578231292,0.9965986394557823,1,1,1,1,1,1,1,1,1,1,1,1,1,1,1,1,1,1.0034013605442176,1.010204081632653,1.0204081632653061,1.034013605442177,1.0476190476190477,1.0578231292517006,1.0680272108843538,1.0782312925170068,1.0850340136054422,1.0918367346938775,1.098639455782313,1.1020408163265305,1.1054421768707483,1.1054421768707483,1.1088435374149659,1.1088435374149659,1.1088435374149659,1.1088435374149659,1.1088435374149659,1.1088435374149659,1.1088435374149659,1.1088435374149659,1.1088435374149659,1.1122448979591837,1.119047619047619,1.1224489795918366,1.1258503401360545,1.1258503401360545,1.129251700680272,1.1326530612244898,1.1326530612244898,1.1326530612244898,1.1326530612244898,1.1326530612244898,1.1326530612244898,1.1326530612244898,1.1326530612244898,1.1326530612244898,1.1326530612244898,1.1326530612244898,1.1326530612244898,1.1326530612244898,1.1326530612244898,1.1326530612244898,1.1326530612244898,1.129251700680272,1.119047619047619,1.1156462585034013,1.1054421768707483,1.0918367346938775,1.0850340136054422,1.0748299319727892,1.0680272108843538,1.064625850340136,1.0612244897959184,1.0578231292517006,1.054421768707483,1.0510204081632653,1.0476190476190477,1.0442176870748299,1.0408163265306123,1.0374149659863945,1.030612244897959,1.030612244897959,1.0272108843537415,1.0272108843537415,1.0272108843537415,1.0272108843537415,1.0272108843537415,1.0272108843537415,1.0272108843537415,1.0272108843537415,1.0272108843537415,1.0272108843537415,1.0272108843537415,1.0272108843537415,1.0272108843537415,1.0272108843537415,1.0272108843537415,1.0272108843537415,1.0272108843537415,1.0272108843537415,1.0272108843537415,1.0272108843537415,1.0272108843537415,1.0272108843537415,1.0272108843537415,1.0272108843537415,1.0272108843537415,1.0272108843537415,1.0272108843537415,1.0272108843537415,1.0272108843537415,1.0272108843537415,1.0272108843537415,1.0272108843537415,1.0272108843537415,1.0272108843537415,1.0272108843537415,1.0272108843537415,1.0272108843537415,1.0272108843537415,1.0272108843537415,1.0272108843537415,1.0272108843537415,1.0238095238095237,1.0170068027210883,1.010204081632653,0.9863945578231292,0.9591836734693877,0.9149659863945578,0.8401360544217688,0.7551020408163265,0.6938775510204082,0.608843537414966,0.5374149659863946,0.48299319727891155,0.445578231292517,0.4217687074829932,0.40476190476190477,0.3979591836734694,0.391156462585034,0.391156462585034,0.391156462585034,0.391156462585034,0.391156462585034,0.391156462585034,0.391156462585034,0.391156462585034,0.391156462585034,0.391156462585034,0.3945578231292517,0.3979591836734694,0.4013605442176871,0.40476190476190477,0.40816326530612246,0.41496598639455784,0.4217687074829932,0.43197278911564624,0.4421768707482993,0.4523809523809524,0.46598639455782315,0.47959183673469385,0.5,0.5068027210884354,0.5170068027210885,0.5204081632653061,0.5238095238095238,0.5272108843537415,0.5306122448979592,0.5340136054421769,0.5340136054421769,0.5374149659863946,0.5374149659863946,0.5374149659863946,0.5408163265306123,0.5408163265306123,0.54421768707483,0.5476190476190477,0.5510204081632653,0.5544217687074829,0.5612244897959183,0.5680272108843537,0.5714285714285714,0.5748299319727891,0.5782312925170068,0.5816326530612245,0.5816326530612245,0.5816326530612245,0.5816326530612245,0.5782312925170068,0.564625850340136,0.54421768707483,0.5204081632653061,0.4897959183673469,0.45918367346938777,0.42857142857142855,0.391156462585034,0.3707482993197279,0.35374149659863946,0.3401360544217687,0.3333333333333333,0.3299319727891156,0.32653061224489793,0.32653061224489793,0.3231292517006803,0.3197278911564626,0.30952380952380953,0.29931972789115646,0.2891156462585034,0.272108843537415,0.24829931972789115,0.23129251700680273,0.20068027210884354,0.1836734693877551,0.17346938775510204,0.16326530612244897,0.1598639455782313,0.1598639455782313,0.1598639455782313,0.1598639455782313,0.1598639455782313,0.1598639455782313,0.1598639455782313,0.1598639455782313,0.1598639455782313,0.1598639455782313,0.1598639455782313,0.1598639455782313,0.1598639455782313,0.1598639455782313,0.1598639455782313,0.1598639455782313,0.1598639455782313,0.1598639455782313,0.1598639455782313,0.1598639455782313,0.1598639455782313,0.1598639455782313,0.1598639455782313,0.1598639455782313,0.1598639455782313,0.1598639455782313,0.1598639455782313,0.1598639455782313,0.16326530612244897,0.16326530612244897,0.16326530612244897,0.16666666666666666,0.17006802721088435,0.17346938775510204,0.17687074829931973,0.1870748299319728,0.19727891156462585,0.2108843537414966,0.22448979591836735,0.24149659863945577,0.2585034013605442,0.2789115646258503,0.29591836734693877,0.3197278911564626,0.3435374149659864,0.38095238095238093,0.40816326530612246,0.43537414965986393,0.45918367346938777,0.48299319727891155,0.5034013605442177,0.5136054421768708,0.5272108843537415,0.5340136054421769,0.5374149659863946,0.5374149659863946,0.5374149659863946,0.5374149659863946,0.5374149659863946,0.5374149659863946,0.5374149659863946,0.5374149659863946,0.5374149659863946,0.5374149659863946,0.5374149659863946,0.5374149659863946,0.5374149659863946,0.5374149659863946,0.5374149659863946,0.5374149659863946,0.5374149659863946,0.5374149659863946,0.5374149659863946,0.5374149659863946,0.5374149659863946,0.5374149659863946,0.5374149659863946,0.5374149659863946,0.5374149659863946,0.5374149659863946,0.5374149659863946,0.5374149659863946,0.5374149659863946,0.5374149659863946,0.5374149659863946,0.5374149659863946,0.5374149659863946,0.5374149659863946,0.5374149659863946,0.5374149659863946,0.5374149659863946,0.5374149659863946,0.5374149659863946,0.5374149659863946,0.5374149659863946,0.5374149659863946,0.5374149659863946,0.5374149659863946,0.5374149659863946,0.5374149659863946,0.5374149659863946,0.5374149659863946,0.5374149659863946,0.5374149659863946,0.5374149659863946,0.5374149659863946,0.5374149659863946,0.5374149659863946,0.5374149659863946,0.5374149659863946,0.5374149659863946,0.5374149659863946,0.5374149659863946,0.5374149659863946,0.5374149659863946,0.5374149659863946,0.5374149659863946,0.5374149659863946,0.5374149659863946,0.5374149659863946,0.5374149659863946,0.5374149659863946,0.5374149659863946,0.5374149659863946,0.5374149659863946,0.5374149659863946,0.5374149659863946,0.5374149659863946,0.5374149659863946],"y":[-3.4761904761904763,-3.4761904761904763,-3.4761904761904763,-3.4761904761904763,-3.4761904761904763,-3.4761904761904763,0.9333333333333333,0.9428571428571428,1.0095238095238095,1.0571428571428572,1.1047619047619048,1.1238095238095238,1.1428571428571428,1.1523809523809523,1.161904761904762,1.161904761904762,1.161904761904762,1.161904761904762,1.1523809523809523,1.1047619047619048,1.019047619047619,0.9047619047619048,0.7523809523809524,0.580952380952381,0.4095238095238095,0.18095238095238095,0.047619047619047616,-0.0380952380952381,-0.13333333333333333,-0.20952380952380953,-0.24761904761904763,-0.29523809523809524,-0.29523809523809524,-0.29523809523809524,-0.29523809523809524,-0.29523809523809524,-0.29523809523809524,-0.29523809523809524,-0.29523809523809524,-0.29523809523809524,-0.29523809523809524,-0.29523809523809524,-0.29523809523809524,-0.29523809523809524,-0.21904761904761905,-0.05714285714285714,0.0761904761904762,0.2571428571428571,0.42857142857142855,0.5238095238095238,0.6666666666666666,0.7619047619047619,0.8380952380952381,0.9142857142857143,0.9523809523809523,0.9714285714285714,0.9809523809523809,0.9809523809523809,0.9809523809523809,0.9809523809523809,0.9714285714285714,0.9238095238095239,0.7714285714285715,0.44761904761904764,0.1619047619047619,-0.11428571428571428,-0.23809523809523808,-0.4,-0.5047619047619047,-0.580952380952381,-0.638095238095238,-0.6857142857142857,-0.7142857142857143,-0.7333333333333333,-0.7333333333333333,-0.7333333333333333,-0.7333333333333333,-0.7333333333333333,-0.7047619047619048,-0.6571428571428571,-0.580952380952381,-0.44761904761904764,-0.3523809523809524,-0.24761904761904763,-0.18095238095238095,-0.12380952380952381,-0.0761904761904762,-0.05714285714285714,-0.047619047619047616,-0.047619047619047616,-0.047619047619047616,-0.047619047619047616,-0.047619047619047616,-0.047619047619047616,-0.047619047619047616,-0.05714285714285714,-0.06666666666666667,-0.06666666666666667,-0.0761904761904762,-0.0761904761904762,-0.0761904761904762,-0.08571428571428572,-0.08571428571428572,-0.08571428571428572,-0.09523809523809523,-0.10476190476190476,-0.10476190476190476,-0.10476190476190476,-0.10476190476190476,-0.10476190476190476,-0.10476190476190476,-0.09523809523809523,-0.05714285714285714,-0.009523809523809525,-0.009523809523809525,-0.009523809523809525,-0.009523809523809525,-0.009523809523809525,-0.009523809523809525,-0.009523809523809525,-0.009523809523809525,-0.009523809523809525,-0.009523809523809525,-0.009523809523809525,-0.009523809523809525,-0.009523809523809525,-0.009523809523809525,-0.009523809523809525,-0.009523809523809525,-0.009523809523809525,-0.009523809523809525,-0.009523809523809525,-0.009523809523809525,-0.009523809523809525,-0.009523809523809525,-0.009523809523809525,-0.009523809523809525,-0.009523809523809525,-0.009523809523809525,-0.009523809523809525,-0.009523809523809525,-0.009523809523809525,-0.009523809523809525,-0.009523809523809525,-0.009523809523809525,-0.01904761904761905,-0.047619047619047616,-0.0761904761904762,-0.10476190476190476,-0.12380952380952381,-0.12380952380952381,-0.12380952380952381,-0.12380952380952381,-0.11428571428571428,-0.09523809523809523,-0.09523809523809523,-0.09523809523809523,-0.09523809523809523,-0.09523809523809523,-0.09523809523809523,-0.09523809523809523,-0.09523809523809523,-0.09523809523809523,-0.09523809523809523,-0.09523809523809523,-0.09523809523809523,-0.09523809523809523,-0.09523809523809523,-0.09523809523809523,-0.09523809523809523,-0.09523809523809523,-0.09523809523809523,-0.09523809523809523,-0.0761904761904762,-0.0761904761904762,-0.06666666666666667,-0.06666666666666667,-0.06666666666666667,-0.05714285714285714,-0.047619047619047616,-0.02857142857142857,-0.01904761904761905,0,0.01904761904761905,0.047619047619047616,0.0761904761904762,0.10476190476190476,0.13333333333333333,0.1619047619047619,0.18095238095238095,0.19047619047619047,0.20952380952380953,0.21904761904761905,0.23809523809523808,0.24761904761904763,0.2571428571428571,0.2857142857142857,0.3047619047619048,0.34285714285714286,0.37142857142857144,0.4,0.41904761904761906,0.42857142857142855,0.4380952380952381,0.4380952380952381,0.4380952380952381,0.4380952380952381,0.4380952380952381,0.4380952380952381,0.4380952380952381,0.4380952380952381,0.4380952380952381,0.4380952380952381,0.4380952380952381,0.4380952380952381,0.4380952380952381,0.4380952380952381,0.4380952380952381,0.4380952380952381,0.4380952380952381,0.4380952380952381,0.4380952380952381,0.4380952380952381,0.4380952380952381,0.4380952380952381,0.4380952380952381,0.4380952380952381,0.4380952380952381,0.4380952380952381,0.4380952380952381,0.4380952380952381,0.4380952380952381,0.4380952380952381,0.4380952380952381,0.4380952380952381,0.4380952380952381,0.4380952380952381,0.44761904761904764,0.4666666666666667,0.47619047619047616,0.4857142857142857,0.49523809523809526,0.49523809523809526,0.49523809523809526,0.49523809523809526,0.49523809523809526,0.49523809523809526,0.49523809523809526,0.49523809523809526,0.49523809523809526,0.49523809523809526,0.49523809523809526,0.49523809523809526,0.49523809523809526,0.49523809523809526,0.49523809523809526,0.49523809523809526,0.49523809523809526,0.49523809523809526,0.49523809523809526,0.49523809523809526,0.49523809523809526,0.49523809523809526,0.49523809523809526,0.49523809523809526,0.49523809523809526,0.49523809523809526,0.49523809523809526,0.49523809523809526,0.49523809523809526,0.49523809523809526,0.49523809523809526,0.49523809523809526,0.49523809523809526,0.49523809523809526,0.49523809523809526,0.4857142857142857,0.4857142857142857,0.47619047619047616,0.4666666666666667,0.45714285714285713,0.4380952380952381,0.4095238095238095,0.38095238095238093,0.3333333333333333,0.2857142857142857,0.2,0.0761904761904762,0,-0.09523809523809523,-0.18095238095238095,-0.21904761904761905,-0.23809523809523808,-0.24761904761904763,-0.24761904761904763,-0.24761904761904763,-0.24761904761904763,-0.22857142857142856,-0.20952380952380953,-0.17142857142857143,-0.14285714285714285,-0.11428571428571428,-0.0380952380952381,0.02857142857142857,0.0761904761904762,0.13333333333333333,0.1619047619047619,0.18095238095238095,0.19047619047619047,0.19047619047619047,0.19047619047619047,0.19047619047619047,0.19047619047619047,0.19047619047619047,0.2,0.2,0.2,0.2,0.2,0.2,0.2,0.2,0.2,0.2,0.2,0.2,0.2,0.20952380952380953,0.22857142857142856,0.24761904761904763,0.26666666666666666,0.2857142857142857,0.3142857142857143,0.34285714285714286,0.3619047619047619,0.38095238095238093,0.4,0.41904761904761906,0.42857142857142855,0.45714285714285713,0.4666666666666667,0.47619047619047616,0.49523809523809526,0.5047619047619047,0.5047619047619047,0.5142857142857142,0.5142857142857142,0.5142857142857142,0.5142857142857142,0.5142857142857142,0.5142857142857142,0.5142857142857142,0.5142857142857142,0.5142857142857142,0.5142857142857142,0.5142857142857142,0.5142857142857142,0.5142857142857142,0.5142857142857142,0.5142857142857142,0.5142857142857142,0.5142857142857142,0.5142857142857142,0.5142857142857142,0.5142857142857142,0.5142857142857142,0.5142857142857142,0.5142857142857142,0.5142857142857142,0.5142857142857142,0.5142857142857142,0.5142857142857142,0.5142857142857142,0.5142857142857142,0.5142857142857142,0.5142857142857142,0.5142857142857142,0.5047619047619047,0.5047619047619047,0.49523809523809526,0.49523809523809526,0.4857142857142857,0.4857142857142857,0.47619047619047616,0.47619047619047616,0.47619047619047616,0.47619047619047616,0.47619047619047616,0.47619047619047616,0.47619047619047616,0.47619047619047616,0.47619047619047616,0.4666666666666667,0.4666666666666667,0.4666666666666667,0.4666666666666667,0.4666666666666667,0.4666666666666667,0.4666666666666667,0.4666666666666667,0.4666666666666667,0.4666666666666667,0.4666666666666667,0.4666666666666667,0.4666666666666667,0.4666666666666667,0.45714285714285713,0.41904761904761906,0.38095238095238093,0.3333333333333333,0.29523809523809524,0.2571428571428571,0.22857142857142856,0.18095238095238095,0.14285714285714285,0.12380952380952381,0.10476190476190476,0.0761904761904762,0.05714285714285714,0.02857142857142857,-0.009523809523809525,-0.009523809523809525,-0.009523809523809525,-0.009523809523809525,-0.009523809523809525,-0.009523809523809525,-0.009523809523809525,-0.009523809523809525,-0.009523809523809525,-0.009523809523809525,-0.009523809523809525,-0.009523809523809525,-0.009523809523809525,-0.009523809523809525,-0.009523809523809525,-0.009523809523809525,-0.009523809523809525,-0.009523809523809525,-0.01904761904761905,-0.01904761904761905,-0.0380952380952381,-0.047619047619047616,-0.047619047619047616,-0.047619047619047616,-0.05714285714285714,-0.05714285714285714,-0.05714285714285714,-0.05714285714285714,-0.05714285714285714,-0.05714285714285714,-0.05714285714285714,-0.05714285714285714,-0.05714285714285714,-0.05714285714285714,-0.05714285714285714,-0.05714285714285714,-0.05714285714285714,-0.05714285714285714,-0.05714285714285714,-0.05714285714285714,-0.05714285714285714,-0.047619047619047616,-0.047619047619047616,-0.047619047619047616,-0.0380952380952381,-0.0380952380952381,-0.02857142857142857,-0.02857142857142857,-0.01904761904761905,-0.009523809523809525,-0.009523809523809525,0,0.009523809523809525,0.01904761904761905,0.01904761904761905,0.01904761904761905,0.01904761904761905,0.01904761904761905,0.01904761904761905,0.01904761904761905,0.01904761904761905,0.01904761904761905,0.01904761904761905,0.01904761904761905,0.01904761904761905,0.01904761904761905,0.01904761904761905,0.01904761904761905,0.01904761904761905,0.01904761904761905,0.01904761904761905,0.01904761904761905,0.01904761904761905,0.01904761904761905,0.01904761904761905,0.01904761904761905,0.01904761904761905,0.01904761904761905,0.01904761904761905,0.01904761904761905,0.01904761904761905,0.01904761904761905,0.01904761904761905,0.01904761904761905,0.01904761904761905,0.01904761904761905,0.01904761904761905,0.01904761904761905,0.01904761904761905,0.01904761904761905,0.01904761904761905,0.01904761904761905,0.01904761904761905,0.01904761904761905,0.01904761904761905,0.01904761904761905,0.01904761904761905,0.01904761904761905,0.01904761904761905,0.01904761904761905,0.01904761904761905,0.01904761904761905,0.01904761904761905,0.01904761904761905,0.01904761904761905,0.01904761904761905,0.01904761904761905,0.01904761904761905,0.01904761904761905,0.01904761904761905,0.01904761904761905,0.01904761904761905,0.01904761904761905,0.01904761904761905,0.01904761904761905,0.01904761904761905,0.01904761904761905,0.01904761904761905,0.01904761904761905,0.01904761904761905,0.02857142857142857,0.02857142857142857,0.02857142857142857,0.0380952380952381,0.0380952380952381,0.0380952380952381,0.0380952380952381,0.0380952380952381,0.047619047619047616,0.047619047619047616,0.05714285714285714,0.05714285714285714,0.06666666666666667,0.0761904761904762,0.08571428571428572,0.10476190476190476,0.12380952380952381,0.1523809523809524,0.18095238095238095,0.21904761904761905,0.2857142857142857,0.3333333333333333,0.3904761904761905,0.42857142857142855,0.47619047619047616,0.5142857142857142,0.5428571428571428,0.5619047619047619,0.5714285714285714,0.580952380952381,0.5904761904761905,0.5904761904761905,0.5904761904761905,0.5904761904761905,0.5904761904761905,0.5904761904761905,0.5904761904761905,0.5904761904761905,0.5904761904761905,0.5904761904761905,0.5904761904761905,0.5904761904761905,0.5904761904761905,0.5904761904761905,0.5904761904761905,0.5904761904761905,0.5904761904761905,0.5904761904761905,0.5904761904761905,0.5904761904761905,0.5904761904761905,0.5904761904761905,0.5904761904761905,0.6095238095238096,0.6190476190476191,0.638095238095238,0.6666666666666666,0.6857142857142857,0.7238095238095238,0.7523809523809524,0.7714285714285715,0.7904761904761904,0.8095238095238095,0.8095238095238095,0.819047619047619,0.819047619047619,0.819047619047619,0.819047619047619,0.819047619047619,0.819047619047619,0.819047619047619,0.819047619047619,0.819047619047619,0.819047619047619,0.819047619047619,0.819047619047619,0.819047619047619,0.819047619047619,0.819047619047619,0.819047619047619,0.819047619047619,0.819047619047619,0.819047619047619,0.819047619047619,0.819047619047619,0.819047619047619,0.819047619047619,0.819047619047619,0.819047619047619,0.819047619047619,0.8285714285714286,0.8380952380952381,0.8476190476190476,0.8571428571428571,0.8571428571428571,0.8666666666666667,0.8761904761904762,0.8761904761904762,0.8857142857142857,0.8952380952380953,0.8952380952380953,0.9047619047619048,0.9142857142857143,0.9238095238095239,0.9238095238095239,0.9333333333333333,0.9333333333333333,0.9428571428571428,0.9428571428571428,0.9428571428571428,0.9428571428571428,0.9428571428571428,0.9428571428571428,0.9428571428571428,0.9428571428571428,0.9428571428571428,0.9428571428571428,0.9428571428571428,0.9428571428571428,0.9428571428571428,0.9428571428571428,0.9428571428571428,0.9428571428571428,0.9428571428571428,0.9428571428571428,0.9428571428571428,0.9428571428571428,0.9428571428571428,0.9428571428571428,0.9428571428571428,0.9428571428571428,0.9428571428571428,0.9523809523809523,0.9523809523809523,0.9619047619047619,0.9714285714285714,0.9714285714285714,0.9809523809523809,0.9904761904761905,1,1.019047619047619,1.0285714285714285,1.0476190476190477,1.0761904761904761,1.1333333333333333,1.180952380952381,1.2285714285714286,1.2857142857142858,1.3238095238095238,1.361904761904762,1.3904761904761904,1.4095238095238096,1.4285714285714286,1.4285714285714286,1.438095238095238,1.438095238095238,1.4666666666666666,1.4666666666666666,1.4666666666666666,1.4666666666666666,1.4666666666666666,1.4666666666666666,1.4666666666666666,1.4666666666666666,1.4666666666666666,1.4666666666666666,1.4666666666666666,1.4666666666666666,1.4666666666666666,1.4666666666666666,1.4666666666666666,1.457142857142857,1.4095238095238096,1.3523809523809525,1.2571428571428571,1.180952380952381,1.0857142857142856,1,0.9333333333333333,0.8666666666666667,0.7904761904761904,0.7428571428571429,0.7047619047619048,0.6761904761904762,0.6476190476190476,0.6095238095238096,0.5714285714285714,0.5428571428571428,0.5142857142857142,0.4857142857142857,0.45714285714285713,0.4380952380952381,0.4095238095238095,0.4,0.3904761904761905,0.38095238095238093,0.38095238095238093,0.37142857142857144,0.37142857142857144,0.3619047619047619,0.3619047619047619,0.3619047619047619,0.3619047619047619,0.3619047619047619,0.3619047619047619,0.3619047619047619,0.3619047619047619,0.3619047619047619,0.3619047619047619,0.3619047619047619,0.3619047619047619,0.3619047619047619,0.3619047619047619,0.3619047619047619,0.3619047619047619,0.3619047619047619,0.37142857142857144,0.37142857142857144,0.38095238095238093,0.3904761904761905,0.3904761904761905,0.4,0.4,0.4095238095238095,0.41904761904761906,0.41904761904761906,0.41904761904761906,0.42857142857142855,0.42857142857142855,0.42857142857142855,0.42857142857142855,0.42857142857142855,0.42857142857142855,0.42857142857142855,0.42857142857142855,0.42857142857142855,0.42857142857142855,0.42857142857142855,0.42857142857142855,0.42857142857142855,0.42857142857142855,0.42857142857142855,0.42857142857142855,0.41904761904761906,0.4,0.37142857142857144,0.3523809523809524,0.3333333333333333,0.3142857142857143,0.3047619047619048,0.29523809523809524,0.29523809523809524,0.29523809523809524,0.29523809523809524,0.29523809523809524,0.29523809523809524,0.29523809523809524,0.29523809523809524,0.29523809523809524,0.29523809523809524,0.29523809523809524,0.29523809523809524,0.29523809523809524,0.29523809523809524,0.3047619047619048,0.3238095238095238,0.3523809523809524,0.3619047619047619,0.3619047619047619,0.3619047619047619,0.3619047619047619,0.3619047619047619,0.34285714285714286,0.3333333333333333,0.3333333333333333,0.3333333333333333,0.3333333333333333,0.3333333333333333,0.3333333333333333,0.3238095238095238,0.3238095238095238,0.3238095238095238,0.3238095238095238,0.3238095238095238,0.3333333333333333,0.3523809523809524,0.37142857142857144,0.3904761904761905,0.4095238095238095,0.41904761904761906,0.42857142857142855,0.42857142857142855,0.42857142857142855,0.42857142857142855,0.42857142857142855,0.42857142857142855,0.42857142857142855,0.42857142857142855,0.42857142857142855,0.42857142857142855,0.42857142857142855,0.42857142857142855,0.42857142857142855,0.42857142857142855,0.42857142857142855,0.42857142857142855,0.42857142857142855,0.42857142857142855,0.42857142857142855,0.42857142857142855,0.42857142857142855,0.42857142857142855,0.42857142857142855,0.42857142857142855,0.42857142857142855,0.42857142857142855,0.42857142857142855,0.42857142857142855,0.42857142857142855,0.42857142857142855,0.42857142857142855,0.42857142857142855,0.42857142857142855,0.42857142857142855,0.42857142857142855,0.42857142857142855,0.4380952380952381,0.4380952380952381,0.4380952380952381,0.4380952380952381,0.44761904761904764,0.44761904761904764,0.44761904761904764,0.45714285714285713,0.45714285714285713,0.45714285714285713,0.4666666666666667,0.4666666666666667,0.47619047619047616,0.47619047619047616,0.4857142857142857,0.49523809523809526,0.49523809523809526,0.5047619047619047,0.5047619047619047,0.5047619047619047,0.5047619047619047,0.5047619047619047,0.5047619047619047,0.5047619047619047,0.5047619047619047,0.5047619047619047,0.5047619047619047,0.5047619047619047,0.5047619047619047,0.5047619047619047,0.5047619047619047,0.5047619047619047,0.5047619047619047,0.5047619047619047,0.5047619047619047,0.5142857142857142,0.5523809523809524,0.5714285714285714,0.6,0.638095238095238,0.6571428571428571,0.6666666666666666,0.6857142857142857,0.6952380952380952,0.7142857142857143,0.7238095238095238,0.7333333333333333,0.7428571428571429,0.7523809523809524,0.7619047619047619,0.7714285714285715,0.7904761904761904,0.8,0.8095238095238095,0.8285714285714286,0.8380952380952381,0.8476190476190476,0.8571428571428571,0.8571428571428571,0.8666666666666667,0.8761904761904762,0.8761904761904762,0.8761904761904762,0.8761904761904762,0.8761904761904762,0.8761904761904762,0.8761904761904762,0.8857142857142857,0.8857142857142857,0.8857142857142857,0.8857142857142857,0.8857142857142857,0.8857142857142857,0.8857142857142857,0.8857142857142857,0.8857142857142857,0.8952380952380953,0.8952380952380953,0.8952380952380953,0.8952380952380953,0.8952380952380953,0.8952380952380953,0.8952380952380953,0.8952380952380953,0.8952380952380953,0.8952380952380953,0.8952380952380953,0.8952380952380953,0.8952380952380953,0.8952380952380953,0.8952380952380953,0.8952380952380953,0.8952380952380953,0.8952380952380953,0.8952380952380953,0.8952380952380953,0.8952380952380953,0.8952380952380953,0.8952380952380953,0.8952380952380953,0.8952380952380953,0.8952380952380953,0.8952380952380953,0.8952380952380953,0.8952380952380953,0.8952380952380953,0.8952380952380953,0.8952380952380953,0.8952380952380953,0.8952380952380953,0.8952380952380953,0.8952380952380953,0.8952380952380953,0.8952380952380953,0.8952380952380953,0.8952380952380953,0.8952380952380953,0.8952380952380953,0.8952380952380953,0.8952380952380953,0.8952380952380953,0.8952380952380953,0.8857142857142857,0.8761904761904762,0.8571428571428571,0.8380952380952381,0.819047619047619,0.7904761904761904,0.7619047619047619,0.7333333333333333,0.7047619047619048,0.6857142857142857,0.6571428571428571,0.638095238095238,0.6095238095238096,0.5714285714285714,0.5428571428571428,0.5238095238095238,0.5142857142857142,0.5142857142857142,0.5142857142857142,0.5142857142857142,0.5142857142857142,0.5142857142857142,0.5142857142857142,0.5142857142857142,0.5142857142857142,0.5142857142857142,0.5142857142857142,0.5142857142857142,0.5142857142857142,0.5142857142857142,0.5142857142857142,0.5142857142857142,0.5142857142857142,0.5142857142857142,0.5142857142857142,0.5142857142857142,0.5142857142857142,0.5142857142857142,0.5142857142857142,0.5142857142857142,0.5142857142857142,0.5142857142857142,0.5142857142857142,0.5142857142857142,0.5142857142857142,0.5142857142857142,0.5142857142857142,0.5142857142857142,0.5238095238095238,0.5238095238095238,0.5333333333333333,0.5428571428571428,0.5714285714285714,0.6,0.6285714285714286,0.6666666666666666,0.7047619047619048,0.7238095238095238,0.780952380952381,0.8095238095238095,0.8476190476190476,0.8761904761904762,0.9047619047619048,0.9238095238095239,0.9523809523809523,0.9619047619047619,0.9619047619047619,0.9714285714285714,0.9714285714285714,0.9714285714285714,0.9714285714285714,0.9714285714285714,0.9714285714285714,0.9714285714285714,0.9714285714285714,0.9714285714285714,0.9714285714285714,0.9714285714285714,0.9714285714285714,0.9714285714285714,0.9714285714285714,0.9714285714285714,0.9714285714285714,0.9714285714285714,0.9714285714285714,0.9714285714285714,0.9714285714285714,0.9714285714285714,0.9714285714285714,0.9714285714285714,0.9714285714285714,0.9714285714285714,0.9809523809523809,0.9904761904761905,1,1,1,1,0.9904761904761905,0.9523809523809523,0.8476190476190476,0.819047619047619,0.7142857142857143,0.6761904761904762,0.6476190476190476,0.6095238095238096,0.5904761904761905,0.5714285714285714,0.5619047619047619,0.5523809523809524,0.5523809523809524,0.5333333333333333,0.5238095238095238,0.5142857142857142,0.5047619047619047,0.49523809523809526,0.49523809523809526,0.4857142857142857,0.47619047619047616,0.47619047619047616,0.47619047619047616,0.47619047619047616,0.47619047619047616,0.47619047619047616,0.47619047619047616,0.47619047619047616,0.47619047619047616,0.47619047619047616,0.47619047619047616,0.47619047619047616,0.47619047619047616,0.47619047619047616,0.47619047619047616,0.47619047619047616,0.47619047619047616,0.47619047619047616,0.47619047619047616,0.47619047619047616,0.47619047619047616,0.47619047619047616,0.47619047619047616,0.47619047619047616,0.47619047619047616,0.47619047619047616,0.47619047619047616,0.47619047619047616,0.47619047619047616,0.47619047619047616,0.47619047619047616,0.47619047619047616,0.47619047619047616,0.47619047619047616,0.47619047619047616,0.47619047619047616,0.47619047619047616,0.47619047619047616,0.47619047619047616,0.47619047619047616,0.47619047619047616,0.47619047619047616,0.47619047619047616,0.47619047619047616,0.47619047619047616,0.47619047619047616,0.47619047619047616,0.47619047619047616,0.47619047619047616,0.47619047619047616,0.47619047619047616,0.47619047619047616,0.47619047619047616,0.47619047619047616,0.47619047619047616,0.47619047619047616,0.47619047619047616,0.47619047619047616,0.47619047619047616,0.47619047619047616,0.47619047619047616,0.47619047619047616,0.47619047619047616,0.47619047619047616,0.47619047619047616,0.47619047619047616,0.47619047619047616,0.47619047619047616,0.47619047619047616,0.47619047619047616,0.47619047619047616,0.47619047619047616,0.47619047619047616,0.47619047619047616,0.47619047619047616,0.47619047619047616,0.47619047619047616,0.47619047619047616,0.47619047619047616,0.47619047619047616,0.47619047619047616,0.47619047619047616,0.47619047619047616,0.47619047619047616,0.47619047619047616,0.47619047619047616,0.47619047619047616,0.47619047619047616,0.47619047619047616,0.47619047619047616,0.47619047619047616,0.47619047619047616,0.4857142857142857,0.4857142857142857,0.4857142857142857,0.4857142857142857,0.4857142857142857,0.4857142857142857,0.4857142857142857,0.4857142857142857,0.4857142857142857,0.4857142857142857,0.4857142857142857,0.4857142857142857,0.4857142857142857,0.4857142857142857,0.4857142857142857,0.4857142857142857,0.4857142857142857,0.4857142857142857,0.4857142857142857,0.4857142857142857,0.4857142857142857,0.4857142857142857,0.4857142857142857,0.4857142857142857,0.4857142857142857,0.4857142857142857,0.4857142857142857,0.4857142857142857,0.4857142857142857,0.4857142857142857,0.4857142857142857,0.4857142857142857,0.4857142857142857,0.4857142857142857,0.4666666666666667,0.42857142857142855,0.3619047619047619,0.29523809523809524,0.23809523809523808,0.19047619047619047,0.14285714285714285,0.11428571428571428,0.09523809523809523,0.08571428571428572,0.0761904761904762,0.0761904761904762,0.0761904761904762,0.0761904761904762,0.0761904761904762,0.0761904761904762,0.0761904761904762,0.0761904761904762,0.0761904761904762,0.0761904761904762,0.0761904761904762,0.0761904761904762,0.0761904761904762,0.0761904761904762,0.0761904761904762,0.0761904761904762,0.0761904761904762,0.0761904761904762,0.05714285714285714,0.0380952380952381,0.02857142857142857,0.01904761904761905,0.01904761904761905,0.01904761904761905,0.01904761904761905,0.01904761904761905,0.01904761904761905,0.01904761904761905,0.01904761904761905,0.01904761904761905,0.01904761904761905,0.01904761904761905,0.01904761904761905,0.01904761904761905,0.01904761904761905,0.01904761904761905,0.01904761904761905,0.01904761904761905,0.01904761904761905,0.01904761904761905,0.01904761904761905,0.01904761904761905,0,-0.01904761904761905,-0.02857142857142857,-0.0380952380952381,-0.0380952380952381,-0.047619047619047616,-0.047619047619047616,-0.047619047619047616,-0.047619047619047616,-0.047619047619047616,-0.047619047619047616,-0.047619047619047616,-0.047619047619047616,-0.047619047619047616,-0.0380952380952381,-0.0380952380952381,-0.0380952380952381,-0.0380952380952381,-0.0380952380952381,-0.0380952380952381,-0.0380952380952381,-0.0380952380952381,-0.0380952380952381,-0.0380952380952381,-0.0380952380952381,-0.0380952380952381,-0.0380952380952381,-0.0380952380952381,-0.0380952380952381,-0.0380952380952381,-0.0380952380952381,-0.0380952380952381,-0.0380952380952381,-0.0380952380952381,-0.0380952380952381,-0.0380952380952381,-0.02857142857142857,-0.02857142857142857,-0.01904761904761905,-0.01904761904761905,-0.01904761904761905,-0.01904761904761905,-0.01904761904761905,-0.01904761904761905,-0.01904761904761905,-0.01904761904761905,-0.01904761904761905,-0.01904761904761905,-0.01904761904761905,-0.01904761904761905,-0.01904761904761905,-0.01904761904761905,-0.01904761904761905,-0.01904761904761905,-0.01904761904761905,-0.01904761904761905,-0.01904761904761905,-0.01904761904761905,-0.01904761904761905,-0.01904761904761905,-0.01904761904761905,-0.01904761904761905,-0.01904761904761905,-0.01904761904761905,-0.01904761904761905,-0.01904761904761905,-0.01904761904761905,-0.01904761904761905,-0.01904761904761905,-0.01904761904761905,-0.01904761904761905,-0.01904761904761905,-0.01904761904761905,-0.01904761904761905,-0.01904761904761905,-0.01904761904761905,-0.01904761904761905,-0.01904761904761905,-0.01904761904761905,-0.01904761904761905,-0.01904761904761905,-0.01904761904761905,-0.01904761904761905,-0.01904761904761905,-0.01904761904761905,-0.01904761904761905,-0.01904761904761905,-0.01904761904761905,-0.01904761904761905,-0.01904761904761905,-0.01904761904761905,-0.01904761904761905,-0.01904761904761905,-0.01904761904761905,-0.01904761904761905,-0.01904761904761905,-0.01904761904761905,-0.01904761904761905,-0.01904761904761905,-0.01904761904761905,-0.01904761904761905,-0.01904761904761905,-0.01904761904761905,-0.01904761904761905,-0.01904761904761905,-0.01904761904761905,-0.01904761904761905,-0.01904761904761905,-0.01904761904761905,-0.01904761904761905,-0.01904761904761905,-0.01904761904761905,-0.01904761904761905,-0.01904761904761905,-0.01904761904761905,-0.01904761904761905,-0.01904761904761905,-0.01904761904761905,-0.01904761904761905,-0.01904761904761905,-0.01904761904761905,-0.01904761904761905,-0.01904761904761905,-0.01904761904761905,-0.01904761904761905,-0.01904761904761905,-0.009523809523809525,-0.009523809523809525,-0.009523809523809525,-0.009523809523809525,-0.009523809523809525,-0.009523809523809525,-0.009523809523809525,0,0.0380952380952381,0.10476190476190476,0.14285714285714285,0.18095238095238095,0.23809523809523808,0.29523809523809524,0.3238095238095238,0.3619047619047619,0.38095238095238093,0.4,0.4095238095238095,0.4095238095238095,0.4095238095238095,0.4095238095238095,0.4095238095238095,0.4095238095238095,0.4095238095238095,0.4095238095238095,0.4095238095238095,0.4095238095238095,0.4095238095238095,0.4095238095238095,0.4095238095238095,0.4095238095238095,0.41904761904761906,0.47619047619047616,0.5238095238095238,0.580952380952381,0.6571428571428571,0.7619047619047619,0.819047619047619,0.8952380952380953,0.9238095238095239,0.9619047619047619,0.9714285714285714,0.9809523809523809,0.9904761904761905,0.9904761904761905,0.9904761904761905,0.9904761904761905,0.9904761904761905,0.9904761904761905,0.9904761904761905,0.9904761904761905,0.9904761904761905,0.9809523809523809,0.9809523809523809,0.9809523809523809,0.9809523809523809,0.9809523809523809,0.9809523809523809,0.9809523809523809,0.9809523809523809,0.9809523809523809,0.9809523809523809,0.9809523809523809,0.9809523809523809,0.9809523809523809,0.9809523809523809,0.9809523809523809,0.9809523809523809,0.9809523809523809,0.9809523809523809,0.9809523809523809,0.9809523809523809,0.9809523809523809,0.9809523809523809,0.9809523809523809,0.9809523809523809,0.9809523809523809,0.9809523809523809,0.9809523809523809,0.9809523809523809,0.9809523809523809,0.9809523809523809,0.9809523809523809,0.9809523809523809,0.9809523809523809,0.9809523809523809,0.9809523809523809,0.9809523809523809,0.9809523809523809,0.9904761904761905,0.9904761904761905,0.9904761904761905,0.9904761904761905,0.9904761904761905,0.9904761904761905,0.9904761904761905,0.9809523809523809,0.9619047619047619,0.9333333333333333,0.8952380952380953,0.8666666666666667,0.7904761904761904,0.7333333333333333,0.6857142857142857,0.6285714285714286,0.5904761904761905,0.5523809523809524,0.5238095238095238,0.49523809523809526,0.4666666666666667,0.44761904761904764,0.42857142857142855,0.41904761904761906,0.4095238095238095,0.4095238095238095,0.4095238095238095,0.4095238095238095,0.4095238095238095,0.45714285714285713,0.49523809523809526,0.5333333333333333,0.5619047619047619,0.6,0.638095238095238,0.6761904761904762,0.7428571428571429,0.7904761904761904,0.8285714285714286,0.8761904761904762,0.9142857142857143,0.9619047619047619,0.9809523809523809,0.9904761904761905,1,1,1,1.0095238095238095,1.0095238095238095,1.0095238095238095,1.0095238095238095,1.0095238095238095,1.0095238095238095,0.9904761904761905,0.9714285714285714,0.9619047619047619,0.9428571428571428,0.9238095238095239,0.8952380952380953,0.8666666666666667,0.8380952380952381,0.819047619047619,0.8,0.7904761904761904,0.780952380952381,0.7619047619047619,0.7619047619047619,0.7523809523809524,0.7428571428571429,0.7142857142857143,0.6761904761904762,0.6190476190476191,0.5428571428571428,0.45714285714285713,0.37142857142857144,0.26666666666666666,0.2,0.13333333333333333,0.08571428571428572,0.05714285714285714,0.0380952380952381,0.02857142857142857,0.02857142857142857,0.01904761904761905,0.01904761904761905,0.009523809523809525,0.009523809523809525,0,0,-0.009523809523809525,-0.01904761904761905,-0.0380952380952381,-0.0380952380952381,-0.047619047619047616,-0.047619047619047616,-0.047619047619047616,-0.047619047619047616,-0.047619047619047616,-0.047619047619047616,-0.047619047619047616,-0.047619047619047616,-0.047619047619047616,-0.047619047619047616,-0.047619047619047616,-0.047619047619047616,-0.047619047619047616,-0.047619047619047616,-0.047619047619047616,-0.047619047619047616,-0.047619047619047616,-0.047619047619047616,-0.047619047619047616,-0.047619047619047616,-0.047619047619047616,-0.047619047619047616,-0.047619047619047616,-0.047619047619047616,-0.047619047619047616,-0.047619047619047616,-0.047619047619047616,-0.047619047619047616,-0.047619047619047616,-0.047619047619047616,-0.047619047619047616,-0.047619047619047616,-0.047619047619047616,-0.0380952380952381,-0.02857142857142857,-0.009523809523809525,0.009523809523809525,0.047619047619047616,0.08571428571428572,0.1523809523809524,0.21904761904761905,0.3047619047619048,0.4,0.49523809523809526,0.580952380952381,0.6857142857142857,0.8,0.9619047619047619,1.0857142857142856,1.2,1.2952380952380953,1.3904761904761904,1.4666666666666666,1.5047619047619047,1.5523809523809524,1.5714285714285714,1.5809523809523809,1.5809523809523809,1.5809523809523809,1.5809523809523809,1.5809523809523809,1.5809523809523809,1.5809523809523809,1.5809523809523809,1.5809523809523809,1.5809523809523809,1.5809523809523809,1.5809523809523809,1.5809523809523809,1.5809523809523809,1.5809523809523809,1.5809523809523809,1.5809523809523809,1.5809523809523809,1.5809523809523809,1.5809523809523809,1.5809523809523809,1.5809523809523809,1.5809523809523809,1.5809523809523809,1.5809523809523809,1.5809523809523809,1.5809523809523809,1.5809523809523809,1.5809523809523809,1.5809523809523809,1.5809523809523809,1.5809523809523809,1.5809523809523809,1.5809523809523809,1.5809523809523809,1.5809523809523809,1.5809523809523809,1.5809523809523809,1.5809523809523809,1.5809523809523809,1.5809523809523809,1.5809523809523809,1.5809523809523809,1.5809523809523809,1.5809523809523809,1.5809523809523809,1.5809523809523809,1.5809523809523809,1.5809523809523809,1.5809523809523809,1.5809523809523809,1.5809523809523809,1.5809523809523809,1.5809523809523809,1.5809523809523809,1.5809523809523809,1.5809523809523809,1.5809523809523809,1.5809523809523809,1.5809523809523809,1.5809523809523809,1.5809523809523809,1.5809523809523809,1.5809523809523809,1.5809523809523809,1.5809523809523809,1.5809523809523809,1.5809523809523809,1.5809523809523809,1.5809523809523809,1.5809523809523809,1.5809523809523809,1.5809523809523809,1.5809523809523809,1.5809523809523809]},"final_keyboard_state":["L","A","K","S","J","T","P","O","N","M","C","D","E","F","G","H","I","R","Z","B"],"num_clicks":20,"points":0,"cheat":false,"trial_type":"Hangman","trial_index":5,"time_elapsed":78596,"internal_node_id":"0.0-4.0","protocol_sum":"","subject_identifier":421,"subject_sum":[210,157,83,112,29,60,133,158,41,225,185,0,40,238,193,202,142,47,41,67,145,152,182,224,54,198,9,81,251,69,138,161],"subject_pair":210,"STUDY_ID":"66a22c0758a3d5c9d26873c6","PROLIFIC_PID":"663a5c3ef84d9c74ea3c07a1","SESSION_ID":"66a2ae3b0b8100bf9c5774f4","practice_instructions":1,"leaderboard_instructions":0,"bonus":0,"reveal_word":true,"self_rating":"5","confidence":"77"},{"view_history":"[{\"page_index\":0,\"viewing_time\":1881},{\"page_index\":1,\"viewing_time\":6683}]","rt":8564,"trial_type":"instructions","trial_index":6,"time_elapsed":87162,"internal_node_id":"0.0-5.0","protocol_sum":"","subject_identifier":421,"subject_sum":[210,157,83,112,29,60,133,158,41,225,185,0,40,238,193,202,142,47,41,67,145,152,182,224,54,198,9,81,251,69,138,161],"subject_pair":210,"STUDY_ID":"66a22c0758a3d5c9d26873c6","PROLIFIC_PID":"663a5c3ef84d9c74ea3c07a1","SESSION_ID":"66a2ae3b0b8100bf9c5774f4","practice_instructions":1,"leaderboard_instructions":0,"bonus":0,"reveal_word":true,"self_rating":"5","confidence":"77"},{"rt":5251.999999999985,"responses":"{\"Q0\":\"...from the <b>upcoming tournament</b>.\"}","question_order":"[0]","trial_type":"survey-multi-choice","trial_index":7,"time_elapsed":92416,"internal_node_id":"0.0-6.0","protocol_sum":"","subject_identifier":421,"subject_sum":[210,157,83,112,29,60,133,158,41,225,185,0,40,238,193,202,142,47,41,67,145,152,182,224,54,198,9,81,251,69,138,161],"subject_pair":210,"correct":false,"test_part":"multichoice_leaderboard","STUDY_ID":"66a22c0758a3d5c9d26873c6","PROLIFIC_PID":"663a5c3ef84d9c74ea3c07a1","SESSION_ID":"66a2ae3b0b8100bf9c5774f4","practice_instructions":1,"leaderboard_instructions":0,"bonus":0,"reveal_word":true,"self_rating":"5","confidence":"77"},{"view_history":"[{\"page_index\":0,\"viewing_time\":1409}]","rt":1410,"trial_type":"instructions","trial_index":8,"time_elapsed":93827,"internal_node_id":"0.0-7.0-0.0","protocol_sum":"","subject_identifier":421,"subject_sum":[210,157,83,112,29,60,133,158,41,225,185,0,40,238,193,202,142,47,41,67,145,152,182,224,54,198,9,81,251,69,138,161],"subject_pair":210,"STUDY_ID":"66a22c0758a3d5c9d26873c6","PROLIFIC_PID":"663a5c3ef84d9c74ea3c07a1","SESSION_ID":"66a2ae3b0b8100bf9c5774f4","practice_instructions":1,"leaderboard_instructions":0,"bonus":0,"reveal_word":true,"self_rating":"5","confidence":"77"},{"rt":4553,"responses":"{\"Q0\":\"...from <b>a previous session</b> that is not part of the upcoming tournament.\"}","question_order":"[0]","trial_type":"survey-multi-choice","trial_index":9,"time_elapsed":98382,"internal_node_id":"0.0-7.0-1.0","protocol_sum":"","subject_identifier":421,"subject_sum":[210,157,83,112,29,60,133,158,41,225,185,0,40,238,193,202,142,47,41,67,145,152,182,224,54,198,9,81,251,69,138,161],"subject_pair":210,"correct":true,"test_part":"multichoice_leaderboard","STUDY_ID":"66a22c0758a3d5c9d26873c6","PROLIFIC_PID":"663a5c3ef84d9c74ea3c07a1","SESSION_ID":"66a2ae3b0b8100bf9c5774f4","practice_instructions":1,"leaderboard_instructions":0,"bonus":0,"reveal_word":true,"self_rating":"5","confidence":"77"},{"view_history":"[{\"page_index\":0,\"viewing_time\":2897}]","rt":2897,"trial_type":"instructions","trial_index":10,"time_elapsed":101281,"internal_node_id":"0.0-8.0","protocol_sum":"","subject_identifier":421,"subject_sum":[210,157,83,112,29,60,133,158,41,225,185,0,40,238,193,202,142,47,41,67,145,152,182,224,54,198,9,81,251,69,138,161],"subject_pair":210,"STUDY_ID":"66a22c0758a3d5c9d26873c6","PROLIFIC_PID":"663a5c3ef84d9c74ea3c07a1","SESSION_ID":"66a2ae3b0b8100bf9c5774f4","practice_instructions":1,"leaderboard_instructions":0,"bonus":0,"reveal_word":true,"self_rating":"5","confidence":"77"},{"rt":5752,"responses":"{\"Q0\":\"...players' leaderboard position (in terms of <b>points</b>) in an <b>upcoming tournament.</b>\"}","question_order":"[0]","trial_type":"survey-multi-choice","trial_index":11,"time_elapsed":107034,"internal_node_id":"0.0-9.0","protocol_sum":"","subject_identifier":421,"subject_sum":[210,157,83,112,29,60,133,158,41,225,185,0,40,238,193,202,142,47,41,67,145,152,182,224,54,198,9,81,251,69,138,161],"subject_pair":210,"correct":true,"test_part":"multichoice_tournament","STUDY_ID":"66a22c0758a3d5c9d26873c6","PROLIFIC_PID":"663a5c3ef84d9c74ea3c07a1","SESSION_ID":"66a2ae3b0b8100bf9c5774f4","practice_instructions":1,"leaderboard_instructions":0,"bonus":0,"reveal_word":true,"self_rating":"5","confidence":"77"},{"view_history":"[{\"page_index\":0,\"viewing_time\":3429.9999999999854}]","rt":3429.9999999999854,"trial_type":"instructions","trial_index":12,"time_elapsed":110466,"internal_node_id":"0.0-11.0","protocol_sum":"","subject_identifier":421,"subject_sum":[210,157,83,112,29,60,133,158,41,225,185,0,40,238,193,202,142,47,41,67,145,152,182,224,54,198,9,81,251,69,138,161],"subject_pair":210,"STUDY_ID":"66a22c0758a3d5c9d26873c6","PROLIFIC_PID":"663a5c3ef84d9c74ea3c07a1","SESSION_ID":"66a2ae3b0b8100bf9c5774f4","practice_instructions":1,"leaderboard_instructions":0,"bonus":0,"reveal_word":true,"self_rating":"5","confidence":"77"},{"view_history":"[{\"page_index\":0,\"viewing_time\":15481.999999999985}]","rt":15481.999999999985,"trial_type":"instructions","trial_index":13,"time_elapsed":125950,"internal_node_id":"0.0-12.0-0.0","protocol_sum":"","subject_identifier":421,"subject_sum":[210,157,83,112,29,60,133,158,41,225,185,0,40,238,193,202,142,47,41,67,145,152,182,224,54,198,9,81,251,69,138,161],"subject_pair":210,"STUDY_ID":"66a22c0758a3d5c9d26873c6","PROLIFIC_PID":"663a5c3ef84d9c74ea3c07a1","SESSION_ID":"66a2ae3b0b8100bf9c5774f4","practice_instructions":1,"leaderboard_instructions":0,"bonus":0,"reveal_word":true,"self_rating":"5","confidence":"77"},{"rt":4392,"response":"HAWAII","responses":["HAWAII"],"trial_type":"type-this","trial_index":14,"time_elapsed":130862,"internal_node_id":"0.0-12.0-1.0","protocol_sum":"","subject_identifier":421,"subject_sum":[210,157,83,112,29,60,133,158,41,225,185,0,40,238,193,202,142,47,41,67,145,152,182,224,54,198,9,81,251,69,138,161],"subject_pair":210,"STUDY_ID":"66a22c0758a3d5c9d26873c6","PROLIFIC_PID":"663a5c3ef84d9c74ea3c07a1","SESSION_ID":"66a2ae3b0b8100bf9c5774f4","practice_instructions":1,"leaderboard_instructions":0,"bonus":0,"reveal_word":true,"self_rating":"5","confidence":"77"},{"word":"HAWAII","click_log":{"letter":["","A","K","H","W","I"],"t":[0,4814,32949,39100,40817,41934],"hit":[null,2,0,1,1,2],"asked":["","A","AK","AKH","AKHW","AKHWI"],"word_state":["______","_A_A__","_A_A__","HA_A__","HAWA__","HAWAII"]},"hover_log":{"letter":["?","?","?","?","?","?","?","?","?","?","?","?","?","?","?","?","?","?","?","?","U","?","?","?","?","?","?","?","?","?","?","?","?","?","?","?","?","?","?","?","?","?","?","?","?","?","U","?","?","?","?","?","?","?","?","?","?","?","?","?","?","?","?","?","?","?","?","?","?","?","?","?","U","?","?","?","?","?","?","?","?","?","?","?","?","?","?","?","?","?","?","?","?","?","?","?","?","?","U","?","?","?","?","?","?","?","?","?","?","?","?","?","?","?","?","?","?","?","?","?","?","?","?","?","U","?","?","?","?","?","?","?","?","?","?","?","?","?","?","?","?","?","?","?","?","?","?","?","?","?","U","?","?","?","?","?","?","?","?","?","?","?","?","?","?","?","?","?","?","?","?","?","?","?","?","?","U","?","?","?","?","?","?","?","?","?","?","?","?","?","?","?","?","?","?","?","?","?","?","?","?","?","U","?","?","?","?","?","?","?","?","?","?","?","?","?","?","?","?","?","?","?","?","?","?","?","?","?","U","?","?","?","?","?","?","?","?","?","?","?","?","?","?","?","?","?","?","?","?","?","?","?","?","?","U","?","?","?","?","?","?","?","?","?","?","?","?","?","?","?","?","?","?","?","?","?","?","?","?","?","U","?","?","?","?","?","?","?","?","?","?","?","?","?","?","?","?","?","?","?","?","?","?","?","?","?","U","?","?","?","?","?","?","?","?","?","?","?","?","?","?","?","?","?","?","?","?","?","?","?","?","?","U","?","?","?","?","?","?","?","?","?","?","?","?","?","?","?","?","?","?","?","?","?","?","?","?","?","U","?","?","?","?","?","?","?","?","?","?","?","?","?","?","?","?","?","?","?","?","?","?","?","?","?","U","?","?","?","?","?","?","?","?","?","?","?","?","?","?","?","?","?","?","?","?","?","?","?","?","?","U","?","?","?","?","?","?","?","?","?","?","?","?","?","?","?","?","?","?","?","?","?","?","?","?","?","U","?","?","?","?","?","?","?","?","?","?","?","?","?","?","?","?","?","?","?","?","?","?","?","?","?","?","?","?","?","?","?","?","?","?","?","?","?","?","?","?","?","?","?","?","?","?","?","?","?","?","?","?","?","?","?","?","?","?","?","?","?","?","?","?","?","?","?","?","?","?","?","?","?","?","?","?","?","?","?","?","?","?","?","?","?","?","?","?","?","?","?","?","?","?","?","?","?","?","?","?","?","?","?","?","?","?","?","?","?","?","?","?","?","?","?","?","?","?","?","?","?","?","?","?","?","?","?","?","?","?","?","?","?","?","?","?","?","?","?","?","?","?","?","?","?","?","?","?","?","?","?","?","?","?","?","?","?","?","?","?","?","?","?","?","?","?","?","?","?","?","?","?","?","?","?","?","?","?","?","?","?","?","?","?","?","?","?","?","?","?","?","?","?","?","?","?","?","?","?","?","?","?","?","?","?","?","?","?","?","?","?","?","?","?","?","?","?","?","?","?","?","?","?","?","?","?","?","?","?","?","?","?","?","?","?","?","?","?","?","?","?","?","?","?","?","?","?","?","?","?","?","?","?","?","?","?","?","?","?","?","?","?","?","?","?","?","?","?","?","?","?","?","?","?","?","?","?","?","?","?","?","?","?","?","?","?","?","?","?","?","?","?","?","?","?","?","?","?","?","?","?","?","?","?","?","?","?","?","?","?","?","?","?","?","?","?","?","?","?","?","?","?","?","?","?","?","?","?","?","?","?","?","?","?","?","?","?","?","?","?","?","?","?","?","?","?","?","?","?","?","?","?","?","?","?","?","?","?","?","?","?","?","?","?","?","?","?","?","?","?","?","?","?","?","?","?","?","?","?","?","?","?","?","?","?","?","?","?","?","?","?","?","?","?","?","?","?","?","?","?","?","?","?","?","?","?","?","?","?","?","?","?","?","?","?","?","?","?","?","?","?","?","?","?","?","?","?","?","?","?","?","?","?","?","?","?","?","?","?","?","?","?","?","?","?","?","?","?","?","?","?","?","?","?","?","?","?","?","?","?","?","?","?","?","?","?","?","?","?","?","?","?","?","?","?","?","?","?","?","?","?","?","?","?","?","?","?","?","?","?","?","?","?","?","?","?","?","?","?","?","?","?","?","?","?","?","?","?","?","?","?","?","?","?","?","?","?","?","?","?","?","?","?","?","?","?","?","?","?","?","?","?","?","?","?","?","?","?","?","?","?","?","?","?","?","?","?","?","?","?","?","?","?","?","?","?","?","?","?","?","?","?","?","?","?","?","?","?","?","?","?","?","?","?","?","?","?","?","?","?","?","?","?","?","?","?","?","?","?","?","?","?","?","?","?","?","?","?","?","?","?","?","?","?","?","?","?","?","?","?","?","?","?","?","?","?","?","?","?","?","?","?","?","?","?","?","?","?","?","?","?","?","?","?","?","?","?","?","?","?","?","?","?","?","?","?","?","?","?","?","?","?","?","?","?","?","?","?","?","?","?","?","?","?","?","?","?","?","?","?","?","?","?","?","?","?","?","?","?","?","?","?","?","?","?","?","?","?","?","?","?","?","?","?","?","?","?","?","?","?","?","?","?","?","?","?","?","?","?","?","?","?","?","?","?","?","?","?","?","?","?","?","?","?","?","?","?","?","?","?","?","?","?","?","?","?","?","?","?","?","?","?","?","?","?","?","?","?","?","?","?","?","?","?","?","?","?","?","?","?","?","?","?","?","?","?","?","?","?","?","?","?","?","?","?","?","?","?","?","?","?","?","?","?","?","?","?","?","?","?","?","?","?","?","?","?","?","?","?","?","?","?","?","?","?","?","?","?","?","?","?","?","?","?","?","?","?","?","?","?","?","?","?","?","?","?","?","?","?","?","?","?","?","?","?","?","?","?","?","?","?","?","?","?","?","?","?","?","?","?","?","?","?","?","?","?","?","?","?","?","?","?","?","?","?","?","?","?","?","?","?","?","?","?","?","?","?","?","?","?","?","?","?","?","?","?","?","?","?","?","?","?","?","?","?","?","?","?","?","?","?","?","?","?","?","?","?","?","?","?","?","?","?","?","?","?","?","?","?","?","?","?","?","?","?","?","?","?","?","?","?","?","?","?","?","?","?","?","?","?","?","?","?","?","?","?","?","?","?","?","?","?","?","?","?","?","?","?","?","?","?","?","?","?","?","?","?","?","?","?","?","?","?","?","?","?","?","?","?","?","?","?","?","?","?","?","?","?","?","?","?","?","?","?","?","?","?","?","?","?","?","?","?","?","?","?","?","?","?","?","?","?","?","?","?","?","?","?","?","?","?","?","?","?","?","?","?","?","?","?","?","?","?","?","?","?","?","?","?","?","?","?","?","?","?","?","?","?","?","?","?","?","?","?","?","?","?","?","?","?","?","?","?","?","?","?","?","?","?","?","?","?","?","?","?","?","?","?","?","?","?","?","?","?","?","?","?","?","?","?","?","?","?","?","?","?","?","?","?","?","?","?","?","?","?","?","?","?","?","?","?","?","?","?","?","?","?","?","?","?","?","?","?","?","?","?","?","?",