[{"success":true,"trial_type":"fullscreen","trial_index":0,"time_elapsed":13451,"internal_node_id":"0.0-0.0","protocol_sum":"","subject_identifier":204,"subject_sum":[55,131,79,47,37,118,47,35,225,247,74,83,28,190,68,93,183,61,103,101,235,230,8,120,167,223,190,205,125,74,246,225],"subject_pair":102,"STUDY_ID":"669eec2e4270c76bc184a38e","PROLIFIC_PID":"640c3e718d10af5614ee82ee","SESSION_ID":"669f6e956c9756ed0c607a41","practice_instructions":1,"leaderboard_instructions":1,"bonus":1,"reveal_word":false,"self_rating":"2","confidence":"86"},{"view_history":"[{\"page_index\":0,\"viewing_time\":9749.899999976158}]","rt":9750.599999964237,"trial_type":"instructions","trial_index":1,"time_elapsed":23202,"internal_node_id":"0.0-1.0","protocol_sum":"","subject_identifier":204,"subject_sum":[55,131,79,47,37,118,47,35,225,247,74,83,28,190,68,93,183,61,103,101,235,230,8,120,167,223,190,205,125,74,246,225],"subject_pair":102,"STUDY_ID":"669eec2e4270c76bc184a38e","PROLIFIC_PID":"640c3e718d10af5614ee82ee","SESSION_ID":"669f6e956c9756ed0c607a41","practice_instructions":1,"leaderboard_instructions":1,"bonus":1,"reveal_word":false,"self_rating":"2","confidence":"86"},{"view_history":"[{\"page_index\":0,\"viewing_time\":113109.59999996424}]","rt":113110,"trial_type":"instructions","trial_index":2,"time_elapsed":136313,"internal_node_id":"0.0-2.0-0.0","protocol_sum":"","subject_identifier":204,"subject_sum":[55,131,79,47,37,118,47,35,225,247,74,83,28,190,68,93,183,61,103,101,235,230,8,120,167,223,190,205,125,74,246,225],"subject_pair":102,"STUDY_ID":"669eec2e4270c76bc184a38e","PROLIFIC_PID":"640c3e718d10af5614ee82ee","SESSION_ID":"669f6e956c9756ed0c607a41","practice_instructions":1,"leaderboard_instructions":1,"bonus":1,"reveal_word":false,"self_rating":"2","confidence":"86"},{"rt":24552.599999964237,"responses":"{\"Q0\":\"... reveal the word with as <b>few letter guesses</b> as possible\"}","question_order":"[0]","trial_type":"survey-multi-choice","trial_index":3,"time_elapsed":160869,"internal_node_id":"0.0-2.0-1.0","protocol_sum":"","subject_identifier":204,"subject_sum":[55,131,79,47,37,118,47,35,225,247,74,83,28,190,68,93,183,61,103,101,235,230,8,120,167,223,190,205,125,74,246,225],"subject_pair":102,"correct":true,"test_part":"multichoice_nonpretend","STUDY_ID":"669eec2e4270c76bc184a38e","PROLIFIC_PID":"640c3e718d10af5614ee82ee","SESSION_ID":"669f6e956c9756ed0c607a41","practice_instructions":1,"leaderboard_instructions":1,"bonus":1,"reveal_word":false,"self_rating":"2","confidence":"86"},{"view_history":"[{\"page_index\":0,\"viewing_time\":5616.5}]","rt":5616.799999952316,"trial_type":"instructions","trial_index":4,"time_elapsed":166488,"internal_node_id":"0.0-3.0","protocol_sum":"","subject_identifier":204,"subject_sum":[55,131,79,47,37,118,47,35,225,247,74,83,28,190,68,93,183,61,103,101,235,230,8,120,167,223,190,205,125,74,246,225],"subject_pair":102,"STUDY_ID":"669eec2e4270c76bc184a38e","PROLIFIC_PID":"640c3e718d10af5614ee82ee","SESSION_ID":"669f6e956c9756ed0c607a41","practice_instructions":1,"leaderboard_instructions":1,"bonus":1,"reveal_word":false,"self_rating":"2","confidence":"86"},{"word":"ZEBRA","click_log":{"letter":["","Z","E","B","R","A"],"t":[0,22485,24303.900000035763,28071,33363.10000002384,35432],"hit":[null,1,1,1,1,1],"asked":["","Z","ZE","ZEB","ZEBR","ZEBRA"],"word_state":["_____","Z____","ZE___","ZEB__","ZEBR_","ZEBRA"]},"hover_log":{"letter":["?","?","?","?","?","?","?","?","?","?","?","?","?","?","?","?","?","?","?","?","?","?","?","?","?","?","?","?","?","?","?","?","?","?","?","?","?","?","?","?","?","?","?","?","?","?","T","U","?","?","?","?","?","?","?","?","?","?","?","?","?","?","?","?","?","?","?","?","?","?","?","?","?","?","?","?","?","?","?","?","?","?","?","?","?","?","?","?","?","?","?","?","?","?","?","?","?","?","?","?","?","?","?","?","?","?","?","?","?","?","?","?","?","?","?","?","?","?","?","?","?","?","?","?","?","?","?","?","?","?","?","?","?","?","?","?","?","?","?","?","?","?","?","?","?","?","?","?","?","?","?","?","?","?","?","?","?","?","?","?","?","?","?","?","?","?","?","?","?","?","?","?","?","?","?","?","?","?","?","?","?","?","?","?","?","?","?","?","?","?","?","?","?","?","?","?","?","?","?","?","?","?","?","?","?","?","?","?","?","?","?","?","?","?","?","?","?","?","?","?","?","?","?","?","?","?","?","?","?","?","?","?","?","?","?","?","?","?","?","?","?","?","?","?","?","?","?","?","?","?","?","?","?","?","?","?","?","?","?","?","?","?","?","?","?","?","?","?","?","?","?","?","R","?","?","?","?","?","?","?","?","?","?","?","?","?","?","?","?","?","?","?","?","?","?","?","?","?","?","?","?","?","?","?","?","?","?","?","?","?","?","?","?","?","?","?","?","?","?","?","?","?","?","?","?","?","?","?","?","?","?","?","?","?","?","?","?","?","?","?","?","?","?","?","?","?","?","?","?","?","?","?","?","?","?","?","?","?","?","?","?","?","?","?","?","?","?","?","?","?","?","?","?","?","?","?","?","?","?","?","?","?","?","?","?","?","?","?","?","?","?","?","?","?","?","?","?","?","?","?","?","?","?","?","?","?","?","?","?","?","?","?","?","?","?","?","?","?","?","?","?","?","?","?","?","?","?","?","?","?","?","?","?","?","?","?","?","?","?","?","?","?","?","?","?","?","?","?","?","?","?","?","?","?","?","?","?","?","?","?","?","?","?","?","?","?","?","?","?","?","?","?","?","?","?","?","?","?","?","?","?","?","?","?","?","?","?","?","?","?","?","?","?","?","?","?","?","?","?","?","?","?","?","?","?","?","?","?","?","?","?","?","?","?","?","?","?","?","?","?","?","?","?","?","?","?","?","?","?","?","?","?","?","?","?","?","?","?","?","?","?","?","?","?","?","?","?","?","?","?","?","?","?","?","?","?","?","?","?","?","?","?","?","?","?","?","?","?","?","?","?","?","?","?","?","?","?","?","?","?","?","?","?","?","?","?","?","?","?","?","?","?","?","?","?","?","?","?","?","?","?","?","?","?","?","?","?","?","?","?","?","?","?","?","?","?","?","?","?","?","?","?","?","?","?","?","?","?","?","?","?","?","?","?","?","?","?","?","?","?","?","?","?","?","?","?","?","?","?","?","?","?","?","?","?","?","?","?","?","?","?","?","?","?","?","?","?","?","?","?","?","?","?","?","?","?","?","?","?","?","?","?","?","?","?","?","?","?","?","?","?","?","?","?","?","?","?","?","?","?","?","?","?","?","?","?","?","?","?","?","?","?","?","?","?","?","?","?","?","?","?","?","?","?","?","?","?","?","?","?","?","?","?","?","?","?","?","?","?","?","?","?","?","?","?","?","?","?","?","?","?","?","?","?","?","?","?","?","?","?","?","?","?","?","?","?","?","?","?","?","?","?","?","?","?","?","?","?","?","?","?","?","?","?","?","?","?","?","?","?","?","?","?","?","?","?","?","?","?","?","?","?","?","?","?","?","?","?","?","?","?","?","?","?","?","?","?","?","?","?","?","?","?","?","?","?","?","?","?","?","?","?","?","?","?","?","?","?","?","?","?","?","?","?","?","?","?","?","?","?","?","?","?","?","?","?","?","?","?","?","?","?","?","?","?","?","?","?","?","?","?","?","?","?","?","?","?","?","?","?","?","?","?","?","?","?","?","?","?","?","?","?","?","?","?","?","?","?","?","?","?","?","?","?","?","?","?","?","?","?","?","?","?","?","?","?","?","?","?","?","?","?","?","?","?","?","?","?","?","?","?","?","?","?","?","?","?","?","?","?","?","?","?","?","?","?","?","?","?","?","?","?","?","?","?","?","?","?","?","?","?","?","?","?","?","?","?","?","?","?","?","?","?","?","?","?","?","?","?","?","?","?","?","?","?","?","?","?","?","?","?","?","?","?","?","?","?","?","?","?","?","?","?","?","?","?","?","?","?","?","?","?","?","?","?","?","?","?","?","?","?","?","?","?","?","?","?","?","?","?","?","?","?","?","?","?","?","?","?","?","?","?","?","?","?","?","?","?","?","?","?","?","?","?","?","?","?","?","?","?","?","?","?","?","?","?","?","?","?","?","?","?","?","?","?","?","?","?","?","?","?","?","?","?","?","?","?","?","?","?","?","?","?","?","?","?","?","?","?","?","?","?","?","?","?","?","?","?","?","?","?","?","?","?","?","?","?","?","?","?","?","?","?","?","?","?","?","?","?","?","?","?","?","?","?","?","?","?","?","?","?","?","?","?","?","?","?","?","?","?","?","?","?","?","?","?","?","?","?","?","?","?","?","?","?","?","?","?","?","?","?","?","?","?","?","?","?","?","?","?","?","?","?","?","?","?","?","?","?","?","?","?","?","?","?","?","?","?","?","?","?","?","?","?","?","?","?","?","?","?","?","?","?","?","?","?","?","?","?","?","?","?","?","?","?","?","?","?","?","?","?","?","?","?","?","?","?","?","?","?","?","?","?","?","?","?","?","?","?","?","?","?","?","?","?","?","?","?","?","?","?","?","?","?","?","?","?","?","?","?","?","?","?","?","?","?","Y","Y","Y","Y","Y","Y","Y","Y","Y","Y","?","?","?","?","?","?","?","?","?","?","?","?","?","?","?","?","?","?","Z","Z","Z","Z","Z","Z","Z","Z","Z","Z","Z","Z","Z","Z","Z","Z","Z","Z","Z","Z","Z","Z","Z","Z","Z","Z","Z","Z","Z","Z","Z","Z","Z","Z","Z","Z","Z","Z","Z","Z","Z","Z","Z","Z","Z","Z","Z","Z","Z","Z","Z","Z","Z","Z","Z","Z","Z","Z","Z","Z","Z","Z","Z","Z","Z","Z","Z","Z","Z","Z","Z","Z","Z","Z","Z","Z","Y","X","W","W","V","?","U","?","?","?","?","K","K","K","K","K","K","K","?","L","?","?","?","?","?","?","?","?","E","E","E","E","E","E","E","E","E","E","E","E","E","E","E","E","E","E","E","E","E","E","E","E","E","E","E","E","E","E","E","E","E","E","E","E","E","E","E","E","E","E","E","E","E","E","E","E","E","E","E","E","E","E","E","E","E","E","E","E","E","E","E","E","E","E","E","E","E","E","E","E","E","E","E","E","E","E","E","E","?","?","M","M","?","?","?","?","?","?","V","V","V","V","?","?","?","?","?","?","?","?","W","W","W","W","W","W","W","W","W","W","W","W","W","W","W","W","W","?","?","V","V","V","V","V","V","V","V","V","V","V","V","V","?","?","?","?","?","?","?","?","?","?","U","U","U","U","U","?","?","T","T","T","T","T","T","T","T","T","T","T","?","U","U","U","U","?","V","V","?","?","?","?","?","?","?","O","O","O","O","O","O","O","O","O","O","O","O","O","O","?","?","?","?","N","N","N","?","?","?","?","?","?","?","?","D","D","D","D","D","D","D","D","?","?","C","C","C","C","C","C","C","?","?","B","B","B","B","B","B","B","B","B","B","B","B","B","B","B","B","B","B","B","B","B","B","B","B","B","B","B","B","B","B","B","B","B","B","B","B","B","B","B","B","B","B","B","B","B","B","B","B","B","B","B","B","B","B","B","B","B","B","B","B","B","B","B","B","B","B","B","B","B","B","B","B","B","B","B","B","B","B","?","?","C","C","C","C","C","C","C","C","C","C","C","?","?","?","?","?","?","?","?","?","C","C","C","C","?","?","?","D","D","D","D","D","D","D","D","D","D","?","E","E","E","E","E","E","E","E","E","E","?","?","F","F","F","F","F","F","F","F","F","F","F","F","F","F","F","F","F","F","F","F","F","?","?","?","O","O","O","O","O","O","?","?","?","?","?","?","?","?","?","?","?","?","?","?","?","?","?","?","?","?","?","?","?","?","?","?","?","?","?","?","?","?","?","?","?","?","?","X","?","?","W","W","W","W","W","W","W","?","?","V","V","V","V","V","V","V","V","V","?","?","U","U","U","U","U","U","U","U","U","U","U","U","U","U","?","?","?","?","?","?","?","?","?","?","?","?","?","?","?","?","?","?","?","?","?","?","?","?","?","?","?","?","?","?","?","?","?","?","?","?","?","L","M","M","N","N","?","?","O","O","O","O","O","O","O","?","?","?","?","?","?","?","?","?","P","P","P","P","P","P","P","P","P","?","Q","Q","Q","Q","Q","Q","?","?","?","?","?","?","?","?","?","?","R","R","R","R","R","R","R","R","R","R","R","R","R","R","R","R","R","R","R","R","R","R","R","R","R","R","R","R","R","R","R","R","R","R","R","R","R","R","R","R","R","R","R","R","R","R","R","R","R","R","R","R","R","R","R","R","R","R","R","R","R","R","R","R","R","R","R","Q","?","P","?","O","?","?","?","?","?","?","?","?","?","?","?","?","?","?","?","?","?","?","?","?","?","T","T","?","?","?","?","?","?","?","?","S","S","S","S","S","J","J","?","?","A","?","?","?","?","?","?","?","?","?","?","?","?","?","?","?","A","A","A","A","A","A","A","A","A","A","A","A","A","A","A","A","A","A","A","A","A","A","A","A","A","A","A","A","A","A","A","A","A","A","A","A","A","A","A","A","A","A","A","A","A","A","A","A","A","A","A","A","A","A","A","A","A","A","A","A","A","A","A","A","A","A","A","A","A","A","A","A","A","A","A","A","A","A","A","A","A","A","A","A","A","A","A","A","A","A","A","A","A","A","A","A","A","A","A","?","J","?","?","?","?","?","?","?","?","?","?","?","?","?","?","?","?","?","?","?","?","?","?","?","?","?","?","?","?","?","?","?","?","?","?","?","?","?","?","?","?","?","?","?","?","?","?","?","?","?","?","?","?","?","?","?","?","?","?","?"],"t":[50,61,83,99,116,133,150,166,183,200,216,232,249,266,282,299,316,333,349,366,383,399,415,432,449,466,482,499,515,532,549,566,582,599,616,633,649,666,683,699,716,733,750,766,783,799,821,834,849,866,882,899,915,932,948,965,982,998,1015,1032,1049,1067,1082,1099,1116,1132,1149,1166,1183,1199,1215,1232,1248,1266,1282,1299,1316,1331,1348,1365,1381,1399,1416,1431,1448,1465,1481,1498,1515,1532,1548,1567,1582,1598,1615,1632,1649,1666,1683,1699,1715,1732,1749,1766,1782,1799,1816,1832,1848,1865,1882,1898,1915,1932,1949,1966,1982,1999,2016,2032,2049,2065,2082,2099,2116,2132,2149,2165,2182,2199,2216,2234,2249,2265,2282,2298,2315,2332,2349,2365,2382,2398,2415,2432,2449,2465,2484,2499,2515,2532,2549,2565,2582,2599,2615,2632,2648,2666,2682,2698,2715,2731,2748,2769,2786,2797,2814,2830,2847,2865,2882,2900,2916,2932,2949,2965,2982,2998,3015,3032,3050,3067,3082,3099,3115,3131,3150,3165,3184,3199,3216,3232,3248,3265,3281,3298,3315,3331,3348,3366,3381,3400,3415,3431,3448,3465,3485,3498,3515,3532,3550,3566,3583,3599,3614,3630,3646,3663,3681,3697,3714,3730,3746,3763,3780,3798,3813,3829,3846,3862,3880,3899,3915,3931,3948,3964,3981,3998,4016,4031,4047,4064,4081,4098,4114,4133,4147,4164,4181,4197,4215,4232,4250,4263,4278,4295,4311,4328,4345,4363,4381,4398,4418,4432,4448,4465,4482,4496,4519,4534,4546,4571,4585,4597,4620,4632,4645,4662,4687,4704,4719,4729,4745,4761,4778,4794,4811,4828,4844,4861,4877,4894,4912,4931,4948,4963,4981,4998,5013,5031,5046,5063,5079,5096,5113,5130,5148,5164,5182,5196,5213,5230,5246,5263,5279,5296,5313,5329,5346,5363,5381,5397,5413,5431,5446,5463,5477,5494,5510,5527,5545,5563,5580,5597,5613,5630,5647,5664,5680,5698,5713,5730,5749,5763,5778,5793,5810,5827,5844,5862,5880,5897,5914,5930,5947,5963,5980,5997,6013,6030,6047,6063,6080,6099,6112,6128,6144,6161,6177,6194,6211,6228,6246,6263,6280,6297,6313,6330,6347,6363,6380,6396,6415,6428,6444,6463,6479,6496,6513,6533,6547,6563,6580,6597,6615,6629,6646,6663,6680,6697,6714,6730,6749,6761,6776,6796,6813,6829,6847,6862,6879,6897,6913,6929,6946,6962,6979,6996,7015,7029,7044,7062,7081,7096,7115,7130,7147,7162,7183,7194,7212,7229,7249,7261,7275,7296,7313,7329,7346,7363,7381,7398,7416,7428,7442,7462,7482,7495,7509,7529,7545,7562,7579,7595,7612,7629,7645,7662,7677,7692,7709,7728,7747,7762,7779,7795,7812,7828,7845,7861,7878,7895,7911,7928,7945,7961,7978,7995,8011,8029,8045,8061,8078,8095,8111,8128,8145,8162,8181,8198,8213,8228,8246,8261,8277,8295,8311,8328,8344,8361,8378,8395,8410,8428,8444,8464,8482,8495,8509,8528,8545,8561,8578,8594,8611,8627,8644,8661,8681,8695,8722,8743,8761,8777,8794,8811,8827,8844,8860,8877,8894,8910,8929,8944,8960,8977,8994,9010,9027,9044,9060,9077,9094,9110,9127,9143,9162,9181,9195,9210,9227,9245,9260,9277,9293,9310,9327,9343,9360,9377,9393,9411,9424,9440,9457,9474,9490,9507,9523,9540,9556,9573,9590,9606,9623,9639,9656,9673,9690,9707,9723,9740,9756,9773,9790,9806,9823,9840,9856,9873,9889,9906,9923,9939,9956,9973,9989,10006,10022,10039,10056,10073,10090,10106,10123,10139,10156,10173,10189,10206,10223,10239,10256,10272,10289,10306,10323,10340,10356,10373,10390,10406,10423,10440,10456,10473,10490,10506,10523,10540,10556,10573,10589,10606,10623,10639,10656,10673,10689,10706,10723,10740,10756,10772,10789,10805,10822,10839,10856,10874,10892,10909,10923,10939,10956,10973,10990,11008,11024,11041,11058,11074,11092,11107,11124,11141,11158,11176,11193,11207,11224,11242,11257,11274,11291,11307,11324,11341,11357,11374,11393,11407,11424,11440,11457,11474,11490,11507,11524,11540,11557,11575,11591,11608,11624,11640,11658,11679,11691,11707,11721,11738,11755,11772,11790,11808,11827,11843,11856,11873,11889,11906,11924,11939,11956,11973,11989,12006,12023,12039,12056,12074,12090,12107,12124,12140,12157,12176,12192,12206,12222,12239,12255,12272,12289,12305,12322,12339,12356,12372,12390,12409,12423,12439,12457,12473,12489,12508,12523,12539,12556,12573,12590,12606,12623,12639,12656,12673,12689,12706,12723,12739,12756,12773,12789,12806,12823,12839,12856,12872,12889,12906,12922,12939,12956,12972,12989,13006,13022,13039,13056,13072,13089,13106,13122,13139,13156,13172,13209,13215,13236,13253,13270,13286,13304,13321,13340,13357,13373,13390,13408,13425,13442,13455,13477,13491,13504,13521,13538,13554,13571,13588,13606,13622,13639,13656,13672,13689,13706,13722,13739,13756,13772,13789,13806,13822,13839,13855,13872,13888,13905,13922,13939,13957,13972,13989,14005,14022,14038,14055,14072,14088,14105,14122,14138,14155,14172,14189,14205,14223,14238,14256,14272,14289,14305,14322,14338,14355,14371,14388,14406,14421,14438,14455,14474,14490,14507,14521,14539,14556,14572,14588,14606,14622,14638,14655,14672,14689,14705,14726,14737,14753,14768,14788,14806,14822,14841,14855,14869,14887,14905,14922,14939,14956,14972,14988,15005,15022,15039,15055,15072,15088,15105,15121,15138,15155,15174,15186,15204,15221,15238,15254,15271,15289,15305,15321,15338,15354,15371,15388,15409,15420,15435,15454,15471,15490,15507,15521,15538,15554,15571,15588,15604,15621,15637,15654,15671,15687,15710,15720,15737,15754,15771,15788,15804,15820,15837,15854,15871,15886,15904,15920,15937,15954,15971,15987,16004,16019,16037,16056,16070,16087,16104,16120,16139,16154,16170,16189,16203,16220,16242,16253,16267,16287,16303,16320,16337,16353,16370,16387,16405,16417,16437,16453,16470,16491,16506,16519,16533,16553,16570,16587,16603,16620,16637,16653,16670,16687,16703,16720,16737,16753,16770,16787,16803,16820,16836,16853,16870,16886,16903,16920,16937,16953,16969,16987,17003,17020,17036,17053,17069,17086,17103,17119,17136,17153,17170,17188,17202,17219,17238,17253,17271,17285,17303,17319,17336,17351,17369,17386,17403,17423,17434,17449,17466,17486,17503,17519,17536,17552,17570,17586,17602,17619,17636,17652,17669,17686,17702,17719,17736,17751,17767,17786,17802,17819,17835,17852,17869,17885,17902,17919,17936,17952,17969,17986,18002,18019,18035,18052,18069,18086,18102,18123,18136,18152,18168,18188,18200,18219,18235,18252,18268,18285,18302,18319,18335,18354,18369,18385,18403,18417,18435,18451,18468,18486,18503,18519,18536,18549,18570,18585,18601,18620,18635,18651,18668,18685,18701,18719,18737,18752,18769,18782,18801,18818,18837,18851,18870,18885,18901,18918,18935,18951,18968,18984,19001,19020,19034,19051,19068,19084,19101,19118,19134,19151,19171,19185,19198,19215,19233,19249,19266,19284,19301,19318,19334,19351,19367,19384,19404,19415,19432,19451,19470,19488,19500,19514,19534,19551,19568,19585,19601,19618,19634,19650,19668,19684,19700,19718,19734,19750,19767,19784,19801,19818,19832,19848,19864,19881,19898,19916,19934,19950,19967,19984,20000,20017,20034,20051,20068,20084,20098,20115,20131,20148,20165,20181,20198,20215,20232,20248,20266,20281,20298,20315,20333,20348,20365,20380,20397,20413,20430,20446,20464,20481,20499,20516,20534,20551,20570,20581,20597,20613,20629,20654,20673,20687,20699,20713,20733,20748,20764,20786,20801,20814,20830,20854,20869,20882,20897,20924,20940,20949,20963,20980,21003,21022,21034,21047,21068,21084,21098,21114,21136,21154,21164,21183,21197,21213,21236,21251,21263,21286,21301,21317,21338,21353,21366,21382,21397,21413,21436,21452,21466,21479,21502,21521,21531,21546,21568,21590,21600,21613,21629,21646,21670,21682,21700,21718,21731,21746,21770,21785,21798,21817,21835,21846,21871,21883,21897,21917,21930,21950,21968,21983,21997,22012,22031,22048,22065,22082,22099,22113,22130,22151,22163,22178,22199,22215,22232,22249,22266,22280,22301,22317,22333,22346,22363,22384,22403,22426,22433,22451,22473,22482,22497,22520,22537,22548,22570,22584,22599,22614,22637,22653,22668,22685,22697,22717,22737,22754,22765,22788,22799,22820,22834,22853,22866,22880,22902,22918,22935,22953,22968,22986,22996,23018,23038,23048,23063,23093,23103,23118,23132,23161,23173,23184,23202,23214,23232,23264,23275,23301,23313,23330,23349,23365,23381,23402,23418,23429,23449,23465,23481,23494,23510,23535,23558,23577,23601,23618,23635,23646,23667,23680,23695,23711,23734,23749,23765,23782,23797,23820,23830,23845,23865,23881,23898,23914,23930,23947,23962,23981,23998,24015,24029,24050,24065,24078,24098,24115,24130,24147,24164,24186,24196,24214,24231,24245,24263,24280,24302,24317,24329,24349,24365,24378,24397,24417,24427,24443,24460,24481,24498,24517,24532,24544,24564,24581,24598,24612,24633,24650,24660,24681,24698,24711,24730,24747,24761,24783,24798,24816,24828,24842,24863,24882,24910,24917,24931,24944,24973,24981,25008,25015,25030,25057,25065,25078,25107,25119,25149,25167,25180,25193,25209,25226,25242,25260,25277,25293,25309,25326,25343,25359,25375,25393,25410,25426,25443,25460,25476,25494,25511,25527,25543,25559,25576,25593,25610,25627,25643,25660,25677,25693,25709,25727,25743,25759,25776,25792,25809,25825,25842,25859,25876,25893,25909,25926,25945,25961,25977,25993,26010,26026,26044,26061,26078,26095,26110,26125,26141,26158,26174,26191,26208,26225,26242,26261,26277,26295,26311,26327,26343,26360,26378,26394,26411,26426,26443,26459,26476,26492,26510,26528,26543,26559,26576,26592,26609,26627,26643,26660,26677,26692,26709,26726,26744,26760,26776,26792,26809,26828,26844,26860,26877,26893,26908,26925,26942,26960,26977,26993,27010,27026,27042,27060,27077,27093,27109,27125,27141,27159,27177,27193,27209,27225,27241,27258,27274,27291,27309,27325,27341,27358,27374,27391,27408,27425,27440,27459,27474,27490,27507,27524,27541,27557,27575,27591,27607,27624,27641,27657,27674,27691,27707,27724,27742,27758,27774,27790,27808,27824,27840,27857,27875,27890,27907,27923,27940,27956,27973,27990,28007,28023,28040,28056,28073,28090,28106,28123,28140,28156,28173,28190,28207,28223,28240,28256,28273,28290,28306,28323,28339,28356,28373,28390,28406,28423,28440,28456,28473,28490,28506,28522,28540,28556,28573,28589,28606,28622,28639,28656,28673,28689,28706,28722,28739,28756,28772,28789,28806,28822,28839,28855,28872,28889,28905,28922,28939,28955,28972,28989,29006,29022,29038,29055,29072,29089,29105,29123,29139,29155,29172,29188,29205,29222,29239,29255,29271,29289,29305,29322,29339,29356,29371,29388,29406,29422,29439,29456,29472,29497,29512,29522,29538,29563,29585,29595,29608,29623,29648,29664,29676,29691,29714,29730,29743,29768,29779,29794,29807,29823,29839,29866,29890,29911,29924,29939,29955,29979,29999,30010,30023,30038,30059,30078,30090,30113,30128,30139,30155,30178,30189,30209,30225,30239,30255,30280,30297,30306,30322,30346,30361,30373,30388,30411,30426,30438,30459,30479,30490,30508,30521,30538,30564,30582,30591,30605,30628,30643,30659,30671,30689,30710,30730,30743,30755,30771,30795,30815,30824,30837,30861,30878,30889,30906,30932,30945,30955,30971,30993,31012,31023,31038,31063,31079,31088,31109,31124,31143,31157,31172,31187,31210,31222,31237,31263,31283,31291,31304,31327,31341,31361,31374,31387,31405,31420,31437,31457,31479,31492,31503,31519,31536,31558,31574,31592,31606,31620,31637,31653,31670,31687,31704,31721,31737,31754,31771,31788,31805,31821,31839,31856,31872,31888,31905,31922,31939,31955,31974,31988,32005,32023,32039,32056,32072,32088,32105,32121,32137,32156,32173,32189,32204,32221,32240,32255,32272,32288,32305,32321,32337,32356,32373,32389,32406,32422,32439,32454,32473,32489,32505,32519,32536,32552,32569,32585,32603,32620,32635,32653,32670,32686,32702,32719,32737,32753,32770,32786,32803,32820,32836,32855,32872,32887,32902,32919,32936,32952,32969,32986,33003,33019,33036,33053,33069,33086,33102,33119,33136,33152,33169,33185,33203,33219,33236,33252,33270,33286,33302,33319,33335,33352,33370,33386,33402,33419,33436,33452,33469,33486,33502,33519,33535,33552,33569,33586,33602,33619,33635,33652,33669,33685,33703,33720,33736,33752,33769,33786,33802,33819,33837,33854,33870,33886,33901,33918,33934,33951,33969,33985,34001,34018,34034,34051,34068,34085,34101,34117,34134,34151,34172,34185,34201,34217,34234,34250,34267,34284,34301,34318,34334,34350,34367,34385,34401,34418,34434,34450,34467,34484,34500,34517,34534,34550,34567,34583,34600,34617,34633,34650,34666,34683,34700,34717,34734,34751,34767,34783,34800,34817,34834,34850,34867,34883,34900,34917,34933,34951,34967,34983,35000,35016,35033,35049,35066,35083,35099,35116,35133,35149,35166,35183,35199,35216,35233,35249,35266,35283,35299,35316,35332,35349,35365,35382,35399,35416,35436,35451,35466,35483,35499,35516,35533,35549,35566,35582,35599,35616,35633,35650,35666,35683,35699,35717,35733,35749,35766,35782,35799,35816,35832,35849,35866,35883,35900,35916,35933,35950,35966,35983,36000,36016,36033,36049,36067,36083,36100,36116,36133,36150,36166,36183,36199,36216,36233,36249,36266,36283,36299,36316,36332,36349,36367,36382,36399,36416,36434,36451,36466,36482,36498,36515,36532,36548,36565,36581,36598,36615,36631,36648,36665,36681,36698,36715,36732,36749,36767,36781,36798,36815,36831,36848,36865,36882,36899,36915,36932,36948,36965,36982,36999,37015,37032,37048,37065,37082,37099,37115,37131,37148,37165,37182,37198,37215,37232,37248,37265,37282,37300,37316,37333,37349,37366,37383,37399,37416,37432,37451],"hit":[null],"x":[-2.0408163265306123,-2.0408163265306123,-2.0408163265306123,-2.0408163265306123,-2.0408163265306123,-2.0408163265306123,-2.0408163265306123,-2.0408163265306123,-2.0408163265306123,-2.0408163265306123,-2.0408163265306123,-2.0408163265306123,-2.0408163265306123,-2.0408163265306123,-2.0408163265306123,-2.0408163265306123,-2.0408163265306123,-2.0408163265306123,-2.0408163265306123,-2.0408163265306123,-2.0408163265306123,-2.0408163265306123,-2.0408163265306123,-2.0408163265306123,-2.0408163265306123,-2.0408163265306123,-2.0408163265306123,-2.0408163265306123,-2.0408163265306123,-2.0408163265306123,-2.0408163265306123,-2.0408163265306123,-2.0408163265306123,-2.0408163265306123,-2.0408163265306123,-2.0408163265306123,-2.0408163265306123,-2.0408163265306123,-2.0408163265306123,-2.0408163265306123,-2.0408163265306123,-2.0408163265306123,-2.0408163265306123,-2.0408163265306123,-2.0408163265306123,-2.0408163265306123,0.10884353741496598,0.24149659863945577,0.40816326530612246,0.5850340136054422,0.7619047619047619,0.9319727891156463,1.1598639455782314,1.248299319727891,1.248299319727891,1.248299319727891,1.248299319727891,1.248299319727891,1.248299319727891,1.248299319727891,1.248299319727891,1.248299319727891,1.248299319727891,1.248299319727891,1.248299319727891,1.248299319727891,1.248299319727891,1.248299319727891,1.248299319727891,1.248299319727891,1.248299319727891,1.248299319727891,1.248299319727891,1.248299319727891,1.248299319727891,1.248299319727891,1.248299319727891,1.248299319727891,1.248299319727891,1.248299319727891,1.248299319727891,1.248299319727891,1.248299319727891,1.248299319727891,1.248299319727891,1.248299319727891,1.248299319727891,1.248299319727891,1.248299319727891,1.248299319727891,1.248299319727891,1.248299319727891,1.248299319727891,1.248299319727891,1.248299319727891,1.248299319727891,1.248299319727891,1.248299319727891,1.248299319727891,1.248299319727891,1.248299319727891,1.248299319727891,1.248299319727891,1.248299319727891,1.248299319727891,1.248299319727891,1.248299319727891,1.248299319727891,1.248299319727891,1.248299319727891,1.248299319727891,1.248299319727891,1.248299319727891,1.248299319727891,1.248299319727891,1.248299319727891,1.248299319727891,1.248299319727891,1.248299319727891,1.248299319727891,1.248299319727891,1.248299319727891,1.248299319727891,1.248299319727891,1.248299319727891,1.248299319727891,1.248299319727891,1.248299319727891,1.248299319727891,1.248299319727891,1.248299319727891,1.248299319727891,1.248299319727891,1.248299319727891,1.248299319727891,1.248299319727891,1.248299319727891,1.248299319727891,1.248299319727891,1.248299319727891,1.248299319727891,1.248299319727891,1.248299319727891,1.248299319727891,1.248299319727891,1.248299319727891,1.248299319727891,1.248299319727891,1.248299319727891,1.248299319727891,1.248299319727891,1.248299319727891,1.248299319727891,1.248299319727891,1.248299319727891,1.248299319727891,1.248299319727891,1.248299319727891,1.248299319727891,1.248299319727891,1.248299319727891,1.248299319727891,1.248299319727891,1.248299319727891,1.248299319727891,1.248299319727891,1.248299319727891,1.248299319727891,1.248299319727891,1.248299319727891,1.248299319727891,1.248299319727891,1.248299319727891,1.248299319727891,1.248299319727891,1.248299319727891,1.248299319727891,1.248299319727891,1.248299319727891,1.248299319727891,1.248299319727891,1.248299319727891,1.248299319727891,1.248299319727891,1.248299319727891,1.248299319727891,1.248299319727891,1.248299319727891,1.248299319727891,1.248299319727891,1.248299319727891,1.248299319727891,1.248299319727891,1.248299319727891,1.248299319727891,1.248299319727891,1.248299319727891,1.248299319727891,1.248299319727891,1.248299319727891,1.248299319727891,1.248299319727891,1.248299319727891,1.248299319727891,1.248299319727891,1.248299319727891,1.248299319727891,1.248299319727891,1.248299319727891,1.248299319727891,1.248299319727891,1.248299319727891,1.2448979591836735,1.2380952380952381,1.2346938775510203,1.2346938775510203,1.2346938775510203,1.2380952380952381,1.2448979591836735,1.2585034013605443,1.272108843537415,1.2959183673469388,1.3061224489795917,1.3197278911564625,1.3333333333333333,1.3401360544217686,1.346938775510204,1.346938775510204,1.346938775510204,1.346938775510204,1.346938775510204,1.346938775510204,1.346938775510204,1.346938775510204,1.346938775510204,1.346938775510204,1.346938775510204,1.346938775510204,1.346938775510204,1.346938775510204,1.346938775510204,1.346938775510204,1.346938775510204,1.346938775510204,1.346938775510204,1.346938775510204,1.346938775510204,1.346938775510204,1.346938775510204,1.346938775510204,1.346938775510204,1.346938775510204,1.346938775510204,1.346938775510204,1.346938775510204,1.346938775510204,1.346938775510204,1.346938775510204,1.346938775510204,1.346938775510204,1.346938775510204,1.346938775510204,1.346938775510204,1.346938775510204,1.346938775510204,1.346938775510204,1.346938775510204,1.346938775510204,1.346938775510204,1.3129251700680271,1.251700680272109,1.1938775510204083,1.129251700680272,1.034013605442177,0.9523809523809523,0.8843537414965986,0.826530612244898,0.8095238095238095,0.8027210884353742,0.8027210884353742,0.8027210884353742,0.8027210884353742,0.8027210884353742,0.8027210884353742,0.8027210884353742,0.8027210884353742,0.8027210884353742,0.8027210884353742,0.8027210884353742,0.8027210884353742,0.8027210884353742,0.8027210884353742,0.8027210884353742,0.8027210884353742,0.8027210884353742,0.8027210884353742,0.8027210884353742,0.8027210884353742,0.8027210884353742,0.8027210884353742,0.8027210884353742,0.8027210884353742,0.8027210884353742,0.8027210884353742,0.8027210884353742,0.8027210884353742,0.8027210884353742,0.8027210884353742,0.8027210884353742,0.8027210884353742,0.8027210884353742,0.8027210884353742,0.8027210884353742,0.8027210884353742,0.8027210884353742,0.8027210884353742,0.8027210884353742,0.8027210884353742,0.8027210884353742,0.8027210884353742,0.8027210884353742,0.8027210884353742,0.8027210884353742,0.8027210884353742,0.8027210884353742,0.8027210884353742,0.8027210884353742,0.8027210884353742,0.8027210884353742,0.8027210884353742,0.8027210884353742,0.8027210884353742,0.8027210884353742,0.8027210884353742,0.8027210884353742,0.8027210884353742,0.8027210884353742,0.8027210884353742,0.8027210884353742,0.8027210884353742,0.8027210884353742,0.8027210884353742,0.8027210884353742,0.8027210884353742,0.8027210884353742,0.8027210884353742,0.8027210884353742,0.8027210884353742,0.8027210884353742,0.8027210884353742,0.8027210884353742,0.8027210884353742,0.8027210884353742,0.8027210884353742,0.8027210884353742,0.8027210884353742,0.8027210884353742,0.8027210884353742,0.8027210884353742,0.8027210884353742,0.8027210884353742,0.8027210884353742,0.8027210884353742,0.8027210884353742,0.8027210884353742,0.8027210884353742,0.8027210884353742,0.8027210884353742,0.8027210884353742,0.8027210884353742,0.8027210884353742,0.8027210884353742,0.8027210884353742,0.8027210884353742,0.8027210884353742,0.8027210884353742,0.8027210884353742,0.8027210884353742,0.8027210884353742,0.8027210884353742,0.8027210884353742,0.8027210884353742,0.8027210884353742,0.8027210884353742,0.8027210884353742,0.8027210884353742,0.8027210884353742,0.8027210884353742,0.8027210884353742,0.8027210884353742,0.8027210884353742,0.8027210884353742,0.8027210884353742,0.8027210884353742,0.8027210884353742,0.8027210884353742,0.8027210884353742,0.8027210884353742,0.8027210884353742,0.8027210884353742,0.8027210884353742,0.8027210884353742,0.8027210884353742,0.8027210884353742,0.8027210884353742,0.8027210884353742,0.8027210884353742,0.8027210884353742,0.8027210884353742,0.8027210884353742,0.8027210884353742,0.8027210884353742,0.8027210884353742,0.8027210884353742,0.8027210884353742,0.8027210884353742,0.8027210884353742,0.8027210884353742,0.8027210884353742,0.8027210884353742,0.8027210884353742,0.8027210884353742,0.8027210884353742,0.8027210884353742,0.8027210884353742,0.8027210884353742,0.8027210884353742,0.8027210884353742,0.8027210884353742,0.8027210884353742,0.8027210884353742,0.8027210884353742,0.8027210884353742,0.8027210884353742,0.8027210884353742,0.8027210884353742,0.8027210884353742,0.8027210884353742,0.8027210884353742,0.8027210884353742,0.8027210884353742,0.8027210884353742,0.8027210884353742,0.8027210884353742,0.8027210884353742,0.8027210884353742,0.8027210884353742,0.8027210884353742,0.8027210884353742,0.8027210884353742,0.8027210884353742,0.8027210884353742,0.8027210884353742,0.8027210884353742,0.8027210884353742,0.8027210884353742,0.8027210884353742,0.8027210884353742,0.8027210884353742,0.8027210884353742,0.8027210884353742,0.8027210884353742,0.8027210884353742,0.8027210884353742,0.8027210884353742,0.8027210884353742,0.8027210884353742,0.8027210884353742,0.8027210884353742,0.8027210884353742,0.8027210884353742,0.8027210884353742,0.8027210884353742,0.8027210884353742,0.8027210884353742,0.8027210884353742,0.8027210884353742,0.8027210884353742,0.8027210884353742,0.8027210884353742,0.8027210884353742,0.8027210884353742,0.8027210884353742,0.8027210884353742,0.8027210884353742,0.8027210884353742,0.8027210884353742,0.8027210884353742,0.8027210884353742,0.8027210884353742,0.8027210884353742,0.8027210884353742,0.8027210884353742,0.8027210884353742,0.8027210884353742,0.8027210884353742,0.8027210884353742,0.8027210884353742,0.8027210884353742,0.8027210884353742,0.8027210884353742,0.8027210884353742,0.8027210884353742,0.8027210884353742,0.8027210884353742,0.8027210884353742,0.8027210884353742,0.8027210884353742,0.8027210884353742,0.8027210884353742,0.8027210884353742,0.8027210884353742,0.8027210884353742,0.8027210884353742,0.8027210884353742,0.8027210884353742,0.8027210884353742,0.8027210884353742,0.8027210884353742,0.8027210884353742,0.8027210884353742,0.8027210884353742,0.8027210884353742,0.8027210884353742,0.8027210884353742,0.8027210884353742,0.8027210884353742,0.8027210884353742,0.8027210884353742,0.8027210884353742,0.8027210884353742,0.8027210884353742,0.8027210884353742,0.8027210884353742,0.8027210884353742,0.8027210884353742,0.8027210884353742,0.8027210884353742,0.8027210884353742,0.8027210884353742,0.8027210884353742,0.8027210884353742,0.8027210884353742,0.8027210884353742,0.8027210884353742,0.8027210884353742,0.8027210884353742,0.8027210884353742,0.8027210884353742,0.8027210884353742,0.8027210884353742,0.8027210884353742,0.8027210884353742,0.8027210884353742,0.8027210884353742,0.8027210884353742,0.8027210884353742,0.8027210884353742,0.8027210884353742,0.8027210884353742,0.8027210884353742,0.8027210884353742,0.8027210884353742,0.8027210884353742,0.8027210884353742,0.8027210884353742,0.8027210884353742,0.8027210884353742,0.8027210884353742,0.8027210884353742,0.8027210884353742,0.8027210884353742,0.8027210884353742,0.8027210884353742,0.8027210884353742,0.8027210884353742,0.8027210884353742,0.8027210884353742,0.8027210884353742,0.8027210884353742,0.8027210884353742,0.8027210884353742,0.8027210884353742,0.8027210884353742,0.8027210884353742,0.8027210884353742,0.8027210884353742,0.8027210884353742,0.8027210884353742,0.8027210884353742,0.8027210884353742,0.8027210884353742,0.8027210884353742,0.8027210884353742,0.8027210884353742,0.8027210884353742,0.8027210884353742,0.8027210884353742,0.8027210884353742,0.8027210884353742,0.8027210884353742,0.8027210884353742,0.8027210884353742,0.8027210884353742,0.8027210884353742,0.8027210884353742,0.8027210884353742,0.8027210884353742,0.8027210884353742,0.8027210884353742,0.8027210884353742,0.8027210884353742,0.8027210884353742,0.8027210884353742,0.8027210884353742,0.8027210884353742,0.8027210884353742,0.8027210884353742,0.8027210884353742,0.8027210884353742,0.8027210884353742,0.8027210884353742,0.8027210884353742,0.8027210884353742,0.8027210884353742,0.8027210884353742,0.8027210884353742,0.8027210884353742,0.8027210884353742,0.8027210884353742,0.8027210884353742,0.8027210884353742,0.8027210884353742,0.8027210884353742,0.8027210884353742,0.8027210884353742,0.8027210884353742,0.8027210884353742,0.8027210884353742,0.8027210884353742,0.8027210884353742,0.8027210884353742,0.8027210884353742,0.8027210884353742,0.8027210884353742,0.8027210884353742,0.8027210884353742,0.8027210884353742,0.8027210884353742,0.8027210884353742,0.8027210884353742,0.8027210884353742,0.8027210884353742,0.8027210884353742,0.8027210884353742,0.8027210884353742,0.8027210884353742,0.8027210884353742,0.8027210884353742,0.8027210884353742,0.8027210884353742,0.8027210884353742,0.8027210884353742,0.8027210884353742,0.8027210884353742,0.8027210884353742,0.8027210884353742,0.8027210884353742,0.8027210884353742,0.8027210884353742,0.8027210884353742,0.8027210884353742,0.8027210884353742,0.8027210884353742,0.8027210884353742,0.8027210884353742,0.8027210884353742,0.8027210884353742,0.8027210884353742,0.8027210884353742,0.8027210884353742,0.8027210884353742,0.8027210884353742,0.8027210884353742,0.8027210884353742,0.8027210884353742,0.8027210884353742,0.8027210884353742,0.8027210884353742,0.8027210884353742,0.8027210884353742,0.8027210884353742,0.8027210884353742,0.8027210884353742,0.8027210884353742,0.8027210884353742,0.8027210884353742,0.8027210884353742,0.8027210884353742,0.8027210884353742,0.8027210884353742,0.8027210884353742,0.8027210884353742,0.8027210884353742,0.8027210884353742,0.8027210884353742,0.8027210884353742,0.8027210884353742,0.8027210884353742,0.8027210884353742,0.8027210884353742,0.8027210884353742,0.8027210884353742,0.8027210884353742,0.8027210884353742,0.8027210884353742,0.8027210884353742,0.8027210884353742,0.8027210884353742,0.8027210884353742,0.8027210884353742,0.8027210884353742,0.8027210884353742,0.8027210884353742,0.8027210884353742,0.8027210884353742,0.8027210884353742,0.8027210884353742,0.8027210884353742,0.8027210884353742,0.8027210884353742,0.8027210884353742,0.8027210884353742,0.8027210884353742,0.8027210884353742,0.8027210884353742,0.8027210884353742,0.8027210884353742,0.8027210884353742,0.8027210884353742,0.8027210884353742,0.8027210884353742,0.8027210884353742,0.8027210884353742,0.8027210884353742,0.8027210884353742,0.8027210884353742,0.8027210884353742,0.8027210884353742,0.8027210884353742,0.8027210884353742,0.8027210884353742,0.8027210884353742,0.8027210884353742,0.8027210884353742,0.8027210884353742,0.8027210884353742,0.8027210884353742,0.8027210884353742,0.8027210884353742,0.8027210884353742,0.8027210884353742,0.8027210884353742,0.8027210884353742,0.8027210884353742,0.8027210884353742,0.8027210884353742,0.8027210884353742,0.8027210884353742,0.8027210884353742,0.8027210884353742,0.8027210884353742,0.8027210884353742,0.8027210884353742,0.8027210884353742,0.8027210884353742,0.8027210884353742,0.8027210884353742,0.8027210884353742,0.8027210884353742,0.8027210884353742,0.8027210884353742,0.8027210884353742,0.8027210884353742,0.8027210884353742,0.8027210884353742,0.8027210884353742,0.8027210884353742,0.8027210884353742,0.8027210884353742,0.8027210884353742,0.8027210884353742,0.8027210884353742,0.8027210884353742,0.8027210884353742,0.8027210884353742,0.8027210884353742,0.8027210884353742,0.8027210884353742,0.8027210884353742,0.8027210884353742,0.8027210884353742,0.8027210884353742,0.8027210884353742,0.8027210884353742,0.8027210884353742,0.8027210884353742,0.8027210884353742,0.8027210884353742,0.8027210884353742,0.8027210884353742,0.8027210884353742,0.8027210884353742,0.8027210884353742,0.8027210884353742,0.8027210884353742,0.8027210884353742,0.8027210884353742,0.8027210884353742,0.8027210884353742,0.8027210884353742,0.8027210884353742,0.8027210884353742,0.8027210884353742,0.8027210884353742,0.8027210884353742,0.8027210884353742,0.8027210884353742,0.8027210884353742,0.8027210884353742,0.8027210884353742,0.8027210884353742,0.8027210884353742,0.8027210884353742,0.8027210884353742,0.8027210884353742,0.8027210884353742,0.8027210884353742,0.8027210884353742,0.8027210884353742,0.8027210884353742,0.8027210884353742,0.8027210884353742,0.8027210884353742,0.8027210884353742,0.8027210884353742,0.8027210884353742,0.8027210884353742,0.8027210884353742,0.8027210884353742,0.8027210884353742,0.8027210884353742,0.8027210884353742,0.8027210884353742,0.8027210884353742,0.8027210884353742,0.8027210884353742,0.8027210884353742,0.8027210884353742,0.8027210884353742,0.8027210884353742,0.8027210884353742,0.8027210884353742,0.8027210884353742,0.8027210884353742,0.8027210884353742,0.8027210884353742,0.8027210884353742,0.8027210884353742,0.8027210884353742,0.8027210884353742,0.8027210884353742,0.8027210884353742,0.8027210884353742,0.8027210884353742,0.8027210884353742,0.8027210884353742,0.8027210884353742,0.8027210884353742,0.8027210884353742,0.8027210884353742,0.8027210884353742,0.8027210884353742,0.8027210884353742,0.8027210884353742,0.8027210884353742,0.8027210884353742,0.8027210884353742,0.8027210884353742,0.8027210884353742,0.8027210884353742,0.8027210884353742,0.8027210884353742,0.8027210884353742,0.8027210884353742,0.8027210884353742,0.8027210884353742,0.8027210884353742,0.8027210884353742,0.8027210884353742,0.8027210884353742,0.8027210884353742,0.8027210884353742,0.8027210884353742,0.8027210884353742,0.8027210884353742,0.8027210884353742,0.8027210884353742,0.8027210884353742,0.8027210884353742,0.8027210884353742,0.8027210884353742,0.8027210884353742,0.8027210884353742,0.8027210884353742,0.8027210884353742,0.8027210884353742,0.8027210884353742,0.8027210884353742,0.8027210884353742,0.8027210884353742,0.8027210884353742,0.8027210884353742,0.8027210884353742,0.8027210884353742,0.8027210884353742,0.8027210884353742,0.8027210884353742,0.8027210884353742,0.8027210884353742,0.8027210884353742,0.8027210884353742,0.8027210884353742,0.8027210884353742,0.8027210884353742,0.8027210884353742,0.8027210884353742,0.8027210884353742,0.8027210884353742,0.8027210884353742,0.8027210884353742,0.8027210884353742,0.8027210884353742,0.8027210884353742,0.8027210884353742,0.8027210884353742,0.8027210884353742,0.8027210884353742,0.8027210884353742,0.8027210884353742,0.8027210884353742,0.8027210884353742,0.8027210884353742,0.8027210884353742,0.8027210884353742,0.8027210884353742,0.8027210884353742,0.8027210884353742,0.8027210884353742,0.8027210884353742,0.8027210884353742,0.8027210884353742,0.8027210884353742,0.8027210884353742,0.8027210884353742,0.8027210884353742,0.8027210884353742,0.8027210884353742,0.8027210884353742,0.8027210884353742,0.8027210884353742,0.8027210884353742,0.8027210884353742,0.8027210884353742,0.8027210884353742,0.8027210884353742,0.8027210884353742,0.8027210884353742,0.8027210884353742,0.8027210884353742,0.8027210884353742,0.8027210884353742,0.8027210884353742,0.8027210884353742,0.8027210884353742,0.8027210884353742,0.8027210884353742,0.8027210884353742,0.8027210884353742,0.8027210884353742,0.8027210884353742,0.8027210884353742,0.8027210884353742,0.8027210884353742,0.8027210884353742,0.8027210884353742,0.8027210884353742,0.8027210884353742,0.8027210884353742,0.8027210884353742,0.8027210884353742,0.8027210884353742,0.8027210884353742,0.8027210884353742,0.8027210884353742,0.8027210884353742,0.8027210884353742,0.8027210884353742,0.8027210884353742,0.8027210884353742,0.8027210884353742,0.8027210884353742,0.8027210884353742,0.8027210884353742,0.8027210884353742,0.8027210884353742,0.8027210884353742,0.8027210884353742,0.8027210884353742,0.8027210884353742,0.8027210884353742,0.8027210884353742,0.8027210884353742,0.8027210884353742,0.8027210884353742,0.8027210884353742,0.8027210884353742,0.8027210884353742,0.8027210884353742,0.8027210884353742,0.8027210884353742,0.8027210884353742,0.8027210884353742,0.8027210884353742,0.8027210884353742,0.8027210884353742,0.8027210884353742,0.8027210884353742,0.8027210884353742,0.8027210884353742,0.8027210884353742,0.8027210884353742,0.8027210884353742,0.8027210884353742,0.8027210884353742,0.8027210884353742,0.8027210884353742,0.8027210884353742,0.8027210884353742,0.8027210884353742,0.8027210884353742,0.8027210884353742,0.8027210884353742,0.8027210884353742,0.8027210884353742,0.8027210884353742,0.8027210884353742,0.8027210884353742,0.8027210884353742,0.8027210884353742,0.8027210884353742,0.8027210884353742,0.8027210884353742,0.8027210884353742,0.8027210884353742,0.8027210884353742,0.8027210884353742,0.8027210884353742,0.8027210884353742,0.8027210884353742,0.8027210884353742,0.8027210884353742,0.8027210884353742,0.8027210884353742,0.8027210884353742,0.8027210884353742,0.8027210884353742,0.8027210884353742,0.8027210884353742,0.8027210884353742,0.8027210884353742,0.8027210884353742,0.8027210884353742,0.8027210884353742,0.8027210884353742,0.8027210884353742,0.8027210884353742,0.8027210884353742,0.8027210884353742,0.8027210884353742,0.8027210884353742,0.8027210884353742,0.8027210884353742,0.8027210884353742,0.8027210884353742,0.8027210884353742,0.8027210884353742,0.8027210884353742,0.8027210884353742,0.8027210884353742,0.8027210884353742,0.8027210884353742,0.8027210884353742,0.8027210884353742,0.8027210884353742,0.8027210884353742,0.8027210884353742,0.8027210884353742,0.8027210884353742,0.8027210884353742,0.8027210884353742,0.8027210884353742,0.8027210884353742,0.8027210884353742,0.8027210884353742,0.8027210884353742,0.8027210884353742,0.8027210884353742,0.8027210884353742,0.8027210884353742,0.8027210884353742,0.8027210884353742,0.8027210884353742,0.8027210884353742,0.8027210884353742,0.8027210884353742,0.8027210884353742,0.8027210884353742,0.8027210884353742,0.8027210884353742,0.8027210884353742,0.8027210884353742,0.8027210884353742,0.8027210884353742,0.8027210884353742,0.8027210884353742,0.8027210884353742,0.8027210884353742,0.8027210884353742,0.8027210884353742,0.8027210884353742,0.8027210884353742,0.8027210884353742,0.8027210884353742,0.8027210884353742,0.8027210884353742,0.8027210884353742,0.8027210884353742,0.8027210884353742,0.8027210884353742,0.8027210884353742,0.8027210884353742,0.8027210884353742,0.8027210884353742,0.8027210884353742,0.8027210884353742,0.8027210884353742,0.8027210884353742,0.8027210884353742,0.8027210884353742,0.8027210884353742,0.8027210884353742,0.8027210884353742,0.8027210884353742,0.8027210884353742,0.8027210884353742,0.8027210884353742,0.8027210884353742,0.8027210884353742,0.8027210884353742,0.8027210884353742,0.8027210884353742,0.8027210884353742,0.8027210884353742,0.8027210884353742,0.8027210884353742,0.8027210884353742,0.8027210884353742,0.8027210884353742,0.8027210884353742,0.8027210884353742,0.8027210884353742,0.8027210884353742,0.8027210884353742,0.8027210884353742,0.8027210884353742,0.8027210884353742,0.8027210884353742,0.8027210884353742,0.8027210884353742,0.8027210884353742,0.8027210884353742,0.8027210884353742,0.8027210884353742,0.8027210884353742,0.8027210884353742,0.8027210884353742,0.8027210884353742,0.8027210884353742,0.8027210884353742,0.8027210884353742,0.8027210884353742,0.8027210884353742,0.8027210884353742,0.8027210884353742,0.8027210884353742,0.8027210884353742,0.8027210884353742,0.8027210884353742,0.8027210884353742,0.8027210884353742,0.8027210884353742,0.8027210884353742,0.8027210884353742,0.8027210884353742,0.8027210884353742,0.8027210884353742,0.8027210884353742,0.8027210884353742,0.8027210884353742,0.8027210884353742,0.8027210884353742,0.8027210884353742,0.8027210884353742,0.8027210884353742,0.8027210884353742,0.8027210884353742,0.8027210884353742,0.8027210884353742,0.8027210884353742,0.7959183673469388,0.7755102040816326,0.7482993197278912,0.7142857142857143,0.673469387755102,0.6258503401360545,0.5850340136054422,0.5476190476190477,0.5034013605442177,0.47619047619047616,0.45918367346938777,0.43537414965986393,0.41836734693877553,0.3945578231292517,0.3843537414965986,0.3707482993197279,0.36054421768707484,0.35374149659863946,0.35374149659863946,0.3741496598639456,0.41836734693877553,0.48639455782312924,0.5918367346938775,0.7789115646258503,0.8571428571428571,0.9251700680272109,0.9659863945578231,0.9931972789115646,1.0068027210884354,1.0170068027210883,1.0204081632653061,1.0204081632653061,1.0204081632653061,1.0170068027210883,1,0.9795918367346939,0.9489795918367347,0.9251700680272109,0.9115646258503401,0.891156462585034,0.8775510204081632,0.8639455782312925,0.8503401360544217,0.8435374149659864,0.8367346938775511,0.8367346938775511,0.8367346938775511,0.8435374149659864,0.8469387755102041,0.8537414965986394,0.8571428571428571,0.8571428571428571,0.8639455782312925,0.8707482993197279,0.8741496598639455,0.8843537414965986,0.8877551020408163,0.8979591836734694,0.9115646258503401,0.9183673469387755,0.9251700680272109,0.9319727891156463,0.9387755102040817,0.9421768707482994,0.9489795918367347,0.95578231292517,0.9591836734693877,0.9659863945578231,0.9659863945578231,0.9693877551020408,0.9727891156462585,0.9761904761904762,0.9761904761904762,0.9761904761904762,0.9761904761904762,0.9761904761904762,0.9761904761904762,0.9761904761904762,0.9727891156462585,0.9727891156462585,0.9727891156462585,0.9727891156462585,0.9727891156462585,0.9727891156462585,0.9727891156462585,0.9727891156462585,0.9727891156462585,0.9727891156462585,0.9727891156462585,0.9727891156462585,0.9727891156462585,0.9727891156462585,0.9727891156462585,0.9727891156462585,0.9727891156462585,0.9727891156462585,0.9727891156462585,0.9727891156462585,0.9727891156462585,0.9727891156462585,0.9727891156462585,0.9727891156462585,0.9727891156462585,0.9727891156462585,0.9727891156462585,0.9727891156462585,0.9727891156462585,0.9727891156462585,0.9727891156462585,0.9727891156462585,0.9727891156462585,0.9727891156462585,0.9727891156462585,0.9727891156462585,0.9727891156462585,0.9727891156462585,0.9727891156462585,0.9727891156462585,0.9727891156462585,0.9727891156462585,0.9727891156462585,0.9727891156462585,0.9727891156462585,0.9727891156462585,0.9727891156462585,0.9727891156462585,0.9727891156462585,0.9727891156462585,0.9727891156462585,0.9727891156462585,0.9727891156462585,0.9727891156462585,0.9727891156462585,0.9727891156462585,0.9727891156462585,0.9727891156462585,0.9727891156462585,0.9727891156462585,0.9727891156462585,0.9727891156462585,0.9727891156462585,0.9727891156462585,0.9727891156462585,0.9727891156462585,0.9727891156462585,0.9727891156462585,0.9727891156462585,0.9727891156462585,0.9727891156462585,0.9523809523809523,0.826530612244898,0.7312925170068028,0.6258503401360545,0.5136054421768708,0.42857142857142855,0.35374149659863946,0.272108843537415,0.23469387755102042,0.20408163265306123,0.19047619047619047,0.17687074829931973,0.16666666666666666,0.16326530612244897,0.1598639455782313,0.1598639455782313,0.1598639455782313,0.17006802721088435,0.19047619047619047,0.22108843537414966,0.2585034013605442,0.30612244897959184,0.3741496598639456,0.41496598639455784,0.4489795918367347,0.48639455782312924,0.4897959183673469,0.5102040816326531,0.5170068027210885,0.5306122448979592,0.5306122448979592,0.5340136054421769,0.5340136054421769,0.5340136054421769,0.5340136054421769,0.5340136054421769,0.5306122448979592,0.5306122448979592,0.5272108843537415,0.5238095238095238,0.5238095238095238,0.5238095238095238,0.5238095238095238,0.5238095238095238,0.5238095238095238,0.5238095238095238,0.5238095238095238,0.5238095238095238,0.5238095238095238,0.5238095238095238,0.5238095238095238,0.5238095238095238,0.5238095238095238,0.5238095238095238,0.5238095238095238,0.5238095238095238,0.5238095238095238,0.5238095238095238,0.5238095238095238,0.5238095238095238,0.5238095238095238,0.5238095238095238,0.5238095238095238,0.5238095238095238,0.5238095238095238,0.5238095238095238,0.5238095238095238,0.5238095238095238,0.5238095238095238,0.5238095238095238,0.5238095238095238,0.5238095238095238,0.5238095238095238,0.5238095238095238,0.5238095238095238,0.5238095238095238,0.5238095238095238,0.5238095238095238,0.5238095238095238,0.5238095238095238,0.5238095238095238,0.5238095238095238,0.5238095238095238,0.5238095238095238,0.5238095238095238,0.5238095238095238,0.5238095238095238,0.5238095238095238,0.5238095238095238,0.5238095238095238,0.5238095238095238,0.5238095238095238,0.5238095238095238,0.5238095238095238,0.5238095238095238,0.5238095238095238,0.5238095238095238,0.5238095238095238,0.5238095238095238,0.5238095238095238,0.5238095238095238,0.5238095238095238,0.5238095238095238,0.5238095238095238,0.5238095238095238,0.5238095238095238,0.5238095238095238,0.5238095238095238,0.5238095238095238,0.5034013605442177,0.48299319727891155,0.47959183673469385,0.46938775510204084,0.46258503401360546,0.45918367346938777,0.4557823129251701,0.4557823129251701,0.4557823129251701,0.4557823129251701,0.45918367346938777,0.46258503401360546,0.46258503401360546,0.46598639455782315,0.47278911564625853,0.47619047619047616,0.47959183673469385,0.4897959183673469,0.4965986394557823,0.5034013605442177,0.5102040816326531,0.5170068027210885,0.5306122448979592,0.5408163265306123,0.5476190476190477,0.5578231292517006,0.564625850340136,0.5680272108843537,0.5714285714285714,0.5714285714285714,0.5714285714285714,0.5714285714285714,0.5714285714285714,0.5714285714285714,0.5714285714285714,0.5680272108843537,0.5578231292517006,0.5476190476190477,0.5306122448979592,0.5034013605442177,0.4897959183673469,0.47959183673469385,0.46258503401360546,0.4489795918367347,0.4387755102040816,0.42517006802721086,0.40816326530612246,0.3979591836734694,0.391156462585034,0.3877551020408163,0.38095238095238093,0.38095238095238093,0.38095238095238093,0.37755102040816324,0.3741496598639456,0.3741496598639456,0.3741496598639456,0.3741496598639456,0.3741496598639456,0.3741496598639456,0.3741496598639456,0.3707482993197279,0.3673469387755102,0.35374149659863946,0.3333333333333333,0.3129251700680272,0.2789115646258503,0.2585034013605442,0.23809523809523808,0.21768707482993196,0.20408163265306123,0.19047619047619047,0.17687074829931973,0.17346938775510204,0.17346938775510204,0.17006802721088435,0.17006802721088435,0.17006802721088435,0.17006802721088435,0.17006802721088435,0.17687074829931973,0.19387755102040816,0.2108843537414966,0.23469387755102042,0.2619047619047619,0.2857142857142857,0.3129251700680272,0.3673469387755102,0.41156462585034015,0.4523809523809524,0.4931972789115646,0.5272108843537415,0.5612244897959183,0.6054421768707483,0.6326530612244898,0.6496598639455783,0.6666666666666666,0.6768707482993197,0.6836734693877551,0.6938775510204082,0.7040816326530612,0.7074829931972789,0.7108843537414966,0.7108843537414966,0.7108843537414966,0.7108843537414966,0.7108843537414966,0.7108843537414966,0.7074829931972789,0.6972789115646258,0.6870748299319728,0.673469387755102,0.6564625850340136,0.6394557823129252,0.6156462585034014,0.5952380952380952,0.5748299319727891,0.5544217687074829,0.5340136054421769,0.5136054421768708,0.4897959183673469,0.46598639455782315,0.4489795918367347,0.4387755102040816,0.42517006802721086,0.41496598639455784,0.40816326530612246,0.3979591836734694,0.3945578231292517,0.3945578231292517,0.3877551020408163,0.38095238095238093,0.37755102040816324,0.3741496598639456,0.36054421768707484,0.35034013605442177,0.336734693877551,0.3231292517006803,0.30612244897959184,0.2925170068027211,0.2755102040816326,0.25170068027210885,0.23809523809523808,0.21768707482993196,0.20408163265306123,0.19047619047619047,0.1836734693877551,0.17687074829931973,0.17687074829931973,0.17346938775510204,0.17006802721088435,0.16666666666666666,0.16666666666666666,0.16666666666666666,0.16666666666666666,0.16666666666666666,0.16666666666666666,0.16666666666666666,0.16666666666666666,0.16666666666666666,0.16666666666666666,0.16666666666666666,0.16666666666666666,0.16666666666666666,0.16666666666666666,0.16666666666666666,0.16666666666666666,0.16666666666666666,0.16666666666666666,0.16666666666666666,0.16666666666666666,0.16666666666666666,0.16666666666666666,0.16666666666666666,0.16666666666666666,0.16666666666666666,0.16666666666666666,0.16666666666666666,0.16666666666666666,0.16666666666666666,0.16666666666666666,0.16666666666666666,0.16666666666666666,0.16666666666666666,0.16666666666666666,0.16666666666666666,0.16666666666666666,0.16666666666666666,0.16666666666666666,0.16666666666666666,0.16666666666666666,0.16666666666666666,0.16666666666666666,0.16666666666666666,0.16666666666666666,0.16666666666666666,0.16666666666666666,0.16666666666666666,0.16666666666666666,0.16666666666666666,0.16666666666666666,0.16666666666666666,0.16666666666666666,0.16666666666666666,0.16666666666666666,0.16666666666666666,0.16666666666666666,0.16666666666666666,0.16666666666666666,0.16666666666666666,0.16666666666666666,0.16666666666666666,0.16666666666666666,0.16666666666666666,0.16666666666666666,0.16666666666666666,0.16666666666666666,0.16666666666666666,0.16666666666666666,0.16666666666666666,0.16666666666666666,0.17687074829931973,0.19387755102040816,0.20748299319727892,0.21768707482993196,0.23469387755102042,0.24489795918367346,0.2585034013605442,0.2755102040816326,0.29931972789115646,0.3129251700680272,0.3197278911564626,0.32653061224489793,0.3299319727891156,0.3333333333333333,0.336734693877551,0.3401360544217687,0.3401360544217687,0.3401360544217687,0.3401360544217687,0.3401360544217687,0.3401360544217687,0.3401360544217687,0.3401360544217687,0.3401360544217687,0.3401360544217687,0.3401360544217687,0.3401360544217687,0.3401360544217687,0.35034013605442177,0.35374149659863946,0.36394557823129253,0.3707482993197279,0.38095238095238093,0.391156462585034,0.3979591836734694,0.41836734693877553,0.42857142857142855,0.4387755102040816,0.4557823129251701,0.46258503401360546,0.47619047619047616,0.4897959183673469,0.5136054421768708,0.5306122448979592,0.5476190476190477,0.5612244897959183,0.5714285714285714,0.5850340136054422,0.5986394557823129,0.6054421768707483,0.6190476190476191,0.6292517006802721,0.6394557823129252,0.6462585034013606,0.6564625850340136,0.6700680272108843,0.6904761904761905,0.7006802721088435,0.7108843537414966,0.717687074829932,0.7210884353741497,0.7278911564625851,0.7278911564625851,0.7346938775510204,0.7346938775510204,0.7346938775510204,0.7414965986394558,0.7414965986394558,0.7414965986394558,0.7482993197278912,0.7482993197278912,0.7482993197278912,0.7482993197278912,0.7482993197278912,0.7482993197278912,0.7482993197278912,0.7482993197278912,0.7482993197278912,0.7482993197278912,0.7482993197278912,0.7482993197278912,0.7482993197278912,0.7482993197278912,0.7482993197278912,0.7482993197278912,0.7482993197278912,0.7482993197278912,0.7482993197278912,0.7482993197278912,0.7517006802721088,0.7551020408163265,0.7551020408163265,0.7551020408163265,0.7551020408163265,0.7551020408163265,0.7619047619047619,0.7619047619047619,0.7653061224489796,0.7721088435374149,0.7755102040816326,0.782312925170068,0.7891156462585034,0.8027210884353742,0.8095238095238095,0.826530612244898,0.8401360544217688,0.8503401360544217,0.8571428571428571,0.8571428571428571,0.8571428571428571,0.8639455782312925,0.8639455782312925,0.8639455782312925,0.8639455782312925,0.8639455782312925,0.8571428571428571,0.8333333333333334,0.8061224489795918,0.782312925170068,0.7517006802721088,0.7278911564625851,0.7006802721088435,0.673469387755102,0.6360544217687075,0.6156462585034014,0.5952380952380952,0.5816326530612245,0.5612244897959183,0.54421768707483,0.5272108843537415,0.5170068027210885,0.5068027210884354,0.4931972789115646,0.48299319727891155,0.46258503401360546,0.45918367346938777,0.445578231292517,0.42517006802721086,0.41156462585034015,0.4013605442176871,0.3945578231292517,0.38095238095238093,0.3673469387755102,0.35714285714285715,0.3435374149659864,0.336734693877551,0.32653061224489793,0.3197278911564626,0.3129251700680272,0.30612244897959184,0.29931972789115646,0.29931972789115646,0.29591836734693877,0.2925170068027211,0.2925170068027211,0.2857142857142857,0.2857142857142857,0.2857142857142857,0.2857142857142857,0.2857142857142857,0.2857142857142857,0.2857142857142857,0.2857142857142857,0.2857142857142857,0.2857142857142857,0.2789115646258503,0.2789115646258503,0.272108843537415,0.2687074829931973,0.2619047619047619,0.2585034013605442,0.2585034013605442,0.2585034013605442,0.25510204081632654,0.25510204081632654,0.25510204081632654,0.25510204081632654,0.25510204081632654,0.25510204081632654,0.25510204081632654,0.25510204081632654,0.25510204081632654,0.25510204081632654,0.25510204081632654,0.25510204081632654,0.25510204081632654,0.25510204081632654,0.25510204081632654,0.25510204081632654,0.25510204081632654,0.25510204081632654,0.25510204081632654,0.25510204081632654,0.25510204081632654,0.25510204081632654,0.3129251700680272,0.38095238095238093,0.48639455782312924,0.5476190476190477,0.5952380952380952,0.6258503401360545,0.6564625850340136,0.673469387755102,0.6938775510204082,0.717687074829932,0.7312925170068028,0.7482993197278912,0.7619047619047619,0.7687074829931972,0.7755102040816326,0.7755102040816326,0.782312925170068,0.782312925170068,0.7857142857142857,0.7891156462585034,0.7891156462585034,0.7925170068027211,0.7959183673469388,0.8027210884353742,0.8027210884353742,0.8129251700680272,0.8231292517006803,0.8299319727891157,0.8503401360544217,0.8639455782312925,0.8843537414965986,0.9081632653061225,0.9285714285714286,0.9523809523809523,0.9659863945578231,0.9897959183673469,1.0136054421768708,1.0272108843537415,1.0442176870748299,1.054421768707483,1.0612244897959184,1.0680272108843538,1.0748299319727892,1.0782312925170068,1.0816326530612246,1.0850340136054422,1.08843537414966,1.08843537414966,1.08843537414966,1.0918367346938775,1.0918367346938775,1.0918367346938775,1.0918367346938775,1.0918367346938775,1.0918367346938775,1.0918367346938775,1.0918367346938775,1.0918367346938775,1.0918367346938775,1.0918367346938775,1.0918367346938775,1.0918367346938775,1.0918367346938775,1.0918367346938775,1.0918367346938775,1.0918367346938775,1.0918367346938775,1.0918367346938775,1.0918367346938775,1.0918367346938775,1.0918367346938775,1.0918367346938775,1.0918367346938775,1.0918367346938775,1.0918367346938775,1.0918367346938775,1.0918367346938775,1.0918367346938775,1.0918367346938775,1.0918367346938775,1.0918367346938775,1.0918367346938775,1.0918367346938775,1.0918367346938775,1.0918367346938775,1.0918367346938775,1.0918367346938775,1.0918367346938775,1.0918367346938775,1.0918367346938775,1.0918367346938775,1.0918367346938775,1.0918367346938775,1.0918367346938775,1.0918367346938775,1.0918367346938775,1.0918367346938775,1.0918367346938775,1.0918367346938775,1.0918367346938775,1.0918367346938775,1.0918367346938775,1.0918367346938775,1.0918367346938775,1.0918367346938775,1.0918367346938775,1.0918367346938775,1.0918367346938775,1.0918367346938775,1.0918367346938775,1.0918367346938775,1.0918367346938775,1.0918367346938775,1.0918367346938775,1.0918367346938775,1.0918367346938775,1.0408163265306123,0.9319727891156463,0.8571428571428571,0.7925170068027211,0.7244897959183674,0.6632653061224489,0.608843537414966,0.54421768707483,0.5102040816326531,0.47959183673469385,0.4557823129251701,0.4387755102040816,0.42517006802721086,0.41496598639455784,0.4013605442176871,0.3945578231292517,0.3877551020408163,0.38095238095238093,0.37755102040816324,0.3707482993197279,0.36394557823129253,0.3401360544217687,0.3163265306122449,0.2755102040816326,0.24489795918367346,0.20408163265306123,0.1598639455782313,0.10204081632653061,0.07142857142857142,0.04421768707482993,0.027210884353741496,0.017006802721088437,0.01020408163265306,0.003401360544217687,0,-0.003401360544217687,-0.006802721088435374,-0.013605442176870748,-0.013605442176870748,-0.017006802721088437,-0.017006802721088437,-0.013605442176870748,-0.01020408163265306,0,0.023809523809523808,0.04421768707482993,0.06462585034013606,0.08163265306122448,0.08503401360544217,0.08503401360544217,0.08503401360544217,0.08503401360544217,0.08503401360544217,0.08503401360544217,0.08503401360544217,0.08163265306122448,0.07482993197278912,0.06802721088435375,0.06462585034013606,0.05442176870748299,0.05102040816326531,0.04081632653061224,0.034013605442176874,0.027210884353741496,0.023809523809523808,0.013605442176870748,0.013605442176870748,0.006802721088435374,0.003401360544217687,0.003401360544217687,0.003401360544217687,0.003401360544217687,0.003401360544217687,0.003401360544217687,0.003401360544217687,0.003401360544217687,0.003401360544217687,0.003401360544217687,0.003401360544217687,0.003401360544217687,0.003401360544217687,0.003401360544217687,0.003401360544217687,0.003401360544217687,0.003401360544217687,0.003401360544217687,0.003401360544217687,0.003401360544217687,0.003401360544217687,0.003401360544217687,0.003401360544217687,0.003401360544217687,0.003401360544217687,0.003401360544217687,0.003401360544217687,0.003401360544217687,0.003401360544217687,0.003401360544217687,0.003401360544217687,0.003401360544217687,0.003401360544217687,0.003401360544217687,0.003401360544217687,0.003401360544217687,0.003401360544217687,0.003401360544217687,0.003401360544217687,0.003401360544217687,0.003401360544217687,0.003401360544217687,0.003401360544217687,0.003401360544217687,0.003401360544217687,0.003401360544217687,0.003401360544217687,0.003401360544217687,0.003401360544217687,0.003401360544217687,0.003401360544217687,0.003401360544217687,0.003401360544217687,0.003401360544217687,0.003401360544217687,0.003401360544217687,0.003401360544217687,0.003401360544217687,0.003401360544217687,0.003401360544217687,0.003401360544217687,0.003401360544217687,0.003401360544217687,0.003401360544217687,0.003401360544217687,0.003401360544217687,0.003401360544217687,0.003401360544217687,0.003401360544217687,0.003401360544217687,0.003401360544217687,0.003401360544217687,0.003401360544217687,0.003401360544217687,0.003401360544217687,0.003401360544217687,0.003401360544217687,0.003401360544217687,0.003401360544217687,0.003401360544217687,0.003401360544217687,0.003401360544217687,0.003401360544217687,0.003401360544217687,0.003401360544217687,0.003401360544217687,0.003401360544217687,0.003401360544217687,0.003401360544217687,0.003401360544217687,0.003401360544217687,0.003401360544217687,-0.027210884353741496,-0.05782312925170068,-0.09863945578231292,-0.11904761904761904,-0.1360544217687075,-0.14625850340136054,-0.1564625850340136,-0.17006802721088435,-0.17006802721088435,-0.17006802721088435,-0.17006802721088435,-0.17006802721088435,-0.17006802721088435,-0.17006802721088435,-0.17006802721088435,-0.17006802721088435,-0.17006802721088435,-0.17006802721088435,-0.17006802721088435,-0.17006802721088435,-0.17006802721088435,-0.17006802721088435,-0.17006802721088435,-0.17006802721088435,-0.17006802721088435,-0.17006802721088435,-0.17006802721088435,-0.17006802721088435,-0.17006802721088435,-0.17006802721088435,-0.17006802721088435,-0.17006802721088435,-0.17006802721088435,-0.17006802721088435,-0.17006802721088435,-0.17006802721088435,-0.17006802721088435,-0.17006802721088435,-0.17006802721088435,-0.17006802721088435,-0.17006802721088435,-0.17006802721088435,-0.17006802721088435,-0.17006802721088435,-0.17006802721088435,-0.17006802721088435,-0.17006802721088435,-0.17006802721088435,-0.17006802721088435,-0.17006802721088435,-0.17006802721088435,-0.17006802721088435,-0.17006802721088435,-0.17006802721088435,-0.17006802721088435,-0.17006802721088435,-0.17006802721088435,-0.17006802721088435,-0.17006802721088435,-0.17006802721088435,-0.17006802721088435],"y":[-3.4285714285714284,-3.4285714285714284,-3.4285714285714284,-3.4285714285714284,-3.4285714285714284,-3.4285714285714284,-3.4285714285714284,-3.4285714285714284,-3.4285714285714284,-3.4285714285714284,-3.4285714285714284,-3.4285714285714284,-3.4285714285714284,-3.4285714285714284,-3.4285714285714284,-3.4285714285714284,-3.4285714285714284,-3.4285714285714284,-3.4285714285714284,-3.4285714285714284,-3.4285714285714284,-3.4285714285714284,-3.4285714285714284,-3.4285714285714284,-3.4285714285714284,-3.4285714285714284,-3.4285714285714284,-3.4285714285714284,-3.4285714285714284,-3.4285714285714284,-3.4285714285714284,-3.4285714285714284,-3.4285714285714284,-3.4285714285714284,-3.4285714285714284,-3.4285714285714284,-3.4285714285714284,-3.4285714285714284,-3.4285714285714284,-3.4285714285714284,-3.4285714285714284,-3.4285714285714284,-3.4285714285714284,-3.4285714285714284,-3.4285714285714284,-3.4285714285714284,0.9047619047619048,1.0380952380952382,1.180952380952381,1.4190476190476191,1.7523809523809524,2.1142857142857143,2.8095238095238093,3.123809523809524,3.123809523809524,3.123809523809524,3.123809523809524,3.123809523809524,3.123809523809524,3.123809523809524,3.123809523809524,3.123809523809524,3.123809523809524,3.123809523809524,3.123809523809524,3.123809523809524,3.123809523809524,3.123809523809524,3.123809523809524,3.123809523809524,3.123809523809524,3.123809523809524,3.123809523809524,3.123809523809524,3.123809523809524,3.123809523809524,3.123809523809524,3.123809523809524,3.123809523809524,3.123809523809524,3.123809523809524,3.123809523809524,3.123809523809524,3.123809523809524,3.123809523809524,3.123809523809524,3.123809523809524,3.123809523809524,3.123809523809524,3.123809523809524,3.123809523809524,3.123809523809524,3.123809523809524,3.123809523809524,3.123809523809524,3.123809523809524,3.123809523809524,3.123809523809524,3.123809523809524,3.123809523809524,3.123809523809524,3.123809523809524,3.123809523809524,3.123809523809524,3.123809523809524,3.123809523809524,3.123809523809524,3.123809523809524,3.123809523809524,3.123809523809524,3.123809523809524,3.123809523809524,3.123809523809524,3.123809523809524,3.123809523809524,3.123809523809524,3.123809523809524,3.123809523809524,3.123809523809524,3.123809523809524,3.123809523809524,3.123809523809524,3.123809523809524,3.123809523809524,3.123809523809524,3.123809523809524,3.123809523809524,3.123809523809524,3.123809523809524,3.123809523809524,3.123809523809524,3.123809523809524,3.123809523809524,3.123809523809524,3.123809523809524,3.123809523809524,3.123809523809524,3.123809523809524,3.123809523809524,3.123809523809524,3.123809523809524,3.123809523809524,3.123809523809524,3.123809523809524,3.123809523809524,3.123809523809524,3.123809523809524,3.123809523809524,3.123809523809524,3.123809523809524,3.123809523809524,3.123809523809524,3.123809523809524,3.123809523809524,3.123809523809524,3.123809523809524,3.123809523809524,3.123809523809524,3.123809523809524,3.123809523809524,3.123809523809524,3.123809523809524,3.123809523809524,3.123809523809524,3.123809523809524,3.123809523809524,3.123809523809524,3.123809523809524,3.123809523809524,3.123809523809524,3.123809523809524,3.123809523809524,3.123809523809524,3.123809523809524,3.123809523809524,3.123809523809524,3.123809523809524,3.123809523809524,3.123809523809524,3.123809523809524,3.123809523809524,3.123809523809524,3.123809523809524,3.123809523809524,3.123809523809524,3.123809523809524,3.123809523809524,3.123809523809524,3.123809523809524,3.123809523809524,3.123809523809524,3.123809523809524,3.123809523809524,3.123809523809524,3.123809523809524,3.123809523809524,3.123809523809524,3.123809523809524,3.123809523809524,3.123809523809524,3.123809523809524,3.123809523809524,3.123809523809524,3.123809523809524,3.123809523809524,3.123809523809524,3.123809523809524,3.123809523809524,3.123809523809524,3.123809523809524,3.123809523809524,3.123809523809524,3.0095238095238095,2.8476190476190477,2.5619047619047617,2.3904761904761904,2.1714285714285713,1.9142857142857144,1.638095238095238,1.3333333333333333,1.1047619047619048,0.7142857142857143,0.45714285714285713,0.22857142857142856,0.02857142857142857,-0.12380952380952381,-0.19047619047619047,-0.19047619047619047,-0.19047619047619047,-0.19047619047619047,-0.19047619047619047,-0.19047619047619047,-0.19047619047619047,-0.19047619047619047,-0.19047619047619047,-0.19047619047619047,-0.19047619047619047,-0.19047619047619047,-0.19047619047619047,-0.19047619047619047,-0.19047619047619047,-0.19047619047619047,-0.19047619047619047,-0.19047619047619047,-0.19047619047619047,-0.19047619047619047,-0.19047619047619047,-0.19047619047619047,-0.19047619047619047,-0.19047619047619047,-0.19047619047619047,-0.19047619047619047,-0.19047619047619047,-0.19047619047619047,-0.19047619047619047,-0.19047619047619047,-0.19047619047619047,-0.19047619047619047,-0.19047619047619047,-0.19047619047619047,-0.19047619047619047,-0.19047619047619047,-0.19047619047619047,-0.19047619047619047,-0.19047619047619047,-0.19047619047619047,-0.19047619047619047,-0.19047619047619047,-0.19047619047619047,-0.1523809523809524,-0.009523809523809525,0.1523809523809524,0.4095238095238095,0.8380952380952381,1.3333333333333333,1.7904761904761906,2.4571428571428573,2.8,3.085714285714286,3.466666666666667,3.6095238095238096,3.6095238095238096,3.6095238095238096,3.6095238095238096,3.6095238095238096,3.6095238095238096,3.6095238095238096,3.6095238095238096,3.6095238095238096,3.6095238095238096,3.6095238095238096,3.6095238095238096,3.6095238095238096,3.6095238095238096,3.6095238095238096,3.6095238095238096,3.6095238095238096,3.6095238095238096,3.6095238095238096,3.6095238095238096,3.6095238095238096,3.6095238095238096,3.6095238095238096,3.6095238095238096,3.6095238095238096,3.6095238095238096,3.6095238095238096,3.6095238095238096,3.6095238095238096,3.6095238095238096,3.6095238095238096,3.6095238095238096,3.6095238095238096,3.6095238095238096,3.6095238095238096,3.6095238095238096,3.6095238095238096,3.6095238095238096,3.6095238095238096,3.6095238095238096,3.6095238095238096,3.6095238095238096,3.6095238095238096,3.6095238095238096,3.6095238095238096,3.6095238095238096,3.6095238095238096,3.6095238095238096,3.6095238095238096,3.6095238095238096,3.6095238095238096,3.6095238095238096,3.6095238095238096,3.6095238095238096,3.6095238095238096,3.6095238095238096,3.6095238095238096,3.6095238095238096,3.6095238095238096,3.6095238095238096,3.6095238095238096,3.6095238095238096,3.6095238095238096,3.6095238095238096,3.6095238095238096,3.6095238095238096,3.6095238095238096,3.6095238095238096,3.6095238095238096,3.6095238095238096,3.6095238095238096,3.6095238095238096,3.6095238095238096,3.6095238095238096,3.6095238095238096,3.6095238095238096,3.6095238095238096,3.6095238095238096,3.6095238095238096,3.6095238095238096,3.6095238095238096,3.6095238095238096,3.6095238095238096,3.6095238095238096,3.6095238095238096,3.6095238095238096,3.6095238095238096,3.6095238095238096,3.6095238095238096,3.6095238095238096,3.6095238095238096,3.6095238095238096,3.6095238095238096,3.6095238095238096,3.6095238095238096,3.6095238095238096,3.6095238095238096,3.6095238095238096,3.6095238095238096,3.6095238095238096,3.6095238095238096,3.6095238095238096,3.6095238095238096,3.6095238095238096,3.6095238095238096,3.6095238095238096,3.6095238095238096,3.6095238095238096,3.6095238095238096,3.6095238095238096,3.6095238095238096,3.6095238095238096,3.6095238095238096,3.6095238095238096,3.6095238095238096,3.6095238095238096,3.6095238095238096,3.6095238095238096,3.6095238095238096,3.6095238095238096,3.6095238095238096,3.6095238095238096,3.6095238095238096,3.6095238095238096,3.6095238095238096,3.6095238095238096,3.6095238095238096,3.6095238095238096,3.6095238095238096,3.6095238095238096,3.6095238095238096,3.6095238095238096,3.6095238095238096,3.6095238095238096,3.6095238095238096,3.6095238095238096,3.6095238095238096,3.6095238095238096,3.6095238095238096,3.6095238095238096,3.6095238095238096,3.6095238095238096,3.6095238095238096,3.6095238095238096,3.6095238095238096,3.6095238095238096,3.6095238095238096,3.6095238095238096,3.6095238095238096,3.6095238095238096,3.6095238095238096,3.6095238095238096,3.6095238095238096,3.6095238095238096,3.6095238095238096,3.6095238095238096,3.6095238095238096,3.6095238095238096,3.6095238095238096,3.6095238095238096,3.6095238095238096,3.6095238095238096,3.6095238095238096,3.6095238095238096,3.6095238095238096,3.6095238095238096,3.6095238095238096,3.6095238095238096,3.6095238095238096,3.6095238095238096,3.6095238095238096,3.6095238095238096,3.6095238095238096,3.6095238095238096,3.6095238095238096,3.6095238095238096,3.6095238095238096,3.6095238095238096,3.6095238095238096,3.6095238095238096,3.6095238095238096,3.6095238095238096,3.6095238095238096,3.6095238095238096,3.6095238095238096,3.6095238095238096,3.6095238095238096,3.6095238095238096,3.6095238095238096,3.6095238095238096,3.6095238095238096,3.6095238095238096,3.6095238095238096,3.6095238095238096,3.6095238095238096,3.6095238095238096,3.6095238095238096,3.6095238095238096,3.6095238095238096,3.6095238095238096,3.6095238095238096,3.6095238095238096,3.6095238095238096,3.6095238095238096,3.6095238095238096,3.6095238095238096,3.6095238095238096,3.6095238095238096,3.6095238095238096,3.6095238095238096,3.6095238095238096,3.6095238095238096,3.6095238095238096,3.6095238095238096,3.6095238095238096,3.6095238095238096,3.6095238095238096,3.6095238095238096,3.6095238095238096,3.6095238095238096,3.6095238095238096,3.6095238095238096,3.6095238095238096,3.6095238095238096,3.6095238095238096,3.6095238095238096,3.6095238095238096,3.6095238095238096,3.6095238095238096,3.6095238095238096,3.6095238095238096,3.6095238095238096,3.6095238095238096,3.6095238095238096,3.6095238095238096,3.6095238095238096,3.6095238095238096,3.6095238095238096,3.6095238095238096,3.6095238095238096,3.6095238095238096,3.6095238095238096,3.6095238095238096,3.6095238095238096,3.6095238095238096,3.6095238095238096,3.6095238095238096,3.6095238095238096,3.6095238095238096,3.6095238095238096,3.6095238095238096,3.6095238095238096,3.6095238095238096,3.6095238095238096,3.6095238095238096,3.6095238095238096,3.6095238095238096,3.6095238095238096,3.6095238095238096,3.6095238095238096,3.6095238095238096,3.6095238095238096,3.6095238095238096,3.6095238095238096,3.6095238095238096,3.6095238095238096,3.6095238095238096,3.6095238095238096,3.6095238095238096,3.6095238095238096,3.6095238095238096,3.6095238095238096,3.6095238095238096,3.6095238095238096,3.6095238095238096,3.6095238095238096,3.6095238095238096,3.6095238095238096,3.6095238095238096,3.6095238095238096,3.6095238095238096,3.6095238095238096,3.6095238095238096,3.6095238095238096,3.6095238095238096,3.6095238095238096,3.6095238095238096,3.6095238095238096,3.6095238095238096,3.6095238095238096,3.6095238095238096,3.6095238095238096,3.6095238095238096,3.6095238095238096,3.6095238095238096,3.6095238095238096,3.6095238095238096,3.6095238095238096,3.6095238095238096,3.6095238095238096,3.6095238095238096,3.6095238095238096,3.6095238095238096,3.6095238095238096,3.6095238095238096,3.6095238095238096,3.6095238095238096,3.6095238095238096,3.6095238095238096,3.6095238095238096,3.6095238095238096,3.6095238095238096,3.6095238095238096,3.6095238095238096,3.6095238095238096,3.6095238095238096,3.6095238095238096,3.6095238095238096,3.6095238095238096,3.6095238095238096,3.6095238095238096,3.6095238095238096,3.6095238095238096,3.6095238095238096,3.6095238095238096,3.6095238095238096,3.6095238095238096,3.6095238095238096,3.6095238095238096,3.6095238095238096,3.6095238095238096,3.6095238095238096,3.6095238095238096,3.6095238095238096,3.6095238095238096,3.6095238095238096,3.6095238095238096,3.6095238095238096,3.6095238095238096,3.6095238095238096,3.6095238095238096,3.6095238095238096,3.6095238095238096,3.6095238095238096,3.6095238095238096,3.6095238095238096,3.6095238095238096,3.6095238095238096,3.6095238095238096,3.6095238095238096,3.6095238095238096,3.6095238095238096,3.6095238095238096,3.6095238095238096,3.6095238095238096,3.6095238095238096,3.6095238095238096,3.6095238095238096,3.6095238095238096,3.6095238095238096,3.6095238095238096,3.6095238095238096,3.6095238095238096,3.6095238095238096,3.6095238095238096,3.6095238095238096,3.6095238095238096,3.6095238095238096,3.6095238095238096,3.6095238095238096,3.6095238095238096,3.6095238095238096,3.6095238095238096,3.6095238095238096,3.6095238095238096,3.6095238095238096,3.6095238095238096,3.6095238095238096,3.6095238095238096,3.6095238095238096,3.6095238095238096,3.6095238095238096,3.6095238095238096,3.6095238095238096,3.6095238095238096,3.6095238095238096,3.6095238095238096,3.6095238095238096,3.6095238095238096,3.6095238095238096,3.6095238095238096,3.6095238095238096,3.6095238095238096,3.6095238095238096,3.6095238095238096,3.6095238095238096,3.6095238095238096,3.6095238095238096,3.6095238095238096,3.6095238095238096,3.6095238095238096,3.6095238095238096,3.6095238095238096,3.6095238095238096,3.6095238095238096,3.6095238095238096,3.6095238095238096,3.6095238095238096,3.6095238095238096,3.6095238095238096,3.6095238095238096,3.6095238095238096,3.6095238095238096,3.6095238095238096,3.6095238095238096,3.6095238095238096,3.6095238095238096,3.6095238095238096,3.6095238095238096,3.6095238095238096,3.6095238095238096,3.6095238095238096,3.6095238095238096,3.6095238095238096,3.6095238095238096,3.6095238095238096,3.6095238095238096,3.6095238095238096,3.6095238095238096,3.6095238095238096,3.6095238095238096,3.6095238095238096,3.6095238095238096,3.6095238095238096,3.6095238095238096,3.6095238095238096,3.6095238095238096,3.6095238095238096,3.6095238095238096,3.6095238095238096,3.6095238095238096,3.6095238095238096,3.6095238095238096,3.6095238095238096,3.6095238095238096,3.6095238095238096,3.6095238095238096,3.6095238095238096,3.6095238095238096,3.6095238095238096,3.6095238095238096,3.6095238095238096,3.6095238095238096,3.6095238095238096,3.6095238095238096,3.6095238095238096,3.6095238095238096,3.6095238095238096,3.6095238095238096,3.6095238095238096,3.6095238095238096,3.6095238095238096,3.6095238095238096,3.6095238095238096,3.6095238095238096,3.6095238095238096,3.6095238095238096,3.6095238095238096,3.6095238095238096,3.6095238095238096,3.6095238095238096,3.6095238095238096,3.6095238095238096,3.6095238095238096,3.6095238095238096,3.6095238095238096,3.6095238095238096,3.6095238095238096,3.6095238095238096,3.6095238095238096,3.6095238095238096,3.6095238095238096,3.6095238095238096,3.6095238095238096,3.6095238095238096,3.6095238095238096,3.6095238095238096,3.6095238095238096,3.6095238095238096,3.6095238095238096,3.6095238095238096,3.6095238095238096,3.6095238095238096,3.6095238095238096,3.6095238095238096,3.6095238095238096,3.6095238095238096,3.6095238095238096,3.6095238095238096,3.6095238095238096,3.6095238095238096,3.6095238095238096,3.6095238095238096,3.6095238095238096,3.6095238095238096,3.6095238095238096,3.6095238095238096,3.6095238095238096,3.6095238095238096,3.6095238095238096,3.6095238095238096,3.6095238095238096,3.6095238095238096,3.6095238095238096,3.6095238095238096,3.6095238095238096,3.6095238095238096,3.6095238095238096,3.6095238095238096,3.6095238095238096,3.6095238095238096,3.6095238095238096,3.6095238095238096,3.6095238095238096,3.6095238095238096,3.6095238095238096,3.6095238095238096,3.6095238095238096,3.6095238095238096,3.6095238095238096,3.6095238095238096,3.6095238095238096,3.6095238095238096,3.6095238095238096,3.6095238095238096,3.6095238095238096,3.6095238095238096,3.6095238095238096,3.6095238095238096,3.6095238095238096,3.6095238095238096,3.6095238095238096,3.6095238095238096,3.6095238095238096,3.6095238095238096,3.6095238095238096,3.6095238095238096,3.6095238095238096,3.6095238095238096,3.6095238095238096,3.6095238095238096,3.6095238095238096,3.6095238095238096,3.6095238095238096,3.6095238095238096,3.6095238095238096,3.6095238095238096,3.6095238095238096,3.6095238095238096,3.6095238095238096,3.6095238095238096,3.6095238095238096,3.6095238095238096,3.6095238095238096,3.6095238095238096,3.6095238095238096,3.6095238095238096,3.6095238095238096,3.6095238095238096,3.6095238095238096,3.6095238095238096,3.6095238095238096,3.6095238095238096,3.6095238095238096,3.6095238095238096,3.6095238095238096,3.6095238095238096,3.6095238095238096,3.6095238095238096,3.6095238095238096,3.6095238095238096,3.6095238095238096,3.6095238095238096,3.6095238095238096,3.6095238095238096,3.6095238095238096,3.6095238095238096,3.6095238095238096,3.6095238095238096,3.6095238095238096,3.6095238095238096,3.6095238095238096,3.6095238095238096,3.6095238095238096,3.6095238095238096,3.6095238095238096,3.6095238095238096,3.6095238095238096,3.6095238095238096,3.6095238095238096,3.6095238095238096,3.6095238095238096,3.6095238095238096,3.6095238095238096,3.6095238095238096,3.6095238095238096,3.6095238095238096,3.6095238095238096,3.6095238095238096,3.6095238095238096,3.6095238095238096,3.6095238095238096,3.6095238095238096,3.6095238095238096,3.6095238095238096,3.6095238095238096,3.6095238095238096,3.6095238095238096,3.6095238095238096,3.6095238095238096,3.6095238095238096,3.6095238095238096,3.6095238095238096,3.6095238095238096,3.6095238095238096,3.6095238095238096,3.6095238095238096,3.6095238095238096,3.6095238095238096,3.6095238095238096,3.6095238095238096,3.6095238095238096,3.6095238095238096,3.6095238095238096,3.6095238095238096,3.6095238095238096,3.6095238095238096,3.6095238095238096,3.6095238095238096,3.6095238095238096,3.6095238095238096,3.6095238095238096,3.6095238095238096,3.6095238095238096,3.6095238095238096,3.6095238095238096,3.6095238095238096,3.6095238095238096,3.6095238095238096,3.6095238095238096,3.6095238095238096,3.6095238095238096,3.6095238095238096,3.6095238095238096,3.6095238095238096,3.6095238095238096,3.6095238095238096,3.6095238095238096,3.6095238095238096,3.6095238095238096,3.6095238095238096,3.6095238095238096,3.6095238095238096,3.6095238095238096,3.6095238095238096,3.6095238095238096,3.6095238095238096,3.6095238095238096,3.6095238095238096,3.6095238095238096,3.6095238095238096,3.6095238095238096,3.6095238095238096,3.6095238095238096,3.6095238095238096,3.6095238095238096,3.6095238095238096,3.6095238095238096,3.6095238095238096,3.6095238095238096,3.6095238095238096,3.6095238095238096,3.6095238095238096,3.6095238095238096,3.6095238095238096,3.6095238095238096,3.6095238095238096,3.6095238095238096,3.6095238095238096,3.6095238095238096,3.6095238095238096,3.6095238095238096,3.6095238095238096,3.6095238095238096,3.6095238095238096,3.6095238095238096,3.6095238095238096,3.6095238095238096,3.6095238095238096,3.6095238095238096,3.6095238095238096,3.6095238095238096,3.6095238095238096,3.6095238095238096,3.6095238095238096,3.6095238095238096,3.6095238095238096,3.6095238095238096,3.6095238095238096,3.6095238095238096,3.6095238095238096,3.6095238095238096,3.6095238095238096,3.6095238095238096,3.6095238095238096,3.6095238095238096,3.6095238095238096,3.6095238095238096,3.6095238095238096,3.6095238095238096,3.6095238095238096,3.6095238095238096,3.6095238095238096,3.6095238095238096,3.6095238095238096,3.6095238095238096,3.6095238095238096,3.6095238095238096,3.6095238095238096,3.6095238095238096,3.6095238095238096,3.6095238095238096,3.6095238095238096,3.6095238095238096,3.6095238095238096,3.6095238095238096,3.6095238095238096,3.6095238095238096,3.6095238095238096,3.6095238095238096,3.6095238095238096,3.6095238095238096,3.6095238095238096,3.6095238095238096,3.6095238095238096,3.6095238095238096,3.6095238095238096,3.6095238095238096,3.6095238095238096,3.6095238095238096,3.6095238095238096,3.6095238095238096,3.6095238095238096,3.6095238095238096,3.6095238095238096,3.6095238095238096,3.6095238095238096,3.6095238095238096,3.6095238095238096,3.6095238095238096,3.6095238095238096,3.6095238095238096,3.6095238095238096,3.6095238095238096,3.6095238095238096,3.6095238095238096,3.6095238095238096,3.6095238095238096,3.6095238095238096,3.6095238095238096,3.6095238095238096,3.6095238095238096,3.6095238095238096,3.6095238095238096,3.6095238095238096,3.6095238095238096,3.6095238095238096,3.6095238095238096,3.6095238095238096,3.6095238095238096,3.6095238095238096,3.6095238095238096,3.6095238095238096,3.6095238095238096,3.6095238095238096,3.6095238095238096,3.6095238095238096,3.6095238095238096,3.6095238095238096,3.6095238095238096,3.6095238095238096,3.6095238095238096,3.6095238095238096,3.6095238095238096,3.6095238095238096,3.6095238095238096,3.6095238095238096,3.6095238095238096,3.6095238095238096,3.6095238095238096,3.6095238095238096,3.6095238095238096,3.6095238095238096,3.6095238095238096,3.6095238095238096,3.6095238095238096,3.6095238095238096,3.6095238095238096,3.6095238095238096,3.6095238095238096,3.6095238095238096,3.6095238095238096,3.6095238095238096,3.6095238095238096,3.6095238095238096,3.6095238095238096,3.6095238095238096,3.6095238095238096,3.6095238095238096,3.6095238095238096,3.6095238095238096,3.6095238095238096,3.6095238095238096,3.6095238095238096,3.6095238095238096,3.6095238095238096,3.6095238095238096,3.6095238095238096,3.6095238095238096,3.6095238095238096,3.6095238095238096,3.6095238095238096,3.6095238095238096,3.6095238095238096,3.6095238095238096,3.6095238095238096,3.6095238095238096,3.6095238095238096,3.6095238095238096,3.6095238095238096,3.6095238095238096,3.6095238095238096,3.6095238095238096,3.6095238095238096,3.6095238095238096,3.6095238095238096,3.6095238095238096,3.6095238095238096,3.6095238095238096,3.6095238095238096,3.6095238095238096,3.6095238095238096,3.6095238095238096,3.6095238095238096,3.6095238095238096,3.6095238095238096,3.6095238095238096,3.6095238095238096,3.6095238095238096,3.6095238095238096,3.6095238095238096,3.6095238095238096,3.6095238095238096,3.6095238095238096,3.6095238095238096,3.6095238095238096,3.6095238095238096,3.6095238095238096,3.6095238095238096,3.6095238095238096,3.6095238095238096,3.6095238095238096,3.6095238095238096,3.6095238095238096,3.6095238095238096,3.6095238095238096,3.6095238095238096,3.6095238095238096,3.6095238095238096,3.6095238095238096,3.6095238095238096,3.6095238095238096,3.6095238095238096,3.6095238095238096,3.6095238095238096,3.6095238095238096,3.6095238095238096,3.6095238095238096,3.6095238095238096,3.6095238095238096,3.6095238095238096,3.6095238095238096,3.6095238095238096,3.6095238095238096,3.6095238095238096,3.6095238095238096,3.6095238095238096,3.6095238095238096,3.6095238095238096,3.6095238095238096,3.6095238095238096,3.6095238095238096,3.6095238095238096,3.6095238095238096,3.6095238095238096,3.6095238095238096,3.6095238095238096,3.6095238095238096,3.6095238095238096,3.6095238095238096,3.6095238095238096,3.6095238095238096,3.6095238095238096,3.6095238095238096,3.6095238095238096,3.6095238095238096,3.6095238095238096,3.6095238095238096,3.6095238095238096,3.6095238095238096,3.6095238095238096,3.6095238095238096,3.6095238095238096,3.6095238095238096,3.6095238095238096,3.6095238095238096,3.6095238095238096,3.6095238095238096,3.6095238095238096,3.6095238095238096,3.6095238095238096,3.6095238095238096,3.6095238095238096,3.6095238095238096,3.6095238095238096,3.6095238095238096,3.6095238095238096,3.6095238095238096,3.6095238095238096,3.6095238095238096,3.6095238095238096,3.6095238095238096,3.6095238095238096,3.6095238095238096,3.6095238095238096,3.6095238095238096,3.6095238095238096,3.6095238095238096,3.6095238095238096,3.6095238095238096,3.6095238095238096,3.6095238095238096,3.619047619047619,3.638095238095238,3.6666666666666665,3.6952380952380954,3.723809523809524,3.742857142857143,3.7714285714285714,3.780952380952381,3.7904761904761903,3.8,3.8,3.8,3.7904761904761903,3.7523809523809524,3.704761904761905,3.6476190476190475,3.4952380952380953,3.3333333333333335,3.123809523809524,2.9238095238095236,2.6285714285714286,2.1714285714285713,2.019047619047619,1.8666666666666667,1.7904761904761906,1.723809523809524,1.7047619047619047,1.6761904761904762,1.6761904761904762,1.6761904761904762,1.6761904761904762,1.6761904761904762,1.6761904761904762,1.6761904761904762,1.6476190476190475,1.619047619047619,1.5809523809523809,1.5238095238095237,1.4857142857142858,1.4476190476190476,1.3714285714285714,1.3333333333333333,1.2380952380952381,1.180952380952381,1.1333333333333333,1.0666666666666667,1.0285714285714285,0.9714285714285714,0.9523809523809523,0.9333333333333333,0.9142857142857143,0.9047619047619048,0.8857142857142857,0.8666666666666667,0.8476190476190476,0.8380952380952381,0.8285714285714286,0.8095238095238095,0.8,0.8,0.7904761904761904,0.7904761904761904,0.7904761904761904,0.7904761904761904,0.7904761904761904,0.7904761904761904,0.7904761904761904,0.7904761904761904,0.8,0.8,0.819047619047619,0.8380952380952381,0.8476190476190476,0.8666666666666667,0.8952380952380953,0.9238095238095239,0.9523809523809523,0.9619047619047619,0.9714285714285714,0.9904761904761905,0.9904761904761905,0.9904761904761905,1,1.0095238095238095,1.0285714285714285,1.0285714285714285,1.0285714285714285,1.0285714285714285,1.0285714285714285,1.0285714285714285,1.0285714285714285,1.0285714285714285,1.0285714285714285,1.0285714285714285,1.0285714285714285,1.0285714285714285,1.0285714285714285,1.0285714285714285,1.0285714285714285,1.0285714285714285,1.0285714285714285,1.0285714285714285,1.0285714285714285,1.0285714285714285,1.0285714285714285,1.0285714285714285,1.0285714285714285,1.0285714285714285,1.0285714285714285,1.0285714285714285,1.0285714285714285,1.0285714285714285,1.0285714285714285,1.0285714285714285,1.0285714285714285,1.0285714285714285,1.0285714285714285,1.0285714285714285,1.0285714285714285,1.0285714285714285,1.0285714285714285,1.0285714285714285,1.0285714285714285,1.0285714285714285,1.0285714285714285,1.0285714285714285,1.0285714285714285,1.0285714285714285,1.0285714285714285,1.0285714285714285,1.0285714285714285,1.0285714285714285,1.0285714285714285,1.0285714285714285,1.0285714285714285,1.0285714285714285,1.0285714285714285,1.0285714285714285,1.0285714285714285,1.0285714285714285,1.0285714285714285,1.0285714285714285,1.0285714285714285,1.0285714285714285,1.0285714285714285,1.0285714285714285,1.0285714285714285,1.0285714285714285,1.0285714285714285,1.0285714285714285,1.0285714285714285,1.0285714285714285,1,0.9523809523809523,0.8761904761904762,0.8095238095238095,0.7523809523809524,0.7238095238095238,0.6857142857142857,0.638095238095238,0.6,0.5714285714285714,0.5523809523809524,0.5333333333333333,0.5142857142857142,0.4857142857142857,0.4380952380952381,0.4,0.34285714285714286,0.26666666666666666,0.22857142857142856,0.19047619047619047,0.14285714285714285,0.13333333333333333,0.11428571428571428,0.10476190476190476,0.08571428571428572,0.0761904761904762,0.06666666666666667,0.05714285714285714,0.047619047619047616,0.0380952380952381,0.0380952380952381,0.02857142857142857,0.01904761904761905,0.009523809523809525,0.009523809523809525,0.009523809523809525,0.009523809523809525,0.009523809523809525,0.009523809523809525,0.02857142857142857,0.02857142857142857,0.02857142857142857,0.02857142857142857,0.02857142857142857,0.02857142857142857,0.02857142857142857,0.02857142857142857,0.02857142857142857,0.02857142857142857,0.02857142857142857,0.02857142857142857,0.02857142857142857,0.02857142857142857,0.02857142857142857,0.02857142857142857,0.02857142857142857,0.02857142857142857,0.02857142857142857,0.02857142857142857,0.02857142857142857,0.02857142857142857,0.02857142857142857,0.02857142857142857,0.02857142857142857,0.02857142857142857,0.02857142857142857,0.02857142857142857,0.02857142857142857,0.02857142857142857,0.02857142857142857,0.02857142857142857,0.02857142857142857,0.02857142857142857,0.02857142857142857,0.02857142857142857,0.02857142857142857,0.02857142857142857,0.02857142857142857,0.02857142857142857,0.02857142857142857,0.02857142857142857,0.02857142857142857,0.02857142857142857,0.02857142857142857,0.02857142857142857,0.02857142857142857,0.02857142857142857,0.02857142857142857,0.02857142857142857,0.02857142857142857,0.02857142857142857,0.02857142857142857,0.02857142857142857,0.02857142857142857,0.02857142857142857,0.02857142857142857,0.02857142857142857,0.02857142857142857,0.02857142857142857,0.02857142857142857,0.02857142857142857,0.02857142857142857,0.02857142857142857,0.02857142857142857,0.2,0.41904761904761906,0.47619047619047616,0.5619047619047619,0.6476190476190476,0.7047619047619048,0.7714285714285715,0.8,0.8380952380952381,0.8476190476190476,0.8666666666666667,0.8761904761904762,0.8761904761904762,0.8857142857142857,0.8857142857142857,0.8857142857142857,0.8857142857142857,0.8857142857142857,0.8857142857142857,0.8952380952380953,0.9047619047619048,0.9047619047619048,0.9142857142857143,0.9142857142857143,0.9142857142857143,0.9142857142857143,0.9142857142857143,0.9142857142857143,0.9142857142857143,0.9142857142857143,0.9142857142857143,0.9238095238095239,0.9333333333333333,0.9428571428571428,0.9523809523809523,0.9619047619047619,0.9809523809523809,1,1.019047619047619,1.0476190476190477,1.0666666666666667,1.0666666666666667,1.0666666666666667,1.0857142857142856,1.0857142857142856,1.0857142857142856,1.0857142857142856,1.0857142857142856,1.0857142857142856,1.0857142857142856,1.0857142857142856,1.0857142857142856,1.0857142857142856,1.0857142857142856,1.0857142857142856,1.0857142857142856,1.0857142857142856,1.0857142857142856,1.0857142857142856,1.0857142857142856,1.0857142857142856,1.0857142857142856,1.0666666666666667,1.0666666666666667,1.0666666666666667,1.0571428571428572,1.0571428571428572,1.0380952380952382,1.0380952380952382,1.0380952380952382,1.0380952380952382,1.0380952380952382,1.0380952380952382,1.0380952380952382,1.0380952380952382,1.0380952380952382,1.0380952380952382,1.0380952380952382,1.0380952380952382,1.0380952380952382,1.0285714285714285,1.019047619047619,1.0095238095238095,1,0.9904761904761905,0.9809523809523809,0.9714285714285714,0.9523809523809523,0.9142857142857143,0.9047619047619048,0.8666666666666667,0.8285714285714286,0.8,0.7428571428571429,0.7142857142857143,0.6857142857142857,0.6476190476190476,0.6190476190476191,0.5904761904761905,0.5523809523809524,0.49523809523809526,0.45714285714285713,0.41904761904761906,0.4095238095238095,0.3904761904761905,0.38095238095238093,0.37142857142857144,0.3619047619047619,0.3523809523809524,0.3523809523809524,0.3523809523809524,0.3523809523809524,0.3523809523809524,0.3523809523809524,0.3619047619047619,0.3619047619047619,0.3619047619047619,0.3619047619047619,0.34285714285714286,0.3333333333333333,0.3047619047619048,0.2857142857142857,0.26666666666666666,0.23809523809523808,0.21904761904761905,0.19047619047619047,0.1523809523809524,0.12380952380952381,0.11428571428571428,0.10476190476190476,0.08571428571428572,0.0761904761904762,0.0761904761904762,0.06666666666666667,0.047619047619047616,0.0380952380952381,0.0380952380952381,0.02857142857142857,0.009523809523809525,0,0,0,0,0.009523809523809525,0.01904761904761905,0.0380952380952381,0.0380952380952381,0.0380952380952381,0.0380952380952381,0.0380952380952381,0.0380952380952381,0.0380952380952381,0.0380952380952381,0.0380952380952381,0.0380952380952381,0.0380952380952381,0.0380952380952381,0.0380952380952381,0.0380952380952381,0.0380952380952381,0.0380952380952381,0.0380952380952381,0.0380952380952381,0.0380952380952381,0.0380952380952381,0.0380952380952381,0.0380952380952381,0.0380952380952381,0.0380952380952381,0.0380952380952381,0.0380952380952381,0.0380952380952381,0.0380952380952381,0.0380952380952381,0.0380952380952381,0.0380952380952381,0.0380952380952381,0.0380952380952381,0.0380952380952381,0.0380952380952381,0.0380952380952381,0.0380952380952381,0.0380952380952381,0.0380952380952381,0.0380952380952381,0.0380952380952381,0.0380952380952381,0.0380952380952381,0.0380952380952381,0.0380952380952381,0.0380952380952381,0.0380952380952381,0.0380952380952381,0.0380952380952381,0.0380952380952381,0.0380952380952381,0.0380952380952381,0.0380952380952381,0.0380952380952381,0.0380952380952381,0.0380952380952381,0.0380952380952381,0.0380952380952381,0.0380952380952381,