[{"success":true,"trial_type":"fullscreen","trial_index":0,"time_elapsed":25299,"internal_node_id":"0.0-0.0","protocol_sum":"","subject_identifier":312,"subject_sum":[15,236,249,36,127,61,220,132,219,138,128,79,163,6,92,1,59,175,107,124,36,88,194,186,43,245,108,46,29,66,221,212],"subject_pair":156,"STUDY_ID":"66a0b3911f23dfc7665bb169","PROLIFIC_PID":"5ee2a663afc30b40867d4535","SESSION_ID":"66a1277c269b3a1ae9e9f3a2","practice_instructions":1,"leaderboard_instructions":1,"bonus":0,"reveal_word":false,"self_rating":"6","confidence":"76"},{"view_history":"[{\"page_index\":0,\"viewing_time\":3862.699999988079}]","rt":3862.9000000059605,"trial_type":"instructions","trial_index":1,"time_elapsed":29163,"internal_node_id":"0.0-1.0","protocol_sum":"","subject_identifier":312,"subject_sum":[15,236,249,36,127,61,220,132,219,138,128,79,163,6,92,1,59,175,107,124,36,88,194,186,43,245,108,46,29,66,221,212],"subject_pair":156,"STUDY_ID":"66a0b3911f23dfc7665bb169","PROLIFIC_PID":"5ee2a663afc30b40867d4535","SESSION_ID":"66a1277c269b3a1ae9e9f3a2","practice_instructions":1,"leaderboard_instructions":1,"bonus":0,"reveal_word":false,"self_rating":"6","confidence":"76"},{"view_history":"[{\"page_index\":0,\"viewing_time\":10166.5}]","rt":10166.700000017881,"trial_type":"instructions","trial_index":2,"time_elapsed":39330,"internal_node_id":"0.0-2.0-0.0","protocol_sum":"","subject_identifier":312,"subject_sum":[15,236,249,36,127,61,220,132,219,138,128,79,163,6,92,1,59,175,107,124,36,88,194,186,43,245,108,46,29,66,221,212],"subject_pair":156,"STUDY_ID":"66a0b3911f23dfc7665bb169","PROLIFIC_PID":"5ee2a663afc30b40867d4535","SESSION_ID":"66a1277c269b3a1ae9e9f3a2","practice_instructions":1,"leaderboard_instructions":1,"bonus":0,"reveal_word":false,"self_rating":"6","confidence":"76"},{"rt":5171.0999999940395,"responses":"{\"Q0\":\"... reveal the word with as <b>few letter guesses</b> as possible\"}","question_order":"[0]","trial_type":"survey-multi-choice","trial_index":3,"time_elapsed":44502,"internal_node_id":"0.0-2.0-1.0","protocol_sum":"","subject_identifier":312,"subject_sum":[15,236,249,36,127,61,220,132,219,138,128,79,163,6,92,1,59,175,107,124,36,88,194,186,43,245,108,46,29,66,221,212],"subject_pair":156,"correct":true,"test_part":"multichoice_nonpretend","STUDY_ID":"66a0b3911f23dfc7665bb169","PROLIFIC_PID":"5ee2a663afc30b40867d4535","SESSION_ID":"66a1277c269b3a1ae9e9f3a2","practice_instructions":1,"leaderboard_instructions":1,"bonus":0,"reveal_word":false,"self_rating":"6","confidence":"76"},{"view_history":"[{\"page_index\":0,\"viewing_time\":1903.800000011921}]","rt":1904,"trial_type":"instructions","trial_index":4,"time_elapsed":46407,"internal_node_id":"0.0-3.0","protocol_sum":"","subject_identifier":312,"subject_sum":[15,236,249,36,127,61,220,132,219,138,128,79,163,6,92,1,59,175,107,124,36,88,194,186,43,245,108,46,29,66,221,212],"subject_pair":156,"STUDY_ID":"66a0b3911f23dfc7665bb169","PROLIFIC_PID":"5ee2a663afc30b40867d4535","SESSION_ID":"66a1277c269b3a1ae9e9f3a2","practice_instructions":1,"leaderboard_instructions":1,"bonus":0,"reveal_word":false,"self_rating":"6","confidence":"76"},{"word":"ZEBRA","click_log":{"letter":["","D","C","P","A","H","F","N","I","U","S","L","E","R","B","Z"],"t":[0,1893,2821.9000000059605,4685.5999999940395,5546.4000000059605,7314.5,8777,9673.299999982119,11614.59999999404,12791.09999999404,13871.699999988079,15729.199999988079,16663.90000000596,18297.69999998808,23202.19999998808,24888.40000000596],"hit":[null,0,0,0,1,0,0,0,0,0,0,0,1,1,1,1],"asked":["","D","DC","DCP","DCPA","DCPAH","DCPAHF","DCPAHFN","DCPAHFNI","DCPAHFNIU","DCPAHFNIUS","DCPAHFNIUSL","DCPAHFNIUSLE","DCPAHFNIUSLER","DCPAHFNIUSLERB","DCPAHFNIUSLERBZ"],"word_state":["_____","_____","_____","_____","____A","____A","____A","____A","____A","____A","____A","____A","_E__A","_E_RA","_EBRA","ZEBRA"]},"hover_log":{"letter":["?","?","?","?","?","?","?","?","?","?","?","?","?","?","?","?","?","?","?","?","?","?","?","?","?","?","?","?","S","?","?","?","?","?","?","?","?","?","?","?","?","?","?","?","?","?","?","?","?","?","?","?","?","?","?","?","?","?","?","?","?","?","?","?","?","V","V","V","V","?","?","?","?","M","M","M","M","?","?","?","?","?","D","D","D","D","D","D","D","D","D","D","D","D","D","D","D","D","D","D","D","D","D","D","D","D","D","D","D","D","D","D","D","D","D","D","D","D","D","D","D","D","D","D","D","D","D","D","D","D","D","D","D","D","D","D","D","D","D","D","D","D","D","D","D","D","D","?","C","C","C","C","C","C","C","C","C","C","C","C","C","C","C","C","C","C","C","C","C","C","C","C","C","C","C","C","C","C","C","C","C","C","C","C","C","C","C","C","C","C","C","C","C","C","C","C","C","C","C","C","C","C","C","C","C","C","C","C","C","C","C","C","C","C","C","C","C","C","C","C","C","C","C","C","B","B","B","B","B","B","?","?","?","?","?","?","?","B","B","?","?","?","?","O","?","P","P","P","?","?","?","?","?","?","?","?","?","?","?","?","P","P","P","P","P","P","P","P","P","P","P","P","P","P","P","P","P","P","P","P","P","P","P","P","P","P","P","P","P","P","P","P","P","P","P","P","P","P","P","P","P","O","?","?","?","?","?","?","?","?","?","?","A","A","A","A","A","A","A","A","A","A","A","A","A","A","A","A","A","A","A","A","A","A","A","A","A","A","A","A","A","A","A","A","A","A","A","A","A","A","A","A","A","A","A","A","A","A","A","A","A","A","A","A","A","A","A","A","A","A","A","A","A","A","A","A","A","A","A","A","A","A","A","A","A","A","A","A","A","B","?","?","?","E","F","G","G","G","G","G","G","G","G","G","G","G","G","G","G","G","G","G","G","?","?","H","H","H","H","H","H","H","H","H","H","H","H","H","H","H","H","H","H","H","H","H","H","H","H","H","H","H","H","H","H","H","H","H","H","H","H","H","H","H","H","H","H","H","H","H","H","H","H","H","H","H","H","H","H","H","H","H","H","H","H","H","H","H","H","H","H","H","H","H","H","H","H","H","H","H","H","H","H","H","H","?","G","G","?","?","F","F","F","F","F","F","F","F","F","F","F","F","F","F","F","F","F","F","F","F","F","F","F","F","F","F","F","F","F","F","F","F","F","F","F","F","F","F","F","F","F","F","F","F","F","F","F","F","F","F","F","?","?","?","?","N","N","N","N","N","N","N","N","N","N","N","N","N","N","N","N","N","N","N","N","N","N","N","N","N","N","N","N","N","N","N","N","N","N","N","N","N","N","N","N","N","N","N","N","N","N","?","?","?","U","U","T","T","T","T","T","T","T","T","T","T","T","T","T","T","T","T","T","T","T","T","T","T","T","T","T","T","T","T","T","T","T","T","T","T","T","T","?","?","?","?","U","U","U","?","V","?","?","?","?","?","Q","Q","Q","Q","Q","Q","Q","Q","Q","Q","Q","Q","Q","Q","Q","Q","Q","Q","Q","Q","?","?","?","?","?","I","I","I","I","I","I","I","I","I","I","I","I","I","I","I","I","I","I","I","I","I","I","I","I","I","I","I","I","I","I","I","I","I","I","I","I","I","I","I","?","?","?","P","?","W","?","V","V","V","V","V","V","V","V","V","V","V","V","V","V","V","V","V","V","?","?","?","U","U","U","U","U","U","U","U","U","U","U","U","U","U","U","U","U","U","U","U","U","U","U","U","U","U","U","U","U","U","U","U","U","U","U","U","U","U","U","U","U","U","U","U","U","U","U","U","U","U","U","U","T","T","S","S","?","?","?","?","?","?","?","?","?","?","?","?","?","?","?","S","S","S","S","S","S","S","S","S","S","S","S","S","S","S","S","S","S","S","S","S","S","S","S","S","S","S","S","S","S","S","S","S","S","S","S","S","S","S","S","S","S","S","S","S","S","S","S","S","S","S","S","S","S","S","S","S","S","S","S","S","S","S","?","?","?","?","?","?","?","?","?","?","?","?","?","K","K","K","K","K","K","K","K","K","K","K","K","K","K","K","K","K","K","K","K","K","K","?","L","L","L","L","L","L","L","L","L","L","L","L","L","L","L","L","L","L","L","L","L","L","L","L","L","L","L","L","L","L","L","L","L","L","L","L","L","L","L","L","L","L","L","L","L","L","L","L","L","L","L","L","L","L","L","L","L","L","L","L","?","M","?","?","?","?","E","E","E","E","E","E","E","E","E","E","E","E","E","E","E","E","E","E","E","E","E","E","E","E","E","E","E","E","E","E","E","E","E","E","E","E","E","E","E","E","E","E","E","E","E","E","E","E","E","E","E","E","E","E","E","E","E","E","E","E","E","E","E","E","?","?","?","?","?","?","?","?","?","?","?","?","?","?","?","?","?","?","?","Q","Q","Q","Q","Q","Q","Q","Q","Q","?","?","R","R","R","R","R","R","R","R","R","R","R","R","R","R","R","R","R","R","R","R","R","R","R","R","R","R","R","R","R","R","R","R","R","R","R","R","R","R","R","R","R","R","R","R","R","R","R","R","R","R","R","R","R","R","R","R","R","R","R","R","R","R","R","R","R","R","R","R","R","R","R","R","R","R","R","R","R","R","R","R","R","R","R","R","R","R","R","R","R","R","R","R","R","R","R","R","R","?","?","?","?","Q","Q","?","?","?","?","?","?","?","?","?","?","?","?","?","?","?","?","?","?","?","?","?","?","?","?","?","?","?","O","O","O","O","O","O","O","O","O","O","O","O","O","O","O","O","O","O","O","?","?","?","?","?","?","?","?","?","?","?","X","X","?","?","?","?","?","J","J","J","J","J","J","J","J","J","J","J","J","J","J","J","J","J","J","J","J","J","J","J","J","?","K","K","K","K","K","K","K","K","K","K","K","K","K","K","?","?","?","B","B","B","B","B","B","B","B","B","B","B","B","B","B","B","B","B","B","B","B","B","B","B","B","B","B","B","B","B","B","B","B","B","B","B","B","B","B","B","B","B","B","B","B","B","B","B","B","B","B","B","B","B","B","B","B","B","B","B","B","B","B","B","B","B","B","B","B","B","B","B","B","B","B","B","B","B","B","B","B","B","B","B","B","B","B","B","B","B","B","B","B","B","B","B","B","B","B","B","B","B","B","B","B","B","B","B","B","B","B","B","B","B","B","B","C","C","D","D","E","E","F","F","F","F","F","F","F","F","F","F","F","F","F","F","F","F","F","F","F","F","F","F","F","F","F","F","F","F","F","F","F","F","F","F","F","F","F","F","F","F","F","?","?","?","?","?","?","N","N","N","N","N","?","?","?","?","?","?","?","?","?","?","?","?","?","?","?","?","?","?","?","?","?","?","?","Z","Z","Z","Z","Z","Z","Z","Z","Z","Z","Z","Z","Z","Z","Z","Z","Z","Z","Z","Z","Z","Z","Z","Z","?","?","?","?","?","?","?","?","?","?","?","?","?","?","?","?","?","?","?","?","?","?","?","?","?","?","?","?","?","?","?","?","?","?","?","?","?","?","?","?","?","?","?","?","?","?","?","?","?","?","?","?","?","?","?","?","?","?","?","?","?","?","?","?","?","?","?","?","?","?","?","?","?","?","?","?","?","?","?","?","?","?","?","?","?","?","?","?","?","?","?","?","?","?","?","?","?","?","?","?","?","?","?","?","?","?"],"t":[32,41,59,75,92,108,125,142,158,176,191,208,225,242,258,275,292,308,325,341,358,375,391,408,425,442,458,475,493,508,524,541,558,574,591,608,624,641,658,675,692,708,725,741,759,774,791,809,825,841,858,875,891,908,925,942,959,975,991,1008,1025,1042,1058,1075,1091,1108,1125,1142,1158,1175,1192,1209,1224,1242,1258,1276,1292,1308,1325,1342,1358,1375,1392,1408,1425,1442,1458,1475,1492,1508,1524,1542,1559,1575,1591,1608,1625,1642,1659,1675,1692,1709,1725,1742,1758,1774,1791,1807,1824,1841,1858,1874,1892,1909,1925,1941,1959,1975,1992,2008,2025,2042,2059,2075,2092,2109,2125,2142,2158,2175,2191,2208,2225,2242,2258,2275,2291,2308,2325,2342,2358,2375,2392,2409,2425,2441,2459,2474,2492,2508,2525,2541,2558,2575,2592,2608,2625,2642,2658,2675,2691,2708,2724,2741,2758,2774,2791,2808,2825,2842,2858,2875,2892,2908,2925,2941,2958,2974,2991,3008,3025,3041,3058,3075,3091,3109,3125,3142,3158,3175,3191,3208,3225,3242,3258,3275,3292,3309,3325,3341,3358,3375,3392,3408,3425,3442,3458,3475,3492,3509,3525,3541,3557,3574,3591,3608,3624,3641,3657,3675,3691,3707,3724,3741,3758,3774,3791,3808,3825,3842,3858,3874,3892,3909,3925,3942,3958,3974,3991,4007,4024,4041,4057,4074,4091,4108,4125,4141,4158,4175,4191,4208,4224,4241,4258,4275,4291,4308,4325,4342,4358,4375,4392,4408,4425,4441,4458,4475,4492,4508,4525,4541,4558,4574,4591,4608,4625,4641,4658,4675,4691,4708,4724,4741,4758,4774,4791,4808,4824,4842,4858,4875,4891,4908,4925,4942,4958,4975,4991,5008,5025,5041,5057,5074,5091,5107,5124,5141,5158,5176,5191,5207,5225,5241,5257,5274,5291,5308,5325,5342,5358,5375,5392,5408,5425,5441,5458,5475,5491,5508,5524,5541,5560,5575,5591,5608,5625,5642,5658,5675,5691,5708,5725,5741,5758,5775,5791,5807,5825,5841,5858,5876,5892,5908,5925,5942,5958,5975,5992,6008,6025,6042,6058,6074,6091,6108,6125,6142,6158,6174,6191,6208,6224,6241,6258,6275,6291,6308,6326,6341,6358,6375,6392,6408,6425,6441,6458,6474,6491,6508,6524,6541,6558,6575,6591,6608,6624,6641,6658,6675,6692,6708,6725,6742,6758,6774,6791,6808,6824,6841,6858,6875,6891,6908,6925,6942,6958,6975,6992,7008,7025,7041,7058,7075,7092,7108,7125,7141,7158,7174,7191,7209,7225,7241,7258,7275,7291,7308,7325,7341,7358,7375,7391,7407,7425,7442,7458,7475,7492,7508,7525,7541,7558,7575,7592,7608,7625,7641,7658,7674,7691,7708,7725,7741,7757,7774,7792,7808,7825,7842,7858,7875,7891,7908,7924,7941,7958,7975,7991,8008,8025,8041,8058,8075,8092,8108,8125,8141,8158,8175,8191,8208,8225,8241,8258,8274,8291,8308,8325,8342,8358,8375,8391,8408,8425,8442,8458,8474,8492,8508,8525,8542,8559,8575,8591,8608,8624,8641,8658,8675,8691,8708,8725,8741,8758,8775,8791,8808,8825,8841,8859,8875,8891,8908,8925,8941,8958,8975,8992,9008,9025,9042,9059,9075,9091,9108,9125,9142,9158,9175,9191,9208,9224,9241,9258,9275,9291,9308,9325,9341,9358,9374,9391,9408,9425,9441,9458,9475,9492,9508,9525,9541,9558,9575,9591,9608,9625,9642,9659,9674,9691,9708,9725,9741,9758,9775,9791,9808,9824,9842,9858,9875,9891,9908,9925,9942,9958,9975,9992,10008,10025,10041,10058,10074,10091,10108,10124,10141,10158,10174,10191,10208,10225,10241,10258,10275,10292,10308,10324,10342,10358,10375,10392,10408,10425,10441,10458,10474,10491,10508,10524,10541,10558,10575,10592,10607,10625,10641,10658,10674,10691,10708,10725,10741,10758,10775,10792,10808,10824,10841,10857,10874,10891,10908,10924,10941,10958,10974,10991,11008,11025,11041,11058,11074,11091,11108,11125,11142,11158,11175,11191,11208,11225,11241,11258,11275,11291,11308,11324,11341,11357,11375,11391,11408,11424,11442,11458,11474,11491,11508,11524,11541,11558,11574,11591,11607,11625,11641,11658,11675,11691,11708,11724,11742,11759,11775,11791,11808,11825,11841,11858,11874,11891,11908,11924,11941,11958,11974,11991,12008,12024,12041,12058,12074,12091,12108,12124,12141,12158,12175,12191,12207,12224,12241,12258,12275,12291,12308,12325,12342,12359,12375,12392,12408,12424,12441,12458,12474,12492,12507,12524,12541,12557,12574,12591,12608,12624,12641,12657,12675,12691,12708,12724,12742,12758,12775,12791,12808,12824,12841,12857,12874,12891,12908,12924,12941,12957,12974,12991,13008,13024,13041,13057,13074,13091,13109,13125,13141,13158,13175,13191,13208,13225,13241,13258,13275,13292,13308,13324,13341,13358,13374,13391,13408,13425,13441,13458,13475,13492,13508,13525,13541,13558,13574,13591,13608,13624,13641,13657,13675,13691,13708,13724,13742,13758,13775,13791,13808,13825,13841,13858,13875,13891,13908,13925,13941,13958,13975,13991,14008,14024,14042,14058,14074,14092,14108,14125,14141,14158,14175,14191,14208,14225,14242,14258,14274,14292,14309,14325,14341,14358,14374,14391,14409,14425,14441,14458,14474,14491,14508,14524,14541,14557,14575,14591,14608,14625,14641,14657,14675,14692,14707,14724,14741,14758,14774,14791,14809,14824,14841,14857,14875,14891,14908,14925,14941,14958,14974,14991,15008,15025,15042,15058,15075,15091,15108,15124,15141,15158,15174,15191,15207,15225,15241,15258,15275,15291,15308,15325,15341,15357,15374,15391,15408,15425,15441,15459,15474,15491,15509,15525,15541,15558,15574,15591,15607,15624,15641,15657,15674,15691,15708,15724,15741,15758,15774,15791,15808,15825,15841,15858,15874,15891,15909,15925,15941,15958,15975,15991,16008,16025,16041,16058,16075,16091,16108,16125,16141,16158,16174,16191,16208,16224,16241,16258,16274,16291,16308,16324,16342,16359,16375,16392,16409,16425,16442,16459,16476,16492,16509,16525,16542,16559,16576,16592,16609,16625,16642,16659,16675,16692,16709,16725,16742,16759,16775,16792,16809,16825,16842,16858,16875,16892,16909,16925,16942,16959,16976,16992,17009,17025,17042,17059,17076,17092,17109,17125,17142,17159,17176,17192,17209,17225,17242,17259,17275,17292,17309,17326,17342,17359,17375,17392,17409,17425,17442,17459,17476,17492,17509,17526,17542,17559,17575,17592,17609,17626,17642,17658,17676,17692,17709,17725,17743,17758,17776,17792,17809,17825,17842,17859,17875,17892,17909,17925,17942,17959,17976,17993,18009,18025,18042,18059,18076,18092,18109,18125,18142,18159,18175,18192,18209,18225,18242,18259,18275,18292,18309,18325,18342,18359,18375,18392,18409,18425,18442,18458,18475,18492,18509,18525,18542,18559,18575,18593,18609,18625,18642,18659,18676,18692,18709,18726,18743,18759,18775,18792,18808,18825,18842,18859,18875,18892,18909,18925,18942,18959,18975,18992,19009,19026,19042,19059,19076,19092,19108,19125,19142,19158,19175,19192,19209,19225,19242,19259,19275,19292,19309,19325,19342,19358,19375,19392,19409,19425,19442,19459,19475,19492,19508,19525,19542,19558,19576,19592,19609,19626,19642,19659,19675,19692,19710,19726,19742,19759,19776,19793,19809,19825,19842,19859,19876,19892,19909,19925,19942,19959,19976,19992,20009,20025,20042,20059,20076,20092,20109,20126,20142,20159,20175,20192,20209,20226,20242,20259,20275,20292,20309,20325,20342,20359,20375,20392,20409,20426,20442,20459,20476,20492,20509,20525,20542,20558,20576,20591,20609,20625,20642,20659,20676,20692,20709,20725,20742,20759,20775,20792,20809,20825,20842,20859,20876,20892,20908,20925,20942,20958,20976,20992,21009,21025,21042,21059,21075,21092,21109,21125,21142,21159,21176,21192,21208,21225,21242,21259,21275,21292,21309,21325,21342,21358,21375,21392,21409,21426,21442,21458,21475,21492,21509,21525,21542,21559,21575,21592,21609,21625,21642,21659,21675,21692,21709,21725,21742,21759,21776,21792,21809,21825,21842,21859,21875,21892,21909,21925,21942,21959,21976,21992,22009,22025,22042,22059,22075,22092,22109,22125,22142,22159,22175,22192,22209,22225,22242,22259,22275,22292,22309,22325,22342,22359,22375,22392,22409,22425,22442,22458,22475,22492,22509,22525,22542,22559,22575,22592,22609,22625,22642,22659,22675,22692,22709,22725,22742,22759,22776,22792,22809,22825,22842,22859,22875,22892,22909,22925,22942,22959,22975,22992,23008,23025,23042,23059,23075,23092,23109,23126,23142,23159,23176,23192,23209,23225,23242,23259,23275,23292,23309,23325,23342,23359,23375,23392,23409,23425,23442,23459,23475,23492,23508,23525,23542,23559,23575,23592,23608,23625,23642,23659,23676,23692,23709,23725,23742,23759,23775,23792,23809,23825,23842,23858,23875,23892,23908,23925,23942,23958,23976,23992,24009,24025,24042,24058,24075,24092,24109,24126,24142,24159,24175,24192,24209,24226,24242,24259,24275,24293,24309,24325,24342,24359,24375,24392,24409,24425,24442,24459,24475,24492,24509,24525,24542,24559,24575,24592,24609,24625,24642,24658,24675,24692,24709,24725,24742,24759,24776,24792,24809,24825,24842,24859,24875,24894,24909,24926,24942,24959,24976,24992,25009,25025,25042,25059,25075,25092,25108,25125,25142,25158,25176,25192,25209,25225,25242,25259,25275,25292,25309,25325,25342,25359,25375,25392,25409,25425,25442,25459,25475,25492,25509,25525,25542,25558,25575,25592,25608,25626,25642,25659,25675,25692,25709,25725,25742,25759,25776,25792,25809,25825,25842,25859,25875,25892,25909,25925,25942,25959,25976,25992,26009,26025,26042,26059,26075,26092,26108,26126,26142,26158,26175,26193,26208,26225,26242,26259,26276,26292,26309,26326,26343,26359,26375,26392,26409,26426,26442,26459,26476,26492,26509,26525,26542,26559,26576,26592,26608,26626,26642,26658,26676,26692,26709,26725,26742,26759,26775,26792,26809,26825,26842,26859,26875,26893],"hit":[null],"x":[-0.7380952380952381,-0.7380952380952381,-0.7380952380952381,-0.7380952380952381,-0.7380952380952381,-0.7380952380952381,-0.7380952380952381,-0.7380952380952381,-0.7380952380952381,-0.7380952380952381,-0.7380952380952381,-0.7380952380952381,-0.7380952380952381,-0.7380952380952381,-0.7380952380952381,-0.7380952380952381,-0.7380952380952381,-0.7380952380952381,-0.7380952380952381,-0.7380952380952381,-0.7380952380952381,-0.7380952380952381,-0.7380952380952381,-0.7380952380952381,-0.7380952380952381,-0.7380952380952381,-0.7380952380952381,-0.7380952380952381,0.01020408163265306,0.03741496598639456,0.06462585034013606,0.09863945578231292,0.14625850340136054,0.20408163265306123,0.25170068027210885,0.29931972789115646,0.3401360544217687,0.3673469387755102,0.3877551020408163,0.4013605442176871,0.40816326530612246,0.41496598639455784,0.4217687074829932,0.42857142857142855,0.43197278911564624,0.43537414965986393,0.4421768707482993,0.4387755102040816,0.43537414965986393,0.43537414965986393,0.43537414965986393,0.43537414965986393,0.43537414965986393,0.43537414965986393,0.43537414965986393,0.43537414965986393,0.43537414965986393,0.43537414965986393,0.43537414965986393,0.43537414965986393,0.43537414965986393,0.43537414965986393,0.43537414965986393,0.4387755102040816,0.4421768707482993,0.4489795918367347,0.46258503401360546,0.47619047619047616,0.48299319727891155,0.4897959183673469,0.4897959183673469,0.48299319727891155,0.46938775510204084,0.4523809523809524,0.43537414965986393,0.4217687074829932,0.41836734693877553,0.41496598639455784,0.41496598639455784,0.41156462585034015,0.40816326530612246,0.40816326530612246,0.40816326530612246,0.40816326530612246,0.40816326530612246,0.40816326530612246,0.40816326530612246,0.40816326530612246,0.40816326530612246,0.41156462585034015,0.41156462585034015,0.41156462585034015,0.41156462585034015,0.41156462585034015,0.41156462585034015,0.41156462585034015,0.41156462585034015,0.41156462585034015,0.41156462585034015,0.41156462585034015,0.41156462585034015,0.41156462585034015,0.41156462585034015,0.41156462585034015,0.41156462585034015,0.41156462585034015,0.41156462585034015,0.41156462585034015,0.41156462585034015,0.41156462585034015,0.41156462585034015,0.41156462585034015,0.41156462585034015,0.41156462585034015,0.41156462585034015,0.41156462585034015,0.41156462585034015,0.41156462585034015,0.41156462585034015,0.41156462585034015,0.41156462585034015,0.41156462585034015,0.41156462585034015,0.41156462585034015,0.41156462585034015,0.41156462585034015,0.41156462585034015,0.41156462585034015,0.41156462585034015,0.41156462585034015,0.41156462585034015,0.41156462585034015,0.41156462585034015,0.41156462585034015,0.41156462585034015,0.41156462585034015,0.41156462585034015,0.41156462585034015,0.41156462585034015,0.41156462585034015,0.41156462585034015,0.41156462585034015,0.41156462585034015,0.41156462585034015,0.40816326530612246,0.3945578231292517,0.38095238095238093,0.36394557823129253,0.3435374149659864,0.3299319727891156,0.3231292517006803,0.3163265306122449,0.3163265306122449,0.3163265306122449,0.3163265306122449,0.3163265306122449,0.3163265306122449,0.3163265306122449,0.3163265306122449,0.3163265306122449,0.3163265306122449,0.3163265306122449,0.3163265306122449,0.3163265306122449,0.3163265306122449,0.3163265306122449,0.3163265306122449,0.3163265306122449,0.3163265306122449,0.3163265306122449,0.3163265306122449,0.3163265306122449,0.3163265306122449,0.3163265306122449,0.3163265306122449,0.3163265306122449,0.3163265306122449,0.3163265306122449,0.3163265306122449,0.3163265306122449,0.3163265306122449,0.3163265306122449,0.3163265306122449,0.3163265306122449,0.3163265306122449,0.3163265306122449,0.3163265306122449,0.3163265306122449,0.3163265306122449,0.3163265306122449,0.3163265306122449,0.3163265306122449,0.3163265306122449,0.3163265306122449,0.3163265306122449,0.3163265306122449,0.3163265306122449,0.3163265306122449,0.3163265306122449,0.3163265306122449,0.3163265306122449,0.3163265306122449,0.3163265306122449,0.3163265306122449,0.3163265306122449,0.3163265306122449,0.3163265306122449,0.3163265306122449,0.3163265306122449,0.3163265306122449,0.3163265306122449,0.3163265306122449,0.3163265306122449,0.3163265306122449,0.3163265306122449,0.3163265306122449,0.3163265306122449,0.3163265306122449,0.3163265306122449,0.3163265306122449,0.30952380952380953,0.2891156462585034,0.2653061224489796,0.23129251700680273,0.19727891156462585,0.16326530612244897,0.13945578231292516,0.12244897959183673,0.10204081632653061,0.09523809523809523,0.08163265306122448,0.08163265306122448,0.08163265306122448,0.0782312925170068,0.0782312925170068,0.0782312925170068,0.08163265306122448,0.10884353741496598,0.16326530612244897,0.24829931972789115,0.35034013605442177,0.48299319727891155,0.6054421768707483,0.7142857142857143,0.7891156462585034,0.8435374149659864,0.8707482993197279,0.8775510204081632,0.8809523809523809,0.8809523809523809,0.8809523809523809,0.8809523809523809,0.8809523809523809,0.8809523809523809,0.8809523809523809,0.8809523809523809,0.8809523809523809,0.8809523809523809,0.8809523809523809,0.8809523809523809,0.8707482993197279,0.8673469387755102,0.8639455782312925,0.8605442176870748,0.8605442176870748,0.8605442176870748,0.8571428571428571,0.8571428571428571,0.8571428571428571,0.8571428571428571,0.8571428571428571,0.8571428571428571,0.8571428571428571,0.8571428571428571,0.8571428571428571,0.8571428571428571,0.8571428571428571,0.8571428571428571,0.8571428571428571,0.8571428571428571,0.8571428571428571,0.8571428571428571,0.8571428571428571,0.8571428571428571,0.8571428571428571,0.8571428571428571,0.8571428571428571,0.8571428571428571,0.8571428571428571,0.8571428571428571,0.8571428571428571,0.8571428571428571,0.8571428571428571,0.8571428571428571,0.8571428571428571,0.8571428571428571,0.8571428571428571,0.8571428571428571,0.8571428571428571,0.8469387755102041,0.8129251700680272,0.7482993197278912,0.6394557823129252,0.48299319727891155,0.3197278911564626,0.1836734693877551,0.0782312925170068,0.013605442176870748,-0.013605442176870748,-0.02040816326530612,-0.02040816326530612,-0.02040816326530612,-0.02040816326530612,-0.02040816326530612,-0.02040816326530612,-0.02040816326530612,-0.02040816326530612,-0.02040816326530612,-0.02040816326530612,-0.02040816326530612,-0.02040816326530612,-0.02040816326530612,-0.02040816326530612,-0.02040816326530612,-0.02040816326530612,-0.02040816326530612,-0.02040816326530612,-0.02040816326530612,-0.02040816326530612,-0.02040816326530612,-0.02040816326530612,-0.02040816326530612,-0.02040816326530612,-0.02040816326530612,-0.02040816326530612,-0.02040816326530612,-0.02040816326530612,-0.02040816326530612,-0.02040816326530612,-0.02040816326530612,-0.02040816326530612,-0.02040816326530612,-0.02040816326530612,-0.02040816326530612,-0.02040816326530612,-0.02040816326530612,-0.02040816326530612,-0.02040816326530612,-0.02040816326530612,-0.02040816326530612,-0.02040816326530612,-0.02040816326530612,-0.02040816326530612,-0.02040816326530612,-0.02040816326530612,-0.02040816326530612,-0.02040816326530612,-0.02040816326530612,-0.02040816326530612,-0.02040816326530612,-0.02040816326530612,-0.02040816326530612,-0.02040816326530612,-0.02040816326530612,-0.02040816326530612,-0.02040816326530612,-0.02040816326530612,-0.02040816326530612,-0.02040816326530612,-0.02040816326530612,-0.02040816326530612,-0.02040816326530612,-0.02040816326530612,-0.02040816326530612,-0.02040816326530612,-0.02040816326530612,-0.02040816326530612,-0.02040816326530612,-0.02040816326530612,-0.02040816326530612,-0.02040816326530612,-0.02040816326530612,-0.02040816326530612,-0.02040816326530612,-0.02040816326530612,-0.02040816326530612,-0.02040816326530612,-0.013605442176870748,0.030612244897959183,0.10884353741496598,0.2108843537414966,0.3469387755102041,0.4897959183673469,0.6190476190476191,0.7346938775510204,0.8163265306122449,0.8605442176870748,0.8775510204081632,0.8775510204081632,0.8775510204081632,0.8775510204081632,0.8775510204081632,0.8775510204081632,0.8775510204081632,0.8775510204081632,0.8775510204081632,0.8775510204081632,0.8775510204081632,0.8775510204081632,0.8775510204081632,0.8775510204081632,0.8775510204081632,0.8877551020408163,0.9149659863945578,0.9421768707482994,0.9727891156462585,0.9965986394557823,1.0068027210884354,1.010204081632653,1.010204081632653,1.010204081632653,1.010204081632653,1.010204081632653,1.010204081632653,1.010204081632653,1.010204081632653,1.010204081632653,1.010204081632653,1.010204081632653,1.010204081632653,1.010204081632653,1.010204081632653,1.010204081632653,1.010204081632653,1.010204081632653,1.010204081632653,1.010204081632653,1.010204081632653,1.010204081632653,1.010204081632653,1.010204081632653,1.010204081632653,1.010204081632653,1.010204081632653,1.010204081632653,1.010204081632653,1.0136054421768708,1.0136054421768708,1.0136054421768708,1.0136054421768708,1.0136054421768708,1.0136054421768708,1.0136054421768708,1.0136054421768708,1.0136054421768708,1.0136054421768708,1.0136054421768708,1.0136054421768708,1.0136054421768708,1.0136054421768708,1.0136054421768708,1.0136054421768708,1.0136054421768708,1.0136054421768708,1.0136054421768708,1.0136054421768708,1.0136054421768708,1.0136054421768708,1.0136054421768708,1.0136054421768708,1.0136054421768708,1.0136054421768708,1.0136054421768708,1.0136054421768708,1.0136054421768708,1.0136054421768708,1.0136054421768708,1.0136054421768708,1.0136054421768708,1.0136054421768708,1.0136054421768708,1.0136054421768708,1.0136054421768708,1.0136054421768708,1.0136054421768708,1.0136054421768708,1.0136054421768708,1.0136054421768708,1.0136054421768708,1.0136054421768708,1.0136054421768708,1.0136054421768708,1.010204081632653,0.9931972789115646,0.9625850340136054,0.9251700680272109,0.8809523809523809,0.8435374149659864,0.8027210884353742,0.7721088435374149,0.7517006802721088,0.7448979591836735,0.7414965986394558,0.7414965986394558,0.7414965986394558,0.7414965986394558,0.7414965986394558,0.7414965986394558,0.7380952380952381,0.7380952380952381,0.7346938775510204,0.7312925170068028,0.7312925170068028,0.7278911564625851,0.7278911564625851,0.7278911564625851,0.7278911564625851,0.7278911564625851,0.7278911564625851,0.7278911564625851,0.7278911564625851,0.7278911564625851,0.7278911564625851,0.7278911564625851,0.7278911564625851,0.7278911564625851,0.7278911564625851,0.7278911564625851,0.7278911564625851,0.7278911564625851,0.7278911564625851,0.7278911564625851,0.7278911564625851,0.7278911564625851,0.7278911564625851,0.7278911564625851,0.7278911564625851,0.7278911564625851,0.7278911564625851,0.7278911564625851,0.7278911564625851,0.7278911564625851,0.7278911564625851,0.7278911564625851,0.7278911564625851,0.7278911564625851,0.7278911564625851,0.7278911564625851,0.7278911564625851,0.7278911564625851,0.7210884353741497,0.7108843537414966,0.6904761904761905,0.6632653061224489,0.6292517006802721,0.608843537414966,0.5884353741496599,0.5782312925170068,0.5748299319727891,0.5748299319727891,0.5748299319727891,0.5748299319727891,0.5748299319727891,0.5748299319727891,0.5748299319727891,0.5748299319727891,0.5748299319727891,0.5748299319727891,0.5748299319727891,0.5748299319727891,0.5748299319727891,0.5748299319727891,0.5748299319727891,0.5748299319727891,0.5748299319727891,0.5748299319727891,0.5748299319727891,0.5748299319727891,0.5748299319727891,0.5748299319727891,0.5748299319727891,0.5748299319727891,0.5748299319727891,0.5748299319727891,0.5748299319727891,0.5748299319727891,0.5748299319727891,0.5748299319727891,0.5748299319727891,0.5748299319727891,0.5748299319727891,0.5748299319727891,0.5748299319727891,0.5748299319727891,0.5748299319727891,0.5748299319727891,0.5748299319727891,0.5748299319727891,0.5748299319727891,0.5748299319727891,0.5612244897959183,0.5238095238095238,0.4557823129251701,0.3741496598639456,0.2857142857142857,0.23129251700680273,0.1836734693877551,0.16326530612244897,0.16326530612244897,0.16326530612244897,0.16326530612244897,0.16326530612244897,0.16326530612244897,0.16326530612244897,0.16326530612244897,0.16326530612244897,0.16326530612244897,0.16326530612244897,0.16326530612244897,0.16326530612244897,0.16326530612244897,0.16326530612244897,0.16326530612244897,0.16666666666666666,0.16666666666666666,0.16666666666666666,0.16666666666666666,0.16666666666666666,0.16666666666666666,0.16666666666666666,0.16666666666666666,0.16666666666666666,0.16666666666666666,0.16666666666666666,0.16666666666666666,0.16666666666666666,0.16666666666666666,0.16666666666666666,0.17006802721088435,0.17346938775510204,0.18027210884353742,0.19047619047619047,0.20068027210884354,0.21428571428571427,0.21768707482993196,0.22789115646258504,0.24149659863945577,0.2619047619047619,0.29931972789115646,0.35034013605442177,0.41496598639455784,0.5034013605442177,0.6224489795918368,0.7380952380952381,0.8605442176870748,0.95578231292517,1.0170068027210883,1.0408163265306123,1.0476190476190477,1.0476190476190477,1.0510204081632653,1.0510204081632653,1.0510204081632653,1.0510204081632653,1.0510204081632653,1.0510204081632653,1.0510204081632653,1.0510204081632653,1.0510204081632653,1.0510204081632653,1.0510204081632653,1.0510204081632653,1.0510204081632653,1.0510204081632653,1.0510204081632653,1.054421768707483,1.0612244897959184,1.0748299319727892,1.0850340136054422,1.08843537414966,1.098639455782313,1.1020408163265305,1.1020408163265305,1.1020408163265305,1.1020408163265305,1.1020408163265305,1.1020408163265305,1.1020408163265305,1.1020408163265305,1.1020408163265305,1.1020408163265305,1.1020408163265305,1.1020408163265305,1.1020408163265305,1.1020408163265305,1.1020408163265305,1.1020408163265305,1.1020408163265305,1.1020408163265305,1.1020408163265305,1.1020408163265305,1.1020408163265305,1.1020408163265305,1.1020408163265305,1.1020408163265305,1.1020408163265305,1.1020408163265305,1.1020408163265305,1.1020408163265305,1.1020408163265305,1.1020408163265305,1.1020408163265305,1.1020408163265305,1.1020408163265305,1.1020408163265305,1.1020408163265305,1.1020408163265305,1.1020408163265305,1.1020408163265305,1.1020408163265305,1.0748299319727892,1.0272108843537415,0.9387755102040817,0.8129251700680272,0.6802721088435374,0.5714285714285714,0.4897959183673469,0.43537414965986393,0.40816326530612246,0.40476190476190477,0.40476190476190477,0.40476190476190477,0.40476190476190477,0.40476190476190477,0.40476190476190477,0.40476190476190477,0.4013605442176871,0.4013605442176871,0.4013605442176871,0.4013605442176871,0.4013605442176871,0.4013605442176871,0.3945578231292517,0.3843537414965986,0.3741496598639456,0.3673469387755102,0.35374149659863946,0.3469387755102041,0.3401360544217687,0.3401360544217687,0.3401360544217687,0.3401360544217687,0.3401360544217687,0.336734693877551,0.3333333333333333,0.3299319727891156,0.32653061224489793,0.3129251700680272,0.30612244897959184,0.29931972789115646,0.29931972789115646,0.29931972789115646,0.29931972789115646,0.29931972789115646,0.29931972789115646,0.29931972789115646,0.29931972789115646,0.29931972789115646,0.29931972789115646,0.29931972789115646,0.29931972789115646,0.29931972789115646,0.29931972789115646,0.29931972789115646,0.29931972789115646,0.29931972789115646,0.29931972789115646,0.29931972789115646,0.29931972789115646,0.29931972789115646,0.29931972789115646,0.29931972789115646,0.29931972789115646,0.29931972789115646,0.29931972789115646,0.29931972789115646,0.29931972789115646,0.29931972789115646,0.29931972789115646,0.29931972789115646,0.29931972789115646,0.29931972789115646,0.29931972789115646,0.29931972789115646,0.29931972789115646,0.29931972789115646,0.29931972789115646,0.29931972789115646,0.2789115646258503,0.23809523809523808,0.17006802721088435,0.09523809523809523,0.013605442176870748,-0.04081632653061224,-0.06802721088435375,-0.07482993197278912,-0.07482993197278912,-0.07482993197278912,-0.07482993197278912,-0.07482993197278912,-0.07482993197278912,-0.07482993197278912,-0.07482993197278912,-0.07482993197278912,-0.07482993197278912,-0.07482993197278912,-0.07482993197278912,-0.07142857142857142,-0.05782312925170068,-0.04421768707482993,-0.027210884353741496,-0.017006802721088437,-0.003401360544217687,0,0,0.003401360544217687,0.003401360544217687,0.003401360544217687,0.003401360544217687,0.003401360544217687,0.003401360544217687,0.003401360544217687,0.003401360544217687,0.003401360544217687,0.003401360544217687,0.003401360544217687,0.003401360544217687,0.003401360544217687,0.003401360544217687,0.003401360544217687,0.003401360544217687,0.003401360544217687,0.003401360544217687,0.003401360544217687,0.003401360544217687,0.003401360544217687,0.003401360544217687,0.003401360544217687,0.003401360544217687,0.003401360544217687,0.003401360544217687,0.003401360544217687,0.003401360544217687,0.003401360544217687,0.003401360544217687,0.003401360544217687,0.003401360544217687,0.003401360544217687,0.003401360544217687,0.003401360544217687,0.003401360544217687,0.003401360544217687,0.003401360544217687,0.003401360544217687,0.003401360544217687,0.003401360544217687,0.003401360544217687,0.003401360544217687,0.003401360544217687,0.003401360544217687,0.003401360544217687,0.003401360544217687,0.003401360544217687,0.003401360544217687,0.003401360544217687,0.003401360544217687,0.003401360544217687,0.01020408163265306,0.02040816326530612,0.027210884353741496,0.03741496598639456,0.04421768707482993,0.05442176870748299,0.05442176870748299,0.061224489795918366,0.061224489795918366,0.061224489795918366,0.05782312925170068,0.05782312925170068,0.05782312925170068,0.05782312925170068,0.061224489795918366,0.06802721088435375,0.07142857142857142,0.08163265306122448,0.08843537414965986,0.09523809523809523,0.09863945578231292,0.10204081632653061,0.10204081632653061,0.10204081632653061,0.10204081632653061,0.10204081632653061,0.10204081632653061,0.10204081632653061,0.10204081632653061,0.10204081632653061,0.10204081632653061,0.10204081632653061,0.10204081632653061,0.10204081632653061,0.10884353741496598,0.11904761904761904,0.1360544217687075,0.1564625850340136,0.17687074829931973,0.19387755102040816,0.2108843537414966,0.23129251700680273,0.24489795918367346,0.25510204081632654,0.2585034013605442,0.2585034013605442,0.2585034013605442,0.2585034013605442,0.2585034013605442,0.2585034013605442,0.2585034013605442,0.2585034013605442,0.2585034013605442,0.2585034013605442,0.2585034013605442,0.2585034013605442,0.2585034013605442,0.2585034013605442,0.2585034013605442,0.2585034013605442,0.2585034013605442,0.2585034013605442,0.2585034013605442,0.2585034013605442,0.2585034013605442,0.2585034013605442,0.2585034013605442,0.2585034013605442,0.2585034013605442,0.2585034013605442,0.2585034013605442,0.2585034013605442,0.2585034013605442,0.2585034013605442,0.2585034013605442,0.2585034013605442,0.2585034013605442,0.2585034013605442,0.2585034013605442,0.2585034013605442,0.2585034013605442,0.2585034013605442,0.2585034013605442,0.2585034013605442,0.2585034013605442,0.2585034013605442,0.2585034013605442,0.2585034013605442,0.2585034013605442,0.2585034013605442,0.2585034013605442,0.2585034013605442,0.2585034013605442,0.2585034013605442,0.2585034013605442,0.2585034013605442,0.2585034013605442,0.2585034013605442,0.2585034013605442,0.2857142857142857,0.3163265306122449,0.3673469387755102,0.4217687074829932,0.46938775510204084,0.5034013605442177,0.5238095238095238,0.5306122448979592,0.5374149659863946,0.5374149659863946,0.5374149659863946,0.5374149659863946,0.5374149659863946,0.5374149659863946,0.5374149659863946,0.5374149659863946,0.5374149659863946,0.5374149659863946,0.5374149659863946,0.5374149659863946,0.5374149659863946,0.5374149659863946,0.5374149659863946,0.5374149659863946,0.5374149659863946,0.5374149659863946,0.5374149659863946,0.5374149659863946,0.5374149659863946,0.5374149659863946,0.5374149659863946,0.5374149659863946,0.5374149659863946,0.5374149659863946,0.5374149659863946,0.5374149659863946,0.5374149659863946,0.5374149659863946,0.5374149659863946,0.5374149659863946,0.5374149659863946,0.5374149659863946,0.5374149659863946,0.5374149659863946,0.5374149659863946,0.5374149659863946,0.5374149659863946,0.5374149659863946,0.5374149659863946,0.5374149659863946,0.5374149659863946,0.5374149659863946,0.5374149659863946,0.5374149659863946,0.5374149659863946,0.5374149659863946,0.5374149659863946,0.54421768707483,0.5578231292517006,0.5714285714285714,0.5816326530612245,0.5918367346938775,0.5986394557823129,0.6020408163265306,0.6020408163265306,0.6020408163265306,0.6020408163265306,0.6020408163265306,0.6020408163265306,0.6020408163265306,0.6020408163265306,0.608843537414966,0.6224489795918368,0.6360544217687075,0.6598639455782312,0.6836734693877551,0.7108843537414966,0.7346938775510204,0.7619047619047619,0.7857142857142857,0.8061224489795918,0.8333333333333334,0.8605442176870748,0.8877551020408163,0.9115646258503401,0.9285714285714286,0.9421768707482994,0.9489795918367347,0.9523809523809523,0.95578231292517,0.9591836734693877,0.9625850340136054,0.9659863945578231,0.9659863945578231,0.9727891156462585,0.9795918367346939,0.9897959183673469,1.0068027210884354,1.0204081632653061,1.0408163265306123,1.0612244897959184,1.0748299319727892,1.08843537414966,1.098639455782313,1.1020408163265305,1.1088435374149659,1.1122448979591837,1.1156462585034013,1.1156462585034013,1.119047619047619,1.119047619047619,1.119047619047619,1.119047619047619,1.119047619047619,1.119047619047619,1.119047619047619,1.119047619047619,1.119047619047619,1.119047619047619,1.119047619047619,1.119047619047619,1.119047619047619,1.119047619047619,1.119047619047619,1.119047619047619,1.119047619047619,1.119047619047619,1.119047619047619,1.119047619047619,1.119047619047619,1.119047619047619,1.119047619047619,1.119047619047619,1.119047619047619,1.119047619047619,1.119047619047619,1.119047619047619,1.119047619047619,1.119047619047619,1.119047619047619,1.119047619047619,1.119047619047619,1.119047619047619,1.119047619047619,1.119047619047619,1.119047619047619,1.119047619047619,1.119047619047619,1.119047619047619,1.119047619047619,1.119047619047619,1.119047619047619,1.119047619047619,1.119047619047619,1.119047619047619,1.119047619047619,1.119047619047619,1.119047619047619,1.119047619047619,1.119047619047619,1.119047619047619,1.119047619047619,1.119047619047619,1.119047619047619,1.119047619047619,1.119047619047619,1.119047619047619,1.119047619047619,1.119047619047619,1.119047619047619,1.119047619047619,1.119047619047619,1.119047619047619,1.119047619047619,1.119047619047619,1.119047619047619,1.119047619047619,1.119047619047619,1.119047619047619,1.119047619047619,1.119047619047619,1.119047619047619,1.119047619047619,1.119047619047619,1.119047619047619,1.119047619047619,1.119047619047619,1.119047619047619,1.119047619047619,1.119047619047619,1.119047619047619,1.119047619047619,1.119047619047619,1.119047619047619,1.119047619047619,1.119047619047619,1.119047619047619,1.1088435374149659,1.0952380952380953,1.0782312925170068,1.064625850340136,1.0476190476190477,1.034013605442177,1.0204081632653061,1.010204081632653,1.0034013605442176,0.9965986394557823,0.9897959183673469,0.9829931972789115,0.9795918367346939,0.9693877551020408,0.9659863945578231,0.9591836734693877,0.9591836734693877,0.9523809523809523,0.9455782312925171,0.9387755102040817,0.9251700680272109,0.9081632653061225,0.8843537414965986,0.8673469387755102,0.8537414965986394,0.8435374149659864,0.8401360544217688,0.8367346938775511,0.8333333333333334,0.8299319727891157,0.826530612244898,0.8129251700680272,0.7993197278911565,0.782312925170068,0.7687074829931972,0.7551020408163265,0.7482993197278912,0.7414965986394558,0.7346938775510204,0.7278911564625851,0.7278911564625851,0.7244897959183674,0.7244897959183674,0.7244897959183674,0.7244897959183674,0.7244897959183674,0.7244897959183674,0.7244897959183674,0.7244897959183674,0.7244897959183674,0.7244897959183674,0.7244897959183674,0.7312925170068028,0.7346938775510204,0.7380952380952381,0.7482993197278912,0.7551020408163265,0.7619047619047619,0.7721088435374149,0.7755102040816326,0.7755102040816326,0.7755102040816326,0.7755102040816326,0.7755102040816326,0.7755102040816326,0.7619047619047619,0.7210884353741497,0.6326530612244898,0.5034013605442177,0.35714285714285715,0.21428571428571427,0.09523809523809523,0.013605442176870748,-0.027210884353741496,-0.030612244897959183,-0.030612244897959183,-0.030612244897959183,-0.030612244897959183,-0.030612244897959183,-0.030612244897959183,-0.030612244897959183,-0.030612244897959183,-0.030612244897959183,-0.027210884353741496,-0.027210884353741496,-0.023809523809523808,-0.02040816326530612,-0.017006802721088437,-0.013605442176870748,-0.013605442176870748,-0.01020408163265306,-0.006802721088435374,0.003401360544217687,0.013605442176870748,0.034013605442176874,0.05442176870748299,0.0782312925170068,0.09863945578231292,0.11904761904761904,0.12585034013605442,0.1326530612244898,0.1360544217687075,0.13945578231292516,0.13945578231292516,0.13945578231292516,0.13945578231292516,0.13945578231292516,0.13945578231292516,0.14285714285714285,0.14285714285714285,0.14625850340136054,0.14965986394557823,0.15306122448979592,0.15306122448979592,0.1598639455782313,0.16666666666666666,0.17346938775510204,0.17687074829931973,0.17687074829931973,0.17687074829931973,0.17687074829931973,0.17687074829931973,0.17687074829931973,0.17687074829931973,0.17687074829931973,0.17687074829931973,0.17687074829931973,0.17687074829931973,0.17687074829931973,0.17687074829931973,0.17687074829931973,0.17687074829931973,0.17687074829931973,0.17687074829931973,0.17687074829931973,0.17687074829931973,0.17687074829931973,0.17687074829931973,0.17687074829931973,0.17687074829931973,0.17687074829931973,0.17687074829931973,0.17687074829931973,0.17687074829931973,0.17687074829931973,0.17687074829931973,0.17687074829931973,0.17687074829931973,0.17687074829931973,0.17687074829931973,0.17687074829931973,0.17687074829931973,0.17687074829931973,0.17687074829931973,0.17687074829931973,0.17687074829931973,0.17687074829931973,0.17687074829931973,0.17687074829931973,0.17687074829931973,0.17687074829931973,0.17687074829931973,0.17687074829931973,0.17687074829931973,0.17687074829931973,0.17687074829931973,0.17687074829931973,0.17687074829931973,0.17687074829931973,0.17687074829931973,0.17687074829931973,0.17687074829931973,0.17687074829931973,0.17687074829931973,0.17687074829931973,0.17687074829931973,0.17687074829931973,0.17687074829931973,0.17687074829931973,0.17687074829931973,0.17687074829931973,0.17687074829931973,0.17687074829931973,0.17687074829931973,0.17687074829931973,0.17687074829931973,0.17687074829931973,0.17687074829931973,0.17687074829931973,0.17687074829931973,0.17687074829931973,0.17687074829931973,0.17687074829931973,0.17687074829931973,0.17687074829931973,0.17687074829931973,0.17687074829931973,0.17687074829931973,0.17687074829931973,0.17687074829931973,0.17687074829931973,0.17687074829931973,0.17687074829931973,0.17687074829931973,0.17687074829931973,0.17687074829931973,0.17687074829931973,0.17687074829931973,0.17687074829931973,0.17687074829931973,0.17687074829931973,0.17687074829931973,0.17687074829931973,0.17687074829931973,0.17687074829931973,0.17687074829931973,0.17687074829931973,0.17687074829931973,0.17687074829931973,0.17687074829931973,0.17687074829931973,0.17687074829931973,0.17687074829931973,0.17687074829931973,0.17687074829931973,0.17687074829931973,0.17687074829931973,0.17687074829931973,0.19727891156462585,0.24489795918367346,0.30952380952380953,0.3843537414965986,0.47619047619047616,0.5544217687074829,0.6190476190476191,0.6632653061224489,0.6870748299319728,0.6938775510204082,0.6938775510204082,0.6938775510204082,0.6938775510204082,0.6938775510204082,0.6938775510204082,0.6938775510204082,0.6938775510204082,0.6938775510204082,0.6938775510204082,0.6938775510204082,0.6938775510204082,0.6938775510204082,0.6938775510204082,0.6938775510204082,0.6938775510204082,0.6938775510204082,0.6938775510204082,0.6938775510204082,0.6938775510204082,0.6938775510204082,0.6938775510204082,0.6938775510204082,0.6938775510204082,0.6938775510204082,0.6938775510204082,0.6938775510204082,0.6938775510204082,0.6938775510204082,0.6938775510204082,0.6938775510204082,0.6938775510204082,0.6938775510204082,0.6938775510204082,0.6938775510204082,0.6938775510204082,0.6938775510204082,0.6904761904761905,0.6836734693877551,0.6802721088435374,0.6700680272108843,0.6666666666666666,0.6530612244897959,0.6394557823129252,0.6224489795918368,0.6054421768707483,0.5986394557823129,0.5918367346938775,0.5918367346938775,0.5918367346938775,0.5986394557823129,0.6190476190476191,0.6530612244897959,0.7074829931972789,0.7721088435374149,0.8333333333333334,0.8877551020408163,0.9251700680272109,0.9387755102040817,0.9387755102040817,0.9387755102040817,0.9387755102040817,0.9387755102040817,0.9387755102040817,0.9387755102040817,0.9387755102040817,0.9387755102040817,0.9387755102040817,0.9387755102040817,0.9387755102040817,0.9387755102040817,0.9387755102040817,0.9421768707482994,0.9523809523809523,0.95578231292517,0.9659863945578231,0.9795918367346939,0.9931972789115646,0.9931972789115646,0.9931972789115646,0.9931972789115646,0.9931972789115646,0.9931972789115646,0.9931972789115646,0.9931972789115646,0.9931972789115646,0.9931972789115646,0.9931972789115646,0.9931972789115646,0.9931972789115646,0.9931972789115646,0.9931972789115646,0.9931972789115646,0.9931972789115646,0.9931972789115646,0.9897959183673469,0.9795918367346939,0.9693877551020408,0.9625850340136054,0.9523809523809523,0.9489795918367347,0.9455782312925171,0.9387755102040817,0.9251700680272109,0.9081632653061225,0.891156462585034,0.8741496598639455,0.8571428571428571,0.8435374149659864,0.8333333333333334,0.8163265306122449,0.7959183673469388,0.7619047619047619,0.7210884353741497,0.6802721088435374,0.6360544217687075,0.5816326530612245,0.5476190476190477,0.5476190476190477,0.5476190476190477,0.5476190476190477,0.5476190476190477,0.5476190476190477,0.5476190476190477,0.5476190476190477,0.5476190476190477,0.5476190476190477,0.5476190476190477,0.5476190476190477,0.5476190476190477,0.5476190476190477,0.5476190476190477,0.5476190476190477,0.54421768707483,0.5374149659863946,0.5306122448979592,0.5204081632653061,0.5170068027210885,0.5170068027210885,0.5170068027210885,0.5170068027210885,0.5170068027210885,0.5102040816326531,0.5,0.4897959183673469,0.48639455782312924,0.48639455782312924,0.4897959183673469,0.4965986394557823,0.5,0.5,0.5,0.5,0.5034013605442177,0.5068027210884354,0.5102040816326531,0.5102040816326531,0.5102040816326531,0.5102040816326531,0.5102040816326531,0.5136054421768708,0.5272108843537415,0.5476190476190477,0.5714285714285714,0.5952380952380952,0.6122448979591837,0.6224489795918368,0.6292517006802721,0.6360544217687075,0.6394557823129252,0.6394557823129252,0.6394557823129252,0.6326530612244898,0.6258503401360545,0.6224489795918368,0.6224489795918368,0.6224489795918368,0.6224489795918368,0.6224489795918368,0.6224489795918368,0.6224489795918368,0.6224489795918368,0.6224489795918368,0.6224489795918368,0.6224489795918368,0.6224489795918368,0.6224489795918368,0.6224489795918368,0.6224489795918368,0.6224489795918368,0.6224489795918368,0.6224489795918368,0.6224489795918368,0.6224489795918368,0.6224489795918368,0.6224489795918368,0.6224489795918368,0.6224489795918368,0.6224489795918368,0.6224489795918368,0.6224489795918368,0.6224489795918368,0.6224489795918368],"y":[-2.9285714285714284,-2.9285714285714284,-2.9285714285714284,-2.9285714285714284,-2.9285714285714284,-2.9285714285714284,-2.9285714285714284,-2.9285714285714284,-2.9285714285714284,-2.9285714285714284,-2.9285714285714284,-2.9285714285714284,-2.9285714285714284,-2.9285714285714284,-2.9285714285714284,-2.9285714285714284,-2.9285714285714284,-2.9285714285714284,-2.9285714285714284,-2.9285714285714284,-2.9285714285714284,-2.9285714285714284,-2.9285714285714284,-2.9285714285714284,-2.9285714285714284,-2.9285714285714284,-2.9285714285714284,-2.9285714285714284,1.0904761904761904,1.138095238095238,1.1761904761904762,1.2142857142857142,1.2333333333333334,1.2523809523809524,1.2619047619047619,1.2714285714285714,1.2714285714285714,1.2809523809523808,1.2904761904761906,1.2904761904761906,1.2904761904761906,1.2904761904761906,1.2904761904761906,1.2904761904761906,1.2904761904761906,1.2904761904761906,1.2523809523809524,1.2333333333333334,1.2333333333333334,1.2333333333333334,1.2333333333333334,1.2333333333333334,1.2333333333333334,1.2333333333333334,1.2333333333333334,1.2333333333333334,1.2333333333333334,1.2333333333333334,1.2333333333333334,1.2333333333333334,1.2333333333333334,1.2333333333333334,1.2333333333333334,1.2142857142857142,1.1761904761904762,1.1285714285714286,1.0714285714285714,1.0142857142857142,0.9380952380952381,0.8714285714285714,0.7952380952380952,0.719047619047619,0.6238095238095238,0.5380952380952381,0.46190476190476193,0.4142857142857143,0.3761904761904762,0.319047619047619,0.2619047619047619,0.21428571428571427,0.18571428571428572,0.16666666666666666,0.14761904761904762,0.12857142857142856,0.10952380952380952,0.07142857142857142,0.05238095238095238,0.03333333333333333,0.023809523809523808,-0.004761904761904762,-0.014285714285714285,-0.023809523809523808,-0.023809523809523808,-0.023809523809523808,-0.023809523809523808,-0.023809523809523808,-0.023809523809523808,-0.023809523809523808,-0.023809523809523808,-0.023809523809523808,-0.023809523809523808,-0.023809523809523808,-0.023809523809523808,-0.023809523809523808,-0.023809523809523808,-0.023809523809523808,-0.023809523809523808,-0.023809523809523808,-0.023809523809523808,-0.023809523809523808,-0.023809523809523808,-0.023809523809523808,-0.023809523809523808,-0.023809523809523808,-0.023809523809523808,-0.023809523809523808,-0.023809523809523808,-0.023809523809523808,-0.023809523809523808,-0.023809523809523808,-0.023809523809523808,-0.023809523809523808,-0.023809523809523808,-0.023809523809523808,-0.023809523809523808,-0.023809523809523808,-0.023809523809523808,-0.023809523809523808,-0.023809523809523808,-0.023809523809523808,-0.023809523809523808,-0.023809523809523808,-0.023809523809523808,-0.023809523809523808,-0.023809523809523808,-0.023809523809523808,-0.023809523809523808,-0.023809523809523808,-0.023809523809523808,-0.023809523809523808,-0.023809523809523808,-0.023809523809523808,-0.023809523809523808,-0.023809523809523808,-0.023809523809523808,-0.023809523809523808,-0.023809523809523808,-0.023809523809523808,-0.023809523809523808,-0.023809523809523808,-0.023809523809523808,-0.014285714285714285,-0.014285714285714285,-0.014285714285714285,-0.014285714285714285,-0.014285714285714285,-0.014285714285714285,-0.014285714285714285,-0.014285714285714285,-0.014285714285714285,-0.014285714285714285,-0.014285714285714285,-0.014285714285714285,-0.014285714285714285,-0.014285714285714285,-0.014285714285714285,-0.014285714285714285,-0.014285714285714285,-0.014285714285714285,-0.014285714285714285,-0.014285714285714285,-0.014285714285714285,-0.014285714285714285,-0.014285714285714285,-0.014285714285714285,-0.014285714285714285,-0.014285714285714285,-0.014285714285714285,-0.014285714285714285,-0.014285714285714285,-0.014285714285714285,-0.014285714285714285,-0.014285714285714285,-0.014285714285714285,-0.014285714285714285,-0.014285714285714285,-0.014285714285714285,-0.014285714285714285,-0.014285714285714285,-0.014285714285714285,-0.014285714285714285,-0.014285714285714285,-0.014285714285714285,-0.014285714285714285,-0.014285714285714285,-0.014285714285714285,-0.014285714285714285,-0.014285714285714285,-0.014285714285714285,-0.014285714285714285,-0.014285714285714285,-0.014285714285714285,-0.014285714285714285,-0.014285714285714285,-0.014285714285714285,-0.014285714285714285,-0.014285714285714285,-0.014285714285714285,-0.014285714285714285,-0.014285714285714285,-0.014285714285714285,-0.014285714285714285,-0.014285714285714285,-0.014285714285714285,-0.014285714285714285,-0.014285714285714285,-0.014285714285714285,-0.014285714285714285,-0.014285714285714285,-0.014285714285714285,-0.014285714285714285,-0.014285714285714285,-0.014285714285714285,-0.014285714285714285,-0.014285714285714285,-0.014285714285714285,-0.014285714285714285,-0.014285714285714285,-0.014285714285714285,-0.014285714285714285,-0.004761904761904762,-0.004761904761904762,-0.004761904761904762,-0.004761904761904762,0.004761904761904762,0.014285714285714285,0.04285714285714286,0.09047619047619047,0.14761904761904762,0.21428571428571427,0.2619047619047619,0.30952380952380953,0.3380952380952381,0.36666666666666664,0.3761904761904762,0.3761904761904762,0.3761904761904762,0.3476190476190476,0.3380952380952381,0.319047619047619,0.319047619047619,0.319047619047619,0.319047619047619,0.319047619047619,0.319047619047619,0.319047619047619,0.319047619047619,0.319047619047619,0.319047619047619,0.319047619047619,0.3380952380952381,0.36666666666666664,0.3761904761904762,0.38571428571428573,0.3952380952380952,0.40476190476190477,0.4142857142857143,0.4142857142857143,0.4142857142857143,0.4142857142857143,0.4142857142857143,0.4142857142857143,0.4142857142857143,0.4142857142857143,0.4142857142857143,0.4142857142857143,0.4142857142857143,0.4142857142857143,0.4142857142857143,0.4142857142857143,0.4142857142857143,0.4238095238095238,0.4238095238095238,0.4238095238095238,0.4238095238095238,0.4238095238095238,0.4238095238095238,0.4238095238095238,0.4238095238095238,0.4238095238095238,0.4238095238095238,0.4238095238095238,0.4238095238095238,0.4238095238095238,0.4238095238095238,0.4238095238095238,0.4238095238095238,0.4238095238095238,0.4238095238095238,0.4238095238095238,0.4238095238095238,0.4238095238095238,0.3952380952380952,0.35714285714285715,0.30952380952380953,0.2619047619047619,0.23333333333333334,0.20476190476190476,0.18571428571428572,0.16666666666666666,0.16666666666666666,0.16666666666666666,0.14761904761904762,0.1380952380952381,0.12857142857142856,0.12857142857142856,0.10952380952380952,0.10952380952380952,0.10952380952380952,0.10952380952380952,0.10952380952380952,0.09047619047619047,0.08095238095238096,0.07142857142857142,0.05238095238095238,0.03333333333333333,0.03333333333333333,0.03333333333333333,0.03333333333333333,0.03333333333333333,0.03333333333333333,0.03333333333333333,0.03333333333333333,0.03333333333333333,0.03333333333333333,0.03333333333333333,0.03333333333333333,0.03333333333333333,0.03333333333333333,0.03333333333333333,0.03333333333333333,0.03333333333333333,0.03333333333333333,0.03333333333333333,0.03333333333333333,0.03333333333333333,0.03333333333333333,0.03333333333333333,0.03333333333333333,0.03333333333333333,0.03333333333333333,0.03333333333333333,0.03333333333333333,0.03333333333333333,0.03333333333333333,0.03333333333333333,0.03333333333333333,0.03333333333333333,0.03333333333333333,0.03333333333333333,0.03333333333333333,0.03333333333333333,0.03333333333333333,0.03333333333333333,0.03333333333333333,0.03333333333333333,0.03333333333333333,0.03333333333333333,0.03333333333333333,0.03333333333333333,0.03333333333333333,0.03333333333333333,0.03333333333333333,0.03333333333333333,0.03333333333333333,0.03333333333333333,0.03333333333333333,0.03333333333333333,0.03333333333333333,0.03333333333333333,0.03333333333333333,0.03333333333333333,0.03333333333333333,0.03333333333333333,0.03333333333333333,0.03333333333333333,0.03333333333333333,0.03333333333333333,0.03333333333333333,0.03333333333333333,0.03333333333333333,0.03333333333333333,0.03333333333333333,0.04285714285714286,0.04285714285714286,0.04285714285714286,0.04285714285714286,0.04285714285714286,0.04285714285714286,0.04285714285714286,0.04285714285714286,0.04285714285714286,0.04285714285714286,0.04285714285714286,0.04285714285714286,0.04285714285714286,0.04285714285714286,0.04285714285714286,0.04285714285714286,0.04285714285714286,0.04285714285714286,0.04285714285714286,0.04285714285714286,0.05238095238095238,0.06190476190476191,0.07142857142857142,0.07142857142857142,0.07142857142857142,0.07142857142857142,0.07142857142857142,0.07142857142857142,0.07142857142857142,0.07142857142857142,0.07142857142857142,0.07142857142857142,0.07142857142857142,0.07142857142857142,0.07142857142857142,0.07142857142857142,0.07142857142857142,0.07142857142857142,0.07142857142857142,0.07142857142857142,0.07142857142857142,0.07142857142857142,0.07142857142857142,0.07142857142857142,0.07142857142857142,0.07142857142857142,0.07142857142857142,0.07142857142857142,0.07142857142857142,0.07142857142857142,0.07142857142857142,0.07142857142857142,0.07142857142857142,0.07142857142857142,0.07142857142857142,0.07142857142857142,0.07142857142857142,0.07142857142857142,0.07142857142857142,0.07142857142857142,0.07142857142857142,0.07142857142857142,0.07142857142857142,0.07142857142857142,0.07142857142857142,0.07142857142857142,0.07142857142857142,0.07142857142857142,0.07142857142857142,0.07142857142857142,0.07142857142857142,0.07142857142857142,0.07142857142857142,0.07142857142857142,0.07142857142857142,0.07142857142857142,0.07142857142857142,0.07142857142857142,0.07142857142857142,0.07142857142857142,0.07142857142857142,0.07142857142857142,0.07142857142857142,0.07142857142857142,0.07142857142857142,0.07142857142857142,0.07142857142857142,0.07142857142857142,0.07142857142857142,0.07142857142857142,0.07142857142857142,0.07142857142857142,0.07142857142857142,0.07142857142857142,0.07142857142857142,0.07142857142857142,0.07142857142857142,0.07142857142857142,0.07142857142857142,0.07142857142857142,0.07142857142857142,0.07142857142857142,0.09047619047619047,0.10952380952380952,0.10952380952380952,0.12857142857142856,0.12857142857142856,0.12857142857142856,0.1380952380952381,0.1380952380952381,0.1380952380952381,0.1380952380952381,0.1380952380952381,0.1380952380952381,0.1380952380952381,0.1380952380952381,0.1380952380952381,0.12857142857142856,0.11904761904761904,0.10952380952380952,0.1,0.1,0.1,0.1,0.1,0.1,0.1,0.1,0.1,0.1,0.1,0.1,0.1,0.1,0.1,0.1,0.1,0.1,0.1,0.1,0.1,0.1,0.1,0.1,0.1,0.1,0.1,0.1,0.1,0.1,0.1,0.1,0.1,0.1,0.1,0.1,0.1,0.1380952380952381,0.18571428571428572,0.2619047619047619,0.35714285714285715,0.44285714285714284,0.49047619047619045,0.5285714285714286,0.5476190476190477,0.5476190476190477,0.5476190476190477,0.5476190476190477,0.5476190476190477,0.5476190476190477,0.5476190476190477,0.5476190476190477,0.5476190476190477,0.5476190476190477,0.5476190476190477,0.5476190476190477,0.5476190476190477,0.5476190476190477,0.5476190476190477,0.5476190476190477,0.5476190476190477,0.5476190476190477,0.5476190476190477,0.5476190476190477,0.5476190476190477,0.5476190476190477,0.5476190476190477,0.5476190476190477,0.5476190476190477,0.5476190476190477,0.5476190476190477,0.5476190476190477,0.5476190476190477,0.5476190476190477,0.5476190476190477,0.5476190476190477,0.5476190476190477,0.5476190476190477,0.5476190476190477,0.5476190476190477,0.5476190476190477,0.5476190476190477,0.5476190476190477,0.5476190476190477,0.5476190476190477,0.5476190476190477,0.5571428571428572,0.5857142857142857,0.6428571428571429,0.7285714285714285,0.8428571428571429,0.9666666666666667,1.042857142857143,1.1,1.1095238095238096,1.1095238095238096,1.1095238095238096,1.1095238095238096,1.1095238095238096,1.1095238095238096,1.1095238095238096,1.1095238095238096,1.1,1.1,1.0904761904761904,1.0809523809523809,1.0714285714285714,1.061904761904762,1.0523809523809524,1.042857142857143,1.0238095238095237,1.0238095238095237,1.0238095238095237,1.0238095238095237,1.0238095238095237,1.0238095238095237,1.0238095238095237,1.0238095238095237,1.0238095238095237,1.0238095238095237,1.0238095238095237,1.0238095238095237,1.0238095238095237,1.0238095238095237,1.0238095238095237,1.0142857142857142,0.9952380952380953,0.9857142857142858,0.9761904761904762,0.9571428571428572,0.9476190476190476,0.9476190476190476,0.9380952380952381,0.9285714285714286,0.919047619047619,0.9095238095238095,0.8904761904761904,0.8714285714285714,0.8428571428571429,0.8047619047619048,0.7571428571428571,0.6904761904761905,0.6333333333333333,0.5952380952380952,0.5571428571428572,0.5380952380952381,0.5285714285714286,0.5190476190476191,0.5190476190476191,0.5095238095238095,0.5095238095238095,0.5095238095238095,0.5095238095238095,0.5095238095238095,0.5095238095238095,0.5095238095238095,0.5095238095238095,0.5095238095238095,0.5095238095238095,0.5095238095238095,0.5095238095238095,0.49047619047619045,0.46190476190476193,0.4142857142857143,0.3476190476190476,0.2714285714285714,0.21428571428571427,0.14761904761904762,0.1,0.05238095238095238,0.03333333333333333,0.014285714285714285,0.014285714285714285,0.014285714285714285,0.014285714285714285,0.014285714285714285,0.014285714285714285,0.014285714285714285,0.014285714285714285,0.014285714285714285,0.014285714285714285,0.014285714285714285,0.014285714285714285,0.014285714285714285,0.014285714285714285,0.014285714285714285,0.014285714285714285,0.014285714285714285,0.014285714285714285,0.014285714285714285,0.014285714285714285,0.014285714285714285,0.014285714285714285,0.014285714285714285,0.014285714285714285,0.014285714285714285,0.014285714285714285,0.014285714285714285,0.014285714285714285,0.014285714285714285,0.014285714285714285,0.014285714285714285,0.014285714285714285,0.014285714285714285,0.014285714285714285,0.014285714285714285,0.014285714285714285,0.08095238095238096,0.18571428571428572,0.36666666666666664,0.5571428571428572,0.7571428571428571,0.9095238095238095,0.9952380952380953,1.0523809523809524,1.0714285714285714,1.0714285714285714,1.0714285714285714,1.0714285714285714,1.0714285714285714,1.0714285714285714,1.0714285714285714,1.0714285714285714,1.061904761904762,1.061904761904762,1.061904761904762,1.061904761904762,1.061904761904762,1.061904761904762,1.061904761904762,1.0523809523809524,1.042857142857143,1.042857142857143,1.042857142857143,1.0333333333333334,1.0238095238095237,1.0238095238095237,1.0238095238095237,1.0238095238095237,1.0238095238095237,1.0238095238095237,1.0238095238095237,1.0238095238095237,1.0238095238095237,1.0238095238095237,1.0238095238095237,1.0238095238095237,1.0238095238095237,1.0238095238095237,1.0238095238095237,1.0238095238095237,1.0238095238095237,1.0238095238095237,1.0238095238095237,1.0238095238095237,1.0238095238095237,1.0238095238095237,1.0238095238095237,1.0238095238095237,1.0238095238095237,1.0238095238095237,1.0238095238095237,1.0238095238095237,1.0238095238095237,1.0238095238095237,1.0238095238095237,1.0238095238095237,1.0238095238095237,1.0238095238095237,1.0238095238095237,1.0238095238095237,1.0238095238095237,1.0238095238095237,1.0238095238095237,1.0238095238095237,1.0238095238095237,1.0238095238095237,1.0238095238095237,1.0238095238095237,1.0238095238095237,1.0238095238095237,1.0238095238095237,1.0238095238095237,1.0238095238095237,1.0238095238095237,1.0238095238095237,1.0047619047619047,0.9952380952380953,0.9666666666666667,0.9476190476190476,0.9285714285714286,0.9095238095238095,0.9095238095238095,0.9095238095238095,0.9095238095238095,0.9095238095238095,0.9095238095238095,0.9095238095238095,0.9095238095238095,0.9095238095238095,0.9095238095238095,0.9095238095238095,0.9095238095238095,0.9095238095238095,0.919047619047619,0.9476190476190476,0.9571428571428572,0.9761904761904762,0.9857142857142858,0.9857142857142858,0.9857142857142858,0.9857142857142858,0.9857142857142858,0.9857142857142858,0.9857142857142858,0.9857142857142858,0.9857142857142858,0.9857142857142858,0.9857142857142858,0.9857142857142858,0.9857142857142858,0.9857142857142858,0.9857142857142858,0.9857142857142858,0.9857142857142858,0.9857142857142858,0.9857142857142858,0.9857142857142858,0.9857142857142858,0.9857142857142858,0.9857142857142858,0.9857142857142858,0.9857142857142858,0.9857142857142858,0.9857142857142858,0.9857142857142858,0.9857142857142858,0.9857142857142858,0.9857142857142858,0.9857142857142858,0.9857142857142858,0.9857142857142858,0.9857142857142858,0.9857142857142858,0.9857142857142858,0.9857142857142858,0.9857142857142858,0.9857142857142858,0.9857142857142858,0.9857142857142858,0.9857142857142858,0.9857142857142858,0.9857142857142858,0.9857142857142858,0.9857142857142858,0.9857142857142858,0.9857142857142858,0.9857142857142858,0.9857142857142858,0.9857142857142858,0.9857142857142858,0.9857142857142858,0.9857142857142858,0.9857142857142858,0.9857142857142858,0.9857142857142858,0.9666666666666667,0.9476190476190476,0.9095238095238095,0.8714285714285714,0.8523809523809524,0.8142857142857143,0.7571428571428571,0.719047619047619,0.680952380952381,0.6428571428571429,0.6238095238095238,0.5952380952380952,0.5761904761904761,0.5666666666666667,0.5571428571428572,0.5476190476190477,0.5380952380952381,0.5285714285714286,0.5285714285714286,0.5285714285714286,0.5285714285714286,0.5285714285714286,0.5285714285714286,0.5285714285714286,0.5285714285714286,0.5285714285714286,0.5285714285714286,0.5285714285714286,0.5285714285714286,0.5285714285714286,0.5285714285714286,0.5285714285714286,0.5285714285714286,0.5285714285714286,0.5190476190476191,0.5190476190476191,0.5190476190476191,0.5095238095238095,0.5,0.5,0.5,0.5,0.5,0.5,0.5,0.5,0.5,0.5,0.5,0.5,0.5,0.5,0.5,0.5,0.5,0.5,0.5,0.5,0.5,0.5,0.5,0.5,0.5,0.5,0.5,0.5,0.5,0.5,0.5,0.5,0.5,0.5,0.5,0.5,0.5,0.5,0.5,0.5,0.5,0.5,0.5,0.5,0.5,0.5,0.5,0.5,0.5,0.5,0.5,0.5,0.5,0.5,0.5,0.5,0.5,0.5,0.5,0.49047619047619045,0.48095238095238096,0.4523809523809524,0.38571428571428573,0.30952380952380953,0.23333333333333334,0.16666666666666666,0.12857142857142856,0.1,0.07142857142857142,0.06190476190476191,0.05238095238095238,0.05238095238095238,0.05238095238095238,0.05238095238095238,0.05238095238095238,0.05238095238095238,0.05238095238095238,0.05238095238095238,0.05238095238095238,0.05238095238095238,0.05238095238095238,0.05238095238095238,0.05238095238095238,0.05238095238095238,0.05238095238095238,0.05238095238095238,0.05238095238095238,0.05238095238095238,0.05238095238095238,0.05238095238095238,0.05238095238095238,0.05238095238095238,0.05238095238095238,0.05238095238095238,0.05238095238095238,0.05238095238095238,0.05238095238095238,0.05238095238095238,0.05238095238095238,0.05238095238095238,0.05238095238095238,0.05238095238095238,0.05238095238095238,0.05238095238095238,0.05238095238095238,0.05238095238095238,0.05238095238095238,0.05238095238095238,0.05238095238095238,0.05238095238095238,0.05238095238095238,0.05238095238095238,0.05238095238095238,0.05238095238095238,0.05238095238095238,0.05238095238095238,0.05238095238095238,0.05238095238095238,0.07142857142857142,0.08095238095238096,0.08095238095238096,0.1,0.1,0.1,0.1,0.1,0.1,0.1,0.1,0.1,0.10952380952380952,0.11904761904761904,0.12857142857142856,0.14761904761904762,0.16666666666666666,0.18571428571428572,0.20476190476190476,0.22380952380952382,0.23333333333333334,0.2523809523809524,0.2619047619047619,0.28095238095238095,0.3,0.319047619047619,0.3380952380952381,0.3476190476190476,0.36666666666666664,0.36666666666666664,0.3761904761904762,0.3761904761904762,0.38571428571428573,0.3952380952380952,0.40476190476190477,0.4142857142857143,0.4238095238095238,0.44285714285714284,0.4523809523809524,0.48095238095238096,0.49047619047619045,0.49047619047619045,0.5,0.5095238095238095,0.5190476190476191,0.5190476190476191,0.5190476190476191,0.5190476190476191,0.5190476190476191,0.5190476190476191,0.5190476190476191,0.5190476190476191,0.5190476190476191,0.5190476190476191,0.5190476190476191,0.5190476190476191,0.5190476190476191,0.5190476190476191,0.5190476190476191,0.5190476190476191,0.5190476190476191,0.5190476190476191,0.5190476190476191,0.5190476190476191,0.5190476190476191,0.5190476190476191,0.5190476190476191,0.5190476190476191,0.5190476190476191,0.5190476190476191,0.5190476190476191,0.5190476190476191,0.5190476190476191,0.5190476190476191,0.5190476190476191,0.5190476190476191,0.5190476190476191,0.5190476190476191,0.5190476190476191,0.5190476190476191,0.5190476190476191,0.5190476190476191,0.5190476190476191,0.5190476190476191,0.5190476190476191,0.5190476190476191,0.5190476190476191,0.5190476190476191,0.5190476190476191,0.5190476190476191,0.5190476190476191,0.5190476190476191,0.5190476190476191,0.5190476190476191,0.5190476190476191,0.5190476190476191,0.5190476190476191,0.5190476190476191,0.5190476190476191,0.5190476190476191,0.5190476190476191,0.5190476190476191,0.5190476190476191,0.5190476190476191,0.5190476190476191,0.5190476190476191,0.5190476190476191,0.5190476190476191,0.5190476190476191,0.5190476190476191,0.5190476190476191,0.5190476190476191,0.5190476190476191,0.5190476190476191,0.5190476190476191,0.5190476190476191,0.5190476190476191,0.5190476190476191,0.5190476190476191,0.5190476190476191,0.5190476190476191,0.5190476190476191,0.5190476190476191,0.5190476190476191,0.5190476190476191,0.5190476190476191,0.5190476190476191,0.5190476190476191,0.5190476190476191,0.5190476190476191,0.5190476190476191,0.5190476190476191,0.5190476190476191,0.5190476190476191,0.5190476190476191,0.5190476190476191,0.5190476190476191,0.5285714285714286,0.5380952380952381,0.5571428571428572,0.5761904761904761,0.5952380952380952,0.6142857142857143,0.6428571428571429,0.6523809523809524,0.6619047619047619,0.680952380952381,0.680952380952381,0.7,0.7,0.7095238095238096,0.719047619047619,0.719047619047619,0.719047619047619,0.719047619047619,0.719047619047619,0.719047619047619,0.7285714285714285,0.7285714285714285,0.7285714285714285,0.7285714285714285,0.7285714285714285,0.7285714285714285,0.719047619047619,0.719047619047619,0.719047619047619,0.719047619047619,0.7095238095238096,0.7095238095238096,0.6904761904761905,0.6714285714285714,0.6523809523809524,0.6333333333333333,0.6142857142857143,0.6047619047619047,0.5857142857142857,0.5666666666666667,0.5666666666666667,0.5571428571428572,0.5571428571428572,0.5571428571428572,0.5571428571428572,0.5571428571428572,0.5571428571428572,0.5571428571428572,0.5571428571428572,0.5571428571428572,0.5571428571428572,0.5571428571428572,0.5571428571428572,0.6047619047619047,0.6428571428571429,0.680952380952381,0.7571428571428571,0.8047619047619048,0.8714285714285714,0.9095238095238095,0.9380952380952381,0.9476190476190476,0.9476190476190476,0.9476190476190476,0.9476190476190476,0.9476190476190476,0.9476190476190476,0.9380952380952381,0.9095238095238095,0.8714285714285714,0.8142857142857143,0.7476190476190476,0.680952380952381,0.6428571428571429,0.6142857142857143,0.6047619047619047,0.6047619047619047,0.5952380952380952,0.5952380952380952,0.5952380952380952,0.5952380952380952,0.5952380952380952,0.5952380952380952,0.5761904761904761,0.5666666666666667,0.5666666666666667,0.5571428571428572,0.5476190476190477,0.5380952380952381,0.5380952380952381,0.5285714285714286,0.5285714285714286,0.5285714285714286,0.5190476190476191,0.5,0.49047619047619045,0.49047619047619045,0.4714285714285714,0.4523809523809524,0.44285714285714284,0.4238095238095238,0.4238095238095238,0.4142857142857143,0.4142857142857143,0.4142857142857143,0.4142857142857143,0.4142857142857143,0.4142857142857143,0.4142857142857143,0.40476190476190477,0.3761904761904762,0.3380952380952381,0.3,0.2523809523809524,0.20476190476190476,0.14761904761904762,0.10952380952380952,0.07142857142857142,0.05238095238095238,0.03333333333333333,0.03333333333333333,0.03333333333333333,0.03333333333333333,0.03333333333333333,0.03333333333333333,0.03333333333333333,0.03333333333333333,0.03333333333333333,0.03333333333333333,0.03333333333333333,0.03333333333333333,0.03333333333333333,0.03333333333333333,0.03333333333333333,0.03333333333333333,0.03333333333333333,0.03333333333333333,0.03333333333333333,0.03333333333333333,0.03333333333333333,0.03333333333333333,0.03333333333333333,0.03333333333333333,0.03333333333333333,0.03333333333333333,0.03333333333333333,0.03333333333333333,0.03333333333333333,0.03333333333333333,0.03333333333333333,0.03333333333333333,0.03333333333333333,0.03333333333333333,0.03333333333333333,0.03333333333333333,0.03333333333333333,0.03333333333333333,0.03333333333333333,0.03333333333333333,0.03333333333333333,0.03333333333333333,0.03333333333333333,0.03333333333333333,0.03333333333333333,0.03333333333333333,0.03333333333333333,0.03333333333333333,0.03333333333333333,0.03333333333333333,0.03333333333333333,0.03333333333333333,0.03333333333333333,0.03333333333333333,0.03333333333333333,0.03333333333333333,0.03333333333333333,0.03333333333333333,0.03333333333333333,0.03333333333333333,0.03333333333333333,0.03333333333333333,0.03333333333333333,0.03333333333333333,0.03333333333333333,0.03333333333333333,0.03333333333333333,0.03333333333333333,0.03333333333333333,0.03333333333333333,0.03333333333333333,0.03333333333333333,0.03333333333333333,0.03333333333333333,0.03333333333333333,0.03333333333333333,0.03333333333333333,0.03333333333333333,0.03333333333333333,0.03333333333333333,0.03333333333333333,0.03333333333333333,0.03333333333333333,0.03333333333333333,0.03333333333333333,0.03333333333333333,0.03333333333333333,0.03333333333333333,0.03333333333333333,0.03333333333333333,0.03333333333333333,0.03333333333333333,0.03333333333333333,0.03333333333333333,0.03333333333333333,0.03333333333333333,0.03333333333333333,0.03333333333333333,0.03333333333333333,0.03333333333333333,0.03333333333333333,0.03333333333333333,0.03333333333333333,0.03333333333333333,0.03333333333333333,0.03333333333333333,0.03333333333333333,0.03333333333333333,0.03333333333333333,0.03333333333333333,0.03333333333333333,0.03333333333333333,0.03333333333333333,0.03333333333333333,0.04285714285714286,0.04285714285714286,0.03333333333333333,0.023809523809523808,0.004761904761904762,-0.004761904761904762,-0.004761904761904762,-0.004761904761904762,-0.004761904761904762,-0.004761904761904762,-0.004761904761904762,-0.004761904761904762,-0.004761904761904762,-0.004761904761904762,-0.004761904761904762,-0.004761904761904762,-0.004761904761904762,-0.004761904761904762,-0.004761904761904762,-0.004761904761904762,-0.004761904761904762,-0.004761904761904762,-0.004761904761904762,-0.004761904761904762,-0.004761904761904762,-0.004761904761904762,-0.004761904761904762,-0.004761904761904762,-0.004761904761904762,-0.004761904761904762,-0.004761904761904762,-0.004761904761904762,-0.004761904761904762,-0.004761904761904762,-0.004761904761904762,-0.004761904761904762,-0.004761904761904762,-0.004761904761904762,-0.004761904761904762,-0.004761904761904762,-0.004761904761904762,0.023809523809523808,0.06190476190476191,0.1,0.14761904761904762,0.18571428571428572,0.22380952380952382,0.2714285714285714,0.319047619047619,0.3761904761904762,0.43333333333333335,0.48095238095238096,0.5285714285714286,0.5666666666666667,0.6142857142857143,0.6523809523809524,0.6904761904761905,0.7285714285714285,0.7571428571428571,0.7952380952380952,0.8238095238095238,0.8523809523809524,0.8714285714285714,0.8714285714285714,0.8714285714285714,0.8714285714285714,0.8714285714285714,0.8714285714285714,0.8714285714285714,0.8714285714285714,0.8714285714285714,0.8714285714285714,0.8714285714285714,0.8714285714285714,0.8714285714285714,0.8714285714285714,0.8714285714285714,0.8904761904761904,0.9095238095238095,0.9285714285714286,0.9666666666666667,0.9857142857142858,1.0047619047619047,1.0142857142857142,1.0142857142857142,1.0142857142857142,1.0142857142857142,1.0142857142857142,1.0142857142857142,1.0142857142857142,1.0142857142857142,1.0142857142857142,1.0142857142857142,1.0142857142857142,1.0142857142857142,1.0142857142857142,1.0142857142857142,1.0142857142857142,1.0142857142857142,1.0142857142857142,1.042857142857143,1.1,1.1666666666666667,1.2523809523809524,1.3761904761904762,1.519047619047619,1.6714285714285715,1.776190476190476,1.880952380952381,1.9761904761904763,2.0428571428571427,2.1,2.1476190476190475,2.176190476190476,2.1857142857142855,2.1857142857142855,2.1857142857142855,2.1857142857142855,2.1666666666666665,2.1476190476190475,2.1095238095238096,2.0714285714285716,2.033333333333333,2.033333333333333,2.033333333333333,2.033333333333333,2.033333333333333,2.033333333333333,2.033333333333333,2.033333333333333,2.033333333333333,2.033333333333333,2.033333333333333,2.033333333333333,2.033333333333333,2.033333333333333,2.033333333333333,2.033333333333333,2.0142857142857142,1.9952380952380953,1.9857142857142858,1.9761904761904763,1.9761904761904763,1.9761904761904763,1.9761904761904763,1.9761904761904763,1.9761904761904763,1.957142857142857,1.9,1.8428571428571427,1.7857142857142858,1.7476190476190476,1.7285714285714286,1.7285714285714286,1.7190476190476192,1.7190476190476192,1.7190476190476192,1.7190476190476192,1.7190476190476192,1.7190476190476192,1.7095238095238094,1.7095238095238094,1.7095238095238094,1.7095238095238094,1.7095238095238094,1.7095238095238094,1.661904761904762,1.6333333333333333,1.6047619047619048,1.5952380952380953,1.5857142857142856,1.5857142857142856,1.5857142857142856,1.5761904761904761,1.5666666666666667,1.5666666666666667,1.5666666666666667,1.5571428571428572,1.5571428571428572,1.5571428571428572,1.5571428571428572,1.5571428571428572,1.5571428571428572,1.5571428571428572,1.5571428571428572,1.5571428571428572,1.5571428571428572,1.5571428571428572,1.5571428571428572,1.5571428571428572,1.5571428571428572,1.5571428571428572,1.5571428571428572,1.5571428571428572,1.5571428571428572,1.5571428571428572,1.5571428571428572,1.5571428571428572,1.5571428571428572,1.5571428571428572,1.5571428571428572,1.5571428571428572,1.5571428571428572,1.5571428571428572,1.5571428571428572,1.5571428571428572,1.5571428571428572,1.5571428571428572]},"final_keyboard_state":["D","C","P","A","H","F","N","I","U","S","L","E","R","B","Z"],"num_clicks":15,"points":5,"cheat":false,"trial_type":"Hangman","trial_index":5,"time_elapsed":73302,"internal_node_id":"0.0-4.0","protocol_sum":"","subject_identifier":312,"subject_sum":[15,236,249,36,127,61,220,132,219,138,128,79,163,6,92,1,59,175,107,124,36,88,194,186,43,245,108,46,29,66,221,212],"subject_pair":156,"STUDY_ID":"66a0b3911f23dfc7665bb169","PROLIFIC_PID":"5ee2a663afc30b40867d4535","SESSION_ID":"66a1277c269b3a1ae9e9f3a2","practice_instructions":1,"leaderboard_instructions":1,"bonus":0,"reveal_word":false,"self_rating":"6","confidence":"76"},{"view_history":"[{\"page_index\":0,\"viewing_time\":2392.0999999940395},{\"page_index\":1,\"viewing_time\":16631.5}]","rt":19024.40000000596,"trial_type":"instructions","trial_index":6,"time_elapsed":92327,"internal_node_id":"0.0-5.0","protocol_sum":"","subject_identifier":312,"subject_sum":[15,236,249,36,127,61,220,132,219,138,128,79,163,6,92,1,59,175,107,124,36,88,194,186,43,245,108,46,29,66,221,212],"subject_pair":156,"STUDY_ID":"66a0b3911f23dfc7665bb169","PROLIFIC_PID":"5ee2a663afc30b40867d4535","SESSION_ID":"66a1277c269b3a1ae9e9f3a2","practice_instructions":1,"leaderboard_instructions":1,"bonus":0,"reveal_word":false,"self_rating":"6","confidence":"76"},{"rt":4849.4000000059605,"responses":"{\"Q0\":\"...from <b>a previous session</b> that is part of the upcoming tournament.\"}","question_order":"[0]","trial_type":"survey-multi-choice","trial_index":7,"time_elapsed":97177,"internal_node_id":"0.0-6.0","protocol_sum":"","subject_identifier":312,"subject_sum":[15,236,249,36,127,61,220,132,219,138,128,79,163,6,92,1,59,175,107,124,36,88,194,186,43,245,108,46,29,66,221,212],"subject_pair":156,"correct":false,"test_part":"multichoice_leaderboard","STUDY_ID":"66a0b3911f23dfc7665bb169","PROLIFIC_PID":"5ee2a663afc30b40867d4535","SESSION_ID":"66a1277c269b3a1ae9e9f3a2","practice_instructions":1,"leaderboard_instructions":1,"bonus":0,"reveal_word":false,"self_rating":"6","confidence":"76"},{"view_history":"[{\"page_index\":0,\"viewing_time\":1746.2999999821186}]","rt":1746.5999999940395,"trial_type":"instructions","trial_index":8,"time_elapsed":98924,"internal_node_id":"0.0-7.0-0.0","protocol_sum":"","subject_identifier":312,"subject_sum":[15,236,249,36,127,61,220,132,219,138,128,79,163,6,92,1,59,175,107,124,36,88,194,186,43,245,108,46,29,66,221,212],"subject_pair":156,"STUDY_ID":"66a0b3911f23dfc7665bb169","PROLIFIC_PID":"5ee2a663afc30b40867d4535","SESSION_ID":"66a1277c269b3a1ae9e9f3a2","practice_instructions":1,"leaderboard_instructions":1,"bonus":0,"reveal_word":false,"self_rating":"6","confidence":"76"},{"rt":2067.0999999940395,"responses":"{\"Q0\":\"...from <b>a previous session</b> that is not part of the upcoming tournament.\"}","question_order":"[0]","trial_type":"survey-multi-choice","trial_index":9,"time_elapsed":100992,"internal_node_id":"0.0-7.0-1.0","protocol_sum":"","subject_identifier":312,"subject_sum":[15,236,249,36,127,61,220,132,219,138,128,79,163,6,92,1,59,175,107,124,36,88,194,186,43,245,108,46,29,66,221,212],"subject_pair":156,"correct":true,"test_part":"multichoice_leaderboard","STUDY_ID":"66a0b3911f23dfc7665bb169","PROLIFIC_PID":"5ee2a663afc30b40867d4535","SESSION_ID":"66a1277c269b3a1ae9e9f3a2","practice_instructions":1,"leaderboard_instructions":1,"bonus":0,"reveal_word":false,"self_rating":"6","confidence":"76"},{"view_history":"[{\"page_index\":0,\"viewing_time\":10695.700000017881}]","rt":10695.800000011921,"trial_type":"instructions","trial_index":10,"time_elapsed":111689,"internal_node_id":"0.0-8.0","protocol_sum":"","subject_identifier":312,"subject_sum":[15,236,249,36,127,61,220,132,219,138,128,79,163,6,92,1,59,175,107,124,36,88,194,186,43,245,108,46,29,66,221,212],"subject_pair":156,"STUDY_ID":"66a0b3911f23dfc7665bb169","PROLIFIC_PID":"5ee2a663afc30b40867d4535","SESSION_ID":"66a1277c269b3a1ae9e9f3a2","practice_instructions":1,"leaderboard_instructions":1,"bonus":0,"reveal_word":false,"self_rating":"6","confidence":"76"},{"rt":8543.699999988079,"responses":"{\"Q0\":\"...players' leaderboard position (in terms of <b>speed</b>) in an <b>upcoming tournament.</b>\"}","question_order":"[0]","trial_type":"survey-multi-choice","trial_index":11,"time_elapsed":120233,"internal_node_id":"0.0-9.0","protocol_sum":"","subject_identifier":312,"subject_sum":[15,236,249,36,127,61,220,132,219,138,128,79,163,6,92,1,59,175,107,124,36,88,194,186,43,245,108,46,29,66,221,212],"subject_pair":156,"correct":false,"test_part":"multichoice_tournament","STUDY_ID":"66a0b3911f23dfc7665bb169","PROLIFIC_PID":"5ee2a663afc30b40867d4535","SESSION_ID":"66a1277c269b3a1ae9e9f3a2","practice_instructions":1,"leaderboard_instructions":1,"bonus":0,"reveal_word":false,"self_rating":"6","confidence":"76"},{"view_history":"[{\"page_index\":0,\"viewing_time\":3049.699999988079}]","rt":3049.800000011921,"trial_type":"instructions","trial_index":12,"time_elapsed":123284,"internal_node_id":"0.0-10.0-0.0","protocol_sum":"","subject_identifier":312,"subject_sum":[15,236,249,36,127,61,220,132,219,138,128,79,163,6,92,1,59,175,107,124,36,88,194,186,43,245,108,46,29,66,221,212],"subject_pair":156,"STUDY_ID":"66a0b3911f23dfc7665bb169","PROLIFIC_PID":"5ee2a663afc30b40867d4535","SESSION_ID":"66a1277c269b3a1ae9e9f3a2","practice_instructions":1,"leaderboard_instructions":1,"bonus":0,"reveal_word":false,"self_rating":"6","confidence":"76"},{"rt":2773.699999988079,"responses":"{\"Q0\":\"...players' leaderboard position (in terms of <b>points</b>) in an <b>upcoming tournament.</b>\"}","question_order":"[0]","trial_type":"survey-multi-choice","trial_index":13,"time_elapsed":126058,"internal_node_id":"0.0-10.0-1.0","protocol_sum":"","subject_identifier":312,"subject_sum":[15,236,249,36,127,61,220,132,219,138,128,79,163,6,92,1,59,175,107,124,36,88,194,186,43,245,108,46,29,66,221,212],"subject_pair":156,"correct":true,"test_part":"multichoice_tournament","STUDY_ID":"66a0b3911f23dfc7665bb169","PROLIFIC_PID":"5ee2a663afc30b40867d4535","SESSION_ID":"66a1277c269b3a1ae9e9f3a2","practice_instructions":1,"leaderboard_instructions":1,"bonus":0,"reveal_word":false,"self_rating":"6","confidence":"76"},{"view_history":"[{\"page_index\":0,\"viewing_time\":9586.300000011921}]","rt":9586.5,"trial_type":"instructions","trial_index":14,"time_elapsed":135645,"internal_node_id":"0.0-11.0","protocol_sum":"","subject_identifier":312,"subject_sum":[15,236,249,36,127,61,220,132,219,138,128,79,163,6,92,1,59,175,107,124,36,88,194,186,43,245,108,46,29,66,221,212],"subject_pair":156,"STUDY_ID":"66a0b3911f23dfc7665bb169","PROLIFIC_PID":"5ee2a663afc30b40867d4535","SESSION_ID":"66a1277c269b3a1ae9e9f3a2","practice_instructions":1,"leaderboard_instructions":1,"bonus":0,"reveal_word":false,"self_rating":"6","confidence":"76"},{"view_history":"[{\"page_index\":0,\"viewing_time\":7287.9000000059605}]","rt":7288.200000017881,"trial_type":"instructions","trial_index":15,"time_elapsed":142934,"internal_node_id":"0.0-12.0-0.0","protocol_sum":"","subject_identifier":312,"subject_sum":[15,236,249,36,127,61,220,132,219,138,128,79,163,6,92,1,59,175,107,124,36,88,194,186,43,245,108,46,29,66,221,212],"subject_pair":156,"STUDY_ID":"66a0b3911f23dfc7665bb169","PROLIFIC_PID":"5ee2a663afc30b40867d4535","SESSION_ID":"66a1277c269b3a1ae9e9f3a2","practice_instructions":1,"leaderboard_instructions":1,"bonus":0,"reveal_word":false,"self_rating":"6","confidence":"76"},{"word":"USAIN BOLT","click_log":{"letter":["","A","I","E","O","B","M","D","T","S","L","U","N"],"t":[0,3746.300000011921,6245.9000000059605,10196,13845.90000000596,18812.5,25513,28762.59999999404,38312.5,46829.5,56729.5,59312.40000000596,62012.5],"hit":[null,1,1,0,1,1,0,0,1,1,1,1,1],"asked":["","A","AI","AIE","AIEO","AIEOB","AIEOBM","AIEOBMD","AIEOBMDT","AIEOBMDTS","AIEOBMDTSL","AIEOBMDTSLU","AIEOBMDTSLUN"],"word_state":["_____ ____","__A__ ____","__AI_ ____","__AI_ ____","__AI_ _O__","__AI_ BO__","__AI_ BO__","__AI_ BO__","__AI_ BO_T","_SAI_ BO_T","_SAI_ BOLT","USAI_ BOLT","USAIN BOLT"]},"hover_log":{"letter":["?","?","?","?","?","?","?","?","?","?","?","?","?","?","?","?","?","?","?","?","?","?","?","?","?","?","?","?","?","?","?","?","?","?","?","?","?","?","?","?","?","?","?","?","?","?","?","?","?","?","?","?","?","?","?","?","?","?","?","?","?","?","?","?","?","?","?","?","?","?","?","?","?","?","?","?","?","?","?","?","?","?","?","?","?","?","?","?","?","?","?","?","?","?","?","?","?","?","?","?","?","?","?","?","?","?","?","?","?","?","?","?","?","?","?","?","?","?","?","?","?","?","?","?","?","?","?","?","?","?","?","?","?","?","?","?","?","?","?","?","?","?","?","?","?","?","?","?","?","?","?","?","?","?","?","?","?","?","?","?","?","?","?","?","?","?","?","?","?","?","?","?","?","?","?","?","?","?","?","?","?","?","?","?","?","?","?","?","?","?","?","?","?","?","?","?","?","?","?","?","?","?","?","?","?","?","?","?","?","?","?","?","?","?","?","?","?","?","?","?","?","?","?","?","?","?","?","?","?","?","?","?","?","?","?","?","?","?","?","?","?","?","?","?","?","?","?","?","?","?","?","?","?","?","?","?","?","?","?","?","?","?","?","?","?","?","?","?","?","?","?","?","?","?","?","?","?","?","?","?","?","?","?","?","?","?","?","?","?","?","?","?","?","?","?","?","?","?","?","?","?","?","?","?","?","?","?","?","?","?","?","?","?","?","?","?","?","?","?","?","?","?","?","?","?","?","?","?","?","?","?","?","?","?","?","?","?","?","?","?","?","?","?","?","?","?","?","?","?","?","?","?","?","?","?","?","?","?","?","?","?","?","?","?","?","?","?","?","?","?","?","?","?","?","?","?","?","?","?","?","?","?","?","?","?","?","?","?","?","?","?","?","?","?","?","?","?","?","?","?","?","?","?","?","?","?","?","?","?","?","?","?","?","?","?","?","?","?","?","?","?","?","?","?","?","?","?","?","?","?","?","?","?","?","?","?","?","?","?","?","?","?","?","?","?","?","?","?","?","?","?","?","?","?","?","?","?","?","?","?","?","?","?","?","?","?","?","?","?","?","?","?","?","?","?","?","?","?","?","?","?","?","?","?","?","?","?","?","?","?","?","?","?","?","?","?","?","?","?","?","?","?","?","?","?","?","?","?","?","?","?","?","?","?","?","?","?","?","?","?","?","?","?","?","?","?","?","?","?","?","?","?","?","?","?","?","?","?","?","?","?","?","?","?","?","?","?","?","?","?","?","?","?","?","?","?","?","?","?","?","?","?","?","?","?","?","?","?","?","?","?","?","?","?","?","?","?","?","?","?","?","?","?","?","?","?","?","?","?","?","?","?","?","?","?","?","?","?","?","?","?","?","?","?","?","?","?","?","?","?","?","?","?","?","?","?","?","?","?","?","?","?","?","?","?","?","?","?","?","?","?","?","?","?","?","?","?","?","?","?","?","?","?","?","?","?","?","?","?","?","?","?","?","?","?","?","?","?","?","?","?","?","?","?","?","?","?","?","?","?","?","?","?","?","?","?","?","?","?","?","?","?","?","?","?","?","?","?","?","?","?","?","?","?","?","?","?","?","?","?","?","?","?","?","?","?","?","?","?","?","?","?","?","?","?","?","?","?","?","?","?","?","?","?","?","?","?","?","?","?","?","?","?","?","?","?","?","?","?","?","?","?","?","?","?","?","?","?","?","?","?","?","?","?","?","?","?","?","?","?","?","?","?","?","?","?","?","?","?","?","?","?","?","?","?","?","?","?","?","?","?","?","?","?","?","?","?","?","?","?","?","?","?","?","?","?","?","?","?","?","?","?","?","?","?","?","?","?","?","?","?","?","?","?","?","?","?","?","?","?","?","?","?","?","?","?","?","?","?","?","?","?","?","?","?","?","?","?","?","?","?","?","?","?","?","?","?","?","?","?","?","?","?","?","?","?","?","?","?","?","?","?","?","?","?","?","?","?","?","?","?","?","?","?","?","?","?","?","?","?","?","?","?","?","?","?","?","?","?","?","?","?","?","?","?","?","?","?","?","?","?","?","?","?","?","?","?","?","?","?","?","?","?","?","?","?","?","?","?","?","?","?","?","?","?","?","?","?","?","?","?","?","?","?","?","?","?","?","?","?","?","?","?","?","?","?","?","?","?","?","?","?","?","?","?","?","?","?","?","?","?","?","?","?","?","?","?","?","?","?","?","?","?","?","?","?","?","?","?","?","?","?","?","?","?","?","?","?","?","?","?","?","?","?","?","?","?","?","?","?","?","?","?","?","?","?","?","?","?","?","?","?","?","?","?","?","?","?","?","?","?","?","?","?","?","?","?","?","?","?","?","?","?","?","?","?","?","?","?","?","?","?","?","?","?","?","?","?","?","?","?","?","?","?","?","?","?","?","?","?","?","?","?","?","?","?","?","?","?","?","?","?","?","?","?","?","?","?","?","?","?","?","?","?","?","?","?","?","?","?","?","?","?","?","?","?","?","?","?","?","?","?","?","?","?","?","?","?","?","?","?","?","?","?","?","?","?","?","?","?","?","?","?","?","?","?","?","?","?","?","?","?","?","?","?","?","?","?","?","?","?","?","?","?","?","?","?","?","?","?","?","?","?","?","?","?","?","?","?","?","?","?","?","?","?","?","?","?","?","?","?","?","?","?","?","?","?","?","?","?","?","?","?","?","?","?","?","?","?","?","?","?","?","?","?","?","?","?","?","?","?","?","?","?","?","?","?","?","?","?","?","?","?","?","?","?","?","?","?","?","?","?","?","?","?","?","?","?","?","?","?","?","?","?","?","?","?","?","?","?","?","?","?","?","?","?","?","?","?","?","?","?","?","?","?","?","?","?","?","?","?","?","?","?","?","?","?","?","?","?","?","?","?","?","?","?","?","?","?","?","?","?","?","?","?","?","?","?","?","?","?","?","?","?","?","?","?","?","?","?","?","?","?","?","?","?","?","?","?","?","?","?","?","?","?","?","?","?","?","?","?","?","?","?","?","?","?","?","?","?","?","?","?","?","?","?","?","?","?","?","?","?","?","?","?","?","?","?","?","?","?","?","?","?","?","?","?","?","?","?","?","?","?","?","?","?","?","?","?","?","?","?","?","?","?","?","?","?","?","?","?","?","?","?","?","?","?","?","?","?","?","?","?","?","?","?","?","?","?","?","?","?","?","?","?","?","?","?","?","?","?","?","?","?","?","?","?","?","?","?","?","?","?","?","?","?","?","?","?","?","?","?","?","?","?","?","?","?","?","?","?","?","?","?","?","?","?","?","?","?","?","?","?","?","?","?","?","?","?","?","?","?","?","?","?","?","?","?","?","?","?","?","?","?","?","?","?","?","?","?","?","?","?","?","?","?","?","?","?","?","?","?","?","?","?","?","?","?","?","?","?","?","?","?","?","?","?","?","?","?","?","?","?","?","?","?","?","?","?","?","?","?","?","?","?","?","?","?","?","?","?","?","?","?","?","?","?","?","?","?","?","?","?","?","?","?","?","?","?","?","?","?","?","?","?","?","?","?","?","?","?","?","?","?","?","?","?","?","?","?","?","?","?","?","?","?","?","?","?","?","?","?","?","?","?","?","?","?","?","?","?","?","?","?","?","?","?","?","?","?","?","?","?","?","?","?","?","?","?","?","?","?","?","?","?","?","?","?","?","?","?","?","?","?","?","?","?","?","?","?","?","?","?","?","?","?","?","?","?","?","?","?","?","?","?","?","?","?","?","?","?","?","?","?","?","?","?","?","?","?","?","?","?","?","?","?","?","?","?","?","?","?","?","?","?","?","?","?","?","?","?","?","?","?","?","?","?","?","?","?","?","?","?","?","?","?","?","?","?","?","?","?","?","?","?","?","?","?","?","?","?","?","?","?","?","?","?","?","?","?","?","?","?","?","?","?","?","?","?","?","?","?","?","?","?","?","?","?","?","?","?","?","?","?","?","?","?","?","?","?","?","?","?","?","?","?","?","?","?","?","?","?","?","?","?","?","?","?","?","?","?","?","?","?","?","?","?","?","?","?","?","?","?","?","?","?","?","?","?","?","?","?","?","?","?","?","?","?","?","?","?","?","?","?","?","?","?","?","?","?","?","?","?","?","?","?","?","?","?","?","?","?","?","?","?","?","?","?","?","?","?","?","?","?","?","?","?","?","?","?","?","?","?","?","?","?","?","?","?","?","?","?","?","?","?","?","?","?","?","?","?","?","?","?","?","?","?","?","?","?","?","?","?","?","?","?","?","?","?","?","?","?","?","?","?","?","?","?","?","?","?","?","?","?","?","?","?","?","?","?","?","?","?","?","?","?","?","?","?","?","?","?","?","?","?","?","?","?","?","?","?","?","?","?","?","?","?","?","?","?","?","?","?","?","?","?","?","?","?","?","?","?","?","?","?","?","?","?","?","?","?","?","?","?","?","?","?","?","?","?","?","?","?","?","?","?","?","?","?","?","?","?","?","?","?","?","?","?","?","?","?","?","?","?","?","?","?","?","?","?","?","?","?","?","?","?","?","?","?","?","?","?","?","?","?","?","?","?","?","?","?","?","?","?","?","?","?","?","?","?","?","?","?","?","?","?","?","?","?","?","?","?","?","?","?","?","?","?","?","?","?","?","?","?","?","?","?","?","?","?","?","?","?","?","?","?","?","?","?","?","?","?","?","?","?","?","?","?","?","?","?","?","?","?","?","?","?","?","?","?","?","?","?","?","?","?","?","?","?","?","?","?","?","?","?","?","?","?","?","?","?","?","?","?","?","?","?","?","?","?","?","?","?","?","?","?","?","?","?","?","?","?","?","?","?","?","?","?","?","?","?","?","?","?","?","?","?","?","?","?","?","?","?","?","?","?","?","?","?","?","?","?","?","?","?","?","?","?","?","?","?","?","?","?","?","?","?","?","?","?","?","?","?","?","?","?","?","?","?","?","?","?","?","?","?","?","?","?","?","?","?","?","?","?","?","?","?","?","?","?","?","?","?","?","?","?","?","?","?","?","?","?","?","?","?","?","?","?","?","?","?","?","?","?","?","?","?","?","?","?","?","?","?","?","?","?","?","?","?","?","?","?","?","?","?","?","?","?","?","?","?","?","?","?","?","?","?","?","?","?","?","?","?","?","?","?","?","?","?","?","?","?","?","?","?","?","?","?","?","?","?","?","?","?","?","?","?","?","?","?","?","?","?","?","?","?","?","?","?","?","?","?","?","?","?","?","?","?","?","?","?","?","?","?","?","?","?","?","?","?","?","?","?","?","?","?","?","?","?","?","?","?","?","?","?","?","?","?","?","?","?","?","?","?","?","?","?","?","?","?","?","?","?","?","?","?","?","?","?","?","?","?","?","?","?","?","?","?","?","?","?","?","?","?","?","?","?","?","?","?","?","?","?","?","?","?","?","?","?","?","?","?","?","?","?","?","?","?","?","?","?","?","?","?","?","?","?","?","?","?","?","?","?","?","?","?","?","?","?","?","?","?","?","?","?","?","?","?","?","?","?","?","?","?","?","?","?","?","?","?","?","?","?","?","?","?","?","?","?","?","?","?","?","?","?","?","?","?","?","?","?","?","?","?","?","?","?","?","?","?","?","?","?","?","?","?","?","?","?","?","?","?","?","?","?","?","?","?","?","?","?","?","?","?","?","?","?","?","?","?","?","?","?","?","?","?","?","?","?","?","?","?","?","?","?","?","?","?","?","?","?","?","?","?","?","?","?","?","?","?","?","?","?","?","?","?","?","?","?","?","?","?","?","?","?","?","?","?","?","?","?","?","?","?","?","?","?","?","?","?","?","?","?","?","?","?","?","?","?","?","?","?","?","?","?","?","?","?","?","?","?","?","?","?","?","?","?","?","?","?","?","?","?","?","?","?","?","?","?","?","?","?","?","?","?","?","?","?","?","?","?","?","?","?","?","?","?","?","?","?","?","?","?","?","?","?","?","?","?","?","?","?","?","?","?","?","?","?","?","?","?","?","?","?","?","?","?","?","?","?","?","?","?","?","?","?","?","?","?","?","?","?","?","?","?","?","?","?","?","?","?","?","?","?","?","?","?","?","?","?","?","?","?","?","?","?","?","?","?","?","?","?","?","?","?","?","?","?","?","?","?","?","?","?","?","?","?","?","?","?","?","?","?","?","?","?","?","?","?","?","?","?","?","?","?","?","?","?","?","?","?","?","?","?","?","?","?","?","?","?","?","?","?","?","?","?","?","?","?","?","?","?","?","?","?","?","?","?","?","?","?","?","?","?","?","?","?","?","?","?","?","?","?","?","?","?","?","?","?","?","?","?","?","?","?","?","?","?","?","?","?","?","?","?","?","?","?","?","?","?","?","?","?","?","?","?","?","?","?","?","?","?","?","?","?","?","?","?","?","?","?","?","?","?","?","?","?","?","?","?","?","?","?","?","?","?","?","?","?","?","?","?","?","?","?","?","?","?","?","?","?","?","?","?","?","?","?","?","?","?","?","?","?","?","?","?","?","?","?","?","?","?","?","?