[{"success":true,"trial_type":"fullscreen","trial_index":0,"time_elapsed":3049,"internal_node_id":"0.0-0.0","protocol_sum":"","subject_identifier":422,"subject_sum":[9,52,52,163,238,158,10,1,11,178,194,170,224,108,38,20,221,36,137,64,98,161,202,242,103,24,160,30,23,85,105,184],"subject_pair":211,"STUDY_ID":"66a22c0758a3d5c9d26873c6","PROLIFIC_PID":"6695541a6e0d986b02c25dd9","SESSION_ID":"66a2b0732d27e747b1945613","practice_instructions":1,"leaderboard_instructions":1,"bonus":1,"reveal_word":false,"self_rating":"3","confidence":"79"},{"view_history":"[{\"page_index\":0,\"viewing_time\":27033.69999998808}]","rt":27035.39999999106,"trial_type":"instructions","trial_index":1,"time_elapsed":30087,"internal_node_id":"0.0-1.0","protocol_sum":"","subject_identifier":422,"subject_sum":[9,52,52,163,238,158,10,1,11,178,194,170,224,108,38,20,221,36,137,64,98,161,202,242,103,24,160,30,23,85,105,184],"subject_pair":211,"STUDY_ID":"66a22c0758a3d5c9d26873c6","PROLIFIC_PID":"6695541a6e0d986b02c25dd9","SESSION_ID":"66a2b0732d27e747b1945613","practice_instructions":1,"leaderboard_instructions":1,"bonus":1,"reveal_word":false,"self_rating":"3","confidence":"79"},{"view_history":"[{\"page_index\":0,\"viewing_time\":31995.79999999702}]","rt":31997.29999999702,"trial_type":"instructions","trial_index":2,"time_elapsed":62094,"internal_node_id":"0.0-2.0-0.0","protocol_sum":"","subject_identifier":422,"subject_sum":[9,52,52,163,238,158,10,1,11,178,194,170,224,108,38,20,221,36,137,64,98,161,202,242,103,24,160,30,23,85,105,184],"subject_pair":211,"STUDY_ID":"66a22c0758a3d5c9d26873c6","PROLIFIC_PID":"6695541a6e0d986b02c25dd9","SESSION_ID":"66a2b0732d27e747b1945613","practice_instructions":1,"leaderboard_instructions":1,"bonus":1,"reveal_word":false,"self_rating":"3","confidence":"79"},{"rt":7878,"responses":"{\"Q0\":\"... reveal the word with as <b>few letter guesses</b> as possible\"}","question_order":"[0]","trial_type":"survey-multi-choice","trial_index":3,"time_elapsed":69983,"internal_node_id":"0.0-2.0-1.0","protocol_sum":"","subject_identifier":422,"subject_sum":[9,52,52,163,238,158,10,1,11,178,194,170,224,108,38,20,221,36,137,64,98,161,202,242,103,24,160,30,23,85,105,184],"subject_pair":211,"correct":true,"test_part":"multichoice_nonpretend","STUDY_ID":"66a22c0758a3d5c9d26873c6","PROLIFIC_PID":"6695541a6e0d986b02c25dd9","SESSION_ID":"66a2b0732d27e747b1945613","practice_instructions":1,"leaderboard_instructions":1,"bonus":1,"reveal_word":false,"self_rating":"3","confidence":"79"},{"view_history":"[{\"page_index\":0,\"viewing_time\":1447.1000000089407}]","rt":1449,"trial_type":"instructions","trial_index":4,"time_elapsed":71433,"internal_node_id":"0.0-3.0","protocol_sum":"","subject_identifier":422,"subject_sum":[9,52,52,163,238,158,10,1,11,178,194,170,224,108,38,20,221,36,137,64,98,161,202,242,103,24,160,30,23,85,105,184],"subject_pair":211,"STUDY_ID":"66a22c0758a3d5c9d26873c6","PROLIFIC_PID":"6695541a6e0d986b02c25dd9","SESSION_ID":"66a2b0732d27e747b1945613","practice_instructions":1,"leaderboard_instructions":1,"bonus":1,"reveal_word":false,"self_rating":"3","confidence":"79"},{"word":"ZEBRA","click_log":{"letter":["","E","R","I","L","A","Z","B"],"t":[0,6416.100000008941,15014.29999999702,28949.29999999702,31624.10000000894,37497.79999999702,55171.20000000298,56580.70000000298],"hit":[null,1,1,0,0,1,1,1],"asked":["","E","ER","ERI","ERIL","ERILA","ERILAZ","ERILAZB"],"word_state":["_____","_E___","_E_R_","_E_R_","_E_R_","_E_RA","ZE_RA","ZEBRA"]},"hover_log":{"letter":["?","?","?","?","?","?","?","?","?","?","?","?","?","?","?","?","?","?","?","?","?","?","?","?","?","?","?","?","?","?","?","?","?","?","?","?","?","?","?","?","?","?","?","?","?","?","?","?","?","?","?","?","?","?","?","?","?","?","?","?","?","?","?","?","?","?","?","?","?","?","?","A","A","A","A","?","?","?","?","?","?","?","?","?","?","?","?","?","?","?","?","?","?","?","?","?","?","?","?","?","?","?","?","?","?","?","?","?","?","?","?","?","?","?","?","?","?","?","?","?","?","?","?","?","?","?","?","?","?","?","?","?","?","?","?","?","?","?","?","?","?","?","?","?","?","?","?","?","?","?","?","?","?","?","?","?","?","?","?","?","?","?","?","?","?","?","?","?","?","?","?","?","?","?","?","?","?","?","?","?","?","?","?","?","?","?","?","?","?","?","?","?","?","?","?","?","?","?","?","?","?","?","?","?","?","?","?","?","?","?","?","?","?","?","?","?","?","?","?","?","?","?","?","?","?","?","?","?","?","?","?","?","?","?","?","?","?","?","?","?","?","?","?","?","?","?","?","?","?","?","?","?","?","?","?","?","?","?","?","?","?","?","?","?","?","?","?","?","?","?","?","?","?","?","?","?","?","?","?","?","?","?","?","?","?","?","?","?","?","?","?","?","?","?","?","?","?","?","?","?","?","?","?","?","?","?","?","?","?","?","?","?","?","?","?","?","?","?","?","?","?","E","?","F","F","F","F","F","F","F","F","F","F","F","F","F","F","F","F","F","F","F","F","F","F","F","F","?","E","E","E","E","E","E","E","E","E","E","E","E","E","E","E","E","E","E","E","E","E","E","E","E","E","E","E","E","E","E","E","E","E","E","E","E","E","E","E","E","E","E","E","E","E","E","E","E","E","E","E","E","E","E","E","E","E","E","E","E","E","E","E","E","E","E","E","E","E","E","E","E","E","E","E","E","E","E","E","E","E","E","E","E","E","E","E","E","E","E","E","E","E","E","E","E","E","E","E","E","E","E","E","E","E","E","E","E","E","E","E","E","E","E","E","E","E","E","E","E","E","E","E","E","E","E","E","E","E","E","E","E","E","E","E","E","E","E","E","E","E","E","E","E","E","E","E","E","E","E","E","E","E","E","E","E","E","E","E","E","E","E","E","E","E","E","E","E","E","E","E","E","E","E","E","E","E","E","E","E","E","E","E","E","E","E","E","E","E","E","E","E","E","E","E","E","E","E","E","E","E","E","E","E","E","E","E","E","E","E","E","E","E","E","E","E","E","E","E","E","E","E","E","E","E","E","E","E","E","E","E","E","E","E","E","E","E","E","E","E","E","E","E","E","E","E","E","E","E","E","E","E","E","E","E","E","E","E","E","E","E","E","E","E","E","E","E","E","E","E","E","E","E","E","E","E","E","E","E","E","E","E","E","E","E","E","E","E","E","E","E","E","E","E","E","E","E","E","E","E","E","E","E","E","E","E","E","E","E","E","E","E","E","E","E","E","E","E","E","E","E","E","E","E","E","E","E","E","E","E","E","E","E","E","E","E","E","E","E","E","E","E","E","E","E","E","E","E","E","E","E","E","E","E","E","E","E","E","E","E","E","E","E","E","E","E","E","E","E","E","E","E","E","E","E","E","E","E","E","E","E","E","E","E","E","E","E","E","E","E","E","E","E","E","E","E","E","E","E","E","E","E","E","E","E","E","E","E","E","E","E","E","E","E","E","E","E","E","E","E","E","E","E","E","E","E","E","E","E","E","E","E","E","E","E","E","E","E","E","E","E","E","E","E","E","E","E","E","E","E","E","E","E","E","E","E","E","E","E","E","E","E","E","E","E","?","?","?","?","?","?","?","?","?","?","?","?","?","?","?","?","?","?","?","?","?","?","?","?","?","?","?","?","?","?","?","?","?","?","?","I","I","I","I","?","?","?","?","?","?","R","R","R","R","R","R","R","R","R","R","R","R","R","R","R","R","R","R","R","R","R","R","R","R","R","R","R","R","R","R","R","R","R","R","R","R","R","R","R","R","R","R","R","R","R","R","R","R","R","R","R","R","R","R","R","R","R","R","R","R","R","R","R","R","R","R","R","R","R","R","R","R","R","R","R","R","R","R","R","R","R","R","R","R","R","R","R","R","R","R","R","R","R","R","R","R","R","R","R","R","R","R","R","R","R","R","R","R","R","R","R","R","R","R","R","R","R","R","R","R","R","R","R","R","R","R","R","R","R","R","R","R","R","R","R","R","R","R","R","R","R","R","R","R","R","R","R","R","R","R","R","R","R","R","R","R","R","R","R","R","R","R","R","R","R","R","R","R","R","R","R","R","R","R","R","R","R","R","R","R","R","R","R","R","R","R","R","R","R","R","R","R","R","R","R","R","R","R","R","R","R","R","R","R","R","R","R","R","R","R","R","R","R","R","R","R","R","R","R","R","R","R","R","R","R","R","R","R","R","R","R","R","R","R","R","R","R","R","R","R","R","R","R","R","R","R","R","R","R","R","R","R","R","R","R","R","R","R","R","R","R","R","R","R","R","R","R","R","R","R","R","R","R","R","R","R","R","R","R","R","R","R","R","R","R","R","R","R","R","R","R","R","R","R","R","R","R","R","R","R","R","R","R","R","R","R","R","R","R","?","Q","Q","Q","Q","Q","?","P","P","P","P","P","?","?","O","O","O","O","O","O","O","O","O","O","O","O","O","O","O","O","O","O","O","O","O","O","O","O","O","O","O","O","O","O","O","O","O","O","O","O","O","O","O","O","O","O","O","O","O","O","O","O","O","O","O","O","O","O","?","?","?","?","F","F","F","F","?","?","?","?","?","?","?","?","?","?","?","?","?","?","?","?","?","?","?","?","?","?","?","?","?","?","?","?","?","?","?","?","?","?","?","?","?","?","?","?","?","?","?","?","?","?","?","?","?","?","?","?","?","?","?","?","?","?","?","?","?","?","?","?","?","?","?","?","?","?","?","?","?","?","?","?","?","?","?","?","?","?","?","?","?","?","?","?","?","?","?","?","?","?","?","?","?","?","?","?","?","?","?","?","?","?","?","?","?","?","?","?","?","?","?","?","?","?","?","?","?","?","?","?","?","?","?","?","?","?","?","?","?","?","?","?","?","?","?","?","?","?","?","?","?","?","?","?","?","?","?","?","?","?","?","?","?","?","?","?","?","?","?","?","?","?","?","?","?","?","?","?","?","?","?","?","?","?","?","?","?","?","?","?","?","?","?","?","?","?","?","?","?","?","?","?","?","?","?","?","?","?","?","?","?","?","?","?","?","?","?","?","?","?","?","?","?","?","?","?","?","?","?","?","?","?","?","?","?","?","?","?","?","?","?","?","?","?","?","?","?","?","?","?","?","?","?","?","?","?","?","?","?","?","?","?","?","?","?","?","?","?","?","?","?","?","?","?","?","?","?","?","?","?","?","?","?","?","?","?","?","?","?","?","?","?","?","?","?","?","?","?","?","?","?","?","?","?","?","?","?","?","?","?","?","?","?","?","?","?","?","G","G","G","G","G","G","G","G","G","G","G","G","G","G","G","G","?","?","H","H","H","H","H","H","H","H","H","H","H","H","H","H","?","?","?","?","?","?","?","?","?","?","?","?","?","?","?","?","?","?","?","?","?","?","Q","?","?","?","P","P","P","O","?","N","N","N","N","N","N","N","N","N","N","N","N","N","N","N","N","N","N","N","N","N","N","N","N","N","N","?","?","?","?","?","?","?","?","G","G","G","G","G","?","H","H","H","?","?","?","?","?","?","?","?","?","?","?","?","?","?","?","?","?","?","?","?","?","?","?","?","?","I","I","I","I","I","I","I","I","I","I","I","I","I","I","I","I","I","I","I","I","I","I","I","I","I","I","I","I","I","I","I","I","I","I","I","I","I","I","I","I","I","I","I","I","I","I","I","I","I","I","I","I","I","I","I","I","I","I","I","I","I","I","I","I","I","I","I","I","I","I","I","I","I","I","I","I","I","I","I","I","I","I","?","H","H","H","H","G","G","G","?","?","?","?","?","?","?","?","?","?","?","?","?","?","?","?","?","?","?","?","?","?","?","?","?","?","?","?","?","?","?","?","?","?","?","?","?","M","M","M","M","M","M","?","?","?","?","?","?","?","?","?","?","?","?","?","?","?","?","?","?","?","?","?","L","L","L","L","L","L","L","L","L","L","L","L","L","L","L","L","L","L","L","L","L","L","L","L","L","L","L","L","L","L","L","L","L","L","L","L","L","L","L","L","L","L","L","L","L","L","L","L","L","L","L","L","L","L","L","L","L","L","L","L","L","L","L","L","L","L","L","L","L","L","L","L","L","L","L","L","L","L","L","L","L","L","L","L","L","L","L","L","L","L","L","L","L","L","L","L","L","L","L","L","L","L","L","L","L","L","L","L","L","L","L","L","L","L","L","L","L","L","L","L","L","L","L","L","L","L","L","L","L","L","L","L","L","L","L","L","L","L","L","L","L","L","L","L","L","L","L","L","L","L","L","L","L","L","L","L","L","L","L","L","L","L","L","L","L","L","L","L","L","L","L","L","L","L","L","L","L","L","L","L","L","L","L","L","L","L","L","L","L","L","L","L","L","L","L","L","L","L","L","L","L","?","?","M","M","M","M","M","?","N","N","N","N","N","N","N","N","N","N","N","N","N","N","N","N","?","?","?","?","O","O","O","O","O","O","O","O","O","O","O","O","O","O","O","O","O","O","O","O","O","O","O","O","O","O","O","O","O","O","O","O","O","O","O","O","O","O","O","O","O","O","O","O","O","O","O","O","O","O","O","O","O","O","O","O","O","O","O","O","O","O","O","?","?","?","?","E","E","E","E","E","E","E","E","E","E","E","E","E","E","E","E","?","?","?","?","?","?","?","?","?","?","?","?","?","?","?","?","?","?","?","?","?","?","?","?","?","?","?","?","?","?","?","?","?","?","?","?","?","?","?","?","?","?","?","?","?","?","?","?","?","?","A","A","A","A","A","A","A","A","A","A","A","A","A","A","A","A","A","A","A","A","A","A","A","A","A","A","A","A","A","A","A","A","A","A","A","A","A","A","A","A","A","A","A","A","A","A","A","A","A","A","A","A","A","A","A","A","A","A","A","A","A","A","A","A","A","A","A","A","A","A","A","A","A","A","A","A","A","A","A","A","A","A","A","A","A","A","A","A","A","A","A","A","A","A","A","A","A","A","A","A","A","A","A","A","A","A","A","A","A","A","A","A","A","A","A","A","A","A","A","A","A","A","A","A","A","A","A","A","A","A","A","A","A","A","A","A","A","A","A","A","A","A","A","A","A","A","A","A","A","A","A","A","A","A","A","A","A","A","A","A","A","A","A","A","A","A","A","A","A","A","A","A","A","A","A","A","A","A","A","A","A","A","A","A","A","A","A","A","A","A","A","A","A","A","A","A","A","A","A","A","A","A","A","A","A","A","A","A","A","A","A","A","A","A","A","A","A","A","A","A","A","A","A","A","A","A","A","A","A","A","A","A","A","A","A","A","A","A","A","A","A","A","A","A","A","A","A","A","A","A","A","A","A","A","A","A","A","A","A","A","A","A","A","A","A","A","A","A","A","A","A","A","A","A","A","A","A","A","A","A","A","A","A","A","A","A","A","A","A","A","A","A","A","A","A","A","A","A","A","A","A","A","A","A","A","A","A","A","A","A","A","A","A","A","A","A","A","A","A","A","A","A","A","A","A","A","A","A","A","A","A","A","A","A","A","A","A","A","A","A","A","A","A","A","A","A","A","A","A","A","A","A","A","A","A","A","A","A","A","A","A","A","A","A","A","A","A","A","A","A","A","A","A","A","A","A","A","A","A","A","A","A","A","A","A","A","A","A","A","A","A","A","A","A","A","A","A","A","A","A","A","A","A","A","A","A","A","A","A","A","A","A","A","A","A","A","A","A","A","A","A","A","A","A","A","A","A","A","A","A","A","A","A","A","A","A","A","A","A","A","A","A","A","A","A","A","A","A","A","A","A","A","A","A","A","A","A","A","A","A","A","A","A","A","A","A","A","A","A","A","A","A","A","A","A","A","A","A","A","A","A","A","A","A","A","A","A","A","A","A","A","A","A","A","A","A","A","A","A","A","A","A","A","A","A","A","A","A","A","A","A","A","A","A","A","A","A","A","A","A","A","A","A","A","A","A","A","A","A","A","A","A","A","A","A","A","A","A","A","A","A","A","A","A","A","A","A","A","A","A","A","A","A","A","A","A","A","A","A","A","A","A","A","A","A","A","A","A","A","A","A","A","A","A","A","A","A","A","A","A","A","A","A","A","A","A","A","A","A","A","A","A","A","A","A","A","A","A","A","A","A","A","A","A","A","A","A","A","A","A","A","A","A","A","A","A","A","A","A","A","A","A","A","A","A","A","A","A","A","A","A","A","A","A","A","A","A","A","A","A","A","A","A","A","A","A","A","A","A","A","A","A","A","A","A","A","A","A","A","A","A","A","A","A","A","A","A","A","A","A","A","A","A","A","A","A","A","A","A","A","A","A","A","A","A","A","A","A","A","A","A","A","A","A","A","A","A","A","A","A","A","A","A","A","A","A","A","A","A","A","A","A","A","A","A","A","A","A","A","A","A","A","A","A","A","A","A","A","A","A","A","A","A","A","A","A","A","A","A","A","A","A","A","A","A","A","A","A","A","A","A","A","A","A","A","A","A","A","A","A","A","A","A","A","A","A","A","A","A","A","A","A","A","A","A","A","A","A","A","A","A","A","A","A","A","A","A","A","A","A","A","A","A","A","A","A","A","A","A","A","A","A","A","A","A","A","A","A","A","A","A","A","A","A","A","A","A","A","A","A","A","A","A","A","A","A","A","A","A","A","A","A","A","A","A","A","A","A","A","A","A","A","A","A","A","A","A","A","A","A","A","A","A","A","A","A","A","A","A","A","A","A","A","A","A","A","A","A","A","A","A","A","A","A","A","A","A","A","A","A","A","A","A","A","A","A","A","A","A","A","A","A","A","A","A","A","A","A","A","A","A","A","A","A","A","A","A","A","A","A","A","A","A","A","A","A","A","A","A","A","A","A","A","A","A","A","A","A","A","A","A","A","A","A","A","A","A","A","A","A","A","A","A","A","A","A","A","A","A","A","A","A","A","A","A","A","A","A","A","A","A","A","A","A","A","A","A","A","A","A","A","?","?","?","?","?","?","?","?","?","?","?","?","?","?","?","?","?","?","?","?","?","?","?","?","?","E","E","?","?","?","?","?","?","?","?","?","?","N","N","N","?","?","?","?","?","?","?","C","C","C","C","C","C","C","C","C","C","C","C","C","C","C","C","?","M","?","O","?","?","?","?","?","?","?","?","?","?","?","?","Z","Z","Z","Z","Z","Z","Z","Z","Z","Z","Z","Z","Z","Z","Z","Z","Z","Z","Z","Z","Z","Z","Z","Z","Z","Z","Z","Z","Z","Z","Z","Z","Z","Z","Z","Z","Z","Z","Z","Z","Z","Z","Z","Z","Z","Z","Z","Z","Z","Z","Z","Z","Z","Z","Z","Z","Z","Z","Z","Z","Z","Z","Z","?","?","?","?","O","O","?","N","N","?","?","?","?","?","?","?","?","?","?","C","C","C","C","?","?","?","?","?","?","B","B","B","B","B","B","B","B","B","B","B","B","B","B","B","B","B","B","B","B","B","B","B","B","B","B","B","B","B","B","B","B","B","B","B","B","B","B","B","B","B","B","B","B","B","B","B","B","B","B","B","B","B","B","B","B","B","B","B","B","B","B","B","B","B","B","B","B","B","B","B","B","B","B","B","B","B","B","B","B","B","B","B","B","B","B","B","B","B","B","B","B","B","B","B","B","B","B","B","B","B","B","B","B","B","B","B","B","B","B","B","B","B","B","B","B","B","B","B","B","B","B","B","B","B","B","B","B","B","B","B","B","B","B","B","B","B","B","B","B","B","B","B","B","B","B","B","B","B","B","B","B","B","B"],"t":[92,114,127,144,155,169,186,200,218,241,251,266,283,294,311,328,345,366,382,399,415,431,447,465,481,497,514,531,548,565,581,598,614,631,648,664,681,698,714,731,748,764,781,798,814,830,848,865,881,897,914,930,948,965,981,998,1016,1033,1047,1061,1077,1094,1111,1128,1145,1162,1178,1194,1213,1228,1246,1271,1280,1296,1312,1328,1346,1363,1379,1395,1413,1429,1447,1463,1479,1499,1515,1533,1551,1566,1582,1599,1616,1632,1648,1665,1682,1705,1715,1732,1747,1764,1781,1798,1815,1831,1848,1865,1882,1899,1914,1931,1947,1965,1982,1999,2015,2031,2047,2065,2082,2098,2115,2131,2148,2165,2182,2199,2215,2232,2249,2265,2281,2298,2315,2332,2348,2364,2381,2397,2415,2432,2460,2472,2496,2513,2529,2545,2562,2579,2595,2612,2629,2646,2662,2684,2696,2713,2731,2747,2764,2781,2798,2815,2831,2847,2864,2880,2898,2914,2931,2948,2964,2981,2997,3014,3030,3047,3064,3081,3098,3114,3131,3143,3160,3180,3197,3213,3230,3247,3263,3280,3297,3313,3330,3347,3363,3380,3397,3414,3430,3447,3463,3480,3497,3513,3530,3546,3563,3580,3597,3613,3630,3647,3664,3680,3697,3713,3729,3746,3763,3779,3796,3813,3829,3846,3863,3879,3896,3913,3934,3949,3960,3976,3993,4010,4027,4047,4063,4080,4096,4113,4130,4146,4163,4180,4196,4213,4230,4246,4263,4280,4297,4314,4330,4343,4360,4376,4393,4410,4426,4443,4460,4476,4493,4510,4527,4543,4563,4580,4597,4613,4630,4646,4663,4680,4696,4713,4730,4746,4763,4780,4797,4813,4830,4846,4863,4880,4896,4913,4930,4946,4963,4980,4997,5013,5030,5047,5063,5080,5097,5113,5130,5147,5163,5180,5196,5213,5230,5247,5263,5280,5296,5313,5330,5347,5364,5381,5405,5413,5427,5444,5460,5477,5493,5510,5527,5543,5560,5576,5593,5613,5630,5646,5663,5680,5697,5714,5730,5746,5763,5780,5797,5814,5831,5847,5863,5880,5897,5914,5930,5946,5963,5980,5997,6013,6030,6047,6063,6080,6096,6113,6130,6143,6160,6177,6193,6211,6230,6246,6263,6280,6297,6313,6330,6347,6363,6379,6396,6413,6436,6448,6544,6564,6581,6598,6614,6632,6648,6664,6681,6697,6714,6731,6748,6764,6781,6797,6814,6831,6848,6864,6880,6898,6918,6943,6960,6977,6994,7011,7027,7044,7060,7077,7094,7110,7127,7144,7160,7177,7194,7210,7231,7247,7264,7280,7297,7314,7330,7347,7364,7380,7397,7414,7430,7446,7463,7480,7497,7513,7530,7546,7563,7580,7597,7613,7630,7647,7663,7680,7697,7713,7730,7746,7763,7780,7797,7814,7830,7847,7863,7880,7897,7913,7930,7946,7963,7980,7996,8013,8030,8046,8063,8080,8096,8113,8130,8146,8163,8180,8197,8213,8230,8246,8263,8280,8296,8313,8330,8346,8364,8381,8394,8410,8427,8443,8463,8480,8496,8513,8530,8546,8563,8580,8597,8613,8630,8646,8663,8680,8696,8713,8730,8746,8763,8780,8797,8813,8830,8847,8863,8880,8896,8913,8930,8946,8963,8980,8996,9013,9030,9047,9063,9079,9097,9113,9130,9147,9163,9180,9197,9213,9230,9246,9263,9280,9297,9313,9330,9346,9363,9380,9396,9413,9430,9447,9463,9480,9496,9513,9530,9546,9563,9580,9596,9613,9630,9646,9663,9680,9696,9713,9730,9746,9763,9780,9796,9813,9830,9848,9862,9877,9893,9910,9926,9946,9962,9979,9995,10013,10030,10045,10062,10079,10095,10112,10129,10145,10163,10179,10196,10212,10229,10245,10262,10278,10295,10312,10329,10345,10362,10378,10395,10412,10429,10445,10462,10479,10495,10512,10529,10545,10562,10578,10595,10612,10629,10645,10662,10679,10695,10712,10729,10745,10762,10778,10796,10812,10829,10845,10863,10879,10895,10912,10929,10945,10962,10979,10996,11013,11030,11046,11063,11079,11096,11113,11129,11146,11163,11180,11196,11213,11230,11246,11263,11279,11296,11311,11327,11343,11359,11376,11393,11410,11426,11443,11460,11476,11493,11510,11527,11543,11560,11576,11593,11610,11626,11643,11660,11677,11693,11710,11726,11743,11759,11776,11793,11810,11826,11843,11860,11876,11893,11910,11927,11943,11960,11976,11995,12012,12028,12045,12062,12079,12095,12112,12128,12145,12162,12178,12195,12212,12228,12245,12262,12279,12295,12312,12328,12345,12362,12379,12395,12412,12428,12445,12462,12478,12495,12512,12528,12545,12562,12579,12595,12612,12628,12645,12662,12678,12696,12713,12729,12746,12763,12792,12804,12829,12846,12862,12880,12896,12913,12929,12946,12963,12979,12996,13013,13030,13046,13063,13080,13096,13113,13129,13146,13163,13179,13196,13213,13229,13246,13263,13279,13296,13313,13329,13346,13363,13379,13396,13413,13429,13446,13463,13479,13496,13513,13529,13546,13562,13579,13597,13613,13630,13646,13663,13679,13696,13713,13730,13747,13763,13780,13797,13814,13830,13846,13863,13880,13896,13913,13930,13946,13963,13979,13996,14013,14030,14046,14063,14079,14096,14113,14129,14146,14163,14180,14196,14216,14233,14248,14260,14277,14293,14310,14327,14344,14360,14377,14393,14409,14427,14444,14460,14477,14493,14510,14527,14543,14560,14577,14593,14609,14627,14643,14662,14679,14695,14712,14728,14745,14762,14779,14796,14812,14828,14845,14861,14878,14895,14912,14928,14945,14961,14978,14995,15012,15029,15046,15062,15079,15095,15113,15128,15145,15162,15178,15195,15212,15229,15245,15262,15278,15295,15311,15329,15345,15362,15379,15395,15412,15428,15445,15462,15478,15495,15511,15528,15545,15562,15578,15596,15612,15626,15643,15659,15679,15695,15712,15728,15745,15762,15779,15796,15812,15828,15845,15863,15880,15895,15912,15929,15946,15963,15979,15996,16012,16029,16046,16063,16079,16096,16112,16129,16146,16163,16179,16196,16213,16229,16246,16262,16279,16296,16312,16329,16346,16363,16379,16396,16412,16429,16447,16460,16476,16493,16509,16526,16543,16560,16577,16593,16609,16626,16643,16659,16676,16693,16709,16728,16745,16762,16779,16795,16812,16829,16845,16862,16879,16895,16912,16929,16945,16962,16979,16995,17013,17027,17043,17059,17076,17093,17109,17126,17142,17162,17178,17195,17212,17229,17245,17262,17279,17295,17312,17329,17345,17362,17379,17395,17413,17429,17445,17462,17479,17496,17512,17529,17546,17562,17579,17596,17612,17629,17646,17662,17679,17696,17712,17730,17746,17763,17779,17796,17812,17829,17846,17862,17879,17895,17912,17929,17946,17962,17980,17996,18013,18030,18046,18062,18079,18095,18112,18129,18146,18162,18179,18196,18213,18229,18246,18262,18279,18296,18312,18329,18346,18362,18379,18396,18414,18426,18442,18459,18476,18493,18509,18528,18545,18561,18578,18595,18612,18628,18645,18661,18678,18695,18711,18728,18745,18761,18778,18795,18812,18829,18846,18862,18879,18896,18912,18929,18945,18962,18978,18996,19013,19029,19046,19062,19079,19096,19112,19129,19146,19162,19179,19195,19212,19230,19246,19262,19279,19296,19312,19330,19345,19362,19379,19396,19412,19429,19446,19462,19479,19496,19512,19529,19546,19563,19579,19596,19612,19629,19646,19663,19681,19697,19713,19729,19746,19763,19781,19796,19816,19838,19850,19881,19892,19909,19926,19943,19960,19976,19992,20010,20026,20043,20060,20076,20093,20109,20125,20143,20162,20179,20196,20212,20229,20245,20262,20279,20296,20312,20329,20346,20362,20379,20396,20412,20429,20445,20462,20479,20495,20512,20529,20545,20563,20579,20595,20612,20626,20642,20659,20676,20693,20709,20726,20743,20759,20776,20793,20809,20826,20843,20860,20876,20893,20910,20926,20943,20960,20976,20993,21009,21026,21043,21060,21076,21092,21109,21125,21143,21159,21176,21193,21209,21228,21242,21259,21276,21293,21309,21326,21343,21359,21376,21393,21409,21426,21443,21459,21476,21493,21509,21526,21543,21559,21576,21592,21609,21626,21643,21659,21676,21693,21709,21726,21742,21759,21776,21793,21809,21826,21843,21859,21876,21892,21909,21926,21943,21959,21978,21995,22011,22028,22046,22062,22079,22096,22112,22129,22145,22162,22179,22195,22212,22229,22245,22262,22279,22295,22312,22329,22345,22362,22379,22396,22412,22429,22445,22462,22479,22496,22512,22529,22545,22563,22579,22595,22613,22633,22658,22675,22692,22709,22726,22742,22759,22776,22793,22809,22826,22842,22859,22876,22892,22909,22926,22943,22959,22976,22995,23011,23028,23044,23062,23079,23095,23112,23129,23145,23162,23179,23195,23212,23229,23245,23262,23279,23295,23312,23329,23346,23362,23379,23396,23412,23429,23445,23462,23479,23495,23512,23529,23545,23562,23579,23595,23612,23629,23645,23662,23679,23695,23712,23729,23745,23762,23779,23796,23812,23828,23845,23862,23879,23895,23912,23929,23945,23962,23979,23995,24012,24029,24046,24069,24078,24092,24108,24125,24145,24161,24178,24195,24212,24228,24245,24262,24278,24295,24311,24328,24345,24361,24378,24395,24412,24428,24445,24461,24478,24495,24511,24528,24545,24561,24578,24592,24609,24626,24643,24659,24676,24692,24709,24726,24743,24760,24776,24793,24809,24826,24843,24859,24876,24892,24909,24926,24942,24959,24976,24992,25009,25026,25043,25059,25076,25092,25111,25127,25144,25160,25177,25194,25211,25227,25244,25260,25277,25294,25310,25327,25344,25361,25384,25411,25428,25445,25462,25479,25495,25512,25529,25545,25562,25579,25595,25612,25629,25646,25662,25679,25694,25708,25725,25742,25761,25779,25795,25812,25828,25845,25862,25878,25895,25912,25929,25945,25962,25978,25995,26013,26029,26046,26062,26080,26096,26112,26130,26146,26163,26175,26192,26209,26227,26243,26259,26276,26293,26309,26326,26342,26362,26378,26396,26412,26428,26445,26462,26479,26495,26512,26528,26544,26561,26578,26595,26611,26628,26645,26661,26679,26695,26712,26726,26743,26764,26776,26793,26809,26826,26845,26861,26878,26894,26911,26928,26945,26961,26978,26994,27013,27028,27045,27062,27078,27095,27112,27130,27145,27161,27178,27195,27213,27228,27245,27261,27279,27294,27312,27328,27345,27361,27378,27396,27411,27428,27445,27462,27478,27495,27511,27528,27544,27562,27578,27595,27611,27629,27645,27662,27679,27695,27712,27728,27745,27763,27778,27795,27811,27828,27845,27862,27878,27894,27912,27928,27946,27962,27978,27995,28011,28028,28044,28061,28078,28095,28117,28127,28142,28158,28175,28192,28208,28225,28242,28259,28276,28292,28309,28326,28343,28360,28376,28392,28409,28426,28443,28460,28476,28495,28511,28529,28544,28561,28577,28594,28611,28627,28644,28661,28678,28694,28711,28728,28744,28761,28778,28795,28811,28827,28844,28861,28878,28894,28911,28927,28944,28971,28979,28994,29012,29028,29045,29061,29078,29095,29111,29128,29145,29161,29178,29195,29211,29228,29245,29261,29278,29295,29311,29329,29345,29362,29379,29396,29412,29429,29445,29462,29479,29495,29515,29534,29558,29575,29592,29609,29625,29642,29662,29678,29696,29713,29730,29746,29762,29779,29796,29813,29829,29846,29863,29879,29896,29913,29929,29946,29962,29980,29996,30012,30029,30046,30062,30080,30096,30112,30129,30146,30161,30178,30195,30212,30228,30245,30262,30279,30295,30312,30329,30345,30362,30379,30396,30412,30429,30446,30463,30480,30497,30512,30529,30546,30562,30579,30596,30613,30629,30646,30663,30679,30696,30712,30729,30745,30762,30778,30796,30811,30829,30845,30862,30880,30895,30912,30939,30946,30960,30976,30992,31009,31027,31042,31059,31076,31093,31109,31129,31147,31164,31180,31197,31213,31230,31246,31264,31281,31296,31313,31329,31345,31363,31380,31397,31412,31429,31446,31462,31479,31496,31512,31529,31546,31563,31581,31597,31614,31633,31648,31664,31681,31697,31714,31731,31747,31764,31781,31798,31814,31831,31843,31859,31876,31892,31913,31931,31947,31964,31982,31997,32014,32031,32047,32064,32081,32097,32113,32130,32148,32163,32180,32198,32214,32231,32247,32264,32280,32297,32309,32332,32358,32375,32392,32409,32425,32442,32459,32478,32494,32511,32528,32544,32561,32578,32594,32611,32628,32644,32661,32678,32694,32711,32727,32745,32761,32777,32794,32811,32827,32844,32861,32877,32894,32911,32928,32944,32961,32978,32994,33011,33027,33044,33060,33077,33094,33110,33127,33144,33161,33177,33194,33211,33227,33244,33261,33277,33294,33311,33328,33344,33361,33377,33394,33411,33428,33444,33460,33477,33494,33511,33528,33545,33562,33578,33595,33612,33629,33645,33661,33678,33695,33716,33733,33758,33775,33792,33808,33825,33842,33858,33875,33892,33908,33925,33942,33958,33975,33991,34008,34025,34042,34058,34075,34092,34108,34125,34142,34158,34175,34192,34208,34228,34245,34261,34278,34295,34311,34328,34345,34361,34378,34395,34411,34429,34444,34461,34479,34495,34512,34528,34545,34562,34578,34595,34611,34628,34645,34662,34678,34695,34711,34728,34745,34761,34778,34795,34811,34828,34844,34861,34878,34895,34911,34928,34945,34961,34978,34994,35011,35028,35044,35061,35078,35094,35111,35128,35145,35168,35179,35191,35208,35224,35242,35259,35275,35292,35308,35328,35344,35361,35377,35394,35411,35427,35444,35461,35477,35494,35511,35527,35544,35561,35577,35594,35611,35627,35644,35661,35677,35694,35711,35727,35744,35761,35777,35794,35811,35829,35844,35861,35877,35895,35911,35928,35944,35961,35978,35994,36011,36027,36044,36060,36078,36094,36110,36128,36144,36161,36178,36194,36211,36229,36245,36261,36278,36294,36311,36327,36345,36361,36377,36394,36411,36428,36445,36461,36478,36494,36511,36528,36550,36561,36575,36592,36609,36625,36642,36658,36675,36691,36708,36725,36744,36761,36779,36795,36811,36828,36845,36862,36878,36895,36911,36928,36946,36963,36975,36992,37009,37025,37041,37059,37075,37092,37109,37125,37141,37158,37175,37195,37212,37229,37245,37261,37278,37295,37311,37328,37345,37361,37378,37395,37411,37428,37445,37461,37478,37495,37512,37529,37545,37562,37578,37595,37611,37628,37645,37662,37678,37695,37712,37728,37745,37762,37778,37795,37812,37828,37845,37861,37878,37895,37912,37928,37949,37963,37975,37991,38008,38029,38045,38062,38078,38096,38111,38128,38145,38162,38178,38195,38211,38228,38245,38261,38278,38294,38311,38328,38345,38361,38378,38395,38411,38428,38445,38461,38478,38495,38511,38528,38545,38561,38578,38595,38611,38628,38645,38661,38678,38694,38711,38728,38745,38761,38778,38795,38811,38828,38845,38861,38878,38895,38911,38928,38944,38961,38978,38995,39011,39029,39045,39061,39078,39095,39111,39128,39145,39161,39178,39195,39211,39227,39244,39261,39278,39295,39311,39328,39345,39362,39379,39394,39411,39428,39444,39461,39478,39495,39511,39528,39545,39561,39578,39594,39611,39628,39644,39661,39678,39695,39712,39728,39744,39761,39778,39794,39811,39828,39845,39861,39878,39894,39911,39928,39944,39961,39978,39995,40011,40028,40045,40061,40078,40094,40111,40128,40144,40161,40178,40195,40211,40228,40245,40261,40278,40294,40311,40328,40344,40361,40378,40394,40411,40428,40444,40461,40478,40494,40511,40528,40544,40561,40578,40595,40611,40628,40644,40661,40678,40694,40711,40728,40750,40758,40779,40792,40808,40825,40841,40861,40878,40894,40911,40928,40944,40961,40978,40994,41011,41028,41045,41061,41078,41094,41111,41128,41144,41161,41178,41194,41211,41228,41245,41261,41278,41294,41311,41328,41345,41361,41378,41395,41411,41428,41445,41461,41478,41495,41511,41528,41544,41561,41578,41594,41611,41628,41644,41661,41678,41695,41711,41728,41745,41761,41778,41794,41811,41828,41845,41862,41878,41894,41911,41927,41944,41961,41978,41995,42011,42028,42045,42061,42078,42095,42108,42124,42142,42160,42174,42191,42208,42225,42241,42258,42274,42291,42308,42325,42342,42358,42375,42391,42408,42425,42441,42458,42475,42492,42508,42525,42542,42558,42575,42591,42608,42624,42641,42661,42678,42694,42711,42728,42744,42761,42778,42794,42811,42828,42844,42861,42878,42895,42911,42928,42945,42961,42977,42994,43011,43028,43044,43061,43078,43094,43111,43128,43146,43161,43178,43194,43211,43228,43244,43261,43278,43294,43311,43327,43344,43361,43378,43394,43411,43428,43444,43461,43478,43494,43511,43525,43541,43558,43575,43592,43608,43625,43641,43658,43675,43692,43708,43725,43741,43758,43775,43791,43808,43827,43844,43861,43878,43894,43911,43927,43944,43961,43978,43994,44011,44028,44044,44062,44077,44094,44111,44127,44144,44161,44178,44194,44211,44228,44245,44261,44278,44294,44311,44328,44344,44361,44378,44394,44411,44427,44444,44462,44477,44494,44511,44527,44544,44561,44577,44594,44611,44628,44644,44661,44678,44694,44711,44728,44744,44761,44778,44794,44811,44828,44844,44861,44878,44897,44925,44941,44958,44974,44991,45008,45024,45041,45058,45075,45091,45110,45127,45143,45160,45177,45193,45210,45227,45243,45260,45277,45293,45310,45327,45344,45360,45377,45393,45410,45427,45444,45460,45477,45493,45510,45527,45543,45560,45577,45593,45610,45627,45644,45660,45677,45693,45710,45727,45743,45760,45777,45794,45810,45827,45843,45860,45877,45893,45910,45927,45943,45960,45977,45994,46010,46027,46043,46061,46077,46093,46110,46127,46143,46160,46177,46193,46210,46227,46243,46260,46276,46294,46308,46324,46341,46358,46375,46391,46408,46425,46442,46458,46475,46491,46508,46527,46544,46560,46577,46594,46610,46627,46644,46661,46677,46694,46710,46727,46744,46760,46777,46794,46810,46827,46844,46860,46877,46893,46910,46927,46944,46960,46977,46993,47010,47027,47043,47060,47077,47093,47110,47127,47144,47160,47177,47194,47207,47224,47241,47257,47274,47291,47307,47324,47341,47357,47374,47391,47407,47424,47441,47457,47474,47491,47510,47527,47544,47560,47577,47594,47610,47627,47643,47660,47677,47699,47711,47724,47741,47757,47774,47791,47808,47824,47841,47857,47875,47891,47910,47926,47943,47960,47977,47993,48010,48027,48043,48060,48076,48093,48110,48127,48143,48160,48174,48191,48208,48224,48241,48258,48274,48291,48308,48325,48341,48358,48374,48391,48408,48425,48442,48458,48475,48492,48509,48525,48542,48558,48575,48591,48608,48625,48642,48657,48674,48693,48708,48725,48741,48758,48775,48792,48808,48825,48841,48858,48875,48891,48908,48925,48940,48957,48974,48990,49007,49024,49041,49061,49074,49091,49108,49124,49141,49158,49174,49195,49211,49227,49244,49261,49277,49294,49311,49327,49344,49361,49377,49394,49411,49428,49444,49461,49477,49494,49511,49527,49544,49561,49577,49594,49611,49627,49645,49661,49677,49694,49711,49728,49745,49760,49777,49794,49811,49827,49844,49861,49877,49894,49911,49927,49944,49961,49978,49994,50011,50027,50044,50060,50077,50094,50111,50127,50144,50161,50177,50194,50211,50227,50244,50261,50277,50294,50311,50327,50344,50361,50377,50394,50412,50425,50440,50458,50474,50494,50511,50527,50544,50561,50577,50594,50611,50627,50644,50660,50677,50695,50711,50725,50740,50757,50774,50791,50808,50824,50841,50858,50877,50893,50910,50926,50943,50960,50977,50993,51010,51026,51043,51060,51077,51093,51110,51126,51143,51160,51177,51193,51210,51226,51243,51260,51276,51293,51310,51326,51343,51360,51376,51393,51410,51426,51443,51460,51476,51493,51510,51526,51543,51560,51576,51593,51610,51626,51643,51660,51676,51693,51709,51726,51743,51760,51777,51794,51807,51824,51841,51858,51874,51891,51908,51928,51944,51960,51977,51994,52010,52027,52044,52060,52077,52094,52111,52127,52144,52161,52177,52194,52211,52227,52244,52260,52277,52294,52311,52327,52344,52361,52374,52390,52407,52424,52444,52460,52477,52494,52512,52528,52544,52560,52577,52594,52611,52627,52644,52660,52678,52694,52711,52727,52744,52760,52777,52794,52810,52827,52844,52860,52877,52894,52910,52927,52944,52960,52977,52994,53011,53027,53044,53061,53077,53095,53112,53128,53146,53159,53175,53191,53207,53224,53241,53257,53274,53290,53308,53325,53341,53358,53374,53391,53408,53425,53441,53457,53475,53492,53509,53525,53541,53558,53574,53592,53608,53624,53641,53658,53675,53691,53707,53724,53741,53758,53775,53791,53807,53824,53841,53859,53875,53891,53907,53925,53942,53958,53974,53991,54007,54025,54041,54058,54075,54091,54107,54125,54141,54158,54174,54191,54207,54225,54241,54257,54275,54291,54308,54324,54341,54358,54375,54391,54408,54424,54440,54457,54479,54491,54509,54524,54541,54558,54575,54591,54607,54624,54641,54658,54674,54691,54707,54724,54743,54760,54776,54793,54810,54827,54843,54860,54877,54893,54910,54927,54943,54960,54976,54993,55010,55026,55043,55060,55076,55093,55110,55126,55143,55160,55177,55194,55211,55227,55243,55260,55277,55294,55310,55327,55343,55360,55376,55393,55410,55427,55443,55460,55477,55494,55511,55527,55544,55561,55578,55595,55611,55628,55645,55662,55676,55693,55709,55725,55742,55758,55779,55791,55808,55824,55842,55859,55875,55892,55908,55925,55943,55958,55974,55991,56008,56025,56042,56058,56075,56092,56108,56126,56142,56158,56174,56192,56208,56224,56240,56257,56273,56291,56307,56324,56340,56357,56374,56390,56407,56423,56441,56457,56474,56491,56510,56527,56544,56560,56577,56606,56617,56630,56647,56663,56679,56697,56713,56730,56746,56763,56779,56797,56808,56825,56842,56858,56878,56895,56912,56928,56945,56962,56978,56995,57012,57028,57045,57062,57077,57091,57108,57124,57142,57158,57175,57191,57208,57229,57246,57262,57280,57296,57313,57329,57347,57371,57379,57396,57413,57430,57446,57463,57474,57491,57507,57524,57542,57560,57579,57595,57612,57629,57645,57662,57680,57696,57713,57730,57746,57763,57780,57797,57813,57830,57847,57863,57879,57896,57913,57930,57947,57963,57980,57996,58013,58030,58047,58062,58080,58096,58113,58130,58147,58164,58180,58197,58213,58230,58247,58263,58279,58296,58313,58330,58346,58363,58380,58396,58415,58429,58441,58457,58474,58495,58511,58528,58544,58561,58578,58597],"hit":[null],"x":[-1.751700680272109,-1.751700680272109,-1.751700680272109,-1.751700680272109,-1.751700680272109,-1.751700680272109,-1.751700680272109,-1.751700680272109,-1.751700680272109,-1.751700680272109,-1.751700680272109,-1.751700680272109,-1.751700680272109,-1.751700680272109,-1.751700680272109,-1.751700680272109,-1.751700680272109,-1.751700680272109,-1.751700680272109,-1.751700680272109,-1.751700680272109,-1.751700680272109,-1.751700680272109,-1.751700680272109,-1.751700680272109,-1.751700680272109,-1.751700680272109,-1.751700680272109,-1.751700680272109,-1.751700680272109,-1.751700680272109,-1.751700680272109,-1.751700680272109,-1.751700680272109,-1.751700680272109,-1.751700680272109,-1.751700680272109,-1.751700680272109,-1.751700680272109,-1.751700680272109,-1.751700680272109,-1.751700680272109,-1.751700680272109,-1.751700680272109,-1.751700680272109,-1.751700680272109,-1.751700680272109,-1.751700680272109,-1.751700680272109,-1.751700680272109,-1.751700680272109,-1.751700680272109,-1.751700680272109,-1.751700680272109,-1.751700680272109,-1.751700680272109,-1.751700680272109,-1.751700680272109,-1.751700680272109,-1.751700680272109,-1.751700680272109,-1.751700680272109,-1.751700680272109,-1.751700680272109,-1.751700680272109,-1.751700680272109,-1.751700680272109,-1.751700680272109,-0.04421768707482993,-0.047619047619047616,-0.047619047619047616,-0.047619047619047616,-0.047619047619047616,-0.047619047619047616,-0.04421768707482993,-0.04081632653061224,-0.034013605442176874,-0.034013605442176874,-0.030612244897959183,-0.027210884353741496,-0.027210884353741496,-0.027210884353741496,-0.030612244897959183,-0.030612244897959183,-0.030612244897959183,-0.030612244897959183,-0.030612244897959183,-0.034013605442176874,-0.034013605442176874,-0.034013605442176874,-0.03741496598639456,-0.04081632653061224,-0.04081632653061224,-0.04421768707482993,-0.047619047619047616,-0.047619047619047616,-0.05102040816326531,-0.05102040816326531,-0.05102040816326531,-0.05102040816326531,-0.05102040816326531,-0.05102040816326531,-0.05102040816326531,-0.05102040816326531,-0.05102040816326531,-0.05102040816326531,-0.05102040816326531,-0.05102040816326531,-0.05102040816326531,-0.047619047619047616,-0.047619047619047616,-0.047619047619047616,-0.047619047619047616,-0.04421768707482993,-0.04421768707482993,-0.04421768707482993,-0.04081632653061224,-0.04081632653061224,-0.04081632653061224,-0.04081632653061224,-0.04081632653061224,-0.04081632653061224,-0.04081632653061224,-0.04081632653061224,-0.03741496598639456,-0.03741496598639456,-0.034013605442176874,-0.034013605442176874,-0.030612244897959183,-0.030612244897959183,-0.027210884353741496,-0.027210884353741496,-0.023809523809523808,-0.023809523809523808,-0.023809523809523808,-0.023809523809523808,-0.023809523809523808,-0.023809523809523808,-0.023809523809523808,-0.023809523809523808,-0.023809523809523808,-0.023809523809523808,-0.023809523809523808,-0.023809523809523808,-0.023809523809523808,-0.023809523809523808,-0.023809523809523808,-0.023809523809523808,-0.023809523809523808,-0.023809523809523808,-0.023809523809523808,-0.023809523809523808,-0.023809523809523808,-0.023809523809523808,-0.023809523809523808,-0.023809523809523808,-0.023809523809523808,-0.023809523809523808,-0.023809523809523808,-0.023809523809523808,-0.023809523809523808,-0.023809523809523808,-0.023809523809523808,-0.023809523809523808,-0.023809523809523808,-0.023809523809523808,-0.023809523809523808,-0.023809523809523808,-0.023809523809523808,-0.023809523809523808,-0.023809523809523808,-0.023809523809523808,-0.023809523809523808,-0.023809523809523808,-0.023809523809523808,-0.023809523809523808,-0.023809523809523808,-0.023809523809523808,-0.023809523809523808,-0.023809523809523808,-0.023809523809523808,-0.023809523809523808,-0.023809523809523808,-0.023809523809523808,-0.023809523809523808,-0.023809523809523808,-0.023809523809523808,-0.023809523809523808,-0.023809523809523808,-0.023809523809523808,-0.023809523809523808,-0.023809523809523808,-0.023809523809523808,-0.023809523809523808,-0.023809523809523808,-0.023809523809523808,-0.023809523809523808,-0.023809523809523808,-0.023809523809523808,-0.023809523809523808,-0.023809523809523808,-0.023809523809523808,-0.023809523809523808,-0.023809523809523808,-0.023809523809523808,-0.023809523809523808,-0.023809523809523808,-0.023809523809523808,-0.023809523809523808,-0.023809523809523808,-0.023809523809523808,-0.023809523809523808,-0.023809523809523808,-0.023809523809523808,-0.023809523809523808,-0.023809523809523808,-0.023809523809523808,-0.023809523809523808,-0.023809523809523808,-0.023809523809523808,-0.023809523809523808,-0.023809523809523808,-0.023809523809523808,-0.023809523809523808,-0.023809523809523808,-0.023809523809523808,-0.023809523809523808,-0.023809523809523808,-0.023809523809523808,-0.023809523809523808,-0.023809523809523808,-0.023809523809523808,-0.023809523809523808,-0.023809523809523808,-0.023809523809523808,-0.023809523809523808,-0.023809523809523808,-0.023809523809523808,-0.023809523809523808,-0.023809523809523808,-0.023809523809523808,-0.023809523809523808,-0.023809523809523808,-0.023809523809523808,-0.023809523809523808,-0.023809523809523808,-0.023809523809523808,-0.023809523809523808,-0.023809523809523808,-0.023809523809523808,-0.023809523809523808,-0.023809523809523808,-0.023809523809523808,-0.023809523809523808,-0.023809523809523808,-0.023809523809523808,-0.023809523809523808,-0.023809523809523808,-0.023809523809523808,-0.023809523809523808,-0.023809523809523808,-0.023809523809523808,-0.023809523809523808,-0.023809523809523808,-0.023809523809523808,-0.023809523809523808,-0.023809523809523808,-0.023809523809523808,-0.023809523809523808,-0.023809523809523808,-0.023809523809523808,-0.023809523809523808,-0.023809523809523808,-0.023809523809523808,-0.023809523809523808,-0.023809523809523808,-0.023809523809523808,-0.023809523809523808,-0.023809523809523808,-0.023809523809523808,-0.023809523809523808,-0.023809523809523808,-0.023809523809523808,-0.023809523809523808,-0.023809523809523808,-0.023809523809523808,-0.023809523809523808,-0.023809523809523808,-0.023809523809523808,-0.023809523809523808,-0.023809523809523808,-0.023809523809523808,-0.023809523809523808,-0.023809523809523808,-0.023809523809523808,-0.023809523809523808,-0.023809523809523808,-0.023809523809523808,-0.023809523809523808,-0.023809523809523808,-0.023809523809523808,-0.023809523809523808,-0.023809523809523808,-0.023809523809523808,-0.023809523809523808,-0.023809523809523808,-0.023809523809523808,-0.023809523809523808,-0.023809523809523808,-0.023809523809523808,-0.023809523809523808,-0.023809523809523808,-0.023809523809523808,-0.023809523809523808,-0.023809523809523808,-0.006802721088435374,0.07482993197278912,0.23129251700680273,0.35714285714285715,0.4931972789115646,0.5476190476190477,0.5884353741496599,0.6326530612244898,0.6836734693877551,0.6870748299319728,0.6870748299319728,0.6870748299319728,0.6870748299319728,0.6870748299319728,0.6870748299319728,0.6870748299319728,0.6870748299319728,0.6870748299319728,0.6870748299319728,0.6870748299319728,0.6870748299319728,0.6870748299319728,0.6870748299319728,0.6870748299319728,0.6870748299319728,0.6870748299319728,0.6870748299319728,0.6870748299319728,0.6768707482993197,0.6700680272108843,0.6632653061224489,0.6564625850340136,0.6462585034013606,0.6292517006802721,0.6156462585034014,0.6054421768707483,0.5986394557823129,0.5918367346938775,0.5884353741496599,0.5850340136054422,0.5816326530612245,0.5816326530612245,0.5816326530612245,0.5816326530612245,0.5816326530612245,0.5816326530612245,0.5816326530612245,0.5816326530612245,0.5816326530612245,0.5816326530612245,0.5816326530612245,0.5816326530612245,0.5816326530612245,0.5816326530612245,0.5816326530612245,0.5816326530612245,0.5816326530612245,0.5816326530612245,0.5816326530612245,0.5816326530612245,0.5816326530612245,0.5816326530612245,0.5816326530612245,0.5816326530612245,0.5816326530612245,0.5816326530612245,0.5816326530612245,0.5816326530612245,0.5816326530612245,0.5816326530612245,0.5816326530612245,0.5816326530612245,0.5816326530612245,0.5816326530612245,0.5816326530612245,0.5816326530612245,0.5816326530612245,0.5816326530612245,0.5816326530612245,0.5816326530612245,0.5816326530612245,0.5816326530612245,0.5816326530612245,0.5816326530612245,0.5816326530612245,0.5816326530612245,0.5816326530612245,0.5816326530612245,0.5816326530612245,0.5816326530612245,0.5816326530612245,0.5816326530612245,0.5816326530612245,0.5816326530612245,0.5816326530612245,0.5816326530612245,0.5816326530612245,0.5816326530612245,0.5816326530612245,0.5816326530612245,0.5816326530612245,0.5816326530612245,0.5816326530612245,0.5816326530612245,0.5816326530612245,0.5816326530612245,0.5816326530612245,0.5816326530612245,0.5816326530612245,0.5816326530612245,0.5816326530612245,0.5816326530612245,0.5816326530612245,0.5816326530612245,0.5816326530612245,0.5816326530612245,0.5816326530612245,0.5816326530612245,0.5816326530612245,0.5816326530612245,0.5816326530612245,0.5816326530612245,0.5816326530612245,0.5816326530612245,0.5816326530612245,0.5816326530612245,0.5816326530612245,0.5816326530612245,0.5816326530612245,0.5816326530612245,0.5816326530612245,0.5816326530612245,0.5816326530612245,0.5816326530612245,0.5816326530612245,0.5816326530612245,0.5816326530612245,0.5816326530612245,0.5816326530612245,0.5816326530612245,0.5816326530612245,0.5816326530612245,0.5816326530612245,0.5816326530612245,0.5816326530612245,0.5816326530612245,0.5816326530612245,0.5816326530612245,0.5816326530612245,0.5816326530612245,0.5816326530612245,0.5816326530612245,0.5816326530612245,0.5816326530612245,0.5816326530612245,0.5816326530612245,0.5816326530612245,0.5816326530612245,0.5816326530612245,0.5816326530612245,0.5816326530612245,0.5816326530612245,0.5816326530612245,0.5816326530612245,0.5816326530612245,0.5816326530612245,0.5816326530612245,0.5816326530612245,0.5816326530612245,0.5816326530612245,0.5816326530612245,0.5816326530612245,0.5816326530612245,0.5816326530612245,0.5816326530612245,0.5816326530612245,0.5816326530612245,0.5816326530612245,0.5816326530612245,0.5816326530612245,0.5816326530612245,0.5816326530612245,0.5816326530612245,0.5816326530612245,0.5816326530612245,0.5816326530612245,0.5816326530612245,0.5816326530612245,0.5816326530612245,0.5816326530612245,0.5816326530612245,0.5816326530612245,0.5816326530612245,0.5816326530612245,0.5816326530612245,0.5816326530612245,0.5816326530612245,0.5816326530612245,0.5816326530612245,0.5816326530612245,0.5816326530612245,0.5816326530612245,0.5816326530612245,0.5816326530612245,0.5816326530612245,0.5816326530612245,0.5816326530612245,0.5816326530612245,0.5816326530612245,0.5816326530612245,0.5816326530612245,0.5816326530612245,0.5816326530612245,0.5816326530612245,0.5816326530612245,0.5816326530612245,0.5816326530612245,0.5816326530612245,0.5816326530612245,0.5816326530612245,0.5816326530612245,0.5816326530612245,0.5816326530612245,0.5816326530612245,0.5816326530612245,0.5816326530612245,0.5816326530612245,0.5816326530612245,0.5816326530612245,0.5816326530612245,0.5816326530612245,0.5816326530612245,0.5816326530612245,0.5816326530612245,0.5816326530612245,0.5816326530612245,0.5816326530612245,0.5816326530612245,0.5816326530612245,0.5816326530612245,0.5816326530612245,0.5816326530612245,0.5816326530612245,0.5816326530612245,0.5816326530612245,0.5816326530612245,0.5816326530612245,0.5816326530612245,0.5816326530612245,0.5816326530612245,0.5816326530612245,0.5816326530612245,0.5816326530612245,0.5816326530612245,0.5816326530612245,0.5816326530612245,0.5816326530612245,0.5816326530612245,0.5816326530612245,0.5816326530612245,0.5816326530612245,0.5816326530612245,0.5816326530612245,0.5816326530612245,0.5816326530612245,0.5816326530612245,0.5816326530612245,0.5816326530612245,0.5816326530612245,0.5816326530612245,0.5816326530612245,0.5816326530612245,0.5816326530612245,0.5816326530612245,0.5816326530612245,0.5816326530612245,0.5816326530612245,0.5816326530612245,0.5816326530612245,0.5816326530612245,0.5816326530612245,0.5816326530612245,0.5816326530612245,0.5816326530612245,0.5816326530612245,0.5816326530612245,0.5816326530612245,0.5816326530612245,0.5816326530612245,0.5816326530612245,0.5816326530612245,0.5816326530612245,0.5816326530612245,0.5816326530612245,0.5816326530612245,0.5816326530612245,0.5816326530612245,0.5816326530612245,0.5816326530612245,0.5816326530612245,0.5816326530612245,0.5816326530612245,0.5816326530612245,0.5816326530612245,0.5816326530612245,0.5816326530612245,0.5816326530612245,0.5816326530612245,0.5816326530612245,0.5816326530612245,0.5816326530612245,0.5816326530612245,0.5816326530612245,0.5816326530612245,0.5816326530612245,0.5816326530612245,0.5816326530612245,0.5816326530612245,0.5816326530612245,0.5816326530612245,0.5816326530612245,0.5816326530612245,0.5816326530612245,0.5816326530612245,0.5816326530612245,0.5816326530612245,0.5816326530612245,0.5816326530612245,0.5816326530612245,0.5816326530612245,0.5816326530612245,0.5816326530612245,0.5816326530612245,0.5816326530612245,0.5816326530612245,0.5816326530612245,0.5816326530612245,0.5816326530612245,0.5816326530612245,0.5816326530612245,0.5816326530612245,0.5816326530612245,0.5816326530612245,0.5816326530612245,0.5816326530612245,0.5816326530612245,0.5816326530612245,0.5816326530612245,0.5816326530612245,0.5816326530612245,0.5816326530612245,0.5816326530612245,0.5816326530612245,0.5816326530612245,0.5816326530612245,0.5816326530612245,0.5816326530612245,0.5816326530612245,0.5816326530612245,0.5816326530612245,0.5816326530612245,0.5816326530612245,0.5816326530612245,0.5816326530612245,0.5816326530612245,0.5816326530612245,0.5816326530612245,0.5816326530612245,0.5816326530612245,0.5816326530612245,0.5816326530612245,0.5816326530612245,0.5816326530612245,0.5816326530612245,0.5816326530612245,0.5816326530612245,0.5816326530612245,0.5816326530612245,0.5816326530612245,0.5816326530612245,0.5816326530612245,0.5816326530612245,0.5816326530612245,0.5816326530612245,0.5816326530612245,0.5816326530612245,0.5816326530612245,0.5816326530612245,0.5816326530612245,0.5816326530612245,0.5816326530612245,0.5816326530612245,0.5816326530612245,0.5816326530612245,0.5816326530612245,0.5816326530612245,0.5816326530612245,0.5816326530612245,0.5816326530612245,0.5816326530612245,0.5816326530612245,0.5816326530612245,0.5816326530612245,0.5816326530612245,0.5816326530612245,0.5816326530612245,0.5816326530612245,0.5816326530612245,0.5816326530612245,0.5816326530612245,0.5816326530612245,0.5816326530612245,0.5816326530612245,0.5816326530612245,0.5816326530612245,0.5816326530612245,0.5816326530612245,0.5816326530612245,0.5816326530612245,0.5816326530612245,0.5816326530612245,0.5816326530612245,0.5816326530612245,0.5816326530612245,0.5816326530612245,0.5816326530612245,0.5816326530612245,0.5816326530612245,0.5816326530612245,0.5816326530612245,0.5816326530612245,0.5816326530612245,0.5816326530612245,0.5816326530612245,0.5816326530612245,0.5816326530612245,0.5816326530612245,0.5816326530612245,0.5816326530612245,0.5816326530612245,0.5816326530612245,0.5816326530612245,0.5816326530612245,0.5816326530612245,0.5816326530612245,0.5816326530612245,0.5816326530612245,0.5816326530612245,0.5816326530612245,0.5816326530612245,0.5816326530612245,0.5816326530612245,0.5816326530612245,0.5816326530612245,0.5816326530612245,0.5816326530612245,0.5816326530612245,0.5816326530612245,0.5816326530612245,0.5816326530612245,0.5816326530612245,0.5816326530612245,0.5816326530612245,0.5816326530612245,0.5816326530612245,0.5816326530612245,0.5816326530612245,0.5816326530612245,0.5816326530612245,0.5816326530612245,0.5816326530612245,0.5816326530612245,0.5816326530612245,0.5816326530612245,0.5816326530612245,0.5816326530612245,0.5816326530612245,0.5816326530612245,0.5816326530612245,0.5816326530612245,0.5816326530612245,0.5816326530612245,0.5816326530612245,0.5816326530612245,0.5816326530612245,0.5816326530612245,0.5816326530612245,0.5816326530612245,0.5816326530612245,0.5816326530612245,0.5816326530612245,0.5816326530612245,0.5816326530612245,0.5816326530612245,0.5816326530612245,0.5816326530612245,0.5816326530612245,0.5918367346938775,0.7925170068027211,0.9285714285714286,0.9727891156462585,0.9965986394557823,1.0068027210884354,1.0204081632653061,1.0272108843537415,1.030612244897959,1.0374149659863945,1.0374149659863945,1.0408163265306123,1.0408163265306123,1.0408163265306123,1.0408163265306123,1.0408163265306123,1.0408163265306123,1.0408163265306123,1.0408163265306123,1.0408163265306123,1.0408163265306123,1.0408163265306123,1.0408163265306123,1.0408163265306123,1.0408163265306123,1.0408163265306123,1.0408163265306123,1.0408163265306123,1.0408163265306123,1.0510204081632653,1.0578231292517006,1.064625850340136,1.0714285714285714,1.0714285714285714,1.0782312925170068,1.0816326530612246,1.08843537414966,1.08843537414966,1.0918367346938775,1.0952380952380953,1.098639455782313,1.1020408163265305,1.1054421768707483,1.1088435374149659,1.1088435374149659,1.1122448979591837,1.1122448979591837,1.1156462585034013,1.1156462585034013,1.119047619047619,1.119047619047619,1.119047619047619,1.119047619047619,1.119047619047619,1.119047619047619,1.119047619047619,1.119047619047619,1.119047619047619,1.119047619047619,1.119047619047619,1.119047619047619,1.119047619047619,1.119047619047619,1.119047619047619,1.119047619047619,1.119047619047619,1.119047619047619,1.119047619047619,1.119047619047619,1.119047619047619,1.119047619047619,1.119047619047619,1.119047619047619,1.119047619047619,1.119047619047619,1.119047619047619,1.119047619047619,1.119047619047619,1.119047619047619,1.119047619047619,1.119047619047619,1.119047619047619,1.119047619047619,1.119047619047619,1.119047619047619,1.119047619047619,1.119047619047619,1.119047619047619,1.119047619047619,1.119047619047619,1.119047619047619,1.119047619047619,1.119047619047619,1.119047619047619,1.119047619047619,1.119047619047619,1.119047619047619,1.119047619047619,1.119047619047619,1.119047619047619,1.119047619047619,1.119047619047619,1.119047619047619,1.119047619047619,1.119047619047619,1.119047619047619,1.119047619047619,1.119047619047619,1.119047619047619,1.119047619047619,1.119047619047619,1.119047619047619,1.119047619047619,1.119047619047619,1.119047619047619,1.119047619047619,1.119047619047619,1.119047619047619,1.119047619047619,1.119047619047619,1.119047619047619,1.119047619047619,1.119047619047619,1.119047619047619,1.119047619047619,1.119047619047619,1.119047619047619,1.119047619047619,1.119047619047619,1.119047619047619,1.119047619047619,1.119047619047619,1.119047619047619,1.119047619047619,1.119047619047619,1.119047619047619,1.119047619047619,1.119047619047619,1.119047619047619,1.119047619047619,1.119047619047619,1.119047619047619,1.119047619047619,1.119047619047619,1.119047619047619,1.119047619047619,1.119047619047619,1.119047619047619,1.119047619047619,1.119047619047619,1.119047619047619,1.119047619047619,1.119047619047619,1.119047619047619,1.119047619047619,1.119047619047619,1.119047619047619,1.119047619047619,1.119047619047619,1.119047619047619,1.119047619047619,1.119047619047619,1.119047619047619,1.119047619047619,1.119047619047619,1.119047619047619,1.119047619047619,1.119047619047619,1.119047619047619,1.119047619047619,1.119047619047619,1.119047619047619,1.119047619047619,1.119047619047619,1.119047619047619,1.119047619047619,1.119047619047619,1.119047619047619,1.119047619047619,1.119047619047619,1.119047619047619,1.119047619047619,1.119047619047619,1.119047619047619,1.119047619047619,1.119047619047619,1.119047619047619,1.119047619047619,1.119047619047619,1.119047619047619,1.119047619047619,1.119047619047619,1.119047619047619,1.119047619047619,1.119047619047619,1.119047619047619,1.119047619047619,1.119047619047619,1.119047619047619,1.119047619047619,1.119047619047619,1.119047619047619,1.119047619047619,1.119047619047619,1.119047619047619,1.119047619047619,1.119047619047619,1.119047619047619,1.119047619047619,1.119047619047619,1.119047619047619,1.119047619047619,1.119047619047619,1.119047619047619,1.119047619047619,1.119047619047619,1.119047619047619,1.119047619047619,1.119047619047619,1.119047619047619,1.119047619047619,1.119047619047619,1.119047619047619,1.119047619047619,1.119047619047619,1.119047619047619,1.119047619047619,1.119047619047619,1.119047619047619,1.119047619047619,1.119047619047619,1.119047619047619,1.119047619047619,1.119047619047619,1.119047619047619,1.119047619047619,1.119047619047619,1.119047619047619,1.119047619047619,1.119047619047619,1.119047619047619,1.119047619047619,1.119047619047619,1.119047619047619,1.119047619047619,1.119047619047619,1.119047619047619,1.119047619047619,1.119047619047619,1.119047619047619,1.119047619047619,1.119047619047619,1.119047619047619,1.119047619047619,1.119047619047619,1.119047619047619,1.119047619047619,1.119047619047619,1.119047619047619,1.119047619047619,1.119047619047619,1.119047619047619,1.119047619047619,1.119047619047619,1.119047619047619,1.119047619047619,1.119047619047619,1.119047619047619,1.119047619047619,1.119047619047619,1.119047619047619,1.119047619047619,1.119047619047619,1.119047619047619,1.119047619047619,1.119047619047619,1.119047619047619,1.119047619047619,1.119047619047619,1.119047619047619,1.119047619047619,1.119047619047619,1.119047619047619,1.119047619047619,1.119047619047619,1.119047619047619,1.119047619047619,1.119047619047619,1.119047619047619,1.119047619047619,1.119047619047619,1.119047619047619,1.119047619047619,1.119047619047619,1.119047619047619,1.119047619047619,1.119047619047619,1.119047619047619,1.119047619047619,1.119047619047619,1.119047619047619,1.119047619047619,1.119047619047619,1.119047619047619,1.119047619047619,1.119047619047619,1.119047619047619,1.119047619047619,1.119047619047619,1.119047619047619,1.119047619047619,1.119047619047619,1.119047619047619,1.119047619047619,1.119047619047619,1.119047619047619,1.119047619047619,1.119047619047619,1.119047619047619,1.119047619047619,1.119047619047619,1.119047619047619,1.119047619047619,1.119047619047619,1.119047619047619,1.119047619047619,1.119047619047619,1.119047619047619,1.119047619047619,1.119047619047619,1.119047619047619,1.119047619047619,1.119047619047619,1.119047619047619,1.119047619047619,1.119047619047619,1.119047619047619,1.119047619047619,1.119047619047619,1.119047619047619,1.119047619047619,1.119047619047619,1.119047619047619,1.119047619047619,1.119047619047619,1.119047619047619,1.119047619047619,1.119047619047619,1.119047619047619,1.119047619047619,1.119047619047619,1.119047619047619,1.119047619047619,1.119047619047619,1.1020408163265305,1.064625850340136,1.0374149659863945,1.0136054421768708,0.9965986394557823,0.9795918367346939,0.9591836734693877,0.9183673469387755,0.891156462585034,0.8673469387755102,0.8503401360544217,0.8299319727891157,0.8095238095238095,0.782312925170068,0.7721088435374149,0.7619047619047619,0.7482993197278912,0.7380952380952381,0.7346938775510204,0.7278911564625851,0.7244897959183674,0.7210884353741497,0.717687074829932,0.7142857142857143,0.7074829931972789,0.6972789115646258,0.6938775510204082,0.6938775510204082,0.6938775510204082,0.6938775510204082,0.6938775510204082,0.6938775510204082,0.6938775510204082,0.6938775510204082,0.6938775510204082,0.6938775510204082,0.6938775510204082,0.6938775510204082,0.6938775510204082,0.6938775510204082,0.6938775510204082,0.6938775510204082,0.6938775510204082,0.6938775510204082,0.6938775510204082,0.6938775510204082,0.6938775510204082,0.6938775510204082,0.6938775510204082,0.6938775510204082,0.6938775510204082,0.6938775510204082,0.6938775510204082,0.6938775510204082,0.6938775510204082,0.6938775510204082,0.6938775510204082,0.6938775510204082,0.6938775510204082,0.6938775510204082,0.6938775510204082,0.6938775510204082,0.6938775510204082,0.6938775510204082,0.6938775510204082,0.6938775510204082,0.6938775510204082,0.6938775510204082,0.6938775510204082,0.6904761904761905,0.6836734693877551,0.6768707482993197,0.6768707482993197,0.673469387755102,0.673469387755102,0.6802721088435374,0.6870748299319728,0.7006802721088435,0.7142857142857143,0.7278911564625851,0.7380952380952381,0.7482993197278912,0.7551020408163265,0.7585034013605442,0.7585034013605442,0.7585034013605442,0.7585034013605442,0.7619047619047619,0.7619047619047619,0.7619047619047619,0.7619047619047619,0.7619047619047619,0.7619047619047619,0.7619047619047619,0.7619047619047619,0.7619047619047619,0.7619047619047619,0.7619047619047619,0.7619047619047619,0.7619047619047619,0.7619047619047619,0.7619047619047619,0.7619047619047619,0.7619047619047619,0.7619047619047619,0.7619047619047619,0.7619047619047619,0.7619047619047619,0.7619047619047619,0.7619047619047619,0.7619047619047619,0.7619047619047619,0.7619047619047619,0.7619047619047619,0.7619047619047619,0.7619047619047619,0.7619047619047619,0.7619047619047619,0.7619047619047619,0.7619047619047619,0.7619047619047619,0.7619047619047619,0.7619047619047619,0.7619047619047619,0.7619047619047619,0.7619047619047619,0.7619047619047619,0.7619047619047619,0.7619047619047619,0.7619047619047619,0.7619047619047619,0.7619047619047619,0.7619047619047619,0.7619047619047619,0.7619047619047619,0.7619047619047619,0.7619047619047619,0.7619047619047619,0.7619047619047619,0.7619047619047619,0.7619047619047619,0.7619047619047619,0.7619047619047619,0.7619047619047619,0.7619047619047619,0.7619047619047619,0.7619047619047619,0.7619047619047619,0.7619047619047619,0.7619047619047619,0.7619047619047619,0.7619047619047619,0.7619047619047619,0.7619047619047619,0.7619047619047619,0.7619047619047619,0.7619047619047619,0.7619047619047619,0.7619047619047619,0.7619047619047619,0.7619047619047619,0.7619047619047619,0.7619047619047619,0.7619047619047619,0.7619047619047619,0.7619047619047619,0.7619047619047619,0.7619047619047619,0.7619047619047619,0.7619047619047619,0.7619047619047619,0.7619047619047619,0.7619047619047619,0.7619047619047619,0.7619047619047619,0.7619047619047619,0.7619047619047619,0.7619047619047619,0.7619047619047619,0.7619047619047619,0.7619047619047619,0.7619047619047619,0.7619047619047619,0.7619047619047619,0.7619047619047619,0.7619047619047619,0.7619047619047619,0.7619047619047619,0.7619047619047619,0.7619047619047619,0.7619047619047619,0.7619047619047619,0.7619047619047619,0.7619047619047619,0.7619047619047619,0.7619047619047619,0.7619047619047619,0.7619047619047619,0.7619047619047619,0.7619047619047619,0.7619047619047619,0.7619047619047619,0.7619047619047619,0.7619047619047619,0.7619047619047619,0.7619047619047619,0.7619047619047619,0.7619047619047619,0.7619047619047619,0.7619047619047619,0.7619047619047619,0.7619047619047619,0.7619047619047619,0.7619047619047619,0.7619047619047619,0.7619047619047619,0.7619047619047619,0.7619047619047619,0.7619047619047619,0.7619047619047619,0.7619047619047619,0.7619047619047619,0.7619047619047619,0.7619047619047619,0.7619047619047619,0.7619047619047619,0.7619047619047619,0.7619047619047619,0.7619047619047619,0.7619047619047619,0.7619047619047619,0.7619047619047619,0.7619047619047619,0.7619047619047619,0.7619047619047619,0.7619047619047619,0.7619047619047619,0.7619047619047619,0.7619047619047619,0.7619047619047619,0.7619047619047619,0.7619047619047619,0.7619047619047619,0.7619047619047619,0.7619047619047619,0.7619047619047619,0.7619047619047619,0.7619047619047619,0.7619047619047619,0.7619047619047619,0.7619047619047619,0.7619047619047619,0.7619047619047619,0.7619047619047619,0.7619047619047619,0.7619047619047619,0.7619047619047619,0.7619047619047619,0.7619047619047619,0.7619047619047619,0.7619047619047619,0.7619047619047619,0.7619047619047619,0.7619047619047619,0.7619047619047619,0.7619047619047619,0.7619047619047619,0.7619047619047619,0.7619047619047619,0.7619047619047619,0.7619047619047619,0.7619047619047619,0.7619047619047619,0.7619047619047619,0.7619047619047619,0.7619047619047619,0.7619047619047619,0.7619047619047619,0.7619047619047619,0.7619047619047619,0.7619047619047619,0.7619047619047619,0.7619047619047619,0.7619047619047619,0.7619047619047619,0.7619047619047619,0.7619047619047619,0.7619047619047619,0.7619047619047619,0.7619047619047619,0.7619047619047619,0.7619047619047619,0.7619047619047619,0.7619047619047619,0.7619047619047619,0.7619047619047619,0.7619047619047619,0.7619047619047619,0.7619047619047619,0.7619047619047619,0.7619047619047619,0.7619047619047619,0.7619047619047619,0.7619047619047619,0.7619047619047619,0.7619047619047619,0.7619047619047619,0.7619047619047619,0.7619047619047619,0.7619047619047619,0.7619047619047619,0.7619047619047619,0.7619047619047619,0.7619047619047619,0.7619047619047619,0.7619047619047619,0.7619047619047619,0.7619047619047619,0.7619047619047619,0.7619047619047619,0.7619047619047619,0.7619047619047619,0.7619047619047619,0.7619047619047619,0.7619047619047619,0.7619047619047619,0.7619047619047619,0.7619047619047619,0.7619047619047619,0.7619047619047619,0.7619047619047619,0.7619047619047619,0.7619047619047619,0.7619047619047619,0.7619047619047619,0.7619047619047619,0.7619047619047619,0.7619047619047619,0.7619047619047619,0.7619047619047619,0.7619047619047619,0.7619047619047619,0.7619047619047619,0.7619047619047619,0.7619047619047619,0.7619047619047619,0.7619047619047619,0.7619047619047619,0.7619047619047619,0.7619047619047619,0.7619047619047619,0.7619047619047619,0.7619047619047619,0.7619047619047619,0.7619047619047619,0.7619047619047619,0.7619047619047619,0.7619047619047619,0.7619047619047619,0.7619047619047619,0.7619047619047619,0.7619047619047619,0.7619047619047619,0.7619047619047619,0.7619047619047619,0.7619047619047619,0.7619047619047619,0.7619047619047619,0.7619047619047619,0.7619047619047619,0.7619047619047619,0.7619047619047619,0.7619047619047619,0.7619047619047619,0.7619047619047619,0.7619047619047619,0.7619047619047619,0.7619047619047619,0.7619047619047619,0.7653061224489796,0.7653061224489796,0.7687074829931972,0.7721088435374149,0.7789115646258503,0.7857142857142857,0.7959183673469388,0.8061224489795918,0.8129251700680272,0.8231292517006803,0.826530612244898,0.8367346938775511,0.8435374149659864,0.8469387755102041,0.8537414965986394,0.8571428571428571,0.8605442176870748,0.8639455782312925,0.8673469387755102,0.8741496598639455,0.8809523809523809,0.8877551020408163,0.8945578231292517,0.9047619047619048,0.9115646258503401,0.9285714285714286,0.935374149659864,0.9489795918367347,0.9523809523809523,0.95578231292517,0.9591836734693877,0.9625850340136054,0.9625850340136054,0.9693877551020408,0.9693877551020408,0.9761904761904762,0.9829931972789115,0.9965986394557823,1.0170068027210883,1.030612244897959,1.0442176870748299,1.054421768707483,1.0612244897959184,1.0680272108843538,1.0714285714285714,1.0748299319727892,1.0748299319727892,1.0782312925170068,1.0782312925170068,1.0816326530612246,1.0816326530612246,1.0816326530612246,1.0816326530612246,1.0816326530612246,1.0782312925170068,1.0782312925170068,1.0714285714285714,1.0578231292517006,1.0442176870748299,1.0136054421768708,0.9931972789115646,0.9829931972789115,0.9761904761904762,0.9693877551020408,0.95578231292517,0.9319727891156463,0.9115646258503401,0.8877551020408163,0.8537414965986394,0.8061224489795918,0.7244897959183674,0.6360544217687075,0.608843537414966,0.5918367346938775,0.5816326530612245,0.5748299319727891,0.5680272108843537,0.564625850340136,0.5612244897959183,0.5612244897959183,0.5612244897959183,0.5612244897959183,0.5612244897959183,0.5612244897959183,0.5612244897959183,0.5612244897959183,0.5612244897959183,0.5612244897959183,0.5612244897959183,0.5612244897959183,0.5612244897959183,0.5612244897959183,0.5612244897959183,0.5612244897959183,0.5612244897959183,0.564625850340136,0.5714285714285714,0.5782312925170068,0.6666666666666666,0.7414965986394558,0.7721088435374149,0.7857142857142857,0.7925170068027211,0.7993197278911565,0.8027210884353742,0.8095238095238095,0.8163265306122449,0.8299319727891157,0.8469387755102041,0.8741496598639455,0.8979591836734694,0.9251700680272109,0.9625850340136054,0.9897959183673469,1.0374149659863945,1.0714285714285714,1.2244897959183674,1.380952380952381,1.380952380952381,1.380952380952381,1.380952380952381,1.380952380952381,1.380952380952381,1.380952380952381,1.380952380952381,1.380952380952381,1.380952380952381,1.380952380952381,1.380952380952381,1.380952380952381,1.380952380952381,1.380952380952381,1.380952380952381,1.380952380952381,1.380952380952381,1.380952380952381,1.380952380952381,1.380952380952381,1.3265306122448979,1.2040816326530612,1.1768707482993197,1.163265306122449,1.153061224489796,1.1428571428571428,1.129251700680272,1.1224489795918366,1.1156462585034013,1.1088435374149659,1.1088435374149659,1.1054421768707483,1.1020408163265305,1.098639455782313,1.098639455782313,1.098639455782313,1.098639455782313,1.098639455782313,1.098639455782313,1.098639455782313,1.098639455782313,1.098639455782313,1.098639455782313,1.098639455782313,1.098639455782313,1.098639455782313,1.098639455782313,1.098639455782313,1.098639455782313,1.098639455782313,1.098639455782313,1.098639455782313,1.098639455782313,1.098639455782313,1.098639455782313,1.098639455782313,1.098639455782313,1.098639455782313,1.098639455782313,1.098639455782313,1.098639455782313,1.098639455782313,1.098639455782313,1.098639455782313,1.098639455782313,1.098639455782313,1.098639455782313,1.098639455782313,1.098639455782313,1.098639455782313,1.098639455782313,1.098639455782313,1.098639455782313,1.098639455782313,1.098639455782313,1.098639455782313,1.098639455782313,1.098639455782313,1.098639455782313,1.098639455782313,1.098639455782313,1.098639455782313,1.098639455782313,1.098639455782313,1.098639455782313,1.098639455782313,1.098639455782313,1.098639455782313,1.098639455782313,1.098639455782313,1.098639455782313,1.098639455782313,1.098639455782313,1.098639455782313,1.098639455782313,1.098639455782313,1.098639455782313,1.098639455782313,1.098639455782313,1.098639455782313,1.098639455782313,1.098639455782313,1.098639455782313,1.098639455782313,1.0850340136054422,1.0578231292517006,1.0374149659863945,1.010204081632653,0.9523809523809523,0.9081632653061225,0.8605442176870748,0.826530612244898,0.7993197278911565,0.7721088435374149,0.7551020408163265,0.7312925170068028,0.7108843537414966,0.6972789115646258,0.6802721088435374,0.6598639455782312,0.6428571428571429,0.6258503401360545,0.6020408163265306,0.5850340136054422,0.564625850340136,0.5544217687074829,0.5408163265306123,0.5306122448979592,0.5170068027210885,0.5,0.5,0.5,0.5,0.5,0.5,0.5,0.5,0.5,0.5,0.5,0.5,0.5,0.5,0.5,0.5,0.5,0.5,0.4897959183673469,0.47278911564625853,0.4523809523809524,0.42857142857142855,0.41156462585034015,0.4013605442176871,0.3877551020408163,0.37755102040816324,0.36054421768707484,0.35374149659863946,0.3469387755102041,0.3435374149659864,0.3401360544217687,0.3333333333333333,0.3299319727891156,0.32653061224489793,0.32653061224489793,0.3231292517006803,0.3231292517006803,0.3231292517006803,0.3231292517006803,0.3197278911564626,0.3197278911564626,0.3163265306122449,0.3163265306122449,0.3163265306122449,0.3129251700680272,0.3129251700680272,0.3129251700680272,0.30952380952380953,0.30952380952380953,0.30952380952380953,0.30612244897959184,0.30612244897959184,0.30272108843537415,0.29931972789115646,0.29591836734693877,0.29591836734693877,0.29591836734693877,0.2925170068027211,0.2925170068027211,0.2925170068027211,0.2925170068027211,0.2925170068027211,0.29591836734693877,0.29931972789115646,0.29931972789115646,0.30272108843537415,0.30272108843537415,0.30272108843537415,0.30272108843537415,0.30272108843537415,0.30272108843537415,0.30272108843537415,0.30272108843537415,0.30272108843537415,0.30272108843537415,0.30272108843537415,0.30272108843537415,0.30272108843537415,0.30272108843537415,0.30272108843537415,0.30272108843537415,0.30272108843537415,0.30272108843537415,0.30272108843537415,0.30272108843537415,0.30272108843537415,0.30272108843537415,0.30272108843537415,0.30272108843537415,0.30272108843537415,0.30272108843537415,0.30272108843537415,0.30272108843537415,0.30272108843537415,0.30272108843537415,0.30272108843537415,0.30272108843537415,0.30272108843537415,0.30272108843537415,0.30272108843537415,0.30272108843537415,0.30272108843537415,0.30272108843537415,0.30272108843537415,0.30272108843537415,0.30272108843537415,0.30272108843537415,0.30272108843537415,0.30272108843537415,0.30272108843537415,0.30272108843537415,0.30272108843537415,0.30272108843537415,0.30272108843537415,0.30272108843537415,0.30272108843537415,0.30272108843537415,0.30272108843537415,0.30272108843537415,0.30272108843537415,0.30272108843537415,0.30272108843537415,0.30272108843537415,0.30272108843537415,0.30272108843537415,0.30272108843537415,0.30272108843537415,0.30272108843537415,0.30272108843537415,0.30272108843537415,0.30272108843537415,0.30272108843537415,0.30272108843537415,0.30272108843537415,0.30272108843537415,0.30272108843537415,0.30272108843537415,0.30272108843537415,0.30272108843537415,0.30272108843537415,0.30272108843537415,0.30272108843537415,0.30272108843537415,0.30272108843537415,0.30272108843537415,0.30272108843537415,0.30272108843537415,0.30272108843537415,0.30272108843537415,0.30272108843537415,0.30272108843537415,0.30272108843537415,0.30272108843537415,0.30272108843537415,0.30272108843537415,0.30272108843537415,0.30272108843537415,0.30272108843537415,0.30272108843537415,0.30272108843537415,0.30272108843537415,0.30272108843537415,0.30272108843537415,0.30272108843537415,0.30272108843537415,0.30272108843537415,0.30272108843537415,0.30272108843537415,0.30272108843537415,0.30272108843537415,0.30272108843537415,0.30272108843537415,0.30272108843537415,0.30272108843537415,0.30272108843537415,0.30272108843537415,0.30272108843537415,0.30272108843537415,0.30272108843537415,0.30272108843537415,0.30272108843537415,0.30272108843537415,0.30272108843537415,0.30272108843537415,0.30272108843537415,0.30272108843537415,0.30272108843537415,0.30272108843537415,0.30272108843537415,0.30272108843537415,0.30272108843537415,0.30272108843537415,0.30272108843537415,0.30272108843537415,0.30272108843537415,0.30272108843537415,0.30272108843537415,0.30272108843537415,0.30272108843537415,0.30272108843537415,0.30272108843537415,0.30272108843537415,0.30272108843537415,0.30272108843537415,0.30272108843537415,0.30272108843537415,0.30272108843537415,0.30272108843537415,0.30272108843537415,0.30272108843537415,0.30272108843537415,0.30272108843537415,0.30272108843537415,0.30272108843537415,0.30272108843537415,0.30272108843537415,0.30272108843537415,0.30272108843537415,0.30272108843537415,0.30272108843537415,0.30272108843537415,0.30272108843537415,0.30272108843537415,0.30272108843537415,0.30272108843537415,0.30272108843537415,0.30272108843537415,0.30272108843537415,0.30272108843537415,0.30272108843537415,0.30272108843537415,0.30272108843537415,0.30272108843537415,0.30272108843537415,0.30272108843537415,0.30272108843537415,0.30272108843537415,0.30272108843537415,0.30272108843537415,0.30272108843537415,0.30272108843537415,0.30272108843537415,0.30272108843537415,0.30272108843537415,0.30272108843537415,0.30612244897959184,0.3129251700680272,0.3333333333333333,0.3469387755102041,0.36394557823129253,0.3741496598639456,0.3877551020408163,0.40476190476190477,0.4387755102040816,0.46598639455782315,0.4965986394557823,0.5204081632653061,0.5510204081632653,0.5748299319727891,0.5918367346938775,0.6020408163265306,0.6054421768707483,0.608843537414966,0.6122448979591837,0.6122448979591837,0.6156462585034014,0.6156462585034014,0.6190476190476191,0.6190476190476191,0.6224489795918368,0.6224489795918368,0.6258503401360545,0.6292517006802721,0.6326530612244898,0.6394557823129252,0.6598639455782312,0.673469387755102,0.6870748299319728,0.6938775510204082,0.7006802721088435,0.7074829931972789,0.7108843537414966,0.7108843537414966,0.7142857142857143,0.7142857142857143,0.7142857142857143,0.7142857142857143,0.7142857142857143,0.7142857142857143,0.7142857142857143,0.7142857142857143,0.7142857142857143,0.7142857142857143,0.7142857142857143,0.7142857142857143,0.7142857142857143,0.7142857142857143,0.7108843537414966,0.7108843537414966,0.7108843537414966,0.7074829931972789,0.7040816326530612,0.7040816326530612,0.7040816326530612,0.7040816326530612,0.7040816326530612,0.7040816326530612,0.7040816326530612,0.7040816326530612,0.7040816326530612,0.7040816326530612,0.7040816326530612,0.7040816326530612,0.7040816326530612,0.7040816326530612,0.7040816326530612,0.7040816326530612,0.7040816326530612,0.7040816326530612,0.7040816326530612,0.7040816326530612,0.7040816326530612,0.7040816326530612,0.7040816326530612,0.7040816326530612,0.7040816326530612,0.7040816326530612,0.7040816326530612,0.7040816326530612,0.7040816326530612,0.7040816326530612,0.7040816326530612,0.7040816326530612,0.7040816326530612,0.7040816326530612,0.7040816326530612,0.7040816326530612,0.7040816326530612,0.673469387755102,0.6496598639455783,0.6258503401360545,0.6054421768707483,0.5952380952380952,0.5816326530612245,0.5748299319727891,0.5748299319727891,0.5748299319727891,0.5748299319727891,0.5748299319727891,0.5748299319727891,0.5748299319727891,0.5748299319727891,0.5748299319727891,0.5748299319727891,0.5748299319727891,0.5748299319727891,0.5748299319727891,0.5748299319727891,0.5612244897959183,0.5272108843537415,0.4523809523809524,0.3877551020408163,0.3333333333333333,0.282312925170068,0.22448979591836735,0.1870748299319728,0.16666666666666666,0.15306122448979592,0.14285714285714285,0.1326530612244898,0.12585034013605442,0.11564625850340136,0.10204081632653061,0.09523809523809523,0.08503401360544217,0.08163265306122448,0.0782312925170068,0.07482993197278912,0.07142857142857142,0.06802721088435375,0.06802721088435375,0.06802721088435375,0.06802721088435375,0.06802721088435375,0.06802721088435375,0.06802721088435375,0.06802721088435375,0.06802721088435375,0.06802721088435375,0.06802721088435375,0.06802721088435375,0.06802721088435375,0.06802721088435375,0.06802721088435375,0.06802721088435375,0.06802721088435375,0.06802721088435375,0.06802721088435375,0.06802721088435375,0.06802721088435375,0.06802721088435375,0.06802721088435375,0.06802721088435375,0.06802721088435375,0.06802721088435375,0.06802721088435375,0.06802721088435375,0.061224489795918366,0.05442176870748299,0.04421768707482993,0.04081632653061224,0.034013605442176874,0.027210884353741496,0.027210884353741496,0.023809523809523808,0.02040816326530612,0.02040816326530612,0.02040816326530612,0.02040816326530612,0.02040816326530612,0.02040816326530612,0.02040816326530612,0.02040816326530612,0.02040816326530612,0.02040816326530612,0.02040816326530612,0.02040816326530612,0.02040816326530612,0.02040816326530612,0.02040816326530612,0.02040816326530612,0.02040816326530612,0.02040816326530612,0.02040816326530612,0.02040816326530612,0.02040816326530612,0.02040816326530612,0.02040816326530612,0.02040816326530612,0.02040816326530612,0.02040816326530612,0.02040816326530612,0.02040816326530612,0.02040816326530612,0.02040816326530612,0.02040816326530612,0.02040816326530612,0.02040816326530612,0.02040816326530612,0.02040816326530612,0.02040816326530612,0.02040816326530612,0.02040816326530612,0.02040816326530612,0.02040816326530612,0.02040816326530612,0.02040816326530612,0.02040816326530612,0.02040816326530612,0.02040816326530612,0.02040816326530612,0.02040816326530612,0.02040816326530612,0.02040816326530612,0.02040816326530612,0.02040816326530612,0.02040816326530612,0.02040816326530612,0.02040816326530612,0.02040816326530612,0.02040816326530612,0.02040816326530612,0.02040816326530612,0.02040816326530612,0.02040816326530612,0.02040816326530612,0.02040816326530612,0.02040816326530612,0.02040816326530612,0.02040816326530612,0.02040816326530612,0.02040816326530612,0.02040816326530612,0.02040816326530612,0.02040816326530612,0.02040816326530612,0.02040816326530612,0.02040816326530612,0.02040816326530612,0.02040816326530612,0.02040816326530612,0.02040816326530612,0.02040816326530612,0.02040816326530612,0.02040816326530612,0.02040816326530612,0.02040816326530612,0.02040816326530612,0.02040816326530612,0.02040816326530612,0.02040816326530612,0.02040816326530612,0.02040816326530612,0.02040816326530612,0.02040816326530612,0.02040816326530612,0.02040816326530612,0.02040816326530612,0.02040816326530612,0.02040816326530612,0.02040816326530612,0.02040816326530612,0.02040816326530612,0.02040816326530612,0.02040816326530612,0.02040816326530612,0.02040816326530612,0.02040816326530612,0.02040816326530612,0.02040816326530612,0.02040816326530612,0.02040816326530612,0.02040816326530612,0.02040816326530612,0.02040816326530612,0.02040816326530612,0.02040816326530612,0.02040816326530612,0.02040816326530612,0.02040816326530612,0.02040816326530612,0.02040816326530612,0.02040816326530612,0.02040816326530612,0.02040816326530612,0.02040816326530612,0.02040816326530612,0.02040816326530612,0.02040816326530612,0.02040816326530612,0.02040816326530612,0.02040816326530612,0.02040816326530612,0.02040816326530612,0.02040816326530612,0.02040816326530612,0.02040816326530612,0.02040816326530612,0.02040816326530612,0.02040816326530612,0.02040816326530612,0.02040816326530612,0.02040816326530612,0.02040816326530612,0.02040816326530612,0.02040816326530612,0.02040816326530612,0.02040816326530612,0.02040816326530612,0.02040816326530612,0.02040816326530612,0.02040816326530612,0.02040816326530612,0.02040816326530612,0.02040816326530612,0.02040816326530612,0.02040816326530612,0.02040816326530612,0.02040816326530612,0.02040816326530612,0.02040816326530612,0.02040816326530612,0.02040816326530612,0.02040816326530612,0.02040816326530612,0.02040816326530612,0.02040816326530612,0.02040816326530612,0.02040816326530612,0.02040816326530612,0.02040816326530612,0.02040816326530612,0.02040816326530612,0.02040816326530612,0.02040816326530612,0.02040816326530612,0.02040816326530612,0.02040816326530612,0.02040816326530612,0.02040816326530612,0.02040816326530612,0.02040816326530612,0.02040816326530612,0.02040816326530612,0.02040816326530612,0.02040816326530612,0.02040816326530612,0.02040816326530612,0.02040816326530612,0.02040816326530612,0.02040816326530612,0.02040816326530612,0.02040816326530612,0.02040816326530612,0.02040816326530612,0.02040816326530612,0.02040816326530612,0.02040816326530612,0.02040816326530612,0.02040816326530612,0.02040816326530612,0.02040816326530612,0.02040816326530612,0.02040816326530612,0.02040816326530612,0.02040816326530612,0.02040816326530612,0.02040816326530612,0.02040816326530612,0.02040816326530612,0.02040816326530612,0.02040816326530612,0.02040816326530612,0.02040816326530612,0.02040816326530612,0.02040816326530612,0.02040816326530612,0.02040816326530612,0.02040816326530612,0.02040816326530612,0.02040816326530612,0.02040816326530612,0.02040816326530612,0.02040816326530612,0.02040816326530612,0.02040816326530612,0.02040816326530612,0.02040816326530612,0.02040816326530612,0.02040816326530612,0.02040816326530612,0.02040816326530612,0.02040816326530612,0.02040816326530612,0.02040816326530612,0.02040816326530612,0.02040816326530612,0.02040816326530612,0.02040816326530612,0.02040816326530612,0.02040816326530612,0.02040816326530612,0.02040816326530612,0.02040816326530612,0.02040816326530612,0.02040816326530612,0.02040816326530612,0.02040816326530612,0.02040816326530612,0.02040816326530612,0.02040816326530612,0.02040816326530612,0.02040816326530612,0.02040816326530612,0.02040816326530612,0.02040816326530612,0.02040816326530612,0.02040816326530612,0.02040816326530612,0.02040816326530612,0.02040816326530612,0.02040816326530612,0.02040816326530612,0.02040816326530612,0.02040816326530612,0.02040816326530612,0.02040816326530612,0.02040816326530612,0.02040816326530612,0.02040816326530612,0.02040816326530612,0.02040816326530612,0.02040816326530612,0.02040816326530612,0.02040816326530612,0.02040816326530612,0.02040816326530612,0.02040816326530612,0.02040816326530612,0.02040816326530612,0.02040816326530612,0.02040816326530612,0.02040816326530612,0.02040816326530612,0.02040816326530612,0.02040816326530612,0.02040816326530612,0.02040816326530612,0.02040816326530612,0.02040816326530612,0.02040816326530612,0.02040816326530612,0.02040816326530612,0.02040816326530612,0.02040816326530612,0.02040816326530612,0.02040816326530612,0.02040816326530612,0.02040816326530612,0.02040816326530612,0.02040816326530612,0.02040816326530612,0.02040816326530612,0.02040816326530612,0.02040816326530612,0.02040816326530612,0.02040816326530612,0.02040816326530612,0.02040816326530612,0.02040816326530612,0.02040816326530612,0.02040816326530612,0.02040816326530612,0.02040816326530612,0.02040816326530612,0.02040816326530612,0.02040816326530612,0.02040816326530612,0.02040816326530612,0.02040816326530612,0.02040816326530612,0.02040816326530612,0.02040816326530612,0.02040816326530612,0.02040816326530612,0.02040816326530612,0.02040816326530612,0.02040816326530612,0.02040816326530612,0.02040816326530612,0.02040816326530612,0.02040816326530612,0.02040816326530612,0.02040816326530612,0.02040816326530612,0.02040816326530612,0.02040816326530612,0.02040816326530612,0.02040816326530612,0.02040816326530612,0.02040816326530612,0.02040816326530612,0.02040816326530612,0.02040816326530612,0.02040816326530612,0.02040816326530612,0.02040816326530612,0.02040816326530612,0.02040816326530612,0.02040816326530612,0.02040816326530612,0.02040816326530612,0.02040816326530612,0.02040816326530612,0.02040816326530612,0.02040816326530612,0.02040816326530612,0.02040816326530612,0.02040816326530612,0.02040816326530612,0.02040816326530612,0.02040816326530612,0.02040816326530612,0.02040816326530612,0.02040816326530612,0.02040816326530612,0.02040816326530612,0.02040816326530612,0.02040816326530612,0.02040816326530612,0.02040816326530612,0.02040816326530612,0.02040816326530612,0.02040816326530612,0.02040816326530612,0.02040816326530612,0.02040816326530612,0.02040816326530612,0.02040816326530612,0.02040816326530612,0.02040816326530612,0.02040816326530612,0.02040816326530612,0.02040816326530612,0.02040816326530612,0.02040816326530612,0.02040816326530612,0.02040816326530612,0.02040816326530612,0.02040816326530612,0.02040816326530612,0.02040816326530612,0.02040816326530612,0.02040816326530612,0.02040816326530612,0.02040816326530612,0.02040816326530612,0.02040816326530612,0.02040816326530612,0.02040816326530612,0.02040816326530612,0.02040816326530612,0.02040816326530612,0.02040816326530612,0.02040816326530612,0.02040816326530612,0.02040816326530612,0.02040816326530612,0.02040816326530612,0.02040816326530612,0.02040816326530612,0.02040816326530612,0.02040816326530612,0.02040816326530612,0.02040816326530612,0.02040816326530612,0.02040816326530612,0.02040816326530612,0.02040816326530612,0.02040816326530612,0.02040816326530612,0.02040816326530612,0.02040816326530612,0.02040816326530612,0.02040816326530612,0.02040816326530612,0.02040816326530612,0.02040816326530612,0.02040816326530612,0.02040816326530612,0.02040816326530612,0.02040816326530612,0.02040816326530612,0.02040816326530612,0.02040816326530612,0.02040816326530612,0.02040816326530612,0.02040816326530612,0.02040816326530612,0.02040816326530612,0.02040816326530612,0.02040816326530612,0.02040816326530612,0.02040816326530612,0.02040816326530612,0.02040816326530612,0.02040816326530612,0.02040816326530612,0.02040816326530612,0.02040816326530612,0.02040816326530612,0.02040816326530612,0.02040816326530612,0.02040816326530612,0.02040816326530612,0.02040816326530612,0.02040816326530612,0.02040816326530612,0.02040816326530612,0.02040816326530612,0.02040816326530612,0.02040816326530612,0.02040816326530612,0.02040816326530612,0.02040816326530612,0.02040816326530612,0.02040816326530612,0.02040816326530612,0.02040816326530612,0.02040816326530612,0.02040816326530612,0.02040816326530612,0.02040816326530612,0.02040816326530612,0.02040816326530612,0.02040816326530612,0.02040816326530612,0.02040816326530612,0.02040816326530612,0.02040816326530612,0.02040816326530612,0.02040816326530612,0.02040816326530612,0.02040816326530612,0.02040816326530612,0.02040816326530612,0.02040816326530612,0.02040816326530612,0.02040816326530612,0.02040816326530612,0.02040816326530612,0.02040816326530612,0.02040816326530612,0.02040816326530612,0.02040816326530612,0.02040816326530612,0.02040816326530612,0.02040816326530612,0.02040816326530612,0.02040816326530612,0.02040816326530612,0.02040816326530612,0.02040816326530612,0.02040816326530612,0.02040816326530612,0.02040816326530612,0.02040816326530612,0.02040816326530612,0.02040816326530612,0.02040816326530612,0.02040816326530612,0.02040816326530612,0.02040816326530612,0.02040816326530612,0.02040816326530612,0.02040816326530612,0.02040816326530612,0.02040816326530612,0.02040816326530612,0.02040816326530612,0.02040816326530612,0.02040816326530612,0.02040816326530612,0.02040816326530612,0.02040816326530612,0.02040816326530612,0.02040816326530612,0.02040816326530612,0.02040816326530612,0.02040816326530612,0.02040816326530612,0.02040816326530612,0.02040816326530612,0.02040816326530612,0.02040816326530612,0.02040816326530612,0.02040816326530612,0.02040816326530612,0.02040816326530612,0.02040816326530612,0.02040816326530612,0.02040816326530612,0.02040816326530612,0.02040816326530612,0.02040816326530612,0.02040816326530612,0.02040816326530612,0.02040816326530612,0.02040816326530612,0.02040816326530612,0.02040816326530612,0.02040816326530612,0.02040816326530612,0.02040816326530612,0.02040816326530612,0.02040816326530612,0.02040816326530612,0.02040816326530612,0.02040816326530612,0.02040816326530612,0.02040816326530612,0.02040816326530612,0.02040816326530612,0.02040816326530612,0.02040816326530612,0.02040816326530612,0.02040816326530612,0.02040816326530612,0.02040816326530612,0.02040816326530612,0.02040816326530612,0.02040816326530612,0.02040816326530612,0.02040816326530612,0.02040816326530612,0.02040816326530612,0.02040816326530612,0.02040816326530612,0.02040816326530612,0.02040816326530612,0.02040816326530612,0.02040816326530612,0.02040816326530612,0.02040816326530612,0.02040816326530612,0.02040816326530612,0.02040816326530612,0.02040816326530612,0.02040816326530612,0.02040816326530612,0.02040816326530612,0.02040816326530612,0.02040816326530612,0.02040816326530612,0.02040816326530612,0.02040816326530612,0.02040816326530612,0.02040816326530612,0.02040816326530612,0.02040816326530612,0.02040816326530612,0.02040816326530612,0.02040816326530612,0.02040816326530612,0.02040816326530612,0.02040816326530612,0.02040816326530612,0.02040816326530612,0.02040816326530612,0.02040816326530612,0.02040816326530612,0.02040816326530612,0.02040816326530612,0.02040816326530612,0.02040816326530612,0.02040816326530612,0.02040816326530612,0.02040816326530612,0.02040816326530612,0.02040816326530612,0.02040816326530612,0.02040816326530612,0.02040816326530612,0.02040816326530612,0.02040816326530612,0.02040816326530612,0.02040816326530612,0.02040816326530612,0.02040816326530612,0.02040816326530612,0.02040816326530612,0.02040816326530612,0.02040816326530612,0.02040816326530612,0.02040816326530612,0.02040816326530612,0.02040816326530612,0.02040816326530612,0.02040816326530612,0.02040816326530612,0.02040816326530612,0.02040816326530612,0.02040816326530612,0.02040816326530612,0.02040816326530612,0.02040816326530612,0.02040816326530612,0.02040816326530612,0.02040816326530612,0.02040816326530612,0.02040816326530612,0.02040816326530612,0.02040816326530612,0.02040816326530612,0.02040816326530612,0.02040816326530612,0.02040816326530612,0.02040816326530612,0.02040816326530612,0.02040816326530612,0.02040816326530612,0.02040816326530612,0.02040816326530612,0.02040816326530612,0.02040816326530612,0.02040816326530612,0.02040816326530612,0.02040816326530612,0.02040816326530612,0.02040816326530612,0.02040816326530612,0.02040816326530612,0.02040816326530612,0.02040816326530612,0.02040816326530612,0.02040816326530612,0.02040816326530612,0.02040816326530612,0.02040816326530612,0.02040816326530612,0.02040816326530612,0.02040816326530612,0.02040816326530612,0.02040816326530612,0.02040816326530612,0.02040816326530612,0.02040816326530612,0.02040816326530612,0.02040816326530612,0.02040816326530612,0.02040816326530612,0.02040816326530612,0.02040816326530612,0.02040816326530612,0.02040816326530612,0.02040816326530612,0.02040816326530612,0.02040816326530612,0.02040816326530612,0.02040816326530612,0.02040816326530612,0.02040816326530612,0.02040816326530612,0.02040816326530612,0.02040816326530612,0.02040816326530612,0.02040816326530612,0.02040816326530612,0.02040816326530612,0.02040816326530612,0.02040816326530612,0.02040816326530612,0.02040816326530612,0.02040816326530612,0.02040816326530612,0.02040816326530612,0.02040816326530612,0.02040816326530612,0.02040816326530612,0.02040816326530612,0.02040816326530612,0.02040816326530612,0.02040816326530612,0.02040816326530612,0.02040816326530612,0.02040816326530612,0.02040816326530612,0.02040816326530612,0.02040816326530612,0.02040816326530612,0.02040816326530612,0.02040816326530612,0.02040816326530612,0.02040816326530612,0.02040816326530612,0.02040816326530612,0.02040816326530612,0.02040816326530612,0.02040816326530612,0.02040816326530612,0.02040816326530612,0.02040816326530612,0.02040816326530612,0.02040816326530612,0.02040816326530612,0.02040816326530612,0.02040816326530612,0.02040816326530612,0.02040816326530612,0.02040816326530612,0.02040816326530612,0.02040816326530612,0.02040816326530612,0.02040816326530612,0.02040816326530612,0.02040816326530612,0.02040816326530612,0.02040816326530612,0.02040816326530612,0.02040816326530612,0.02040816326530612,0.02040816326530612,0.02040816326530612,0.02040816326530612,0.02040816326530612,0.02040816326530612,0.02040816326530612,0.02040816326530612,0.02040816326530612,0.02040816326530612,0.02040816326530612,0.02040816326530612,0.02040816326530612,0.02040816326530612,0.02040816326530612,0.02040816326530612,0.02040816326530612,0.02040816326530612,0.02040816326530612,0.02040816326530612,0.02040816326530612,0.02040816326530612,0.02040816326530612,0.02040816326530612,0.02040816326530612,0.02040816326530612,0.02040816326530612,0.02040816326530612,0.02040816326530612,0.02040816326530612,0.02040816326530612,0.02040816326530612,0.02040816326530612,0.02040816326530612,0.02040816326530612,0.02040816326530612,0.02040816326530612,0.02040816326530612,0.02040816326530612,0.02040816326530612,0.02040816326530612,0.02040816326530612,0.02040816326530612,0.02040816326530612,0.02040816326530612,0.02040816326530612,0.02040816326530612,0.02040816326530612,0.02040816326530612,0.02040816326530612,0.02040816326530612,0.02040816326530612,0.02040816326530612,0.02040816326530612,0.02040816326530612,0.02040816326530612,0.02040816326530612,0.02040816326530612,0.02040816326530612,0.02040816326530612,0.02040816326530612,0.02040816326530612,0.02040816326530612,0.02040816326530612,0.02040816326530612,0.02040816326530612,0.02040816326530612,0.02040816326530612,0.02040816326530612,0.02040816326530612,0.02040816326530612,0.02040816326530612,0.02040816326530612,0.02040816326530612,0.02040816326530612,0.02040816326530612,0.02040816326530612,0.02040816326530612,0.02040816326530612,0.02040816326530612,0.02040816326530612,0.02040816326530612,0.02040816326530612,0.02040816326530612,0.02040816326530612,0.02040816326530612,0.02040816326530612,0.02040816326530612,0.02040816326530612,0.02040816326530612,0.02040816326530612,0.02040816326530612,0.02040816326530612,0.02040816326530612,0.02040816326530612,0.02040816326530612,0.02040816326530612,0.02040816326530612,0.02040816326530612,0.02040816326530612,0.02040816326530612,0.02040816326530612,0.02040816326530612,0.02040816326530612,0.02040816326530612,0.02040816326530612,0.02040816326530612,0.02040816326530612,0.02040816326530612,0.02040816326530612,0.02040816326530612,0.02040816326530612,0.02040816326530612,0.02040816326530612,0.02040816326530612,0.02040816326530612,0.02040816326530612,0.02040816326530612,0.02040816326530612,0.02040816326530612,0.02040816326530612,0.02040816326530612,0.02040816326530612,0.02040816326530612,0.02040816326530612,0.02040816326530612,0.02040816326530612,0.02040816326530612,0.02040816326530612,0.02040816326530612,0.02040816326530612,0.02040816326530612,0.02040816326530612,0.02040816326530612,0.02040816326530612,0.02040816326530612,0.02040816326530612,0.02040816326530612,0.02040816326530612,0.02040816326530612,0.02040816326530612,0.02040816326530612,0.02040816326530612,0.02040816326530612,0.02040816326530612,0.02040816326530612,0.02040816326530612,0.02040816326530612,0.02040816326530612,0.02040816326530612,0.02040816326530612,0.02040816326530612,0.02040816326530612,0.02040816326530612,0.02040816326530612,0.02040816326530612,0.02040816326530612,0.02040816326530612,0.02040816326530612,0.02040816326530612,0.02040816326530612,0.02040816326530612,0.02040816326530612,0.02040816326530612,0.02040816326530612,0.02040816326530612,0.02040816326530612,0.02040816326530612,0.02040816326530612,0.02040816326530612,0.02040816326530612,0.02040816326530612,0.02040816326530612,0.02040816326530612,0.02040816326530612,0.02040816326530612,0.02040816326530612,0.02040816326530612,0.02040816326530612,0.02040816326530612,0.02040816326530612,0.02040816326530612,0.02040816326530612,0.02040816326530612,0.02040816326530612,0.02040816326530612,0.02040816326530612,0.02040816326530612,0.02040816326530612,0.02040816326530612,0.02040816326530612,0.02040816326530612,0.02040816326530612,0.02040816326530612,0.02040816326530612,0.02040816326530612,0.02040816326530612,0.02040816326530612,0.02040816326530612,0.02040816326530612,0.02040816326530612,0.02040816326530612,0.02040816326530612,0.02040816326530612,0.02040816326530612,0.02040816326530612,0.02040816326530612,0.02040816326530612,0.02040816326530612,0.027210884353741496,0.06802721088435375,0.1054421768707483,0.1326530612244898,0.15306122448979592,0.16326530612244897,0.17006802721088435,0.1836734693877551,0.19727891156462585,0.2108843537414966,0.22789115646258504,0.24149659863945577,0.2585034013605442,0.2687074829931973,0.2789115646258503,0.282312925170068,0.2891156462585034,0.29931972789115646,0.30952380952380953,0.3299319727891156,0.35034013605442177,0.3707482993197279,0.40816326530612246,0.43197278911564624,0.45918367346938777,0.4965986394557823,0.5510204081632653,0.5884353741496599,0.6224489795918368,0.6292517006802721,0.6292517006802721,0.6292517006802721,0.6292517006802721,0.625850340136054