[{"success":true,"trial_type":"fullscreen","trial_index":0,"time_elapsed":2625,"internal_node_id":"0.0-0.0","protocol_sum":"","subject_identifier":521,"subject_sum":[57,187,136,244,13,58,162,178,254,157,234,103,190,39,199,71,101,219,14,187,63,243,207,143,183,121,175,99,25,250,32,69],"subject_pair":260,"STUDY_ID":"66a3ed3c5d10d0e7d8a6b9da","PROLIFIC_PID":"5e9e19d808b9931ef37373c6","SESSION_ID":"66a446c5fa732e356e956a74","practice_instructions":1,"leaderboard_instructions":0,"bonus":0,"reveal_word":true,"self_rating":"1","confidence":"55"},{"view_history":"[{\"page_index\":0,\"viewing_time\":2382.5}]","rt":2383,"trial_type":"instructions","trial_index":1,"time_elapsed":5009,"internal_node_id":"0.0-1.0","protocol_sum":"","subject_identifier":521,"subject_sum":[57,187,136,244,13,58,162,178,254,157,234,103,190,39,199,71,101,219,14,187,63,243,207,143,183,121,175,99,25,250,32,69],"subject_pair":260,"STUDY_ID":"66a3ed3c5d10d0e7d8a6b9da","PROLIFIC_PID":"5e9e19d808b9931ef37373c6","SESSION_ID":"66a446c5fa732e356e956a74","practice_instructions":1,"leaderboard_instructions":0,"bonus":0,"reveal_word":true,"self_rating":"1","confidence":"55"},{"view_history":"[{\"page_index\":0,\"viewing_time\":2451.199999999255}]","rt":2451.5,"trial_type":"instructions","trial_index":2,"time_elapsed":7461,"internal_node_id":"0.0-2.0-0.0","protocol_sum":"","subject_identifier":521,"subject_sum":[57,187,136,244,13,58,162,178,254,157,234,103,190,39,199,71,101,219,14,187,63,243,207,143,183,121,175,99,25,250,32,69],"subject_pair":260,"STUDY_ID":"66a3ed3c5d10d0e7d8a6b9da","PROLIFIC_PID":"5e9e19d808b9931ef37373c6","SESSION_ID":"66a446c5fa732e356e956a74","practice_instructions":1,"leaderboard_instructions":0,"bonus":0,"reveal_word":true,"self_rating":"1","confidence":"55"},{"rt":3907.0999999996275,"responses":"{\"Q0\":\"... reveal the word with as <b>few letter guesses</b> as possible\"}","question_order":"[0]","trial_type":"survey-multi-choice","trial_index":3,"time_elapsed":11371,"internal_node_id":"0.0-2.0-1.0","protocol_sum":"","subject_identifier":521,"subject_sum":[57,187,136,244,13,58,162,178,254,157,234,103,190,39,199,71,101,219,14,187,63,243,207,143,183,121,175,99,25,250,32,69],"subject_pair":260,"correct":true,"test_part":"multichoice_nonpretend","STUDY_ID":"66a3ed3c5d10d0e7d8a6b9da","PROLIFIC_PID":"5e9e19d808b9931ef37373c6","SESSION_ID":"66a446c5fa732e356e956a74","practice_instructions":1,"leaderboard_instructions":0,"bonus":0,"reveal_word":true,"self_rating":"1","confidence":"55"},{"view_history":"[{\"page_index\":0,\"viewing_time\":1386.1000000014901}]","rt":1386.4000000003725,"trial_type":"instructions","trial_index":4,"time_elapsed":12759,"internal_node_id":"0.0-3.0","protocol_sum":"","subject_identifier":521,"subject_sum":[57,187,136,244,13,58,162,178,254,157,234,103,190,39,199,71,101,219,14,187,63,243,207,143,183,121,175,99,25,250,32,69],"subject_pair":260,"STUDY_ID":"66a3ed3c5d10d0e7d8a6b9da","PROLIFIC_PID":"5e9e19d808b9931ef37373c6","SESSION_ID":"66a446c5fa732e356e956a74","practice_instructions":1,"leaderboard_instructions":0,"bonus":0,"reveal_word":true,"self_rating":"1","confidence":"55"},{"word":"ZEBRA","click_log":{"letter":["","E","A","R","B","Z"],"t":[0,2342.5999999996275,4925.5,7477.9000000003725,8728.299999998882,9944.599999999627],"hit":[null,1,1,1,1,1],"asked":["","E","EA","EAR","EARB","EARBZ"],"word_state":["_____","_E___","_E__A","_E_RA","_EBRA","ZEBRA"]},"hover_log":{"letter":["?","?","?","?","?","?","?","?","?","?","?","?","?","?","?","?","?","?","?","?","?","?","?","?","?","?","?","?","?","?","?","?","?","?","?","?","?","?","?","?","?","?","?","?","?","?","?","?","?","?","?","?","?","?","?","?","?","?","?","?","?","?","?","?","?","?","?","?","?","?","?","?","?","?","M","N","N","?","O","O","O","O","O","O","O","O","O","O","O","O","O","?","?","N","N","N","?","?","?","?","?","?","?","?","?","?","D","D","D","D","D","D","D","D","D","D","?","E","E","E","E","E","E","E","E","E","E","E","E","E","E","E","E","E","E","E","E","E","E","E","E","E","E","E","E","E","E","E","E","E","E","E","E","E","E","E","E","E","E","E","E","E","E","E","E","E","E","E","E","E","E","E","E","E","E","E","E","E","E","E","E","E","E","E","E","E","E","E","E","E","E","E","E","E","E","E","E","E","E","E","E","E","E","E","E","E","E","E","?","?","M","M","?","?","?","?","?","?","?","?","?","?","?","?","?","?","?","?","?","?","?","?","?","?","?","?","?","?","?","?","?","?","?","?","?","?","?","?","?","O","O","O","O","O","O","O","O","?","?","?","?","?","?","?","?","?","?","?","?","?","?","B","B","B","B","?","?","?","?","?","?","A","A","A","A","A","A","A","A","A","A","A","A","A","A","A","A","A","A","A","A","A","A","A","A","A","A","A","A","A","A","A","A","A","A","A","A","A","A","A","A","A","A","A","A","A","A","?","?","B","?","?","?","?","?","?","?","K","K","K","?","?","?","?","?","?","?","?","?","V","?","?","?","N","N","O","O","O","P","P","P","P","P","P","P","P","P","P","P","P","P","P","P","P","P","P","P","P","P","P","P","?","?","?","?","?","?","?","?","?","?","?","?","?","?","?","?","?","?","?","?","?","?","?","?","?","?","?","?","?","Q","Q","Q","Q","Q","Q","Q","Q","Q","Q","?","?","?","?","?","?","?","?","?","?","?","?","?","R","R","R","R","R","R","R","R","R","R","R","R","R","R","R","R","R","R","R","R","R","R","R","R","R","R","R","R","R","R","R","R","R","R","R","Q","?","P","O","O","N","N","?","M","M","M","M","M","M","M","M","M","M","M","M","M","M","M","M","?","?","?","D","D","D","D","D","?","C","C","C","C","?","?","?","?","B","B","B","B","B","B","B","B","B","B","B","B","B","B","B","B","B","B","B","B","B","B","B","B","B","B","?","?","L","L","?","?","V","?","?","W","W","W","W","W","W","W","?","?","?","?","X","X","X","X","X","Y","Y","Y","Y","Y","Y","Y","Y","Y","Y","Y","Z","Z","Z","Z","?","?","?","?","?","?","?","Z","Z","Z","Z","Z","Z","Z","Z","Z","Z","Z","Z","Z","Z","Z","Z","Z","Z","Z","Z","Z","Z","Z","Z","Z","Z","Z","Z","Z","Z","Z","Z","Z","Z","Z","Z","Z","Z","Z","Z","Z","Z","Z","Z","Z","Z","Z","Z","Z","Z","Z","Z","Z","Z","Z","Z","Z","Z","Z","Z","Z","Z","Z","Z","Z","Z","Z","Z","Z","Z","Z","Z","Z","Z","Z","Z","Z","Z","Z","Z","Z","Z","Z","Z","Z","Z","Z","Z","Z","Z","Z","Z","Z","Z","Z","Z","Z","Z","Z","Z","Z","Z","Z","Z","Z","Z","Z","Z","Z","Z","Z","Z","Z","Z","Z","Z","Z","Z","Z","Z","Z","Z","Z","Z","Z","Z","Z","Z","Z","Z","Z","Z","Z","Z","Z"],"t":[23,51,66,82,100,119,136,150,169,197,200,215,234,251,266,284,301,316,334,350,366,384,401,416,433,449,465,482,499,516,533,550,567,583,599,615,632,650,667,682,700,716,732,749,767,784,799,817,831,849,866,883,899,917,933,950,967,982,999,1015,1033,1052,1066,1083,1099,1116,1133,1149,1165,1181,1197,1216,1232,1249,1265,1280,1297,1315,1330,1349,1365,1380,1398,1416,1434,1449,1467,1484,1499,1516,1532,1549,1566,1580,1599,1617,1633,1650,1667,1682,1698,1715,1732,1748,1763,1781,1799,1814,1830,1846,1865,1883,1900,1915,1931,1948,1964,1980,1997,2015,2031,2047,2065,2082,2098,2116,2133,2149,2166,2181,2198,2214,2231,2249,2265,2282,2298,2316,2331,2347,2364,2381,2399,2417,2434,2449,2466,2483,2499,2515,2533,2549,2566,2583,2599,2615,2632,2649,2665,2682,2699,2716,2730,2747,2763,2779,2796,2815,2829,2849,2866,2882,2896,2913,2931,2947,2963,2980,2997,3012,3029,3045,3064,3082,3099,3115,3131,3148,3165,3181,3198,3215,3232,3249,3265,3281,3298,3315,3332,3347,3366,3382,3399,3414,3431,3446,3463,3480,3496,3512,3530,3546,3562,3578,3596,3613,3631,3645,3662,3680,3697,3714,3730,3746,3762,3780,3796,3813,3829,3845,3863,3880,3895,3914,3930,3947,3965,3980,3996,4013,4031,4046,4064,4081,4096,4114,4128,4147,4163,4182,4198,4214,4231,4246,4263,4279,4295,4316,4328,4344,4364,4379,4395,4413,4433,4447,4464,4480,4497,4514,4529,4545,4562,4579,4595,4611,4629,4645,4662,4678,4696,4714,4730,4747,4762,4780,4795,4812,4828,4845,4861,4879,4896,4914,4928,4945,4964,4979,4996,5014,5030,5047,5063,5079,5097,5114,5131,5147,5163,5180,5196,5212,5229,5248,5263,5280,5296,5311,5327,5344,5362,5379,5396,5412,5428,5446,5462,5479,5497,5512,5530,5546,5562,5580,5596,5611,5628,5644,5660,5678,5695,5712,5728,5746,5762,5779,5796,5813,5828,5844,5861,5878,5894,5910,5930,5946,5963,5979,5996,6011,6028,6045,6061,6079,6096,6112,6128,6145,6162,6178,6196,6213,6230,6246,6262,6279,6296,6311,6328,6344,6362,6378,6395,6411,6427,6444,6460,6478,6496,6513,6530,6546,6561,6578,6594,6610,6627,6643,6661,6677,6693,6710,6728,6743,6760,6776,6794,6811,6827,6843,6859,6876,6892,6910,6929,6945,6960,6978,6993,7012,7028,7046,7062,7078,7095,7111,7128,7146,7160,7176,7193,7212,7227,7243,7261,7279,7296,7312,7329,7346,7361,7378,7394,7410,7427,7443,7461,7477,7495,7511,7527,7546,7562,7579,7595,7612,7628,7644,7660,7678,7695,7710,7728,7744,7760,7777,7795,7811,7826,7843,7861,7878,7895,7910,7926,7943,7960,7976,7993,8010,8028,8044,8059,8078,8095,8112,8128,8144,8160,8177,8194,8210,8227,8243,8260,8277,8293,8311,8326,8343,8360,8378,8395,8410,8426,8443,8459,8476,8494,8509,8527,8543,8559,8577,8595,8611,8628,8643,8661,8676,8694,8710,8727,8742,8758,8777,8793,8810,8826,8843,8860,8877,8894,8911,8926,8943,8960,8976,8993,9009,9026,9043,9059,9077,9095,9110,9127,9143,9159,9176,9194,9210,9226,9243,9259,9276,9293,9309,9326,9343,9360,9377,9393,9410,9426,9442,9460,9475,9493,9509,9525,9542,9559,9575,9594,9611,9626,9643,9660,9676,9692,9709,9725,9742,9759,9775,9792,9809,9824,9842,9860,9877,9894,9910,9927,9943,9959,9977,9995,10011,10027,10044,10061,10077,10093,10110,10127,10141,10158,10175,10192,10209,10225,10243,10259,10274,10291,10308,10324,10341,10357,10374,10391,10408,10425,10440,10458,10474,10490,10508,10524,10541,10558,10574,10591,10608,10623,10640,10657,10673,10690,10707,10724,10740,10757,10774,10791,10808,10824,10841,10858,10874,10890,10907,10924,10941,10957,10973,10990,11007,11024,11040,11057,11074,11090,11106,11124,11141,11157,11173,11191,11207,11223,11240,11257,11273,11290,11307,11324,11340,11357,11373,11390,11407,11423,11440,11457,11473,11490,11507,11524,11539,11556,11573,11590,11607,11623,11640,11656,11676,11690,11707,11724,11740,11757,11773,11790,11806,11824,11839,11857,11872,11889,11907,11923,11940,11957],"hit":[null],"x":[-1.7108843537414966,-1.7108843537414966,-1.7108843537414966,-1.7108843537414966,-1.7108843537414966,-1.7108843537414966,-1.7108843537414966,-1.7108843537414966,-1.7108843537414966,-1.7108843537414966,-1.7108843537414966,-1.7108843537414966,-1.7108843537414966,-1.7108843537414966,-1.7108843537414966,-1.7108843537414966,-1.7108843537414966,-1.7108843537414966,-1.7108843537414966,-1.7108843537414966,-1.7108843537414966,-1.7108843537414966,-1.7108843537414966,-1.7108843537414966,-1.7108843537414966,-1.7108843537414966,-1.7108843537414966,-1.7108843537414966,-1.7108843537414966,-1.7108843537414966,-1.7108843537414966,-1.7108843537414966,-1.7108843537414966,-1.7108843537414966,-1.7108843537414966,-1.7108843537414966,-1.7108843537414966,-1.7108843537414966,-1.7108843537414966,-1.7108843537414966,-1.7108843537414966,-1.7108843537414966,-1.7108843537414966,-1.7108843537414966,-1.7108843537414966,-1.7108843537414966,-1.7108843537414966,-1.7108843537414966,-1.7108843537414966,-1.7108843537414966,-1.7108843537414966,-1.7108843537414966,-1.7108843537414966,-1.7108843537414966,-1.7108843537414966,-1.7108843537414966,-1.7108843537414966,-1.7108843537414966,-1.7108843537414966,-1.7108843537414966,-1.7108843537414966,-1.7108843537414966,-1.7108843537414966,-1.7108843537414966,-1.7108843537414966,-1.7108843537414966,-1.7108843537414966,-1.7108843537414966,-1.7108843537414966,-1.7108843537414966,-1.7108843537414966,0.05102040816326531,0.14625850340136054,0.282312925170068,0.4013605442176871,0.5340136054421769,0.6122448979591837,0.6564625850340136,0.6836734693877551,0.6938775510204082,0.6938775510204082,0.6938775510204082,0.6938775510204082,0.6938775510204082,0.6938775510204082,0.6938775510204082,0.6938775510204082,0.6938775510204082,0.6938775510204082,0.6938775510204082,0.6870748299319728,0.6666666666666666,0.6394557823129252,0.608843537414966,0.5884353741496599,0.5612244897959183,0.5272108843537415,0.5102040816326531,0.4931972789115646,0.47959183673469385,0.46598639455782315,0.4557823129251701,0.4489795918367347,0.4387755102040816,0.4217687074829932,0.41496598639455784,0.41156462585034015,0.40816326530612246,0.40816326530612246,0.40816326530612246,0.40816326530612246,0.41156462585034015,0.41836734693877553,0.42857142857142855,0.445578231292517,0.46598639455782315,0.4931972789115646,0.5238095238095238,0.5340136054421769,0.5544217687074829,0.5578231292517006,0.5612244897959183,0.564625850340136,0.564625850340136,0.564625850340136,0.564625850340136,0.564625850340136,0.564625850340136,0.564625850340136,0.564625850340136,0.564625850340136,0.564625850340136,0.564625850340136,0.564625850340136,0.564625850340136,0.564625850340136,0.564625850340136,0.564625850340136,0.564625850340136,0.564625850340136,0.564625850340136,0.564625850340136,0.564625850340136,0.564625850340136,0.564625850340136,0.564625850340136,0.564625850340136,0.564625850340136,0.564625850340136,0.564625850340136,0.564625850340136,0.564625850340136,0.564625850340136,0.564625850340136,0.564625850340136,0.564625850340136,0.564625850340136,0.564625850340136,0.564625850340136,0.564625850340136,0.564625850340136,0.564625850340136,0.564625850340136,0.564625850340136,0.564625850340136,0.564625850340136,0.564625850340136,0.564625850340136,0.564625850340136,0.564625850340136,0.564625850340136,0.564625850340136,0.564625850340136,0.564625850340136,0.564625850340136,0.564625850340136,0.564625850340136,0.564625850340136,0.564625850340136,0.564625850340136,0.564625850340136,0.564625850340136,0.564625850340136,0.564625850340136,0.564625850340136,0.564625850340136,0.564625850340136,0.564625850340136,0.564625850340136,0.564625850340136,0.564625850340136,0.564625850340136,0.564625850340136,0.564625850340136,0.564625850340136,0.564625850340136,0.564625850340136,0.564625850340136,0.564625850340136,0.564625850340136,0.564625850340136,0.564625850340136,0.564625850340136,0.564625850340136,0.564625850340136,0.564625850340136,0.5612244897959183,0.54421768707483,0.5102040816326531,0.48299319727891155,0.42517006802721086,0.391156462585034,0.3707482993197279,0.35374149659863946,0.3401360544217687,0.3333333333333333,0.32653061224489793,0.3231292517006803,0.3197278911564626,0.3129251700680272,0.3129251700680272,0.3129251700680272,0.3129251700680272,0.3129251700680272,0.3129251700680272,0.3299319727891156,0.391156462585034,0.45918367346938777,0.5272108843537415,0.5986394557823129,0.6700680272108843,0.7244897959183674,0.7653061224489796,0.782312925170068,0.7993197278911565,0.8061224489795918,0.8095238095238095,0.8129251700680272,0.8129251700680272,0.8129251700680272,0.8129251700680272,0.8129251700680272,0.8129251700680272,0.8129251700680272,0.8129251700680272,0.8095238095238095,0.8027210884353742,0.7925170068027211,0.7789115646258503,0.7653061224489796,0.7482993197278912,0.7346938775510204,0.7142857142857143,0.7006802721088435,0.6870748299319728,0.6768707482993197,0.6700680272108843,0.6632653061224489,0.6564625850340136,0.6326530612244898,0.5986394557823129,0.5510204081632653,0.5034013605442177,0.46258503401360546,0.42517006802721086,0.38095238095238093,0.3401360544217687,0.30612244897959184,0.2755102040816326,0.24829931972789115,0.21768707482993196,0.1836734693877551,0.15306122448979592,0.1292517006802721,0.09863945578231292,0.08503401360544217,0.07482993197278912,0.06802721088435375,0.06462585034013606,0.061224489795918366,0.05782312925170068,0.05102040816326531,0.04421768707482993,0.03741496598639456,0.030612244897959183,0.023809523809523808,0.017006802721088437,0.01020408163265306,0.01020408163265306,0.01020408163265306,0.01020408163265306,0.01020408163265306,0.01020408163265306,0.01020408163265306,0.01020408163265306,0.01020408163265306,0.01020408163265306,0.01020408163265306,0.01020408163265306,0.01020408163265306,0.01020408163265306,0.01020408163265306,0.01020408163265306,0.01020408163265306,0.01020408163265306,0.01020408163265306,0.01020408163265306,0.01020408163265306,0.01020408163265306,0.01020408163265306,0.01020408163265306,0.01020408163265306,0.01020408163265306,0.01020408163265306,0.01020408163265306,0.01020408163265306,0.01020408163265306,0.01020408163265306,0.01020408163265306,0.01020408163265306,0.01020408163265306,0.01020408163265306,0.01020408163265306,0.01020408163265306,0.013605442176870748,0.027210884353741496,0.047619047619047616,0.07142857142857142,0.09523809523809523,0.12244897959183673,0.14625850340136054,0.16666666666666666,0.1870748299319728,0.19387755102040816,0.19727891156462585,0.20068027210884354,0.20068027210884354,0.20068027210884354,0.20068027210884354,0.20068027210884354,0.20068027210884354,0.2108843537414966,0.23129251700680273,0.25510204081632654,0.2891156462585034,0.3231292517006803,0.3435374149659864,0.3707482993197279,0.3843537414965986,0.3979591836734694,0.4217687074829932,0.4523809523809524,0.4965986394557823,0.5544217687074829,0.5952380952380952,0.6700680272108843,0.7312925170068028,0.7721088435374149,0.8163265306122449,0.8435374149659864,0.8605442176870748,0.8707482993197279,0.8707482993197279,0.8707482993197279,0.8707482993197279,0.8707482993197279,0.8707482993197279,0.8707482993197279,0.8707482993197279,0.8707482993197279,0.8707482993197279,0.8707482993197279,0.8707482993197279,0.8707482993197279,0.8707482993197279,0.8707482993197279,0.8707482993197279,0.8707482993197279,0.8707482993197279,0.8639455782312925,0.8469387755102041,0.8231292517006803,0.7959183673469388,0.7755102040816326,0.7619047619047619,0.7551020408163265,0.7517006802721088,0.7482993197278912,0.7482993197278912,0.7482993197278912,0.7482993197278912,0.7482993197278912,0.7482993197278912,0.7517006802721088,0.7619047619047619,0.7687074829931972,0.7755102040816326,0.7857142857142857,0.7959183673469388,0.8129251700680272,0.8231292517006803,0.8367346938775511,0.8469387755102041,0.8537414965986394,0.8639455782312925,0.8775510204081632,0.8945578231292517,0.9149659863945578,0.9319727891156463,0.9455782312925171,0.95578231292517,0.9625850340136054,0.9659863945578231,0.9659863945578231,0.9659863945578231,0.9659863945578231,0.9693877551020408,0.9761904761904762,0.9863945578231292,0.9931972789115646,1,1.010204081632653,1.0170068027210883,1.0272108843537415,1.0374149659863945,1.0476190476190477,1.0578231292517006,1.064625850340136,1.0714285714285714,1.0816326530612246,1.08843537414966,1.098639455782313,1.1054421768707483,1.1054421768707483,1.1088435374149659,1.1122448979591837,1.1122448979591837,1.1122448979591837,1.1122448979591837,1.119047619047619,1.1258503401360545,1.1360544217687074,1.1394557823129252,1.1428571428571428,1.1428571428571428,1.1428571428571428,1.1428571428571428,1.1428571428571428,1.1428571428571428,1.1428571428571428,1.1428571428571428,1.1428571428571428,1.1428571428571428,1.1428571428571428,1.1428571428571428,1.1428571428571428,1.1428571428571428,1.1428571428571428,1.1428571428571428,1.1428571428571428,1.1428571428571428,1.1428571428571428,1.1428571428571428,1.1428571428571428,1.1428571428571428,1.1428571428571428,1.1326530612244898,1.0952380952380953,1.0442176870748299,0.9421768707482994,0.8639455782312925,0.7482993197278912,0.673469387755102,0.5884353741496599,0.5306122448979592,0.5,0.47278911564625853,0.4523809523809524,0.4489795918367347,0.445578231292517,0.445578231292517,0.445578231292517,0.445578231292517,0.4421768707482993,0.43537414965986393,0.42857142857142855,0.4217687074829932,0.41496598639455784,0.41156462585034015,0.41156462585034015,0.40816326530612246,0.4013605442176871,0.3945578231292517,0.3945578231292517,0.3945578231292517,0.4013605442176871,0.40476190476190477,0.40476190476190477,0.3979591836734694,0.37755102040816324,0.35034013605442177,0.3129251700680272,0.2755102040816326,0.25510204081632654,0.23469387755102042,0.22108843537414966,0.21428571428571427,0.20748299319727892,0.20068027210884354,0.1836734693877551,0.17006802721088435,0.14965986394557823,0.13945578231292516,0.12585034013605442,0.12244897959183673,0.11904761904761904,0.11904761904761904,0.11904761904761904,0.11904761904761904,0.11904761904761904,0.11904761904761904,0.11904761904761904,0.11904761904761904,0.11904761904761904,0.11904761904761904,0.11904761904761904,0.11904761904761904,0.11904761904761904,0.11904761904761904,0.11904761904761904,0.11904761904761904,0.11904761904761904,0.11904761904761904,0.12585034013605442,0.1360544217687075,0.16666666666666666,0.20408163265306123,0.24489795918367346,0.29591836734693877,0.36394557823129253,0.41156462585034015,0.4489795918367347,0.47959183673469385,0.5068027210884354,0.5306122448979592,0.5476190476190477,0.564625850340136,0.5816326530612245,0.5986394557823129,0.6122448979591837,0.6258503401360545,0.6360544217687075,0.6428571428571429,0.6496598639455783,0.6564625850340136,0.6666666666666666,0.6768707482993197,0.6870748299319728,0.7346938775510204,0.7687074829931972,0.8027210884353742,0.8197278911564626,0.8367346938775511,0.8435374149659864,0.8469387755102041,0.8469387755102041,0.8503401360544217,0.8503401360544217,0.8503401360544217,0.8605442176870748,0.8979591836734694,0.9421768707482994,0.9795918367346939,1.0204081632653061,1.0408163265306123,1.0578231292517006,1.064625850340136,1.064625850340136,1.064625850340136,1.064625850340136,1.064625850340136,1.0612244897959184,1.0476190476190477,1.034013605442177,1.0136054421768708,1.0068027210884354,1,0.9965986394557823,0.9965986394557823,0.9965986394557823,0.9965986394557823,0.9965986394557823,0.9965986394557823,0.9965986394557823,0.9965986394557823,0.9965986394557823,0.9965986394557823,0.9965986394557823,0.9965986394557823,0.9965986394557823,0.9965986394557823,0.9965986394557823,0.9965986394557823,0.9965986394557823,0.9965986394557823,0.9965986394557823,0.9965986394557823,0.9965986394557823,0.9965986394557823,0.9965986394557823,0.9965986394557823,0.9965986394557823,0.9965986394557823,0.9965986394557823,0.9965986394557823,0.9965986394557823,0.9965986394557823,0.9965986394557823,0.9965986394557823,0.9965986394557823,0.9965986394557823,0.9965986394557823,0.9965986394557823,0.9965986394557823,0.9965986394557823,0.9965986394557823,0.9965986394557823,0.9965986394557823,0.9965986394557823,0.9965986394557823,0.9965986394557823,0.9965986394557823,0.9965986394557823,0.9965986394557823,0.9965986394557823,0.9965986394557823,0.9965986394557823,0.9965986394557823,0.9965986394557823,0.9965986394557823,0.9965986394557823,0.9965986394557823,0.9965986394557823,0.9965986394557823,0.9965986394557823,0.9965986394557823,0.9965986394557823,0.9965986394557823,0.9965986394557823,0.9965986394557823,0.9965986394557823,0.9965986394557823,0.9965986394557823,0.9965986394557823,0.9965986394557823,0.9965986394557823,0.9965986394557823,0.9965986394557823,0.9965986394557823,0.9965986394557823,0.9965986394557823,0.9965986394557823,0.9965986394557823,0.9965986394557823,0.9965986394557823,0.9965986394557823,0.9965986394557823,0.9965986394557823,0.9965986394557823,0.9965986394557823,0.9965986394557823,0.9965986394557823,0.9965986394557823,0.9965986394557823,0.9965986394557823,0.9965986394557823,0.9965986394557823,0.9965986394557823,0.9965986394557823,0.9965986394557823,0.9965986394557823,0.9965986394557823,0.9965986394557823,0.9965986394557823,0.9965986394557823,0.9965986394557823,0.9965986394557823,0.9965986394557823,0.9965986394557823,0.9965986394557823,0.9965986394557823,0.9965986394557823,0.9965986394557823,0.9965986394557823,0.9965986394557823,0.9965986394557823,0.9965986394557823,0.9965986394557823,0.9965986394557823,0.9965986394557823,0.9965986394557823,0.9965986394557823,0.9965986394557823,0.9965986394557823,0.9965986394557823,0.9965986394557823,0.9965986394557823,0.9965986394557823,0.9965986394557823,0.9965986394557823,0.9965986394557823,0.9965986394557823,0.9965986394557823,0.9965986394557823,0.9965986394557823,0.9965986394557823,0.9965986394557823],"y":[-2.992063492063492,-2.992063492063492,-2.992063492063492,-2.992063492063492,-2.992063492063492,-2.992063492063492,-2.992063492063492,-2.992063492063492,-2.992063492063492,-2.992063492063492,-2.992063492063492,-2.992063492063492,-2.992063492063492,-2.992063492063492,-2.992063492063492,-2.992063492063492,-2.992063492063492,-2.992063492063492,-2.992063492063492,-2.992063492063492,-2.992063492063492,-2.992063492063492,-2.992063492063492,-2.992063492063492,-2.992063492063492,-2.992063492063492,-2.992063492063492,-2.992063492063492,-2.992063492063492,-2.992063492063492,-2.992063492063492,-2.992063492063492,-2.992063492063492,-2.992063492063492,-2.992063492063492,-2.992063492063492,-2.992063492063492,-2.992063492063492,-2.992063492063492,-2.992063492063492,-2.992063492063492,-2.992063492063492,-2.992063492063492,-2.992063492063492,-2.992063492063492,-2.992063492063492,-2.992063492063492,-2.992063492063492,-2.992063492063492,-2.992063492063492,-2.992063492063492,-2.992063492063492,-2.992063492063492,-2.992063492063492,-2.992063492063492,-2.992063492063492,-2.992063492063492,-2.992063492063492,-2.992063492063492,-2.992063492063492,-2.992063492063492,-2.992063492063492,-2.992063492063492,-2.992063492063492,-2.992063492063492,-2.992063492063492,-2.992063492063492,-2.992063492063492,-2.992063492063492,-2.992063492063492,-2.992063492063492,0.8222222222222221,0.7555555555555554,0.6888888888888887,0.6412698412698411,0.5555555555555554,0.49841269841269825,0.4603174603174601,0.4126984126984125,0.38412698412698393,0.3650793650793649,0.3650793650793649,0.3650793650793649,0.3650793650793649,0.3650793650793649,0.3650793650793649,0.3650793650793649,0.3650793650793649,0.3650793650793649,0.3650793650793649,0.3650793650793649,0.37460317460317444,0.38412698412698393,0.38412698412698393,0.38412698412698393,0.38412698412698393,0.37460317460317444,0.3650793650793649,0.34603174603174586,0.3269841269841268,0.30793650793650773,0.2888888888888887,0.2603174603174601,0.23174603174603156,0.18412698412698394,0.1650793650793649,0.14603174603174585,0.13650793650793633,0.13650793650793633,0.1269841269841268,0.1269841269841268,0.1269841269841268,0.11746031746031728,0.10793650793650776,0.08888888888888871,0.07936507936507918,0.06984126984126966,0.06031746031746014,0.06031746031746014,0.06031746031746014,0.06031746031746014,0.06031746031746014,0.06031746031746014,0.06031746031746014,0.06031746031746014,0.06031746031746014,0.06031746031746014,0.06031746031746014,0.06031746031746014,0.06031746031746014,0.06031746031746014,0.06031746031746014,0.06031746031746014,0.06031746031746014,0.06031746031746014,0.06031746031746014,0.06031746031746014,0.06031746031746014,0.06031746031746014,0.06031746031746014,0.06031746031746014,0.06031746031746014,0.06031746031746014,0.06031746031746014,0.06031746031746014,0.06031746031746014,0.06031746031746014,0.06031746031746014,0.06031746031746014,0.06031746031746014,0.06031746031746014,0.06031746031746014,0.06031746031746014,0.06031746031746014,0.06031746031746014,0.06031746031746014,0.06031746031746014,0.06031746031746014,0.06031746031746014,0.06031746031746014,0.06031746031746014,0.06031746031746014,0.06031746031746014,0.06031746031746014,0.06031746031746014,0.06031746031746014,0.06031746031746014,0.06031746031746014,0.06031746031746014,0.06031746031746014,0.06031746031746014,0.06031746031746014,0.06031746031746014,0.06031746031746014,0.06031746031746014,0.06031746031746014,0.06031746031746014,0.06031746031746014,0.06031746031746014,0.06031746031746014,0.06031746031746014,0.06031746031746014,0.06031746031746014,0.06031746031746014,0.06031746031746014,0.06031746031746014,0.06031746031746014,0.06031746031746014,0.06031746031746014,0.06031746031746014,0.06031746031746014,0.06031746031746014,0.06031746031746014,0.06031746031746014,0.06031746031746014,0.06031746031746014,0.06031746031746014,0.06031746031746014,0.06031746031746014,0.06031746031746014,0.06031746031746014,0.06031746031746014,0.06031746031746014,0.06031746031746014,0.06031746031746014,0.06031746031746014,0.08888888888888871,0.13650793650793633,0.22222222222222204,0.29841269841269824,0.4603174603174601,0.5460317460317459,0.5746031746031744,0.603174603174603,0.622222222222222,0.6317460317460316,0.6412698412698411,0.6507936507936506,0.6603174603174602,0.6793650793650792,0.6888888888888887,0.6984126984126983,0.6984126984126983,0.7079365079365078,0.7079365079365078,0.7174603174603172,0.7174603174603172,0.7174603174603172,0.7365079365079363,0.7460317460317458,0.7555555555555554,0.7555555555555554,0.7269841269841268,0.7079365079365078,0.6888888888888887,0.6793650793650792,0.6698412698412697,0.6698412698412697,0.6603174603174602,0.6603174603174602,0.6603174603174602,0.6603174603174602,0.6603174603174602,0.6603174603174602,0.6603174603174602,0.6507936507936506,0.6412698412698411,0.6126984126984125,0.5936507936507934,0.5746031746031744,0.5555555555555554,0.5460317460317459,0.5174603174603173,0.47936507936507916,0.4603174603174601,0.43174603174603154,0.4126984126984125,0.3936507936507935,0.37460317460317444,0.34603174603174586,0.3174603174603173,0.26984126984126966,0.23174603174603156,0.22222222222222204,0.22222222222222204,0.22222222222222204,0.22222222222222204,0.203174603174603,0.1650793650793649,0.14603174603174585,0.13650793650793633,0.11746031746031728,0.09841269841269823,0.08888888888888871,0.06984126984126966,0.06031746031746014,0.06031746031746014,0.05079365079365061,0.05079365079365061,0.05079365079365061,0.04126984126984109,0.04126984126984109,0.031746031746031564,0.031746031746031564,0.022222222222222043,0.012698412698412518,0.003174603174602994,0.003174603174602994,0.003174603174602994,0.003174603174602994,0.003174603174602994,0.003174603174602994,0.003174603174602994,0.003174603174602994,0.003174603174602994,0.003174603174602994,0.003174603174602994,0.003174603174602994,0.003174603174602994,0.003174603174602994,0.003174603174602994,0.003174603174602994,0.003174603174602994,0.003174603174602994,0.003174603174602994,0.003174603174602994,0.003174603174602994,0.003174603174602994,0.003174603174602994,0.003174603174602994,0.003174603174602994,0.003174603174602994,0.003174603174602994,0.003174603174602994,0.003174603174602994,0.003174603174602994,0.003174603174602994,0.003174603174602994,0.003174603174602994,0.003174603174602994,0.003174603174602994,0.003174603174602994,0.003174603174602994,0.003174603174602994,0.003174603174602994,0.003174603174602994,0.022222222222222043,0.06031746031746014,0.10793650793650776,0.15555555555555536,0.203174603174603,0.2603174603174601,0.3174603174603173,0.3650793650793649,0.403174603174603,0.43174603174603154,0.4603174603174601,0.47936507936507916,0.49841269841269825,0.5269841269841268,0.5650793650793648,0.603174603174603,0.6603174603174602,0.7174603174603172,0.7746031746031744,0.8126984126984125,0.8222222222222221,0.8507936507936507,0.8507936507936507,0.8603174603174601,0.8317460317460316,0.7650793650793649,0.6888888888888887,0.6126984126984125,0.5746031746031744,0.5174603174603173,0.4888888888888887,0.47936507936507916,0.46984126984126967,0.46984126984126967,0.46984126984126967,0.46984126984126967,0.4603174603174601,0.4603174603174601,0.4603174603174601,0.4603174603174601,0.4603174603174601,0.4603174603174601,0.4603174603174601,0.4603174603174601,0.4603174603174601,0.4603174603174601,0.4603174603174601,0.4603174603174601,0.4603174603174601,0.4603174603174601,0.4603174603174601,0.4603174603174601,0.45079365079365064,0.42222222222222205,0.38412698412698393,0.34603174603174586,0.29841269841269824,0.2793650793650792,0.2603174603174601,0.24126984126984108,0.24126984126984108,0.23174603174603156,0.23174603174603156,0.23174603174603156,0.23174603174603156,0.23174603174603156,0.23174603174603156,0.23174603174603156,0.23174603174603156,0.23174603174603156,0.23174603174603156,0.24126984126984108,0.2507936507936506,0.26984126984126966,0.2888888888888887,0.29841269841269824,0.3174603174603173,0.3174603174603173,0.3269841269841268,0.3365079365079363,0.34603174603174586,0.37460317460317444,0.403174603174603,0.42222222222222205,0.4412698412698411,0.45079365079365064,0.4603174603174601,0.4603174603174601,0.4603174603174601,0.4603174603174601,0.45079365079365064,0.42222222222222205,0.38412698412698393,0.3555555555555554,0.3174603174603173,0.2793650793650792,0.2507936507936506,0.24126984126984108,0.23174603174603156,0.23174603174603156,0.23174603174603156,0.23174603174603156,0.24126984126984108,0.26984126984126966,0.29841269841269824,0.3365079365079363,0.3555555555555554,0.37460317460317444,0.38412698412698393,0.38412698412698393,0.38412698412698393,0.3936507936507935,0.403174603174603,0.43174603174603154,0.4603174603174601,0.4888888888888887,0.5079365079365078,0.5174603174603173,0.5174603174603173,0.5174603174603173,0.5174603174603173,0.5174603174603173,0.5174603174603173,0.5174603174603173,0.5174603174603173,0.5174603174603173,0.5174603174603173,0.5174603174603173,0.5174603174603173,0.5174603174603173,0.5174603174603173,0.5174603174603173,0.5174603174603173,0.5174603174603173,0.5174603174603173,0.5174603174603173,0.5174603174603173,0.5174603174603173,0.5174603174603173,0.5174603174603173,0.5174603174603173,0.5269841269841268,0.5460317460317459,0.5555555555555554,0.5650793650793648,0.5650793650793648,0.5650793650793648,0.5650793650793648,0.5650793650793648,0.5650793650793648,0.5650793650793648,0.5650793650793648,0.5650793650793648,0.5650793650793648,0.5650793650793648,0.5650793650793648,0.5650793650793648,0.5555555555555554,0.5555555555555554,0.5460317460317459,0.5460317460317459,0.5365079365079364,0.5365079365079364,0.5269841269841268,0.5079365079365078,0.45079365079365064,0.3269841269841268,0.22222222222222204,0.15555555555555536,0.09841269841269823,0.06984126984126966,0.06031746031746014,0.05079365079365061,0.04126984126984109,0.031746031746031564,0.022222222222222043,0.022222222222222043,0.022222222222222043,0.031746031746031564,0.031746031746031564,0.04126984126984109,0.05079365079365061,0.06031746031746014,0.06984126984126966,0.06984126984126966,0.06984126984126966,0.06984126984126966,0.05079365079365061,0.031746031746031564,0.012698412698412518,0.012698412698412518,0.012698412698412518,0.012698412698412518,0.012698412698412518,0.012698412698412518,0.012698412698412518,0.012698412698412518,0.012698412698412518,0.012698412698412518,0.012698412698412518,0.012698412698412518,0.012698412698412518,0.012698412698412518,0.012698412698412518,0.012698412698412518,0.022222222222222043,0.05079365079365061,0.07936507936507918,0.11746031746031728,0.22222222222222204,0.3269841269841268,0.4603174603174601,0.5746031746031744,0.7174603174603172,0.8126984126984125,0.8698412698412696,0.9079365079365077,0.9365079365079363,0.9555555555555554,0.9650793650793649,0.984126984126984,0.9936507936507935,1.003174603174603,1.0126984126984124,1.0222222222222221,1.0317460317460316,1.0412698412698411,1.0412698412698411,1.0412698412698411,1.0412698412698411,1.0412698412698411,1.0412698412698411,1.0126984126984124,0.9936507936507935,0.984126984126984,0.984126984126984,0.984126984126984,0.984126984126984,0.984126984126984,0.984126984126984,0.984126984126984,0.984126984126984,0.984126984126984,0.984126984126984,0.9936507936507935,1.0317460317460316,1.0698412698412696,1.0984126984126983,1.1079365079365078,1.1174603174603173,1.1269841269841268,1.1269841269841268,1.1269841269841268,1.1269841269841268,1.1174603174603173,1.0984126984126983,1.079365079365079,1.0507936507936506,1.0126984126984124,1.003174603174603,0.9936507936507935,0.984126984126984,0.984126984126984,0.984126984126984,0.984126984126984,0.984126984126984,0.984126984126984,0.984126984126984,0.984126984126984,0.984126984126984,0.984126984126984,0.984126984126984,0.984126984126984,0.984126984126984,0.984126984126984,0.984126984126984,0.984126984126984,0.984126984126984,0.984126984126984,0.984126984126984,0.984126984126984,0.984126984126984,0.984126984126984,0.984126984126984,0.984126984126984,0.984126984126984,0.984126984126984,0.984126984126984,0.984126984126984,0.984126984126984,0.984126984126984,0.984126984126984,0.984126984126984,0.984126984126984,0.984126984126984,0.984126984126984,0.984126984126984,0.984126984126984,0.984126984126984,0.984126984126984,0.984126984126984,0.984126984126984,0.984126984126984,0.984126984126984,0.984126984126984,0.984126984126984,0.984126984126984,0.984126984126984,0.984126984126984,0.984126984126984,0.984126984126984,0.984126984126984,0.984126984126984,0.984126984126984,0.984126984126984,0.984126984126984,0.984126984126984,0.984126984126984,0.984126984126984,0.984126984126984,0.984126984126984,0.984126984126984,0.984126984126984,0.984126984126984,0.984126984126984,0.984126984126984,0.984126984126984,0.984126984126984,0.984126984126984,0.984126984126984,0.984126984126984,0.984126984126984,0.984126984126984,0.984126984126984,0.984126984126984,0.984126984126984,0.984126984126984,0.984126984126984,0.984126984126984,0.984126984126984,0.984126984126984,0.984126984126984,0.984126984126984,0.984126984126984,0.984126984126984,0.984126984126984,0.984126984126984,0.984126984126984,0.984126984126984,0.984126984126984,0.984126984126984,0.984126984126984,0.984126984126984,0.984126984126984,0.984126984126984,0.984126984126984,0.984126984126984,0.984126984126984,0.984126984126984,0.984126984126984,0.984126984126984,0.984126984126984,0.984126984126984,0.984126984126984,0.984126984126984,0.984126984126984,0.984126984126984,0.984126984126984,0.984126984126984,0.984126984126984,0.984126984126984,0.984126984126984,0.984126984126984,0.984126984126984,0.984126984126984,0.984126984126984,0.984126984126984,0.984126984126984,0.984126984126984,0.984126984126984,0.984126984126984,0.984126984126984,0.984126984126984,0.984126984126984,0.984126984126984,0.984126984126984,0.984126984126984,0.984126984126984,0.984126984126984,0.984126984126984,0.984126984126984]},"final_keyboard_state":["E","A","R","B","Z"],"num_clicks":5,"points":15,"cheat":false,"trial_type":"Hangman","trial_index":5,"time_elapsed":24734,"internal_node_id":"0.0-4.0","protocol_sum":"","subject_identifier":521,"subject_sum":[57,187,136,244,13,58,162,178,254,157,234,103,190,39,199,71,101,219,14,187,63,243,207,143,183,121,175,99,25,250,32,69],"subject_pair":260,"STUDY_ID":"66a3ed3c5d10d0e7d8a6b9da","PROLIFIC_PID":"5e9e19d808b9931ef37373c6","SESSION_ID":"66a446c5fa732e356e956a74","practice_instructions":1,"leaderboard_instructions":0,"bonus":0,"reveal_word":true,"self_rating":"1","confidence":"55"},{"view_history":"[{\"page_index\":0,\"viewing_time\":1884.2999999988824},{\"page_index\":1,\"viewing_time\":5088.700000001118}]","rt":6973.299999998882,"trial_type":"instructions","trial_index":6,"time_elapsed":31708,"internal_node_id":"0.0-5.0","protocol_sum":"","subject_identifier":521,"subject_sum":[57,187,136,244,13,58,162,178,254,157,234,103,190,39,199,71,101,219,14,187,63,243,207,143,183,121,175,99,25,250,32,69],"subject_pair":260,"STUDY_ID":"66a3ed3c5d10d0e7d8a6b9da","PROLIFIC_PID":"5e9e19d808b9931ef37373c6","SESSION_ID":"66a446c5fa732e356e956a74","practice_instructions":1,"leaderboard_instructions":0,"bonus":0,"reveal_word":true,"self_rating":"1","confidence":"55"},{"rt":3387.7999999988824,"responses":"{\"Q0\":\"...from <b>a previous session</b> that is part of the upcoming tournament.\"}","question_order":"[0]","trial_type":"survey-multi-choice","trial_index":7,"time_elapsed":35097,"internal_node_id":"0.0-6.0","protocol_sum":"","subject_identifier":521,"subject_sum":[57,187,136,244,13,58,162,178,254,157,234,103,190,39,199,71,101,219,14,187,63,243,207,143,183,121,175,99,25,250,32,69],"subject_pair":260,"correct":false,"test_part":"multichoice_leaderboard","STUDY_ID":"66a3ed3c5d10d0e7d8a6b9da","PROLIFIC_PID":"5e9e19d808b9931ef37373c6","SESSION_ID":"66a446c5fa732e356e956a74","practice_instructions":1,"leaderboard_instructions":0,"bonus":0,"reveal_word":true,"self_rating":"1","confidence":"55"},{"view_history":"[{\"page_index\":0,\"viewing_time\":1354.3999999985099}]","rt":1354.699999999255,"trial_type":"instructions","trial_index":8,"time_elapsed":36452,"internal_node_id":"0.0-7.0-0.0","protocol_sum":"","subject_identifier":521,"subject_sum":[57,187,136,244,13,58,162,178,254,157,234,103,190,39,199,71,101,219,14,187,63,243,207,143,183,121,175,99,25,250,32,69],"subject_pair":260,"STUDY_ID":"66a3ed3c5d10d0e7d8a6b9da","PROLIFIC_PID":"5e9e19d808b9931ef37373c6","SESSION_ID":"66a446c5fa732e356e956a74","practice_instructions":1,"leaderboard_instructions":0,"bonus":0,"reveal_word":true,"self_rating":"1","confidence":"55"},{"rt":2404.5,"responses":"{\"Q0\":\"...from the <b>upcoming tournament</b>.\"}","question_order":"[0]","trial_type":"survey-multi-choice","trial_index":9,"time_elapsed":38858,"internal_node_id":"0.0-7.0-1.0","protocol_sum":"","subject_identifier":521,"subject_sum":[57,187,136,244,13,58,162,178,254,157,234,103,190,39,199,71,101,219,14,187,63,243,207,143,183,121,175,99,25,250,32,69],"subject_pair":260,"correct":false,"test_part":"multichoice_leaderboard","STUDY_ID":"66a3ed3c5d10d0e7d8a6b9da","PROLIFIC_PID":"5e9e19d808b9931ef37373c6","SESSION_ID":"66a446c5fa732e356e956a74","practice_instructions":1,"leaderboard_instructions":0,"bonus":0,"reveal_word":true,"self_rating":"1","confidence":"55"},{"view_history":"[{\"page_index\":0,\"viewing_time\":847.7999999988824}]","rt":848,"trial_type":"instructions","trial_index":10,"time_elapsed":39707,"internal_node_id":"0.0-7.1-0.1","protocol_sum":"","subject_identifier":521,"subject_sum":[57,187,136,244,13,58,162,178,254,157,234,103,190,39,199,71,101,219,14,187,63,243,207,143,183,121,175,99,25,250,32,69],"subject_pair":260,"STUDY_ID":"66a3ed3c5d10d0e7d8a6b9da","PROLIFIC_PID":"5e9e19d808b9931ef37373c6","SESSION_ID":"66a446c5fa732e356e956a74","practice_instructions":1,"leaderboard_instructions":0,"bonus":0,"reveal_word":true,"self_rating":"1","confidence":"55"},{"rt":1579,"responses":"{\"Q0\":\"...from <b>a previous session</b> that is not part of the upcoming tournament.\"}","question_order":"[0]","trial_type":"survey-multi-choice","trial_index":11,"time_elapsed":41288,"internal_node_id":"0.0-7.1-1.1","protocol_sum":"","subject_identifier":521,"subject_sum":[57,187,136,244,13,58,162,178,254,157,234,103,190,39,199,71,101,219,14,187,63,243,207,143,183,121,175,99,25,250,32,69],"subject_pair":260,"correct":true,"test_part":"multichoice_leaderboard","STUDY_ID":"66a3ed3c5d10d0e7d8a6b9da","PROLIFIC_PID":"5e9e19d808b9931ef37373c6","SESSION_ID":"66a446c5fa732e356e956a74","practice_instructions":1,"leaderboard_instructions":0,"bonus":0,"reveal_word":true,"self_rating":"1","confidence":"55"},{"view_history":"[{\"page_index\":0,\"viewing_time\":3710.800000000745}]","rt":3711.0999999996275,"trial_type":"instructions","trial_index":12,"time_elapsed":45000,"internal_node_id":"0.0-8.0","protocol_sum":"","subject_identifier":521,"subject_sum":[57,187,136,244,13,58,162,178,254,157,234,103,190,39,199,71,101,219,14,187,63,243,207,143,183,121,175,99,25,250,32,69],"subject_pair":260,"STUDY_ID":"66a3ed3c5d10d0e7d8a6b9da","PROLIFIC_PID":"5e9e19d808b9931ef37373c6","SESSION_ID":"66a446c5fa732e356e956a74","practice_instructions":1,"leaderboard_instructions":0,"bonus":0,"reveal_word":true,"self_rating":"1","confidence":"55"},{"rt":5195.9000000003725,"responses":"{\"Q0\":\"...players' leaderboard position (in terms of <b>points</b>) in an <b>upcoming tournament.</b>\"}","question_order":"[0]","trial_type":"survey-multi-choice","trial_index":13,"time_elapsed":50197,"internal_node_id":"0.0-9.0","protocol_sum":"","subject_identifier":521,"subject_sum":[57,187,136,244,13,58,162,178,254,157,234,103,190,39,199,71,101,219,14,187,63,243,207,143,183,121,175,99,25,250,32,69],"subject_pair":260,"correct":true,"test_part":"multichoice_tournament","STUDY_ID":"66a3ed3c5d10d0e7d8a6b9da","PROLIFIC_PID":"5e9e19d808b9931ef37373c6","SESSION_ID":"66a446c5fa732e356e956a74","practice_instructions":1,"leaderboard_instructions":0,"bonus":0,"reveal_word":true,"self_rating":"1","confidence":"55"},{"view_history":"[{\"page_index\":0,\"viewing_time\":6185.800000000745}]","rt":6186.0999999996275,"trial_type":"instructions","trial_index":14,"time_elapsed":56384,"internal_node_id":"0.0-11.0","protocol_sum":"","subject_identifier":521,"subject_sum":[57,187,136,244,13,58,162,178,254,157,234,103,190,39,199,71,101,219,14,187,63,243,207,143,183,121,175,99,25,250,32,69],"subject_pair":260,"STUDY_ID":"66a3ed3c5d10d0e7d8a6b9da","PROLIFIC_PID":"5e9e19d808b9931ef37373c6","SESSION_ID":"66a446c5fa732e356e956a74","practice_instructions":1,"leaderboard_instructions":0,"bonus":0,"reveal_word":true,"self_rating":"1","confidence":"55"},{"view_history":"[{\"page_index\":0,\"viewing_time\":7746.5999999996275}]","rt":7746.89999999851,"trial_type":"instructions","trial_index":15,"time_elapsed":64131,"internal_node_id":"0.0-12.0-0.0","protocol_sum":"","subject_identifier":521,"subject_sum":[57,187,136,244,13,58,162,178,254,157,234,103,190,39,199,71,101,219,14,187,63,243,207,143,183,121,175,99,25,250,32,69],"subject_pair":260,"STUDY_ID":"66a3ed3c5d10d0e7d8a6b9da","PROLIFIC_PID":"5e9e19d808b9931ef37373c6","SESSION_ID":"66a446c5fa732e356e956a74","practice_instructions":1,"leaderboard_instructions":0,"bonus":0,"reveal_word":true,"self_rating":"1","confidence":"55"},{"rt":2586,"response":"THUMB","responses":["THUMB"],"trial_type":"type-this","trial_index":16,"time_elapsed":67223,"internal_node_id":"0.0-12.0-1.0","protocol_sum":"","subject_identifier":521,"subject_sum":[57,187,136,244,13,58,162,178,254,157,234,103,190,39,199,71,101,219,14,187,63,243,207,143,183,121,175,99,25,250,32,69],"subject_pair":260,"STUDY_ID":"66a3ed3c5d10d0e7d8a6b9da","PROLIFIC_PID":"5e9e19d808b9931ef37373c6","SESSION_ID":"66a446c5fa732e356e956a74","practice_instructions":1,"leaderboard_instructions":0,"bonus":0,"reveal_word":true,"self_rating":"1","confidence":"55"},{"word":"THUMB","click_log":{"letter":["","A","E","W","T","H","U","M","B"],"t":[0,3486.699999999255,7216.5999999996275,9846.39999999851,22872.89999999851,24687.5,26418.89999999851,27351.699999999255,28102],"hit":[null,0,0,0,1,1,1,1,1],"asked":["","A","AE","AEW","AEWT","AEWTH","AEWTHU","AEWTHUM","AEWTHUMB"],"word_state":["_____","_____","_____","_____","T____","TH___","THU__","THUM_","THUMB"]},"hover_log":{"letter":["?","?","?","?","?","?","?","?","?","?","?","?","?","?","?","?","?","?","?","?","?","?","?","?","?","?","?","?","?","?","?","?","?","?","?","?","?","?","?","?","?","?","?","?","?","?","?","?","?","?","?","?","?","?","?","?","?","?","?","?","?","?","?","?","?","?","?","?","?","?","?","?","?","?","?","?","?","?","?","?","?","?","?","?","?","?","?","?","?","?","?","?","?","?","?","?","?","?","?","?","?","?","?","?","?","?","?","?","?","?","?","?","?","?","?","?","?","?","?","?","?","?","?","?","?","?","?","?","?","?","?","?","?","?","?","?","?","?","?","?","?","?","?","?","?","?","?","?","?","?","?","?","?","?","?","?","?","?","?","?","?","?","?","?","?","?","?","?","?","?","?","?","?","?","?","?","?","?","?","?","?","?","?","?","?","?","?","?","?","?","?","?","?","?","?","?","?","?","?","?","?","?","?","?","?","?","?","?","?","?","?","?","?","?","?","?","?","?","?","?","?","?","?","?","?","?","?","?","?","?","?","?","?","?","?","?","?","?","?","?","?","?","?","?","?","?","?","?","?","?","?","?","?","?","?","?","?","?","?","?","?","?","?","?","?","?","?","?","?","?","?","?","?","?","?","?","?","?","?","?","?","?","?","?","?","?","?","?","?","?","?","?","?","?","?","?","?","?","?","?","?","?","?","?","?","?","?","?","?","?","?","?","?","?","?","?","?","?","?","?","?","?","?","?","?","?","?","?","?","?","?","?","?","?","?","?","?","?","?","?","?","?","?","?","?","?","?","?","?","?","?","?","?","?","?","?","?","?","?","?","?","?","?","?","?","?","?","?","?","?","?","?","?","?","?","?","?","?","?","?","?","?","?","?","?","?","?","?","?","?","?","?","?","?","?","?","?","?","?","?","?","?","?","?","?","?","?","?","?","?","?","?","?","?","?","?","?","?","?","?","?","?","?","?","?","?","?","?","?","?","?","?","?","?","?","?","?","?","?","?","?","?","?","?","?","?","?","?","?","?","?","?","?","?","?","?","?","?","?","?","?","?","?","?","?","?","?","?","?","?","?","?","?","?","?","?","?","?","?","?","?","?","?","?","?","?","?","?","?","?","?","?","?","?","?","?","?","?","?","?","?","?","?","?","?","?","?","?","?","?","?","?","?","?","?","?","?","?","?","?","?","?","?","?","?","?","?","?","?","?","?","?","?","?","?","?","?","?","?","?","?","?","?","?","?","?","?","?","?","?","?","?","?","?","?","?","?","?","?","?","?","?","?","?","?","?","?","?","?","?","?","?","?","?","?","?","?","?","?","?","?","?","?","?","?","?","?","?","?","?","?","?","?","?","?","?","?","?","?","?","?","?","?","?","?","?","?","?","?","?","?","?","?","?","?","?","?","?","?","?","?","?","?","?","?","?","?","?","?","?","?","?","?","?","?","?","?","?","?","?","?","?","?","?","?","?","?","?","?","?","?","?","?","?","?","?","?","?","?","?","?","?","?","?","?","?","?","?","?","?","?","?","?","?","?","?","?","?","?","?","?","?","?","?","?","?","?","?","?","?","?","?","?","?","?","?","?","?","?","?","?","?","?","?","?","?","?","?","?","?","?","?","?","?","?","?","?","?","?","?","?","?","?","?","?","?","?","?","?","?","?","?","?","?","?","?","?","?","?","?","?","?","?","?","?","?","?","?","?","?","?","?","?","?","?","?","?","?","?","?","?","?","?","?","?","?","?","?","?","?","?","?","?","?","?","?","?","?","?","?","?","?","?","?","?","?","?","?","?","?","?","?","?","?","?","?","?","?","?","?","?","?","?","?","?","?","?","?","?","?","?","?","?","?","?","?","?","?","?","?","?","?","?","?","?","?","?","?","?","?","?","?","?","?","?","?","?","?","?","?","?","?","?","?","?","?","?","?","?","?","?","?","?","?","?","?","?","?","?","?","?","?","?","?","?","?","?","?","?","?","?","?","?","?","?","?","?","?","?","?","?","?","?","?","?","?","?","?","?","?","?","?","?","?","?","?","?","?","?","?","?","?","?","?","?","?","?","?","?","?","?","?","?","?","?","?","?","?","?","?","?","?","?","?","?","?","?","?","?","?","?","?","?","?","?","?","?","?","?","?","?","?","?","?","?","?","?","?","?","?","?","?","?","?","?","?","?","?","?","?","?","?","?","?","?","?","?","?","?","?","?","?","?","?","?","?","?","?","?","?","?","?","?","?","?","?","?","?","?","?","?","?","?","?","?","?","?","?","?","?","?","?","?","?","?","?","?","?","?","?","?","?","?","?","?","?","?","?","?","?","?","?","?","?","?","?","?","?","?","?","?","?","?","?","?","?","?","?","?","?","?","?","?","?","?","?","?","?","?","?","?","?","?","?","?","?","?","?","?","?","?","?","?","?","?","?","?","?","?","?","?","?","?","?","?","?","?","?","?","?","?","?","?","?","?","?","?","?","?","?","?","?","?","?","?","?","?","?","?","?","?","?","?","?","?","?","?","?","?","?","?","?","?","?","?","?","?","?","?","?","?","?","?","?","?","?","?","?","?","?","?","?","?","?","?","?","?","?","?","?","?","?","?","?","?","?","?","?","?","?","?","?","?","?","?","?","?","?","?","?","?","?","?","?","?","?","?","?","?","?","?","?","?","?","?","?","?","?","?","?","?","?","?","?","?","?","?","?","?","?","?","?","?","?","?","?","?","?","?","?","?","?","?","?","?","?","?","?","?","?","?","?","?","?","?","?","?","?","?","?","?","?","?","?","?","?","?","?","?","?","?","?","?","?","?","?","?","?","?","?","?","?","?","?","?","?","?","?","?","?","?","?","?","?","?","?","?","?","?","?","?","?","?","?","?","?","?","?","?","?","?","?","?","?","?","?","?","?","?","?","?","?","?","?","?","?","?","?","?","?","?","?","?","?","?","?","?","?","?","?","?","?","?","?","?","?","?","?","?","?","?","?","?","?","?","?","?","?","?","?","?","?","?","?","?","?","?","?","?","?","?","?","?","?","?","?","?","?","?","?","?","?","?","?","?","?","?","?","?","?","?","?","?","?","?","?","?","?","?","?","?","?","?","?","?","?","?","?","?","?","?","?","?","?","?","?","?","?","?","?","?","?","?","?","?","?","?","?","?","?","?","?","?","?","?","?","?","?","?","?","?","?","?","?","?","?","?","?","?","?","?","?","?","?","?","?","?","?","?","?","?","?","?","?","?","?","?","?","?","?","?","?","?","?","?","?","?","?","?","?","?","?","?","?","?","?","?","?","?","?","?","?","?","?","?","?","?","?","?","?","?","?","?","?","?","?","?","?","?","?","?","?","?","?","?","?","?","?","?","?","?","?","?","?","?","?","?","?","?","?","?","?","?","?","?","?","?","?","?","?","?","?","?","?","?","?","?","?","?","?","?","?","?","?","?","?","?","?","?","?","?","?","?","?","?","?","?","?","?","?","?","?","?","?","?","?","?","?","?","?","?","?","?","?","?","?","?","?","?","?","?","?","?","?","?","?","?","?","?","?","?","?","?","?","?","?","?","?","?","?","?","?","?","?","?","?","?","?","?","?","?","?","?","?","?","?","?","?","?","?","?","?","?","?","?","?","?","?","?","?","?","?","?","?","?","?","?","?","?","?","?","?","?","?","?","?","?","?","?","?","?","?","?","?","?","?","?","?","?","?","?","?","?","?","?","?","?","?","?","?","?","?","?","?","?","?","?","?","?","?","?","?","?","?","?","?","?","?","?","?","?","?","?","?","?","?","?","?","?","?","?","?","?","?","?","?","?","?","?","?","?","?","?","?","?","?","?","?","?","?","?","?","?","?","?","?","?","?","?","?","?","?","?","?","?","?","?","?","?","?","?","?","?","?","?","?","?","?","?","?","?","?","?","?","?","?","?","?","?","?","?","?","?","?","?","?","?","?","?","?","?","?","?","?","?","?","?","?","?","?","?","?","?","?","?","?","?","?","?","?","?","?","?","?","?","?","?","?","?","?","?","?","?","?","?","?","?","?","?","?","?","?","?","?","?","?","?","?","?","?","?","?","?","?","?","?","?","?","?","?","?","?","?","?","?","?","?","?","?","?","?","?","?","?","?","?","?","?","?","?","?","?","?","?","?","?","?","?","?","?","?","?","?","?","?","?","?","?","?","?","?","?","?","?","?","?","?","?","?","?","?","?","?","?","?","?","?","?","?","?","?","?","?","?","?","?","?","?","?","?","?","?","?","?","?","?","?","?","?","?","?","?","?","?","?","?","?","?","?","?","?","?","?","?","?","?","?","?","?","?","?","?","?","?","?","?","?","?","?","?","?","?","?","?","?","?","?","?","?","?","?","?","?","?","?","?","?","?","?","?","?","?","?","?","?","?","?","?","?","?","?","?","?","?","?","?","?","?","?","?","?","?","?","?","?","?","?","?","?","?","?","?","?","?","?","?","?","?","?","?","?","?","?","?","?","?","?","?","?","?","?","?","?","?","?","?","?","?","?","?","?","?","?","?","?","?","?","?","?","?","?","?","?","?","?","?","?","?","?","?","?","?","?","?","?","?","?","?","?","?","?","?","?","?","?","?","?","?","?","?","?","?","?","?","?","?","?","?","?","?","?","?","?","?","?","?","?","?","?","?","?","?","?","?","?","?","?","?","?","?","?","?","?","?","?","?","?","?","?","?","?","?","?","?","?","?","?","?","?","?","?","?","?","?","?","?","?","?","?","?","?","?","?","?","?","?","?","?","?","?","?","?","?","?","?","?","?","?","?","?","?","?","?","?","?","?","?","?","?","?","?","?","?","?","?","?","?","?","?","?","?","?","?","?","?","?","?","?","?","?","?","?","?","?","?","?","?","?","?","?","?","?","?","?","?","?","?","?","?","?","?","?","?","?","?","?","?","?","?","?","?","?","?","?","?","?","?","?","?","?","?","?","?","?","?","?","?","?","?","?","?","?","?","?","?","?","?","?","?","?","?","?","?","?","?","?","?","?","?","?","?","?","?","?","?","?","?","?","?","?","?","?","?","?","?","?","?","?","?","?","?","?","?","?","?","?","?","?","?","?","?","?","?","?","?","?","?","?","?","?","?","?","?","?","?","?","?","?","?","?","?","?","?","?","?","?","?","?","?","?","?","?","?","?","?","?","?","?","?","?","?","?","?","?","?","?","?","?","?","?","?","?","?","?","?","?","?","?","?","?","?","?","?","?","?","?","?","?","?","?","?","?","?","?","?","?","?","?","?","?","?","?","?","?","?","?","?","?","?","?","?","?","?","?","?","?","?","?","?","?","?","?","?","?","?","?","?","?","?","?","?","?","?","?","?","?","?","?","?","?","?","?","?","?","?","?","?","?","?","?","?","?","?","?","?","?","?","?","?","?","?","?","?","?","?","?","?","?","?","?","?","?","?","?","?","?","?","?","?","?","?","?","?","?","?","?","?","?","?","?","?","?","?","?","?","?","?","?","?","?","?","?","?","?","?","?","?","?","?","?","?","?","?","?","?","?","?","?","?","?","?","?","?","?","?","?","?","?","?","?","?","?","?","?","?","?","?","?","?","?","?","?","?","?","?","?","?","?","?","?","?","?","?","?","?","?","?","?","?","?","?","?","?","?","?","?","?","?","?","?","?","?","?","?","?","?","?","?","?","?","?","?","?","?","?","?","?","?","?","?","?","?","?","?","?","?","?","?","?","?","?","?","?","?","?","?","?","?","?","?","?","?","?","?","?","?","?","?","?","?","?","?","?","?","?","?","?","?","?","?","?","?","?","?","?","?","?","?","?","?","?","?","?","?","?","?","?","?","?","?","?","?","?","?","?","?","?","?","?","?","?","?","?","?","?","?","?","?","?","?","?","?","?","?","?","?","?","?","?","?","?","?","?","?","?","?","?","?","?","?","?","?","?","?","?","?","?","?","?","?","?","?","?","?","?","?","?","?","?","?","?","?","?","?","?","?","?","?","?","?","?","?","?","?","?","?","?","?","?","?","?","?","?","?","?","?","?","?","?","?","?","?","?","?","?","?","?","?","?","?","?","?","?","?","?","?","?","?","?","?","?","?","?","?","?","?","?","?","?","?","?","?","?","?","?","?","?","?","?","?","?","?","?","?","?","?","?","?","?","?","?","?","?","?","?","?","?","?","?","?","?","?","?","?","?","?","?","?","?","?","?","?","?","?","?","?","?","?","?","?","?","?","?","?","?","?","?","?","?","?","?","?","?","?","?","?","?","?","?","?","?","?","?","?","?","?","?","?","?","?","?","?","?","?","?","?","?","?","?","?","?","?","?","?","?","?","?","?","?","?","?","?","?","?","?","?","?","?","?","?","?","?","?","?","?","?","?","?","?","?","?","?","?","?","?","?","?","?","?","?","?","?","?","?","?","?","?","?","?","?","?","?","?","?","?","?","?","?","?","?","?","?","?","?","?","?","?","?","?","?","?","?","?","?","?","?","?","?","?","?","?","?","?","?","?","?","?","?","?","?","?","?","?","?","?","?","?","?","?","?","?","?","?","?","?","?","?","?","?","?","?","?","?","?","?","?","?","?","?","?","?","?","?","?","?","?","?","?","?","?","?","?","?","?","?","?","?","?","?","?","?","?","?","?","?","?","?","?","?","?","?","?","?","?","?","?","?","?","?","?","?","?","?","?","?","?","?","?","?","?","?","?","?","?","?","?","?","?","?","?","?","?","?","?","?","?","?","?","?","?","?","?","?","?","?","?","?","?","?","?","?","?","?","?","?","?","?","?","?","?","?","?","?","?","?","?","?","?","?","?","?","?","?","?","?","?","?","?","?","?","?","?","?","?","?","?","?","?","?","?","?","?","?","?","?","?","?","?","?","?","?","?","?","?","?","?","?","?","?","?","?","?","?","?","?","?","?","?","?","?","?","?","?","?","?","?","?","?","?","?","?","?","?","?","?","?","?","?","?","?","?","?","?","?","?","?","?","?","?","?","?","?","?","?","?","?","?","?","?","?","?","?","?","?","?","?","?","?","?","?","?","?","?","?","?","?","?","?","?","?","?","?","?","?","?","?","?","?","?","?","?","?","?","?","?","?","?","?","?","?","?","?","?","?","?","?","?","?","?","?","?","?","?","?","?","?","?","?","?","?","?","?","?","?","?","?","?","?","?","?","?","?","?","?","?","?","?","?","?","?","?","?","?","?","?","?","?","?","?","?","?","?","?","?","?","?","?","?","?","?","?","?","?","?","?","?","?","?","?","?","?","?","?","?","?","?","?","?","?","?","?","?","?","?","?","?","?","?","?","?","?","?","?","?","?","?","?","?","?","?","?","?","?","?","?","?","?","?","?","?","?","?","?","?","?","?","?","?","?","?","?","?","?","?","?","?","?","?","?","?","?","?","?","?","?","?","?","?","?","?","?","?","?","?","?","?","?","?","?","?","?","?","?","?","?","?","?","?","?","?","?","?","?","?","?","?","?","?","?","?","?","?","?","?","?","?","?","?","?","?","?","?","?","?","?","?","?","?","?","?","?","?","?","?","?","?","?","?","?","?","?","?","?","?","?","?","?","?","?","?","?","?","?","?","?","?","?","?","?","?","?","?","?","?","?","?","?","?","?","?","?","?","?","?","?","?","?","?","?","?","?","?","?","?","?","?","?","?","?","?","?","?","?","?","?","?","?","?","?","?","?","?","?","?","?","?","?","?","?","?","?","?","?","?","?","?","?","?","?","?","?","?","?","?","?","?","?","?","?","?","?","?","?","?","?","?","?","?","?","?","?","?","?","?","?","?","?","?","?","?","?","?","?","?","?","?","?","?","?","?","?","?","?","?","?","?","?","?","?","?","?","?","?","?","?","?","?","?","?","?","?","?","?","?","?","?","?","?","?","?","?","?","?","?","?","?","?","?","?","?","?","?","?","?","?","?","?","?","?","?","?","?","?","?","?","?","?","?","?","?","?","?","?","?","?","?","?","?","?","?","?","?","?","?","?","?","?","?","?","?","?","?","?","?","?","?","?","?","?","?","?","?","?","?","?","?","?","?","?","?","?","?","?","?","?","?","?","?","?","?","?","?","?","?","?","?","?","?","?","?","?","?","?","?","?","?","?","?","?","?","?","?","?","?","?","?","?","?","?","?","?","?","?","?","?","?","?","?","?","?","?","?","?","?","?","?","?","?","?","?","?","?","?","?","?","?","?","?","?","?","?","?","?","?","?","?","?","?","?","?","?","?","?","?","?","?","?","?","?","?","?","?","?","?","?","?","?","?","?","?","?","?","?","?","?","?","?","?","?","?","?","?","?","?","?","?","?","?","?","?","?","?","?","?","?","?","?","?","?","?","?","?","?","?","?","?","?","?","?","?","?","?","?","?","?","?","?","?","?","?","?","?","?","?","?","?","?","?","?","?","?","?","?","?","?","?","?","?","?","?","?","?","?","?","?","?","?","?","?","?","?","?","?","?","?","?","?","?","?","?","?","?","?","?","?","?","?","?","?","?","?","?","?","?","?","?","?","?","?","?","?","?","?","?","?","?","?","?","?","?","?","?","?","?","?","?","?","?","?","?","?","?","?","?","?","?","?","?","?","?","?","?","?","?","?","?","?","?","?","?","?","?","?","?","?","?","?","?","?","?","?","?","?","?","?","?","?","?","?","?","?","?","?","?","?","?","?","?","?","?","?","?","?","?","?","?","?","?","?","?","?","?","?","?","?","?","?","?","?","?","?","?","?","?","?","?","?","?","?","?","?","?","?","?","?","?","?","?","?","?","?","?","?","?","?","?","?","?","?","?","?","?","?","?","?","?","?","?","?","?","?","?","?","?","?","?","?","?","?","?","?","?","?","?","?","?","?","?","?","?","?","?","?","?","?","?","?","?","?","?","?","?","?","?","?","?","?","?","?","?","?","?","?","?","?","?","?","?","?","?","?","?","?","?","?","?","?","?","?","?","?","?","?","?","?","?","?","?","?","?","?","?","?","?","?","?","?","?","?","?","?","?","?","?","?","?","?","?","?","?","?","?","?","?","?","?","?","?","?","?","?","?","?","?","?","?","?","?","?","?","?","?","?","?","?","?","?","?","?","?","?","?","?","?","?","?","?","?","?","?","?","?","?","?","?","?","?","?","?","?","?","?","?","?","?","?","?","?","?","?","?","?","?","?","?","?","?","?","?","?","?","?","?","?","?","?","?","?","?","?","?","?","?","?","?","?","?","?","?","?","?","?","?","?","?","?","?","?","?","?","?","?","?","?","?","?","?","?","?","?","?","?","?","?","?","?","?","?","?","?","?","?","?","?","?","?","?","?","?","?","?","?","?","?","?","?","?","?","?","?","?","?","?","?","?","?","?","?","?","?","?","?","?","?","?","?","?","?","?","?","?","?","?","?","?","?","?","?","?","?","?","?","?","?","?","?","?","?","?","?","?","?","?","?","?","?","?","?","?","?","?","?","?","?","?","?","?","?","?","?","?","?","?","?","?","?","?","?","?","?","?","?","?","?","?","?","?","?","?","?","?","?","?","?","?","?","?","?","?","?","?","?","?","?","?","?","?","?","?","?","?","?","?","?","?","?","?","?","?","?","?","?","?","?","?","?","?","?","?","?","?","?","?","?","?","?","?","?","?","?","?","?","?","?","?","?","?","?","?","?","?","?","?","?","?","?","?","?","?","?","?","?","?","?","?","?","?","?","?","?","?","?","?","?","?","?","?","?","?","?","?","?","?","?","?","?","?","?","?","?","?","?","?","?","?","?","?","?","?","?","?","?","?","?","?","?","?","?","?","?","?","?","?","?","?","?","?","?","?","?","?","?","?","?","?","?","?","?","?","?","?","?","?","?","?","?","?","?","?","?","?","?","?","?","?","?","?","?","?","?","?","?","?","?","?","?","?","?","?","?","?","?","?","?","?","?","?","?","?","?","?","?","?","?","?","?","?","?","?","?","?","?","?","?","?","?","?","?","?","?","?","?","?","?","?","?","?","?","?","?","?","?","?","?","?","?","?","?","?","?","?","?","?","?","?","?","?","?","?","?","?","?","?","?","?","?","?","?","?","?","?","?","?","?","?","?","?","?","?","?","?","?","?","?","?","?","?","?","?","?","?","?","?","?","?","?","?","?","?","?","?","?","?","?","?","?","?","?","?","?","?","?","?","?","?","?","?","?","?","?","?","?","?","?","?","?","?","?","?","?","?","?","?","?","?","?","?","?","?","?","?","?","?","?","?","?","?","?","?","?","?","?","?","?","?","?","?","?","?","?","?","?","?","?","?","?","?","?","?","?","?","?","?","?","?","?","?","?","?","?","?","?","?","?","?","?","?","?","?","?","?","?","?","?","?","?","?","?","?","?","?","?","?","?","?","?","?","?","?","?","?","?","?","?","?","?","?","?","?","?","?","?","?","?","?","?","?","?","?","?","?","?","?","?","?","?","?","?","?","?","?","?","?","?","?","?","?","?","?","?","?","?","?","?","?","?","?","?","?","?","?","?","?","?","?","?","?","?","?","?","?","?","?","?","?","?","?","?","?","?","?","?","?","?","?","?","?","?","?","?","?","?","?","?","?","?","?","?","?","?","?","?","?","?","?","?","?","?","?","?","?","?","?","?","?","?","?","?","?","?","?","?","?","?","?","?","?","?","?","?","?","?","?","?","?","?","?","?","?","?","?","?","?","?","?","?","?","?","?","?","?","?","?","?","?","?","?","?","?","?","?","?","?","?","?","?","?","?","?","?","?","?","?","?","?","?","?","?","?","?","?","?","?","?","?","?","?","?","?","?","?","?","?","?","?","?","?","?","?","?","?","?","?","?","?","?","?","?","?","?","?","?","?","?","?","?","?","?","?","?","?","?","?","?","?","?","?","?","?","?","?","?","?","?","?","?","?","?","?","?","?","?","?","?","?","?","?","?","?","?","?","?","?","?","?","?","?","?","?","?","?","?","?","?","?","?","?","?","?","?","?","?","?","?","?","?","?","?","?","?","?","?","?","?","?","?","?","?","?","?","?","?","?","?","?","?","?","?","?","?","?","?","?","?","?","?","?","?","?","?","?","?","?","?","?","?","?","?","?","?","?","?","?","?","?","?","?","?","?","?","?","?","?","?","?","?","?","?","?","?","?","?","?","?","?","?","?","?","?","?","?","?","?","?","?","?","?","?","?","?","?","?","?","?","?","?","?","?","?","?","?","?","?","?","?","?","?","?","?","?","?","?","?","?","?","?","?","?","?","?","?","?","?","?","?","?","?","?","?","?","?","?","?","?","?","?","?","?","?","?","?","?","?","?","?","?","?","?","?","?","?","?","?","?","?","?","?","?","?","?","?","?","?","?","?","?","?","?","?","?","?","?","?","?","?","?","?","?","?","?","?","?","?","?","?","?","?","?","?","?","?","?","?","?","?","?","?","?","?","?","?","?","?","?","?","?","?","?","?","?","?","?","?","?","?","?","?","?","?","?","?","?","?","?","?","?","?","?","?","?","?","?","?","?","?","?","?","?","?","?","?","?","?","?","?","?","?","?","?","?","?","?","?","?","?","?","?","?","?","?","?","?","?","?","?","?","?","?","?","?","?","?","?","?","?","?","?","?","?","?","?","?","?","?","?","?","?","?","?","?","?","?","?","?","?","?","?","?","?","?","?","?","?","?","?","?","?","?","?","?","?","?","?","?","?","?","?","?","?","?","?","?","?","?","?","?","?","?","?","?","?","?","?","?","?","?","?","?","?","?","?","?","?","?","?","?","?","?","?","?","?","?","?","?","?","?","?","?","?","?","?","?","?","?","?","?","?","?","?","?","?","?","?","?","?","?","?","?","?","?","?","?","?","?","?","?","?","?","?","?","?","?","?","?","?","?","?","?","?","?","?","?","?","?","?","?","?","?","?","?","?","?","?","?","?","?","?","?","?","?","?","?","?","?","?","?","?","?","?","?","?","?","?","?","?","?","?","?","?","?","?","?","?","?","?","?","?","?","?","?","?","?","?","?","?","?","?","?","?","?","?","?","?","?","?","?","?","?","?","?","?","?","?","?","?","?","?","?","?","?","?","?","?","?","?","?","?","?","?","?","?","?","?","?","?","?","?","?","?","?","?","?","?","?","?","?","?","?","?","?","?","?","?","?","?","?","?","?","?","?","?","?","?","?","?","?","?","?","?","?","?","?","?","?","?","?","?","?","?","?","?","?","?","?","?","?","?","?","?","?","?","?","?","?","?","?","?","?","?","?","?","?","?","?","?","?","?","?","?","?","?","?","?","?","?","?","?","?","?","?","?","?","?","?","?","?","?","?","?","?","?","?","?","?","?","?","?","?","?","?","?","?","?","?","?","?","?","?","?","?","?","?","?","?","?","?","?","?","?","?","?","?","?","?","?","?","?","?","?","?","?","?","?","?","?","?","?","?","?","?","?","?","?","?","?","?","?","?","?","?","?","?","?","?","?","?","?","?","?","?","?","?","?","?","?","?","?","?","?","?","?","?","?","?","?","?","?","?","?","?","?","?","?","?","?","?","?","?","?","?","?","?","?","?","?","?","?","?","?","?","?","?","?","?","?","?","?","?","?","?","?","?","?","?","?","?","?","?","?","?","?","?","?","?","?","?","?","?","?","?","?","?","?","?","?","?","?","?","?","?","?","?","?","?","?","?","?","?","?","?","?","?","?","?","?","?","?","?","?","?","?","?","?","?","?","?","?","?","?","?","?","?","?","?","?","?","?","?","?","?","?","?","?","?","?","?","?","?","?","?","?","?","?","?","?","?","?","?","?","?","?","?","?","?","?","?","?","?","?","?","?","?","?","?","?","?","?","?","?","?","?","?","?","?","?","?","?","?","?","?","?","?","?","?","?","?","?","?","?","?","?","?","?","?","?","?","?","?","?","?","?","?","?","?","?","?","?","?","?","?","?","?","?","?","?","?","?","?","?","?","?","?","?","?","?","?","?","?","?","?","?","?","?","?","?","?","?","?","?","?","?","?","?","?","?","?","?","?","?","?","?","?","?","?","?","?","?","?","?","?","?","?","?","?","?","?","?","?","?","?","?","?","?","?","?","?","?","?","?","?","?","?","?","?","?","?","?","?","?","?","?","?","?","?","?","?","?","?","?","?","?","?","?","?","?","?","?","?","?","?","?","?","?","?","?","?","?","?","?","?","?","?","?","?","?","?","?","?","?","?","?","?","?","?","?","?","?","?","?","?","?","?","?","?","?","?","?","?","?","?","?","?","?","?","?","?","?","?","?","?","?","?","?","?","?","?","?","?","?","?","?","?","?","?","?","?","?","?","?","?","?","?","?","?","?","?","?","?","?","?","?","?","?","?","?","?","?","?","?","?","?","?","?","?","?","?","?","?","?","?","?","?","?","?","?","?","?","?","?","?","?","?","?","?","?","?","?","?","?","?","?","?","?","?","?","?","?","?","?","?","?","?","?","?","?","?","?","?","?","?","?","?","?","?","?","?","?","?","?","?","?","?","?","?","?","?","?","?","?","?","?","?","?","?","?","?","?","?","?","?","?","?","?","?","?","?","?","?","?","?","?","?","?","?","?","?","?","?","?","?","?","?","?","?","?","?","?","?","?","?","?","?","?","?","?","?","?","?","?","?","?","?","?","?","?","?","?","?","?","?","?","?","?","?","?","?","?","?","?","?","?","?","?","?","?","?","?","?","?","?","?","?","?","?","?","?","?","?","?","?","?","?","?","?","?","?","?","?","?","?","?","?","?","?","?","?","?","?","?","?","?","?","?","?","?","?","?","?","?","?","?","?","?","?","?","?","?","?","?","?","?","?","?","?","?","?","?","?","?","?","?","?","?","?","?","?","?","?","?","?","?","?","?","?","?","?","?","?","?","?","?","?","?","?","?","?","?","?","?","?","?","?","?","?","?","?","?","?","?","?","?","?","?","?","?","?","?","?","?","?","?","?","?","?","?","?","?","?","?","?","?","?","?","?","?","?","?","?","?","?","?","?","?","?","?","?","?","?","?","?","?","?","?","?","?","?","?","?","?","?","?","?","?","?","?","?","?","?","?","?","?","?","?","?","?","?","?","?","?","?","?","?","?","?","?","?","?","?","?","?","?","?","?","?","?","?","?","?","?","?","?","?","?","?","?","?","?","?","?","?","?","?","?","?","?","?","?","?","?","?","?","?","?","?","?","?","?","?","?","?","?","?","?","?","?","?","?","?","?","?","?","?","?","?","?","?","?","?","?","?","?","?","?","?","?","?","?","?","?","?","?","?","?","?","?","?","?","?","?","?","?","?","?","?","?","?","?","?","?","?","?","?","?","?","?","?","?","?","?","?","?","?","?","?","?","?","?","?","?","?","?","?","?","?","?","?","?","?","?","?","?","?","?","?","?","?","?","?","?","?","?","?","?","?","?","?","?","?","?","?","?","?","?","?","?","?","?","?","?","?","?","?","?","?","?","?","?","?","?","?","?","?","?","?","?","?","?","?","?","?","?","?","?","?","?","?","?","?","?","?","?","?","?","?","?","?","?","?","?","?","?","?","?","?","?","?","?","?","?","?","?","?","?","?","?","?","?","?","?","?","?","?","?","?","?","?","?","?","?","?","?","?","?","?","?","?","?","?","?","?","?","?","?","?","?","?","?","?","?","?","?","?","?","?","?","?","?","?","?","?","?","?","?","?","?","?","?","?","?","?","?","?","?","?","?","?","?","?","?","?","?","?","?","?","?","?","?","?","?","?","?","?","?","?","?","?","?","?","?","?","?","?","?","?","?","?","?","?","?","?","?","?","?","?","?","?","?","?","?","?","?","?","?","?","?","?","?","?","?","?","?","?","?","?","?","?","?","?","?","?","?","?","?","?","?","?","?","?","?","?","?","?","?","?","?","?","?","?","?","?","?","?","?","?","?","?","?","?","?","?","?","?","?","?","?","?","?","?","?","?","?","?","?","?","?","?","?","?","?","?","?","?","?","?","?","?","?","?","?","?","?","?","?","?","?","?","?","?","?","?","?","?","?","?","?","?","?","?","?","?","?","?","?","?","?","?","?","?","?","?","?","?","?","?","?","?","?","?","?","?","?","?","?","?","?","?","?","?","?","?","?","?","?","?","?","?","?","?","?","?","?","?","?","?","?","?","?","?","?","?","?","?","?","?","?","?","?","?","?","?","?","?","?","?","?","?","?","?","?","?","?","?","?","?","?","?","?","?","?","?","?","?","?","?","?","?","?","?","?","?","?","?","?","?","?","?","?","?","?","?","?","?","?","?","?","?","?","?","?","?","?","?","?","?","?","?","?","?","?","?","?","?","?","?","?","?","?","?","?","?","?","?","?","?","?","?","?","?","?","?","?","?","?","?","?","?","?","?","?","?","?","?","?","?","?","?","?","?","?","?","?","?","?","?","?","?","?","?","?","?","?","?","?","?","?","?","?","?","?","?","?","?","?","?","?","?","?","?","?","?","?","?","?","?","?","?","?","?","?","?","?","?","?","?","?","?","?","?","?","?","?","?","?","?","?","?","?","?","?","?","?","?","?","?","?","?","?","?","?","?","?","?","?","?","?","?","?","?","?","?","?","?","?","?","?","?","?","?","?","?","?","?","?","?","?","?","?","?","?","?","?","?","?","?","?","?","?","?","?","?","?","?","?","?","?","?","?","?","?","?","?","?","?","?","?","?","?","?","?","?","?","?","?","?","?","?","?","?","?","?","?","?","?","?","?","?","?","?","?","?","?","?","?","?","?","?","?","?","?","?","?","?","?","?","?","?","?","?","?","?","?","?","?","?","?","?","?","?","?","?","?","?","?","?","?","?","?","?","?","?","?","?","?","?","?","?","?","?","?","?","?","?","?","?","?","?","?","?","?","?","?","?","?","?","?","?","?","?","?","?","?","?","?","?","?","?","?","?","?","?","?","?","?","?","?","?","?","?","?","?","?","?","?","?","?","?","?","?","?","?","?","?","?","?","?","?","?","?","?","?","?","?","?","?","?","?","?","?","?","?","?","?","?","?","?","?","?","?","?","?","?","?","?","?","?","?","?","?","?","?","?","?","?","?","?","?","?","?","?","?","?","?","?","?","?","?","?","?","?","?","?","?","?","?","?","?","?","?","?","?","?","?","?","?","?","?","?","?","?","?","?","?","?","?","?","?","?","?","?","?","?","?","?","?","?","?","?","?","?","?","?","?","?","?","?","?","?","?","?","?","?","?","?","?","?","?","?","?","?","?","?","?","?","?","?","?","?","?","?","?","?","?","?","?","?","?","?","?","?","?","?","?","?","?","?","?","?","?","?","?","?","?","?","?","?","?","?","?","?","?","?","?","?","?","?","?","?","?","?","?","?","?","?","?","?","?","?","?","?","?","?","?","?","?","?","?","?","?","?","?","?","?","?","?","?","?","?","?","?","?","?","?","?","?","?","?","?","?","?","?","?","?","?","?","?","?","?","?","?","?","?","?","?","?","?","?","?","?","?","?","?","?","?","?","?","?","?","?","?","?","?","?","?","?","?","?","?","?","?","?","?","?","?","?","?","?","?","?","?","?","?","?","?","?","?","?","?","?","?","?","?","?","?","?","?","?","?","?","?","?","?","?","?","?","?","?","?","?","?","?","?","?","?","?","?","?","?","?","?","?","?","?","?","?","?","?","?","?","?","?","?","?","?","?","?","?","?","?","?","?","?","?","?","?","?","?","?","?","?","?","?","?","?","?","?","?","?","?","?","?","?","?","?","?","?","?","?","?","?","?","?","?","?","?","?","?","?","?","?","?","?","?","?","?","?","?","?","?","?","?","?","?","?","?","?","?","?","?","?","?","?","?","?","?","?","?","?","?","?","?","?","?","?","?","?","?","?","?","?","?","?","?","?","?","?","?","?","?","?","?","?","?","?","?","?","?","?","?","?","?","?","?","?","?","?","?","?","?","?","?","?","?","?","?","?","?","?","?","?","?","?","?","?","?","?","?","?","?","?","?","?","?","?","?","?","?","?","?","?","?","?","?","?","?","?","?","?","?","?","?","?","?","?","?","?","?","?","?","?","?","?","?","?","?","?","?","?","?","?","?","?","?","?","?","?","?","?","?","?","?","?","?","?","?","?","?","?","?","?","?","?","?","?","?","?","?","?","?","?","?","?","?","?","?","?","?","?","?","?","?","?","?","?","?","?","?","?","?","?","?","?","?","?","?","?","?","?","?","?","?","?","?","?","?","?","?","?","?","?","?","?","?","?","?","?","?","?","?","?","?","?","?","?","?","?","?","?","?","?","?","?","?","?","?","?","?","?","?","?","?","?","?","?","?","?","?","?","?","?","?","?","?","?","?","?","?","?","?","?","?","?","?","?","?","?","?","?","?","?","?","?","?","?","?","?","?","?","?","?","?","?","?","?","?","?","?","?","?","?","?","?","?","?","?","?","?","?","?","?","?","?","?","?","?","?","?","?","?","?","?","?","?","?","?","?","?","?","?","?","?","?","?","?","?","?","?","?","?","?","?","?","?","?","?","?","?","?","?","?","?","?","?","?","?","?","?","?","?","?","?","?","?","?","?","?","?","?","?","?","?","?","?","?","?","?","?","?","?","?","?","?","?","?","?","?","?","?","?","?","?","?","?","?","?","?","?","?","?","?","?","?","?","?","?","?","?","?","?","?","?","?","?","?","?","?","?","?","?","?","?","?","?","?","?","?","?","?","?","?","?","?","?","?","?","?","?","?","?","?","?","?","?","?","?","?","?","?","?","?","?","?","?","?","?","?","?","?","?","?","?","?","?","?","?","?","?","?","?","?","?","?","?","?","?","?","?","?","?","?","?","?","?","?","?","?","?","?","?","?","?","?","?","?","?","?","?","?","?","?","?","?","?","?","?","?","?","?","?","?","?","?","?","?","?","?","?","?","?","?","?","?","?","?","?","?","?","?","?","?","?","?","?","?","?","?","?","?","?","?","?","?","?","?","?","?","?","?","?","?","?","?","?","?","?","?","?","?","?","?","?","?","?","?","?","?","?","?","?","?","?","?","?","?","?","?","?","?","?","?","?","?","?","?","?","?","?","?","?","?","?","?","?","?","?","?","?","?","?","?","?","?","?","?","?","?","?","?","?","?","?","?","?","?","?","?","?","?","?","?","?","?","?","?","?","?","?","?","?","?","?","?","?","?","?","?","?","?","?","?","?","?","?","?","?","?","?","?","?","?","?","?","?","?","?","?","?","?","?","?","?","?","?","?","?","?","?","?","?","?","?","?","?","?","?","?","?","?","?","?","?","?","?","?","?","?","?","?","?","?","?","?","?","?","?","?","?","?","?","?","?","?","?","?","?","?","?","?","?","?","?","?","?","?","?","?","?","?","?","?","?","?","?","?","?","?","?","?","?","?","?","?","?","?","?","?","?","?","?","?","?","?","?","?","?","?","?","?","?","?","?","?","?","?","?","?","?","?","?","?","?","?","?","?","?","?","?","?","?","?","?","?","?","?","?","?","?","?","?","?","?","?","?","?","?","?","?","?","?","?","?","?","?","?","?","?","?","?","?","?","?","?","?","?","?","?","?","?","?","?","?","?","?","?","?","?","?","?","?","?","?","?","?","?","?","?","?","?","?","?","?","?","?","?","?","?","?","?","?","?","?","?","?","?","?","?","?","?","?","?","?","?","?","?","?","?","?","?","?","?","?","?","?","?","?","?","?","?","?","?","?","?","?","?","?","?","?","?","?","?","?","?","?","?","?","?","?","?","?","?","?","?","?","?","?","?","?","?","?","?","?","?","?","?","?","?","?","?","?","?","?","?","?","?","?","?","?","?","?","?","?","?","?","?","?","?","?","?","?","?","?","?","?","?","?","?","?","?","?","?","?","?","?","?","?","?","?","?","?","?","?","?","?","?","?","?","?","?","?","?","?","?","?","?","?","?","?","?","?","?","?","?","?","?","?","?","?","?","?","?","?","?","?","?","?","?","?","?","?","?","?","?","?","?","?","?","?","?","?","?","?","?","?","?","?","?","?","?","?","?","?","?","?","?","?","?","?","?","?","?","?","?","?","?","?","?","?","?","?","?","?","?","?","?","?","?","?","?","?","?","?","?","?","?","?","?","?","?","?","?","?","?","?","?","?","?","?","?","?","?","?","?","?","?","?","?","?","?","?","?","?","?","?","?","?","?","?","?","?","?","?","?","?","?","?","?","?","?","?","?","?","?","?","?","?","?","?","?","?","?","?","?","?","?","?","?","?","?","?","?","?","?","?","?","?","?","?","?","?","?","?","?","?","?","?","?","?","?","?","?","?","?","?","?","?","?","?","?","?","?","?","?","?","?","?","?","?","?","?","?","?","?","?","?","?","?","?","?","?","?","?","?","?","?","?","?","?","?","?","?","?","?","?","?","?","?","?","?","?","?","?","?","?","?","?","?","?","?","?","?","?","?","?","?","?","?","?","?","?","?","?","?","?","?","?","?","?","?","?","?","?","?","?","?","?","?","?","?","?","?","?","?","?","?","?","?","?","?","?","?","?","?","?","?","?","?","?","?","?","?","?","?","?","?","?","?","?","?","?","?","?","?","?","?","?","?","?","?","?","?","?","?","?","?","?","?","?","?","?","?","?","?","?","?","?","?","?","?","?","?","?","?","?","?","?","?","?","?","?","?","?","?","?","?","?","?","?","?","?","?","?","?","?","?","?","?","?","?","?","?","?","?","?","?","?","?","?","?","?","?","?","?","?","?","?","?","?","?","?","?","?","?","?","?","?","?","?","?","?","?","?","?","?","?","?","?","?","?","?","?","?","?","?","?","?","?","?","?","?","?","?","?","?","?","?","?","?","?","?","?","?","?","?","?","?","?","?","?","?","?","?","?","?","?","?","?","?","?","?","?","?","?","?","?","?","?","?","?","?","?","?","?","?","?","?","?","?","?","?","?","?","?","?","?","?","?","?","?","?","?","?","?","?","?","?","?","?","?","?","?","?","?","?","?","?","?","?","?","?","?","?","?","?","?","?","?","?","?","?","?","?","?","?","?","?","?","?","?","?","?","?","?","?","?","?","?","?","?","?","?","?","?","?","?","?","?","?","?","?","?","?","?","?","?","?","?","?","?","?","?","?","?","?","?","?","?","?","?","?","?","?","?","?","?","?","?","?","?","?","?","?","?","?","?","?","?","?","?","?","?","?","?","?","?","?","?","?","?","?","?","?","?","?","?","?","?","?","?","?","?","?","?","?","?","?","?","?","?","?","?","?","?","?","?","?","?","?","?","?","?","?","?","?","?","?","?","?","?","?","?","?","?","?","?","?","?","?","?","?","?","?","?","?","?","?","?","?","?","?","?","?","?","?","?","?","?","?","?","?","?","?","?","?","?","?","?","?","?","?","?","?","?","?","?","?","?","?","?","?","?","?","?","?","?","?","?","?","?","?","?","?","?","?","?","?","?","?","?","?","?","?","?","?","?","?","?","?","?","?","?","?","?","?","?","?","?","?","?","?","?","?","?","?","?","?","?","?","?","?","?","?","?","?","?","?","?","?","?","?","?","?","?","?","?","?","?","?","?","?","?","?","?","?","?","?","?","?","?","?","?","?","?","?","?","?","?","?","?","?","?","?","?","?","?","?","?","?","?","?","?","?","?","?","?","?","?","?","?","?","?","?","?","?","?","?","?","?","?","?","?","?","?","?","?","?","?","?","?","?","?","?","?","?","?","?","?","?","?","?","?","?","?","?","?","?","?","?","?","?","?","?","?","?","?","?","?","?","?","?","?","?","?","?","?","?","?","?","?","?","?","?","?","?","?","?","?","?","?","?","?","?","?","?","?","?","?","?","?","?","?","?","?","?","?","?","?","?","?","?","?","?","?","?","?","?","?","?","?","?","?","?","?","?","?","?","?","?","?","?","?","?","?","?","?","?","?","?","?","?","?","?","?","?","?","?","?","?","?","?","?","?","?","?","?","?","?","?","?","?","?","?","?","?","?","?","?","?","?","?","?","?","?","?","?","?","?","?","?","?","?","?","?","?","?","?","?","?","?","?","?","?","?","?","?","?","?","?","?","?","?","?","?","?","?","?","?","?","?","?","?","?","?","?","?","?","?","?","?","?","?","?","?","?","?","?","?","?","?","?","?","?","?","?","?","?","?","?","?","?","?","?","?","?","?","?","?","?","?","?","?","?","?","?","?","?","?","?","?","?","?","?","?","?","?","?","?","?","?","?","?","?","?","?","?","?","?","?","?","?","?","?","?","?","?","?","?","?","?","?","?","?","?","?","?","?","?","?","?","?","?","?","?","?","?","?","?","?","?","?","?","?","?","?","?","?","?","?","?","?","?","?","?","?","?","?","?","?","?","?","?","?","?","?","?","?","?","?","?","?","?","?","?","?","?","?","?","?","?","?","?","?","?","?","?","?","?","?","?","?","?","?","?","?","?","?","?","?","?","?","?","?","?","?","?","?","?","?","?","?","?","?","?","?","?","?","?","?","?","?","?","?","?","?","?","?","?","?","?","?","?","?","?","?","?","?","?","?","?","?","?","?","?","?","?","?","?","?","?","?","?","?","?","?","?","?","?","?","?","?","?","?","?","?","?","?","?","?","?","?","?","?","?","?","?","?","?","?","?","?","?","?","?","?","?","?","?","?","?","?","?","?","?","?","?","?","?","?","?","?","?","?","?","?","?","?","?","?","?","?","?","?","?","?","?","?","?","?","?","?","?","?","?","?","?","?","?","?","?","?","?","?","?","?","?","?","?","?","?","?","?","?","?","?","?","?","?","?","?","?","?","?","?","?","?","?","?","?","?","?","?","?","?","?","?","?","?","?","?","?","?","?","?","?","?","?","?","?","?","?","?","?","?","?","?","?","?","?","?","?","?","?","?","?","?","?","?","?","?","?","?","?","?","?","?","?","?","?","?","?","?","?","?","?","?","?","?","?","?","?","?","?","?","?","?","?","?","?","?","?","?","?","?","?","?","?","?","?","?","?","?","?","?","?","?","?","?","?","?","?","?","?","?","?","?","?","?","?","?","?","?","?","?","?","?","?","?","?","?","?","?","?","?","?","?","?","?","?","?","?","?","?","?","?","?","?","?","?","?","?","?","?","?","?","?","?","?","?","?","?","?","?","?","?","?","?","?","?","?","?","?","?","?","?","?","?","?","?","?","?","?","?","?","?","?","?","?","?","?","?","?","?","?","?","?","?","?","?","?","?","?","?","?","?","?","?","?","?","?","?","?","?","?","?","?","?","?","?","?","?","?","?","?","?","?","?","?","?","?","?","?","?","?","?","?","?","?","?","?","?","?","?","?","?","?","?","?","?","?","?","?","?","?","?","?","?","?","?","?","?","?","?","?","?","?","?","?","?","?","?","?","?","?","?","?","?","?","?","?","?","?","?","?","?","?","?","?","?","?","?","?","?","?","?","?","?","?","?","?","?","?","?","?","?","?","?","?","?","?","?","?","?","?","?","?","?","?","?","?","?","?","?","?","?","?","?","?","?","?","?","?","?","?","?","?","?","?","?","?","?","?","?","?","?","?","?","?","?","?","?","?","?","?","?","?","?","?","?","?","?","?","?","?","?","?","?","?","?","?","?","?","?","?","?","?","?","?","?","?","?","?","?","?","?","?","?","?","?","?","?","?","?","?","?","?","?","?","?","?","?","?","?","?","?","?","?","?","?","?","?","?","?","?","?","?","?","?","?","?","?","?","?","?","?","?","?","?","?","?","?","?","?","?","?","?","?","?","?","?","?","?","?","?","?","?","?","?","?","?","?","?","?","?","?","?","?","?","?","?","?","?","?","?","?","?","?","?","?","?","?","?","?","?","?","?","?","?","?","?","?","?","?","?","?","?","?","?","?","?","?","?","?","?","?","?","?","?","?","?","?","?","?","?","?","?","?","?","?","?","?","?","?","?","?","?","?","?","?","?","?","?","?","?","?","?","?","?","?","?","?","?","?","?","?","?","?","?","?","?","?","?","?","?","?","?","?","?","?","?","?","?","?","?","?","?","?","?","?","?","?","?","?","?","?","?","?","?","?","?","?","?","?","?","?","?","?","?","?","?","?","?","?","?","?","?","?","?","?","?","?","?","?","?","?","?","?","?","?","?","?","?","?","?","?","?","?","?","?","?","?","?","?","?","?","?","?","?","?","?","?","?","?","?","?","?","?","?","?","?","?","?","?","?","?","?","?","?","?","?","?","?","?","?","?","?","?","?","?","?","?","?","?","?","?","?","?","?","?","?","?","?","?","?","?","?","?","?","?","?","?","?","?","?","?","?","?","?","?","?","?","?","?","?","?","?","?","?","?","?","?","?","?","?","?","?","?","?","?","?","?","?","?","?","?","?","?","?","?","?","?","?","?","?","?","?","?","?","?","?","?","?","?","?","?","?","?","?","?","?","?","?","?","?","?","?","?","?","?","?","?","?","?","?","?","?","?","?","?","?","?","?","?","?","?","?","?","?","?","?","?","?","?","?","?","?","?","?","?","?","?","?","?","?","?","?","?","?","?","?","?","?","?","?","?","?","?","?","?","?","?","?","?","?","?","?","?","?","?","?","?","?","?","?","?","?","?","?","?","?","?","?","?","?","?","?","?","?","?","?","?","?","?","?","?","?","?","?","?","?","?","?","?","?","?","?","?","?","?","?","?","?","?","?","?","?","?","?","?","?","?","?","?","?","?","?","?","?","?","?","?","?","?","?","?","?","?","?","?","?","?","?","?","?","?","?","?","?","?","?","?","?","?","?","?","?","?","?","?","?","?","?","?","?","?","?","?","?","?","?","?","?","?","?","?","?","?","?","?","?","?","?","?","?","?","?","?","?","?","?","?","?","?","?","?","?","?","?","?","?","?","?","?","?","?","?","?","?","?","?","?","?","?","?","?","?","?","?","?","?","?","?","?","?","?","?","?","?","?","?","?","?","?","?","?","?","?","?","?","?","?","?","?","?","?","?","?","?","?","?","?","?","?","?","?","?","?","?","?","?","?","?","?","?","?","?","?","?","?","?","?","?","?","?","?","?","?","?","?","?","?","?","?","?","?","?","?","?","?","?","?","?","?","?","?","?","?","?","?","?","?","?","?","?","?","?","?","?","?","?","?","?","?","?","?","?","?","?","?","?","?","?","?","?","?","?","?","?","?","?","?","?","?","?","?","?","?","?","?","?","?","?","?","?","?","?","?","?","?","?","?","?","?","?","?","?","?","?","?","?","?","?","?","?","?","?","?","?","?","?","?","?","?","?","?","?","?","?","?","?","?","?","?","?","?","?","?","?","?","?","?","?","?","?","?","?","?","?","?","?","?","?","?","?","?","?","?","?","?","?","?","?","?","?","?","?","?","?","?","?","?","?","?","?","?","?","?","?","?","?","?","?","?","?","?","?","?","?","?","?","?","?","?","?","?","?","?","?","?","?","?","?","?","?","?","?","?","?","?","?","?","?","?","?","?","?","?","?","?","?","?","?","?","?","?","?","?","?","?","?","?","?","?","?","?","?","?","?","?","?","?","?","?","?","?","?","?","?","?","?","?","?","?","?","?","?","?","?","?","?","?","?","?","?","?","?","?","?","?","?","?","?","?","?","?","?","?","?","?","?","?","?","?","?","?","?","?","?","?","?","?","?","?","?","?","?","?","?","?","?","?","?","?","?","?","?","?","?","?","?","?","?","?","?","?","?","?","?","?","?","?","?","?","?","?","?","?","?","?","?","?","?","?","?","?","?","?","?","?","?","?","?","?","?","?","?","?","?","?","?","?","?","?","?","?","?","?","?","?","?","?","?","?","?","?","?","?","?","?","?","?","?","?","?","?","?","?","?","?","?","?","?","?","?","?","?","?","?","?","?","?","?","?","?","?","?","?","?","?","?","?","?","?","?","?","?","?","?","?","?","?","?","?","?","?","?","?","?","?","?","?","?","?","?","?","?","?","?","?","?","?","?","?","?","?","?","?","?","?","?","?","?","?","?","?","?","?","?","?","?","?","?","?","?","?","?","?","?","?","?","?","?","?","?","?","?","?","?","?","?","?","?","?","?","?","?","?","?","?","?","?","?","?","?","?","?","?","?","?","?","?","?","?","?","?","?","?","?","?","?","?","?","?","?","?","?","?","?","?","?","?","?","?","?","?","?","?","?","?","?","?","?","?","?","?","?","?","?","?","?","?","?","?","?","?","?","?","?","?","?","?","?","?","?","?","?","?","?","?","?","?","?","?","?","?","?","?","?","?","?","?","?","?","?","?","?","?","?","?","?","?","?","?","?","?","?","?","?","?","?","?","?","?","?","?","?","?","?","?","?","?","?","?","?","?","?","?","?","?","?","?","?","?","?","?","?","?","?","?","?","?","?","?","?","?","?","?","?","?","?","?","?","?","?","?","?","?","?","?","?","?","?","?","?","?","?","?","?","?","?","?","?","?","?","?","?","?","?","?","?","?","?","?","?","?","?","?","?","?","?","?","?","?","?","?","?","?","?","?","?","?","?","?","?","?","?","?","?","?","?","?","?","?","?","?","?","?","?","?","?","?","?","?","?","?","?","?","?","?","?","?","?","?","?","?","?","?","?","?","?","?","?","?","?","?","?","?","?","?","?","?","?","?","?","?","?","?","?","?","?","?","?","?","?","?","?","?","?","?","?","?","?","?","?","?","?","?","?","?","?","?","?","?","?","?","?","?","?","?","?","?","?","?","?","?","?","?","?","?","?","?","?","?","?","?","?","?","?","?","?","?","?","?","?","?","?","?","?","?","?","?","?","?","?","?","?","?","?","?","?","?","?","?","?","?","?","?","?","?","?","?","?","?","?","?","?","?","?","?","?","?","?","?","?","?","?","?","?","?","?","?","?","?","?","?","?","?","?","?","?","?","?","?","?","?","?","?","?","?","?","?","?","?","?","?","?","?","?","?","?","?","?","?","?","?","?","?","?","?","?","?","?","?","?","?","?","?","?","?","?","?","?","?","?","?","?","?","?","?","?","?","?","?","?","?","?","?","?","?","?","?","?","?","?","?","?","?","?","?","?","?","?","?","?","?","?","?","?","?","?","?","?","?","?","?","?","?","?","?","?","?","?","?","?","?","?","?","?","?","?","?","?","?","?","?","?","?","?","?","?","?","?","?","?","?","?","?","?","?","?","?","?","?","?","?","?","?","?","?","?","?","?","?","?","?","?","?","?","?","?","?","?","?","?","?","?","?","?","?","?","?","?","?","?","?","?","?","?","?","?","?","?","?","?","?","?","?","?","?","?","?","?","?","?","?","?","?","?","?","?","?","?","?","?","?","?","?","?","?","?","?","?","?","?","?","?","?","?","?","?","?","?","?","?","?","?","?","?","?","?","?","?","?","?","?","?","?","?","?","?","?","?","?","?","?","?","?","?","?","?","?","?","?","?","?","?","?","?","?","?","?","?","?","?","?","?","?","?","?","?","?","?","?","?","?","?","?","?","?","?","?","?","?","?","?","?","?","?","?","?","?","?","?","?","?","?","?","?","?","?","?","?","?","?","?","?","?","?","?","?","?","?","?","?","?","?","?","?","?","?","?","?","?","?","?","?","?","?","?","?","?","?","?","?","?","?","?","?","?","?","?","?","?","?","?","?","?","?","?","?","?","?","?","?","?","?","?","?","?","?","?","?","?","?","?","?","?","?","?","?","?","?","?","?","?","?","?","?","?","?","?","?","?","?","?","?","?","?","?","?","?","?","?","?","?","?","?","?","?","?","?","?","?","?","?","?","?","?","?","?","?","?","?","?","?","?","?","?","?","?","?","?","?","?","?","?","?","?","?","?","?","?","?","?","?","?","?","?","?","?","?","?","?","?","?","?","?","?","?","?","?","?","?","?","?","?","?","?","?","?","?","?","?","?","?","?","?","?","?","?","?","?","?","?","?","?","?","?","?","?","?","?","?","?","?","?","?","?","?","?","?","?","?","?","?","?","?","?","?","?","?","?","?","?","?","?","?","?","?","?","?","?","?","?","?","?","?","?","?","?","?","?","?","?","?","?","?","?","?","?","?","?","?","?","?","?","?","?","?","?","?","?","?","?","?","?","?","?","?","?","?","?","?","?","?","?","?","?","?","?","?","?","?","?","?","?","?","?","?","?","?","?","?","?","?","?","?","?","?","?","?","?","?","?","?","?","?","?","?","?","?","?","?","?","?","?","?","?","?","?","?","?","?","?","?","?","?","?","?","?","?","?","?","?","?","?","?","?","?","?","?","?","?","?","?","?","?","?","?","?","?","?","?","?","?","?","?","?","?","?","?","?","?","?","?","?","?","?","?","?","?","?","?","?","?","?","?","?","?","?","?","?","?","?","?","?","?","?","?","?","?","?","?","?","?","?","?","?","?","?","?","?","?","?","?","?","?","?","?","?","?","?","?","?","?","?","?","?","?","?","?","?","?","?","?","?","?","?","?","?","?","?","?","?","?","?","?","?","?","?","?","?","?","?","?","?","?","?","?","?","?","?","?","?","?","?","?","?","?","?","?","?","?","?","?","?","?","?","?","?","?","?","?","?","?","?","?","?","?","?","?","?","?","?","?","?","?","?","?","?","?","?","?","?","?","?","?","?","?","?","?","?","?","?","?","?","?","?","?","?","?","?","?","?","?","?","?","?","?","?","?","?","?","?","?","?","?","?","?","?","?","?","?","?","?","?","?","?","?","?","?","?","?","?","?","?","?","?","?","?","?","?","?","?","?","?","?","?","?","?","?","?","?","?","?","?","?","?","?","?","?","?","?","?","?","?","?","?","?","?","?","?","?","?","?","?","?","?","?","?","?","?","?","?","?","?","?","?","?","?","?","?","?","?","?","?","?","?","?","?","?","?","?","?","?","?","?","?","?","?","?","?","?","?","?","?","?","?","?","?","?","?","?","?","?","?","?","?","?","?","?","?","?","?","?","?","?","?","?","?","?","?","?","?","?","?","?","?","?","?","?","?","?","?","?","?","?","?","?","?","?","?","?","?","?","?","?","?","?","?","?","?","?","?","?","?","?","?","?","?","?","?","?","?","?","?","?","?","?","?","?","?","?","?","?","?","?","?","?","?","?","?","?","?","?","?","?","?","?","?","?","?","?","?","?","?","?","?","?","?","?","?","?","?","?","?","?","?","?","?","?","?","?","?","?","?","?","?","?","?","?","?","?","?","?","?","?","?","?","?","?","?","?","?","?","?","?","?","?","?","?","?","?","?","?","?","?","?","?","?","?","?","?","?","?","?","?","?","?","?","?","?","?","?","?","?","?","?","?","?","?","?","?","?","?","?","?","?","?","?","?","?","?","?","?","?","?","?","?","?","?","?","?","?","?","?","?","?","?","?","?","?","?","?","?","?","?","?","?","?","?","?","?","?","?","?","?","?","?","?","?","?","?","?","?","?","?","?","?","?","?","?","?","?","?","?","?","?","?","?","?","?","?","?","?","?","?","?","?","?","?","?","?","?","?","?","?","?","?","?","?","?","?","?","?","?","?","?","?","?","?","?","?","?","?","?","?","?","?","?","?","?","?","?","?","?","?","?","?","?","?","?","?","?","?","?","?","?","?","?","?","?","?","?","?","?","?","?","?","?","?","?","?","?","?","?","?","?","?","?","?","?","?","?","?","?","?","?","?","?","?","?","?","?","?","?","?","?","?","?","?","?","?","?","?","?","?","?","?","?","?","?","?","?","?","?","?","?","?","?","?","?","?","?","?","?","?","?","?","?","?","?","?","?","?","?","?","?","?","?","?","?","?","?","?","?","?","?","?","?","?","?","?","?","?","?","?","?","?","?","?","?","?","?","?","?","?","?","?","?","?","?","?","?","?","?","?","?","?","?","?","?","?","?","?","?","?","?","?","?","?","?","?","?","?","?","?","?","?","?","?","?","?","?","?","?","?","?","?","?","?","?","?","?","?","?","?","?","?","?","?","?","?","?","?","?","?","?","?","?","?","?","?","?","?","?","?","?","?","?","?","?","?","?","?","?","?","?","?","?","?","?","?","?","?","?","?","?","?","?","?","?","?","?","?","?","?","?","?","?","?","?","?","?","?","?","?","?","?","?","?","?","?","?","?","?","?","?","?","?","?","?","?","?","?","?","?","?","?","?","?","?","?","?","?","?","?","?","?","?","?","?","?","?","?","?","?","?","?","?","?","?","?","?","?","?","?","?","?","?","?","?","?","?","?","?","?","?","?","?","?","?","?","?","?","?","?","?","?","?","?","?","?","?","?","?","?","?","?","?","?","?","?","?","?","?","?","?","?","?","?","?","?","?","?","?","?","?","?","?","?","?","?","?","?","?","?","?","?","?","?","?","?","?","?","?","?","?","?","?","?","?","?","?","?","?","?","?","?","?","?","?","?","?","?","?","?","?","?","?","?","?","?","?","?","?","?","?","?","?","?","?","?","?","?","?","?","?","?","?","?","?","?","?","?","?","?","?","?","?","?","?","?","?","?","?","?","?","?","?","?","?","?","?","?","?","?","?","?","?","?","?","?","?","?","?","?","?","?","?","?","?","?","?","?","?","?","?","?","?","?","?","?","?","?","?","?","?","?","?","?","?","?","?","?","?","?","?","?","?","?","?","?","?","?","?","?","?","?","?","?","?","?","?","?","?","?","?","?","?","?","?","?","?","?","?","?","?","?","?","?","?","?","?","?","?","?","?","?","?","?","?","?","?","?","?","?","?","?","?","?","?","?","?","?","?","?","?","?","?","?","?","?","?","?","?","?","?","?","?","?","?","?","?","?","?","?","?","?","?","?","?","?","?","?","?","?","?","?","?","?","?","?","?","?","?","?","?","?","?","?","?","?","?","?","?","?","?","?","?","?","?","?","?","?","?","?","?","?","?","?","?","?","?","?","?","?","?","?","?","?","?","?","?","?","?","?","?","?","?","?","?","?","?","?","?","?","?","?","?","?","?","?","?","?","?","?","?","?","?","?","?","?","?","?","?","?","?","?","?","?","?","?","?","?","?","?","?","?","?","?","?","?","?","?","?","?","?","?","?","?","?","?","?","?","?","?","?","?","?","?","?","?","?","?","?","?","?","?","?","?","?","?","?","?","?","?","?","?","?","?","?","?","?","?","?","?","?","?","?","?","?","?","?","?","?","?","?","?","?","?","?","?","?","?","?","?","?","?","?","?","?","?","?","?","?","?","?","?","?","?","?","?","?","?","?","?","?","?","?","?","?","?","?","?","?","?","?","?","?","?","?","?","?","?","?","?","?","?","?","?","?","?","?","?","?","?","?","?","?","?","?","?","?","?","?","?","?","?","?","?","?","?","?","?","?","?","?","?","?","?","?","?","?","?","?","?","?","?","?","?","?","?","?","?","?","?","?","?","?","?","?","?","?","?","?","?","?","?","?","?","?","?","?","?","?","?","?","?","?","?","?","?","?","?","?","?","?","?","?","?","?","?","?","?","?","?","?","?","?","?","?","?","?","?","?","?","?","?","?","?","?","?","?","?","?","?","?","?","?","?","?","?","?","?","?","?","?","?","?","?","?","?","?","?","?","?","?","?","?","?","?","?","?","?","?","?","?","?","?","?","?","?","?","?","?","?","?","?","?","?","?","?","?","?","?","?","?","?","?","?","?","?","?","?","?","?","?","?","?","?","?","?","?","?","?","?","?","?","?","?","?","?","?","?","?","?","?","?","?","?","?"