[{"success":true,"trial_type":"fullscreen","trial_index":0,"time_elapsed":4156,"internal_node_id":"0.0-0.0","protocol_sum":"","subject_identifier":214,"subject_sum":[51,70,242,187,246,195,75,210,219,226,139,209,187,101,125,14,156,55,57,42,29,94,201,146,158,106,93,244,118,61,220,45],"subject_pair":107,"STUDY_ID":"669eec2e4270c76bc184a38e","PROLIFIC_PID":"668beeeac6158723009d2b8a","SESSION_ID":"669faa44996a9bd0a991c303","practice_instructions":1,"leaderboard_instructions":0,"bonus":0,"reveal_word":false,"self_rating":"2","confidence":"74"},{"view_history":"[{\"page_index\":0,\"viewing_time\":1580}]","rt":1581.0000000000018,"trial_type":"instructions","trial_index":1,"time_elapsed":5737,"internal_node_id":"0.0-1.0","protocol_sum":"","subject_identifier":214,"subject_sum":[51,70,242,187,246,195,75,210,219,226,139,209,187,101,125,14,156,55,57,42,29,94,201,146,158,106,93,244,118,61,220,45],"subject_pair":107,"STUDY_ID":"669eec2e4270c76bc184a38e","PROLIFIC_PID":"668beeeac6158723009d2b8a","SESSION_ID":"669faa44996a9bd0a991c303","practice_instructions":1,"leaderboard_instructions":0,"bonus":0,"reveal_word":false,"self_rating":"2","confidence":"74"},{"view_history":"[{\"page_index\":0,\"viewing_time\":14747}]","rt":14748,"trial_type":"instructions","trial_index":2,"time_elapsed":20488,"internal_node_id":"0.0-2.0-0.0","protocol_sum":"","subject_identifier":214,"subject_sum":[51,70,242,187,246,195,75,210,219,226,139,209,187,101,125,14,156,55,57,42,29,94,201,146,158,106,93,244,118,61,220,45],"subject_pair":107,"STUDY_ID":"669eec2e4270c76bc184a38e","PROLIFIC_PID":"668beeeac6158723009d2b8a","SESSION_ID":"669faa44996a9bd0a991c303","practice_instructions":1,"leaderboard_instructions":0,"bonus":0,"reveal_word":false,"self_rating":"2","confidence":"74"},{"rt":13320,"responses":"{\"Q0\":\"... reveal the word with as <b>few letter guesses</b> as possible\"}","question_order":"[0]","trial_type":"survey-multi-choice","trial_index":3,"time_elapsed":33813,"internal_node_id":"0.0-2.0-1.0","protocol_sum":"","subject_identifier":214,"subject_sum":[51,70,242,187,246,195,75,210,219,226,139,209,187,101,125,14,156,55,57,42,29,94,201,146,158,106,93,244,118,61,220,45],"subject_pair":107,"correct":true,"test_part":"multichoice_nonpretend","STUDY_ID":"669eec2e4270c76bc184a38e","PROLIFIC_PID":"668beeeac6158723009d2b8a","SESSION_ID":"669faa44996a9bd0a991c303","practice_instructions":1,"leaderboard_instructions":0,"bonus":0,"reveal_word":false,"self_rating":"2","confidence":"74"},{"view_history":"[{\"page_index\":0,\"viewing_time\":1138}]","rt":1138,"trial_type":"instructions","trial_index":4,"time_elapsed":34953,"internal_node_id":"0.0-3.0","protocol_sum":"","subject_identifier":214,"subject_sum":[51,70,242,187,246,195,75,210,219,226,139,209,187,101,125,14,156,55,57,42,29,94,201,146,158,106,93,244,118,61,220,45],"subject_pair":107,"STUDY_ID":"669eec2e4270c76bc184a38e","PROLIFIC_PID":"668beeeac6158723009d2b8a","SESSION_ID":"669faa44996a9bd0a991c303","practice_instructions":1,"leaderboard_instructions":0,"bonus":0,"reveal_word":false,"self_rating":"2","confidence":"74"},{"word":"ZEBRA","click_log":{"letter":["","E","R","L","D","H","T","P","N","C","B","Z","A"],"t":[0,6304,21885,82056.00000000001,83970.00000000001,93021,96272,100589,104037.00000000003,105787.00000000003,107154,109104,109904],"hit":[null,1,1,0,0,0,0,0,0,0,1,1,1],"asked":["","E","ER","ERL","ERLD","ERLDH","ERLDHT","ERLDHTP","ERLDHTPN","ERLDHTPNC","ERLDHTPNCB","ERLDHTPNCBZ","ERLDHTPNCBZA"],"word_state":["_____","_E___","_E_R_","_E_R_","_E_R_","_E_R_","_E_R_","_E_R_","_E_R_","_E_R_","_EBR_","ZEBR_","ZEBRA"]},"hover_log":{"letter":["?","?","?","?","?","?","?","?","?","?","?","?","?","?","?","?","?","?","?","?","?","?","?","?","?","?","?","?","?","?","?","?","?","?","?","?","?","?","?","?","?","?","?","?","?","?","?","A","A","A","A","A","A","A","A","A","A","A","A","A","A","A","A","A","A","A","A","A","A","A","A","A","A","A","A","A","A","A","A","A","A","A","A","A","A","A","A","A","A","?","?","?","?","?","?","?","?","?","?","?","?","?","?","?","?","?","?","?","?","?","?","?","?","?","?","?","?","?","?","?","?","?","?","?","?","?","?","?","?","?","?","?","?","?","?","?","?","?","?","?","?","?","?","?","?","?","?","?","?","?","?","E","E","E","E","E","E","E","E","E","E","E","E","E","E","E","E","E","E","E","E","E","E","E","E","E","E","E","E","E","E","?","F","F","F","?","G","G","G","G","G","G","G","G","G","G","G","G","G","G","G","G","G","G","G","G","G","G","G","G","G","G","G","G","G","G","G","G","G","G","G","G","G","G","G","G","G","G","G","G","G","G","G","G","G","G","G","G","G","G","G","G","?","?","?","?","P","P","P","P","P","P","?","?","?","?","?","?","?","?","?","?","?","P","?","?","?","?","X","X","X","X","X","X","X","?","?","W","W","W","W","W","W","W","?","V","V","V","V","V","?","?","?","?","?","?","M","M","M","M","?","?","?","?","?","?","?","?","?","?","?","?","?","?","?","?","?","?","?","?","?","?","?","O","O","O","O","O","O","O","O","O","O","O","O","O","O","O","O","O","O","O","O","O","O","O","O","O","O","O","?","?","?","?","?","?","E","E","E","E","E","E","E","E","E","E","E","E","E","E","E","E","E","E","E","E","E","E","E","E","E","E","E","E","E","E","E","E","E","E","E","E","E","E","E","E","E","E","E","E","E","E","E","E","E","E","E","E","E","E","E","E","E","E","E","E","E","E","E","E","E","E","E","E","E","E","E","E","E","E","E","E","E","E","E","E","E","E","E","E","E","E","E","E","E","E","E","E","E","E","E","E","E","E","E","E","E","E","E","E","E","E","E","E","E","E","E","E","E","E","E","E","E","E","E","E","E","E","E","E","E","E","E","E","E","E","E","E","E","E","E","E","E","E","E","E","E","E","E","E","E","E","E","E","E","E","E","E","E","E","E","E","E","E","E","E","E","E","E","E","E","E","E","E","E","E","E","E","E","E","E","E","E","E","E","E","E","E","E","E","E","E","E","E","E","E","E","E","E","E","E","E","E","E","E","E","E","E","E","E","E","E","E","E","E","E","E","E","E","E","E","E","E","E","E","E","E","E","E","E","E","E","E","E","E","E","E","E","E","E","E","E","E","E","E","E","E","E","E","E","E","E","E","E","E","E","?","?","?","?","?","?","?","?","?","?","?","?","?","?","?","?","?","?","?","?","?","?","?","?","?","?","?","?","?","?","?","?","?","?","?","?","?","?","?","?","?","?","?","?","?","?","?","?","?","?","?","?","?","?","?","?","?","?","?","?","?","?","?","?","?","?","?","?","?","?","?","?","?","?","?","?","?","?","?","?","?","?","?","?","?","?","?","?","E","E","E","E","E","E","E","E","E","E","?","?","?","?","?","?","M","M","M","M","M","M","M","M","M","M","M","M","M","M","M","M","M","M","M","M","M","M","M","M","M","M","?","M","?","?","?","?","?","?","?","?","?","?","?","?","?","C","C","C","C","C","C","C","?","?","?","?","?","?","?","?","?","?","?","?","?","?","?","?","?","?","?","?","?","C","C","C","C","C","C","C","C","C","C","?","D","D","D","D","D","D","D","D","D","D","D","D","D","D","D","D","D","D","D","?","?","?","?","?","?","?","?","C","C","C","C","C","?","?","B","B","B","B","B","B","B","B","B","B","B","B","B","B","B","B","B","B","B","B","B","B","B","B","B","?","?","?","?","?","?","?","?","?","?","?","?","?","?","?","?","?","?","?","?","?","?","A","A","A","A","A","A","A","A","A","A","A","?","?","?","?","?","?","?","?","?","?","?","?","?","?","?","?","?","?","?","?","?","?","?","?","?","?","?","?","?","?","?","?","?","?","?","?","?","?","?","?","?","?","?","?","?","?","?","?","?","?","?","?","?","?","?","?","?","?","?","?","?","?","?","?","?","?","?","?","?","?","?","?","?","?","?","?","?","?","?","?","?","?","?","?","N","N","N","N","N","N","N","?","?","?","?","M","M","M","M","M","M","M","M","M","M","M","M","M","M","M","M","M","M","M","M","M","M","M","M","M","M","M","M","M","M","M","M","M","M","M","M","M","M","M","M","M","M","M","M","M","M","M","M","M","M","M","M","M","M","M","M","M","M","M","M","M","M","M","M","M","M","M","M","M","M","M","M","M","M","M","M","M","M","M","M","M","M","M","M","M","M","M","M","M","M","M","M","M","M","M","M","M","M","M","M","M","M","M","M","M","M","M","M","M","M","M","M","M","M","M","M","M","M","M","M","M","M","M","M","M","M","M","M","M","M","M","M","M","M","M","M","M","M","M","M","M","M","M","M","M","M","M","M","M","M","M","M","M","M","M","M","M","M","M","M","M","M","M","M","M","M","M","M","M","M","M","M","M","M","M","M","M","M","M","M","M","M","M","M","M","M","M","M","M","M","M","M","M","M","M","?","?","?","?","N","N","N","N","N","N","?","?","?","?","?","?","?","?","?","?","?","?","?","?","?","?","?","?","?","?","?","?","?","?","?","P","P","P","P","P","P","P","P","P","P","P","P","P","?","R","?","?","?","?","?","?","?","?","?","?","?","?","?","?","?","?","?","?","?","R","R","R","R","R","R","R","R","R","R","R","R","R","R","R","R","R","R","R","R","R","R","R","R","R","R","R","R","R","R","R","R","R","R","R","R","R","R","R","R","R","R","R","R","R","R","R","R","R","R","R","R","R","R","R","R","R","R","R","R","R","R","R","R","R","R","R","R","R","R","R","R","R","R","R","R","R","R","R","R","R","R","R","R","R","R","R","R","R","R","R","R","R","R","R","R","R","R","R","R","R","R","R","R","R","R","R","R","R","R","R","R","R","R","R","R","R","R","R","R","R","R","R","R","R","R","R","R","R","R","R","R","R","R","R","R","R","R","R","R","R","R","R","R","R","R","R","R","R","R","R","R","R","R","R","R","R","R","R","R","R","R","R","R","R","R","R","R","R","R","R","R","R","R","R","R","R","R","R","R","R","R","R","R","R","R","R","R","R","R","R","R","R","R","R","R","R","R","R","R","R","R","R","R","R","R","R","R","R","R","R","R","R","R","R","R","R","R","R","R","R","R","R","R","R","R","R","R","R","R","R","R","R","R","R","R","R","R","R","R","R","R","R","R","R","R","R","R","R","R","R","R","R","R","R","R","R","R","R","R","R","R","R","R","R","R","R","R","R","R","R","R","R","R","R","R","R","R","R","R","R","R","R","R","R","R","R","R","R","R","R","R","R","R","R","R","R","R","R","R","R","R","R","R","R","R","R","R","R","R","R","R","R","R","R","R","R","R","R","R","R","R","R","R","R","R","R","R","R","R","R","R","R","R","R","R","R","R","R","R","R","R","R","R","R","R","R","R","R","R","R","R","R","R","R","R","R","R","R","R","R","R","R","R","R","R","R","R","R","R","R","R","R","R","R","R","R","R","R","R","R","R","R","R","R","R","R","R","R","R","R","R","R","R","R","R","R","R","R","R","R","R","R","R","R","R","R","R","R","R","R","R","R","R","R","R","R","R","R","R","R","R","R","R","R","R","R","R","R","R","R","R","R","R","R","R","R","R","R","R","R","R","R","R","R","R","R","R","R","R","R","R","R","R","R","R","R","R","R","R","R","R","R","R","R","R","R","R","R","R","R","R","R","R","R","R","R","R","R","R","R","R","R","R","R","R","R","R","R","R","R","R","R","R","R","R","R","R","R","R","R","R","R","R","R","R","R","R","R","R","R","R","R","R","R","R","R","R","R","R","R","R","R","R","R","R","R","R","R","R","R","R","R","R","R","R","R","R","R","R","R","R","R","R","R","R","R","R","R","R","R","R","R","R","R","R","R","R","R","R","R","R","R","R","R","R","R","R","R","R","R","R","R","R","R","R","R","R","R","R","R","R","R","R","R","R","R","R","R","R","R","R","R","R","R","R","R","R","R","R","R","R","R","R","R","R","R","R","R","R","R","R","R","R","R","R","R","R","R","R","R","R","R","R","R","R","R","R","R","R","R","R","R","R","R","R","R","R","R","R","R","R","R","R","R","R","R","R","R","R","R","R","R","R","R","R","R","R","R","R","R","R","R","R","R","R","R","R","R","R","R","R","R","R","R","R","R","R","R","R","R","R","R","R","R","R","R","R","R","R","R","R","R","R","R","R","R","R","R","R","R","R","R","R","R","R","R","R","R","R","R","R","R","R","R","R","R","R","R","R","R","R","R","R","R","R","R","R","R","R","R","R","R","R","R","R","R","R","R","R","R","R","R","R","R","R","R","R","R","R","R","R","R","R","R","R","R","R","R","R","R","R","R","R","R","R","R","R","R","R","R","R","R","R","R","R","R","R","R","R","R","R","R","R","R","R","R","R","R","R","R","R","R","R","R","R","R","R","R","R","R","R","R","R","R","R","R","R","R","R","R","R","R","R","R","R","R","R","R","R","R","R","R","R","R","R","R","R","R","R","R","R","R","R","R","R","R","R","R","R","R","R","R","R","R","R","R","R","R","R","R","R","R","R","R","R","R","R","R","R","R","R","R","R","R","R","R","R","R","R","R","R","R","R","R","R","R","R","R","R","R","R","R","R","R","R","R","R","R","R","R","R","R","R","R","R","R","R","R","R","R","R","R","R","R","R","R","R","R","R","R","R","R","R","R","R","R","R","R","R","R","R","R","R","R","R","R","R","R","R","R","R","R","R","R","R","R","R","R","R","R","R","R","R","R","R","R","R","R","R","R","R","R","R","R","R","R","R","R","R","R","R","R","R","R","R","R","R","R","R","R","R","R","R","R","R","R","R","R","R","R","R","R","R","R","R","R","R","R","R","R","R","R","R","R","R","R","R","R","R","R","R","R","R","R","R","R","R","R","R","R","R","R","R","R","R","R","R","R","R","R","R","R","R","R","R","R","R","R","R","R","R","R","R","R","R","R","R","R","R","R","R","R","R","R","R","R","R","R","R","R","R","R","R","R","R","R","R","R","R","R","R","R","R","R","R","R","R","R","R","R","R","R","R","R","R","R","R","R","R","R","R","R","R","R","R","R","R","R","R","R","R","R","R","R","R","R","R","R","R","R","R","R","R","R","R","R","R","R","R","R","R","R","R","R","R","R","R","R","R","R","R","R","R","R","R","R","R","R","R","R","R","R","R","R","R","R","R","R","R","R","R","R","R","R","R","R","R","R","R","R","R","R","R","R","R","R","R","R","R","R","R","R","R","R","R","R","R","R","R","R","R","R","R","R","R","R","R","R","R","R","R","R","R","R","R","R","R","R","R","R","R","R","R","R","R","R","R","R","R","R","R","R","R","R","R","R","R","R","R","R","R","R","R","R","R","R","R","R","R","R","R","R","R","R","R","R","R","R","R","R","R","R","R","R","R","R","R","R","R","R","R","R","R","R","R","R","R","R","R","R","R","R","R","R","R","R","R","R","R","R","R","R","R","R","R","R","R","R","R","R","R","R","R","R","R","R","R","R","R","R","R","R","R","R","R","R","R","R","R","R","R","R","R","R","R","R","R","R","R","R","R","R","R","R","R","R","R","R","R","R","R","R","R","R","R","R","R","R","R","R","R","R","R","R","R","R","R","R","R","R","R","R","R","R","R","R","R","R","R","R","R","R","R","R","R","R","R","R","R","R","R","R","R","R","R","R","R","R","R","R","R","R","R","R","R","R","R","R","R","R","R","R","R","R","R","R","R","R","R","R","R","R","R","R","R","R","R","R","R","R","R","R","R","R","R","R","R","R","R","R","R","R","R","R","R","R","R","R","R","R","R","R","R","R","R","R","R","R","R","R","R","R","R","R","R","R","R","R","R","R","R","R","R","R","R","R","R","R","R","R","R","R","R","R","R","R","R","R","R","R","R","R","R","R","R","R","R","R","R","R","R","R","R","R","R","R","R","R","R","R","R","R","R","R","R","R","R","R","R","R","R","R","R","R","R","R","R","R","R","R","R","R","R","R","R","R","R","R","R","R","R","R","R","R","R","R","R","R","R","R","R","R","R","R","R","R","R","R","R","R","R","R","R","R","R","R","R","R","R","R","R","R","R","R","R","R","R","R","R","R","R","R","R","R","R","R","R","R","R","R","R","R","R","R","R","R","R","R","R","R","R","R","R","R","R","R","R","R","R","R","R","R","R","R","R","R","R","R","R","R","R","R","R","R","R","R","R","R","R","R","R","R","R","R","R","R","R","R","R","R","R","R","R","R","R","R","R","R","R","R","R","R","R","R","R","R","R","R","R","R","R","R","R","R","R","R","R","R","R","R","R","R","R","R","R","R","R","R","R","R","R","R","R","R","R","R","R","R","R","R","R","R","R","R","R","R","R","R","R","R","R","R","R","R","R","R","R","R","R","R","R","R","R","R","R","R","R","R","R","R","R","R","R","R","R","R","R","R","R","R","R","R","R","R","R","R","R","R","R","R","R","R","R","R","R","R","R","R","R","R","R","R","R","R","R","R","R","R","R","R","R","R","R","R","R","R","R","R","R","R","R","R","R","R","R","R","R","R","R","R","R","R","R","R","R","R","R","R","R","R","R","R","R","R","R","R","R","R","R","R","R","R","R","R","R","R","R","R","R","R","R","R","R","R","R","R","R","R","R","R","R","R","R","R","R","R","R","R","R","R","R","R","R","R","R","R","R","R","R","R","R","R","R","R","R","R","R","R","R","R","R","R","R","R","R","R","R","R","R","R","R","R","R","R","R","R","R","R","R","R","R","R","R","R","R","R","R","R","R","R","R","R","R","R","R","R","R","R","R","R","R","R","R","R","R","R","R","R","R","R","R","R","R","R","R","R","R","R","R","R","R","R","R","R","R","R","R","R","R","R","R","R","R","R","R","R","R","R","R","R","R","R","R","R","R","R","R","R","R","R","R","R","R","R","R","R","R","R","R","R","R","R","R","R","R","R","R","R","R","R","R","R","R","R","R","R","R","R","R","R","R","R","R","R","R","R","R","R","R","R","R","R","R","R","R","R","R","R","R","R","R","R","R","R","R","R","R","R","R","R","R","R","R","R","R","R","R","R","R","R","R","R","R","R","R","R","R","R","R","R","R","R","R","R","R","R","R","R","R","R","R","R","R","R","R","R","R","R","R","R","R","R","R","R","R","R","R","R","R","R","R","R","R","R","R","R","R","R","R","R","R","R","R","R","R","R","R","R","R","R","R","R","R","R","R","R","R","R","R","R","R","R","R","R","R","R","R","R","R","R","R","R","R","R","R","R","R","R","R","R","R","R","R","R","R","R","R","R","R","R","R","R","R","R","R","R","R","R","R","R","R","R","R","R","R","R","R","R","R","R","R","R","R","R","R","R","R","R","R","R","R","R","R","R","R","R","R","R","R","R","R","R","R","R","R","R","R","R","R","R","R","R","R","R","R","R","R","R","R","R","R","R","R","R","R","R","R","R","R","R","R","R","R","R","R","R","R","R","R","R","R","R","R","R","R","R","R","R","R","R","R","R","R","R","R","R","R","R","R","R","R","R","R","R","R","R","R","R","R","R","R","R","R","R","R","R","R","R","R","R","R","R","R","R","R","R","R","R","R","R","R","R","R","R","R","R","R","R","R","R","R","R","R","R","R","R","R","R","R","R","R","R","R","R","R","R","R","R","R","R","R","R","R","R","R","R","R","R","R","R","R","R","R","R","R","R","R","R","R","R","R","R","R","R","R","R","R","R","R","R","R","R","R","R","R","R","R","R","R","R","R","R","R","R","R","R","R","R","R","R","R","R","R","R","R","R","R","R","R","R","R","R","R","R","R","R","R","R","R","R","R","R","R","R","R","R","R","R","R","R","R","R","R","R","R","R","R","R","R","R","R","R","R","R","R","R","R","R","R","R","R","R","R","R","R","R","R","R","R","R","R","R","R","R","R","R","R","R","R","R","R","R","R","R","R","R","R","R","R","R","R","R","R","R","R","R","R","R","R","R","R","R","R","R","R","R","R","R","R","R","R","R","R","R","R","R","R","R","R","R","R","R","R","R","R","R","R","R","R","R","R","R","R","R","R","R","R","R","R","R","R","R","R","R","R","R","R","R","R","R","R","R","R","R","R","R","R","R","R","R","R","R","R","R","R","R","R","R","R","R","R","R","R","R","R","R","R","R","R","R","R","R","R","R","R","R","R","R","R","R","R","R","R","R","R","R","R","R","R","R","R","R","R","R","R","R","R","R","R","R","R","R","R","R","R","R","R","R","R","R","R","R","R","R","R","R","R","R","R","R","R","R","R","R","R","R","R","R","R","R","R","R","R","R","R","R","R","R","R","R","R","R","R","R","R","R","R","R","R","R","R","R","R","R","R","R","R","R","R","R","R","R","R","R","R","R","R","R","R","R","R","R","R","R","R","R","R","R","R","R","R","R","R","R","R","R","R","R","R","R","R","R","R","R","R","R","R","R","R","R","R","R","R","R","R","R","R","R","R","R","R","R","R","R","R","R","R","R","R","R","R","R","R","R","R","R","R","R","R","R","R","R","R","R","R","R","R","R","R","R","R","R","R","R","R","R","R","R","R","R","R","R","R","R","R","R","R","R","R","R","R","R","R","R","R","R","R","R","R","R","R","R","R","R","R","R","R","R","R","R","R","R","R","R","R","R","R","R","R","R","R","R","R","R","R","R","R","R","R","R","R","R","R","R","R","R","R","R","R","R","R","R","R","R","R","R","R","R","R","R","R","R","R","R","R","R","R","R","R","R","R","R","R","R","R","R","R","R","R","R","R","R","R","R","R","R","R","R","R","R","R","R","R","R","R","R","R","R","R","R","R","R","R","R","R","R","R","R","R","R","R","R","R","R","R","R","R","R","R","R","R","R","R","R","R","R","R","R","R","R","R","R","R","R","R","R","R","R","R","R","R","R","R","R","R","R","R","R","R","R","R","R","R","R","R","R","R","R","R","R","R","R","R","R","R","R","R","R","R","R","R","R","R","R","R","R","R","R","R","R","R","R","R","R","R","R","R","R","R","R","R","R","R","R","R","R","R","R","R","R","R","R","R","R","R","R","R","R","R","R","R","R","R","R","R","R","R","R","R","R","R","R","R","R","R","R","R","R","R","R","R","R","R","R","R","R","R","R","R","R","R","R","R","R","R","R","R","R","R","R","R","R","R","R","R","R","R","R","R","R","R","R","R","R","R","R","R","R","R","R","R","R","R","R","R","R","R","R","R","R","R","R","R","R","R","R","R","R","R","R","R","R","R","R","R","R","R","R","R","R","R","R","R","R","R","R","R","R","R","R","R","R","R","R","R","R","R","R","R","R","R","R","R","R","R","R","R","R","R","R","R","R","R","R","R","R","R","R","R","R","R","R","R","R","R","R","R","R","R","R","R","R","R","R","R","R","R","R","R","R","R","R","R","R","R","R","R","R","R","R","R","R","R","R","R","R","R","R","R","R","R","R","R","R","R","R","R","R","R","R","R","R","R","R","R","R","R","R","R","R","R","R","R","R","R","R","R","R","R","R","R","R","R","R","R","R","R","R","R","R","R","R","R","R","R","R","R","R","R","R","R","R","R","R","R","R","R","R","R","R","R","R","R","R","R","R","R","R","R","R","R","R","R","R","R","R","R","R","R","R","R","R","R","R","R","R","R","R","R","R","R","R","R","R","R","R","R","R","R","R","R","R","R","R","R","R","R","R","R","R","R","R","R","R","R","R","R","R","R","R","R","R","R","R","R","R","R","R","R","R","R","R","R","R","R","R","R","R","R","R","R","R","R","R","R","R","R","R","R","R","R","R","R","R","R","R","R","R","R","R","R","R","R","R","R","R","R","R","R","R","R","R","R","R","R","R","R","R","R","R","R","R","R","R","R","R","R","R","R","R","R","R","R","R","R","R","R","R","R","R","R","R","R","R","R","R","R","R","R","R","R","R","R","R","R","R","R","R","R","R","R","R","R","R","R","R","R","R","R","R","R","R","R","R","R","R","R","R","R","R","R","R","R","R","R","R","R","R","R","R","R","R","R","R","R","R","R","R","R","R","R","R","R","R","R","R","R","R","R","R","R","R","R","R","R","R","R","R","R","R","R","R","R","R","R","R","R","R","R","R","R","R","R","R","R","R","R","R","R","R","R","R","R","R","R","R","R","R","R","R","R","R","R","R","R","R","R","R","R","R","R","R","R","R","R","R","R","R","R","R","R","R","R","R","R","R","R","R","R","R","R","R","R","R","R","R","R","R","R","R","R","R","R","R","R","R","R","R","R","R","R","R","R","R","R","R","R","R","R","R","R","R","R","R","R","R","R","R","R","R","R","R","R","R","R","R","R","R","R","R","R","R","R","R","R","R","R","R","R","R","R","R","R","R","R","R","R","R","R","R","R","R","R","R","R","R","R","R","R","R","R","R","R","R","R","R","R","R","R","R","R","R","R","R","R","R","R","R","R","R","R","R","R","R","R","R","R","R","R","R","R","R","R","R","R","R","R","R","R","R","R","R","R","R","R","R","R","R","R","R","R","R","R","R","R","R","R","R","R","R","R","R","R","R","R","R","R","R","R","R","R","R","R","R","R","R","R","R","R","R","R","R","R","R","R","R","R","R","R","R","R","R","R","R","R","R","R","R","R","R","R","R","R","R","R","R","R","R","R","R","R","?","?","?","?","?","?","?","?","?","?","?","?","?","?","?","?","Z","Z","Z","Z","?","Y","Y","Y","Y","Y","Y","Y","Y","Y","Y","Y","Y","Y","Y","Y","Y","Y","Y","Y","Y","Y","Y","Y","Y","?","?","?","H","H","H","H","H","H","H","?","?","?","?","?","?","?","P","?","?","?","?","?","?","?","?","?","?","?","?","L","L","L","L","?","?","?","L","L","L","L","L","L","L","L","L","L","L","L","L","L","L","L","L","L","L","L","L","L","L","L","L","L","L","L","L","L","L","L","L","L","L","L","L","L","L","L","L","L","L","L","L","L","L","L","L","L","L","L","L","L","L","L","L","L","L","L","L","L","L","L","L","L","L","L","L","L","L","L","L","L","L","L","L","L","L","L","L","L","L","L","L","L","L","L","L","L","L","L","L","L","L","L","L","L","L","L","L","?","?","?","?","?","?","?","?","?","?","?","?","?","?","?","?","?","?","D","D","D","D","D","D","D","D","D","D","D","D","D","D","D","D","D","D","D","D","D","D","D","D","D","D","D","D","D","D","D","D","D","D","D","D","D","D","D","D","D","D","D","D","D","D","D","D","D","D","D","D","D","D","D","D","D","D","D","D","D","D","D","D","D","D","D","D","D","D","D","D","D","D","D","D","D","D","D","D","?","?","D","D","D","?","?","?","?","?","?","?","?","?","?","?","?","?","?","?","?","?","?","?","?","?","?","?","?","?","?","?","?","?","?","?","?","?","?","?","?","?","?","?","?","?","?","?","?","?","?","?","?","?","?","?","?","?","?","?","?","?","?","?","?","?","?","?","?","?","?","?","?","?","?","?","?","?","?","?","?","?","?","?","?","?","?","?","?","?","?","?","?","?","?","?","?","?","?","?","?","?","?","?","?","?","?","?","?","?","?","?","?","?","?","?","?","?","?","?","?","?","?","?","?","?","?","?","?","?","?","?","?","?","?","?","?","?","?","?","?","?","?","?","?","?","?","?","?","?","?","?","?","?","?","?","?","?","?","?","?","?","?","?","?","?","?","?","?","?","?","?","?","?","?","?","?","?","?","?","?","?","?","?","?","?","?","?","?","?","?","?","?","?","?","?","?","?","?","?","?","?","?","?","?","?","?","?","?","?","?","?","?","?","?","?","?","?","?","?","?","?","?","?","?","?","?","?","?","?","?","?","?","?","?","?","?","?","?","?","?","?","?","?","?","?","?","?","?","?","?","?","?","?","?","?","?","?","?","?","?","?","?","?","?","?","?","?","?","?","?","?","?","?","?","?","?","?","?","?","?","?","?","?","?","?","?","?","?","?","?","?","?","?","?","?","?","?","?","M","M","M","M","M","M","M","M","M","M","M","M","M","M","M","M","M","M","M","M","M","M","M","M","M","M","M","M","M","M","M","M","M","M","M","M","M","M","M","M","M","M","M","M","M","M","M","M","M","M","M","M","M","M","M","M","M","M","M","M","M","M","M","M","M","M","?","?","?","?","?","?","?","?","?","?","?","?","?","?","?","N","N","N","N","N","N","N","?","?","?","O","O","O","?","?","?","?","?","?","?","?","?","?","?","?","?","?","?","?","?","?","?","?","?","?","?","?","?","?","?","H","H","H","H","H","H","H","H","H","H","H","H","H","H","H","H","H","H","H","H","H","H","?","?","?","?","?","?","?","?","?","?","?","?","?","H","H","H","H","H","H","H","H","H","H","H","H","H","H","H","H","H","H","H","H","H","H","H","H","H","H","H","H","H","H","H","H","H","H","H","H","H","H","H","H","H","H","H","H","H","H","H","H","H","H","H","H","H","H","H","H","H","H","H","H","H","H","H","H","H","H","H","H","H","H","H","H","H","H","H","H","H","H","H","H","H","H","H","H","H","H","H","H","H","H","H","H","H","H","H","H","H","H","H","H","H","H","H","H","H","H","H","H","H","H","H","H","H","H","H","H","H","H","H","H","H","H","H","H","H","H","?","?","?","?","G","G","G","G","G","G","G","G","G","G","G","?","?","?","F","F","F","F","F","?","?","?","?","?","?","L","L","L","?","?","?","?","?","?","?","?","?","?","?","?","?","?","?","?","?","?","?","?","?","?","?","?","?","K","?","?","?","?","?","?","?","?","T","T","T","T","T","T","T","T","T","T","T","T","T","T","T","T","T","T","T","T","T","T","T","T","T","T","T","T","T","T","T","T","T","T","T","T","T","T","T","T","T","T","T","T","T","T","T","T","T","T","T","T","T","T","T","T","T","T","T","T","T","T","T","T","T","T","?","?","U","U","U","U","U","U","?","?","V","V","V","V","V","V","V","V","V","V","V","V","V","V","V","V","V","V","V","V","V","V","V","V","V","V","V","V","V","V","V","V","V","V","V","V","V","V","V","V","V","V","V","V","V","?","?","W","W","W","W","W","?","?","X","X","X","X","X","?","?","?","?","?","?","?","?","?","?","?","?","?","?","?","?","?","?","?","?","?","?","?","?","P","P","P","P","P","P","P","P","P","P","P","P","P","P","P","P","P","P","P","P","P","P","P","P","P","P","P","P","P","P","P","P","P","P","P","P","P","P","P","P","P","P","P","P","P","P","P","P","P","P","P","P","P","P","P","P","P","P","P","P","P","P","P","P","P","P","P","P","P","P","P","P","P","P","P","P","P","P","P","P","P","P","P","P","P","P","P","P","P","P","P","P","P","P","P","P","P","P","P","P","P","P","P","P","P","P","P","P","P","P","P","P","P","P","P","P","P","P","P","P","P","P","P","P","P","P","P","P","P","P","P","P","P","P","P","P","P","P","P","P","P","P","P","P","P","P","P","P","P","P","P","P","P","P","P","P","P","P","P","P","P","P","P","P","P","P","P","P","P","P","P","P","P","P","P","P","P","P","P","P","P","P","P","P","P","P","P","P","P","P","P","P","P","P","P","P","P","P","P","P","P","P","P","P","P","P","P","P","P","P","P","P","P","P","P","P","P","P","P","P","P","P","P","P","P","P","P","P","P","P","P","P","P","P","P","P","P","P","?","O","O","O","N","N","?","M","M","M","M","M","M","M","M","M","M","M","M","M","M","M","M","M","M","M","M","M","M","M","M","M","M","M","M","M","M","M","M","M","M","M","M","M","M","M","M","M","M","M","M","M","M","M","M","M","M","M","M","M","M","M","M","M","M","M","?","?","?","?","N","N","N","N","N","N","N","N","N","N","N","N","N","N","N","N","N","N","N","N","N","N","N","N","N","N","N","N","N","N","N","N","N","N","N","N","N","N","N","N","N","N","N","N","N","N","N","N","N","N","N","N","N","N","N","N","N","N","N","N","N","N","N","N","N","N","N","N","N","N","N","N","N","N","N","N","N","N","N","N","N","N","N","N","N","?","?","?","?","?","?","?","?","?","?","?","?","?","?","?","?","?","?","?","?","?","?","?","?","?","?","?","?","C","C","C","C","C","C","C","C","C","C","C","C","C","C","C","C","C","C","C","C","C","C","C","C","C","C","C","C","C","C","C","C","C","C","C","C","C","C","C","C","C","C","C","C","C","C","C","C","C","C","C","C","C","C","C","C","C","C","C","C","C","C","C","C","C","C","C","C","C","C","C","C","?","?","?","B","B","B","B","B","B","B","B","B","B","B","B","B","B","B","B","B","B","B","B","B","B","B","B","B","B","B","B","B","B","B","B","B","B","B","B","B","B","B","B","B","B","B","B","B","B","B","B","B","B","B","B","B","B","B","B","B","B","B","B","B","B","B","B","B","B","B","B","B","B","B","B","B","B","B","B","B","?","?","?","?","K","K","K","K","?","?","?","?","?","?","?","?","?","?","?","?","T","T","?","U","U","U","V","?","W","X","X","Y","Y","Y","?","?","?","?","?","Z","Z","Z","Z","Z","Z","Z","Z","Z","Z","Z","Z","Z","Z","Z","Z","Z","Z","Z","Z","Z","Z","Z","Z","Z","Z","Z","?","Y","Y","?","?","?","?","?","?","?","?","?","?","K","?","?","?","?","?","?","?","?","?","?","A","A","A","A","A","A","A","A","A","A","A","A","A","A","A","A","A","A","A","A","A","A","A","A","A","A","A","A","A","A","A","A","A","A","A","A","A","A","A","A","A","A","A","A","A","A","A","A","A","A","A","A","A","A","A","A","A","A","A","A","A","A","A","A","A","A","A","A","A","A","A","A","A","A","A","A","A","A","A","A","A","A","A","A","A","A","A","A","A","A","A","A","A","A","A","A","A","A","A","A","A","A","A","A","A","A","A","A","A","A","A","A","A","A","A","A","A","A","A","A","A","A","A","A","A","A","A","A","A","A","A","A","A","A","A","A","A","A","A","A"],"t":[38,46,65,83,98,115,132,148,165,182,200,216,233,250,266,283,299,315,334,350,365,383,399,416,433,449,466,483,499,516,532,549,565,583,598,616,632,648,665,682,698,715,733,749,766,783,799,818,832,849,866,882,899,916,937,947,964,982,999,1017,1033,1050,1066,1082,1099,1116,1133,1149,1166,1183,1199,1216,1232,1249,1266,1283,1299,1316,1333,1349,1366,1382,1399,1416,1432,1449,1465,1484,1499,1516,1533,1549,1565,1582,1599,1616,1633,1649,1665,1682,1699,1714,1731,1748,1766,1782,1799,1815,1831,1853,1864,1880,1897,1915,1932,1948,1966,1981,1998,2015,2032,2048,2065,2082,2099,2116,2132,2149,2166,2182,2199,2215,2232,2249,2266,2282,2299,2316,2336,2348,2366,2381,2398,2415,2432,2449,2466,2483,2499,2516,2533,2549,2566,2583,2599,2616,2633,2649,2666,2683,2699,2716,2732,2750,2767,2782,2799,2817,2833,2850,2866,2882,2899,2916,2932,2949,2965,2981,2999,3016,3032,3049,3066,3082,3099,3117,3133,3149,3166,3183,3199,3215,3232,3249,3266,3282,3300,3316,3333,3349,3366,3383,3399,3416,3433,3450,3465,3483,3499,3516,3533,3549,3566,3583,3599,3616,3632,3649,3666,3683,3700,3716,3732,3749,3766,3783,3799,3816,3833,3849,3865,3883,3899,3916,3932,3949,3966,3983,3999,4016,4032,4049,4066,4083,4099,4115,4133,4150,4165,4181,4198,4216,4233,4249,4269,4321,4349,4364,4381,4398,4414,4431,4448,4465,4482,4498,4515,4531,4549,4566,4582,4599,4616,4632,4649,4666,4683,4699,4716,4732,4749,4765,4782,4799,4816,4832,4849,4865,4883,4899,4916,4933,4950,4966,4982,5000,5016,5032,5049,5066,5083,5099,5116,5133,5149,5166,5182,5198,5216,5233,5249,5266,5281,5299,5316,5333,5349,5366,5382,5399,5416,5433,5449,5466,5482,5498,5516,5533,5549,5567,5582,5599,5616,5632,5649,5666,5683,5699,5715,5731,5749,5766,5783,5799,5816,5832,5848,5865,5882,5900,5915,5933,5949,5966,5983,5999,6015,6032,6049,6066,6083,6099,6115,6133,6149,6166,6183,6199,6218,6233,6249,6265,6282,6300,6317,6332,6349,6366,6382,6400,6416,6433,6450,6466,6482,6500,6516,6533,6550,6566,6583,6600,6643,6665,6682,6698,6714,6732,6750,6765,6783,6799,6816,6833,6849,6866,6882,6900,6916,6933,6950,6966,6983,6999,7016,7033,7049,7066,7083,7099,7116,7133,7150,7166,7183,7199,7216,7233,7249,7265,7283,7300,7316,7332,7349,7366,7383,7399,7416,7432,7449,7466,7488,7499,7515,7533,7549,7566,7583,7599,7616,7632,7649,7665,7683,7700,7716,7732,7750,7766,7783,7800,7816,7833,7849,7865,7883,7900,7916,7932,7949,7966,7982,7999,8017,8032,8049,8066,8083,8099,8116,8133,8151,8165,8183,8200,8216,8233,8250,8266,8283,8299,8316,8333,8349,8366,8383,8400,8417,8431,8448,8467,8483,8500,8516,8533,8550,8566,8583,8599,8616,8633,8649,8666,8683,8699,8716,8733,8749,8766,8783,8799,8816,8833,8849,8866,8883,8899,8916,8932,8949,8966,8983,8999,9016,9033,9049,9066,9083,9098,9116,9133,9150,9166,9191,9215,9232,9249,9266,9283,9300,9315,9333,9349,9366,9383,9399,9416,9435,9450,9469,9482,9498,9515,9531,9548,9564,9581,9598,9615,9631,9678,9698,9716,9733,9749,9765,9782,9799,9815,9832,9848,9865,9882,9899,9916,9932,9949,9966,9984,9998,10015,10033,10050,10065,10082,10099,10117,10133,10149,10166,10183,10200,10216,10233,10250,10266,10283,10301,10316,10333,10349,10366,10383,10399,10416,10433,10449,10466,10483,10500,10516,10532,10549,10566,10582,10599,10615,10632,10649,10666,10683,10699,10716,10733,10750,10766,10783,10799,10815,10833,10849,10866,10883,10899,10916,10933,10949,10966,10983,10999,11016,11034,11049,11065,11083,11100,11117,11133,11150,11166,11184,11199,11216,11232,11249,11266,11283,11300,11317,11333,11348,11366,11382,11399,11417,11433,11449,11466,11483,11498,11515,11532,11549,11567,11582,11599,11615,11633,11648,11666,11683,11699,11716,11732,11749,11766,11783,11799,11814,11832,11848,11864,11883,11899,11916,11933,11957,11990,12007,12033,12048,12065,12082,12099,12115,12132,12148,12166,12183,12200,12216,12233,12249,12266,12283,12299,12317,12333,12349,12365,12383,12399,12415,12433,12449,12466,12483,12499,12517,12533,12550,12567,12583,12599,12615,12632,12649,12666,12683,12699,12716,12733,12750,12766,12783,12799,12816,12833,12849,12866,12883,12899,12915,12932,12949,12966,12983,12999,13018,13031,13049,13066,13083,13099,13116,13133,13149,13166,13183,13199,13216,13234,13250,13266,13282,13300,13316,13333,13349,13366,13383,13400,13416,13433,13449,13466,13483,13499,13516,13533,13549,13566,13582,13599,13615,13632,13649,13666,13684,13699,13716,13733,13749,13766,13783,13800,13816,13833,13849,13866,13883,13899,13916,13933,13948,13965,13983,13998,14016,14033,14049,14066,14083,14099,14116,14133,14150,14165,14183,14198,14217,14232,14249,14266,14283,14299,14317,14331,14349,14365,14382,14398,14416,14433,14450,14465,14483,14500,14516,14532,14549,14566,14583,14600,14617,14632,14649,14666,14683,14699,14716,14732,14750,14769,14781,14798,14815,14832,14851,14866,14882,14899,14916,14933,14949,14966,14983,15002,15016,15032,15050,15065,15083,15099,15115,15132,15149,15166,15182,15200,15216,15233,15250,15266,15285,15298,15317,15333,15350,15367,15382,15399,15416,15432,15449,15467,15483,15499,15516,15533,15548,15566,15583,15600,15616,15633,15649,15666,15683,15699,15716,15744,15765,15782,15799,15817,15834,15849,15866,15884,15900,15916,15933,15949,15966,15983,15999,16016,16033,16049,16066,16083,16098,16115,16133,16150,16166,16182,16200,16216,16233,16250,16266,16282,16300,16316,16332,16349,16366,16383,16398,16416,16432,16449,16466,16482,16499,16517,16533,16550,16566,16583,16599,16616,16633,16650,16666,16683,16700,16716,16733,16749,16766,16783,16799,16816,16833,16849,16866,16883,16900,16916,16935,16948,16965,16982,17000,17016,17033,17050,17067,17083,17100,17117,17133,17150,17166,17183,17198,17214,17231,17250,17267,17283,17301,17316,17332,17350,17366,17382,17399,17416,17432,17449,17465,17483,17498,17515,17532,17549,17565,17583,17599,17616,17633,17649,17667,17682,17699,17715,17732,17750,17766,17783,17800,17816,17833,17850,17870,17883,17899,17916,17933,17949,17966,17983,17999,18016,18033,18049,18067,18084,18099,18116,18133,18150,18166,18183,18199,18216,18233,18249,18266,18283,18300,18315,18332,18348,18365,18383,18400,18416,18433,18450,18466,18483,18499,18517,18533,18550,18567,18583,18600,18617,18633,18650,18667,18683,18700,18717,18733,18750,18767,18783,18800,18816,18833,18850,18866,18889,18898,18916,18933,18949,18966,18983,19000,19017,19033,19049,19067,19084,19099,19116,19133,19150,19167,19183,19200,19217,19233,19250,19267,19283,19300,19316,19333,19349,19366,19383,19399,19416,19436,19450,19466,19482,19500,19516,19533,19549,19569,19589,19615,19632,19650,19666,19683,19699,19716,19733,19749,19766,19782,19799,19814,19832,19849,19866,19883,19899,19916,19933,19951,19966,19982,19999,20016,20033,20049,20067,20083,20099,20116,20132,20151,20165,20182,20199,20215,20233,20250,20266,20283,20300,20316,20333,20350,20366,20382,20400,20417,20433,20450,20465,20482,20499,20516,20532,20550,20566,20583,20600,20621,20632,20649,20665,20683,20700,20716,20733,20750,20766,20783,20800,20816,20833,20850,20866,20883,20899,20916,20932,20950,20967,20983,21000,21017,21033,21049,21066,21083,21100,21117,21133,21150,21167,21184,21199,21217,21233,21249,21266,21283,21300,21316,21333,21350,21367,21383,21400,21417,21433,21450,21467,21483,21501,21518,21532,21550,21567,21583,21600,21617,21634,21650,21666,21683,21700,21717,21733,21750,21765,21783,21799,21815,21832,21849,21866,21883,21900,21924,21950,21967,21983,22000,22017,22033,22050,22067,22083,22100,22116,22133,22150,22166,22184,22200,22217,22233,22249,22267,22283,22299,22317,22333,22350,22366,22383,22400,22417,22433,22450,22467,22485,22500,22517,22533,22550,22567,22582,22599,22616,22633,22650,22667,22683,22700,22717,22733,22750,22765,22783,22800,22816,22833,22850,22867,22884,22900,22917,22933,22950,22965,22982,22999,23016,23033,23049,23066,23084,23100,23116,23132,23150,23167,23183,23200,23216,23234,23250,23267,23283,23300,23317,23333,23350,23367,23388,23416,23433,23450,23467,23483,23500,23516,23533,23550,23567,23582,23600,23617,23633,23650,23666,23683,23700,23716,23733,23750,23766,23783,23800,23817,23833,23850,23866,23883,23900,23916,23934,23950,23966,23983,24000,24017,24033,24049,24067,24083,24100,24117,24133,24150,24166,24183,24200,24217,24233,24249,24267,24284,24300,24317,24334,24350,24367,24383,24400,24417,24433,24450,24466,24484,24501,24516,24533,24550,24566,24583,24600,24616,24633,24650,24667,24684,24700,24717,24733,24750,24767,24783,24800,24817,24834,24850,24867,24883,24900,24917,24933,24955,24964,24983,24999,25018,25034,25049,25067,25084,25100,25117,25134,25150,25166,25184,25200,25217,25234,25250,25267,25284,25300,25317,25333,25350,25369,25383,25400,25417,25433,25450,25467,25483,25500,25517,25533,25550,25567,25583,25600,25617,25633,25650,25667,25684,25700,25716,25733,25750,25766,25784,25800,25817,25834,25850,25867,25883,25900,25917,25933,25950,25967,25983,26000,26032,26038,26049,26066,26082,26099,26116,26134,26150,26168,26182,26199,26217,26232,26249,26265,26282,26299,26316,26332,26349,26366,26383,26400,26417,26434,26450,26467,26484,26500,26517,26534,26550,26567,26583,26599,26617,26633,26650,26667,26683,26700,26718,26734,26750,26766,26783,26800,26817,26833,26850,26867,26883,26900,26918,26933,26949,26967,26984,26999,27017,27033,27050,27067,27084,27100,27117,27133,27150,27167,27184,27200,27217,27234,27250,27267,27284,27300,27317,27334,27350,27367,27383,27400,27417,27433,27450,27467,27483,27499,27517,27534,27550,27566,27584,27600,27617,27633,27650,27667,27684,27700,27717,27734,27750,27766,27783,27800,27817,27834,27850,27867,27883,27900,27917,27933,27950,27967,27984,27999,28016,28034,28050,28067,28083,28100,28117,28133,28150,28167,28183,28199,28216,28233,28249,28267,28283,28300,28317,28333,28350,28366,28382,28399,28416,28433,28450,28466,28483,28503,28515,28533,28550,28567,28583,28600,28616,28632,28649,28667,28683,28700,28717,28734,28750,28766,28784,28800,28817,28834,28850,28867,28884,28900,28918,28933,28950,28967,28983,29000,29017,29034,29050,29067,29083,29100,29117,29134,29151,29167,29184,29200,29217,29234,29250,29267,29284,29300,29316,29334,29351,29371,29383,29400,29417,29433,29450,29467,29484,29501,29517,29533,29550,29566,29583,29599,29616,29633,29650,29667,29684,29700,29717,29733,29750,29766,29783,29800,29818,29833,29850,29867,29884,29900,29917,29934,29950,29967,29984,30000,30017,30034,30051,30067,30083,30100,30117,30133,30150,30167,30184,30200,30217,30234,30250,30267,30283,30300,30317,30334,30350,30367,30383,30400,30417,30433,30450,30468,30484,30501,30516,30533,30551,30567,30583,30600,30617,30633,30651,30667,30684,30700,30716,30741,30749,30766,30783,30800,30817,30833,30850,30867,30884,30899,30917,30933,30951,30967,30984,31000,31017,31033,31052,31067,31083,31100,31117,31135,31150,31167,31184,31200,31217,31234,31250,31267,31284,31300,31317,31334,31350,31367,31383,31401,31417,31433,31450,31467,31483,31501,31517,31534,31550,31567,31583,31600,31617,31634,31650,31667,31683,31700,31717,31733,31751,31767,31783,31800,31817,31833,31850,31869,31882,31900,31917,31933,31950,31967,31982,32003,32015,32032,32050,32067,32084,32101,32117,32134,32150,32167,32183,32201,32217,32233,32250,32267,32283,32300,32317,32333,32351,32366,32384,32400,32417,32434,32451,32467,32484,32502,32517,32534,32551,32566,32584,32600,32617,32633,32650,32667,32684,32700,32717,32734,32751,32765,32782,32799,32817,32833,32850,32867,32884,32900,32916,32933,32950,32969,32982,33000,33016,33033,33050,33067,33083,33100,33117,33134,33150,33167,33183,33200,33217,33234,33250,33267,33285,33300,33317,33334,33350,33367,33384,33401,33417,33435,33450,33467,33484,33501,33516,33533,33551,33568,33584,33600,33617,33634,33651,33667,33684,33701,33717,33734,33750,33767,33783,33801,33817,33834,33850,33867,33884,33901,33919,33932,33949,33966,33983,34001,34017,34034,34052,34067,34084,34100,34118,34134,34149,34167,34184,34200,34217,34236,34251,34267,34284,34300,34317,34333,34351,34367,34384,34400,34417,34433,34450,34467,34484,34500,34517,34533,34551,34567,34588,34600,34616,34633,34651,34667,34684,34700,34717,34734,34750,34767,34784,34801,34817,34834,34851,34867,34884,34901,34917,34934,34950,34967,34984,35000,35017,35034,35051,35067,35084,35101,35117,35134,35151,35167,35184,35200,35217,35233,35250,35267,35284,35300,35317,35334,35350,35367,35384,35401,35417,35434,35451,35467,35484,35501,35517,35534,35551,35567,35584,35600,35618,35634,35650,35668,35684,35700,35717,35733,35751,35767,35783,35801,35817,35834,35850,35867,35884,35900,35917,35934,35950,35967,35984,36001,36017,36034,36050,36067,36083,36100,36117,36134,36151,36167,36184,36201,36217,36234,36251,36268,36284,36300,36317,36333,36351,36368,36384,36400,36418,36434,36450,36467,36484,36500,36517,36534,36550,36567,36584,36601,36617,36633,36651,36667,36684,36700,36717,36734,36750,36767,36784,36800,36817,36834,36851,36867,36884,36901,36918,36933,36951,36967,36984,37001,37018,37034,37051,37067,37084,37100,37117,37133,37150,37167,37183,37201,37218,37233,37250,37267,37284,37301,37317,37335,37351,37367,37384,37401,37417,37434,37451,37467,37484,37501,37517,37534,37551,37567,37584,37600,37617,37635,37651,37667,37684,37701,37717,37734,37750,37767,37784,37801,37816,37838,37849,37865,37883,37901,37917,37934,37950,37967,37984,38001,38017,38039,38050,38066,38083,38100,38117,38134,38150,38167,38184,38201,38217,38233,38250,38268,38284,38300,38317,38334,38350,38367,38385,38400,38417,38435,38450,38467,38484,38500,38518,38534,38551,38568,38584,38601,38618,38633,38651,38667,38684,38701,38717,38734,38751,38767,38784,38801,38817,38834,38851,38867,38884,38901,38918,38934,38951,38966,38987,38999,39016,39033,39051,39068,39083,39100,39117,39133,39150,39167,39184,39200,39217,39233,39250,39267,39284,39301,39318,39334,39351,39366,39384,39400,39417,39433,39451,39467,39483,39500,39518,39533,39550,39567,39584,39601,39617,39633,39651,39668,39684,39701,39717,39734,39750,39767,39784,39801,39817,39834,39851,39867,39884,39901,39917,39934,39950,39967,39983,40001,40017,40034,40050,40068,40084,40101,40118,40134,40151,40167,40184,40200,40217,40234,40255,40266,40285,40300,40317,40334,40351,40367,40384,40400,40418,40435,40451,40468,40484,40501,40518,40534,40551,40568,40584,40600,40617,40637,40649,40666,40683,40701,40718,40734,40751,40767,40784,40800,40817,40834,40850,40867,40884,40901,40917,40934,40951,40967,40984,41000,41018,41034,41051,41067,41084,41101,41117,41134,41151,41167,41184,41201,41218,41234,41251,41267,41284,41300,41317,41334,41351,41367,41384,41401,41418,41434,41451,41470,41484,41500,41517,41535,41550,41567,41585,41601,41617,41634,41650,41667,41685,41701,41717,41734,41751,41768,41784,41801,41817,41834,41851,41867,41884,41901,41918,41934,41950,41968,41984,42000,42017,42034,42051,42067,42084,42101,42118,42134,42151,42167,42184,42201,42217,42234,42250,42267,42284,42301,42317,42334,42351,42367,42384,42401,42417,42434,42450,42467,42484,42501,42518,42534,42551,42568,42584,42600,42618,42634,42651,42668,42685,42701,42717,42734,42751,42768,42784,42801,42817,42834,42851,42867,42884,42901,42917,42934,42950,42967,42985,43001,43018,43033,43050,43066,43084,43101,43117,43134,43151,43168,43184,43201,43217,43234,43250,43266,43284,43300,43318,43334,43351,43367,43385,43401,43418,43435,43451,43468,43484,43500,43518,43534,43551,43573,43583,43600,43618,43634,43651,43668,43684,43701,43718,43734,43751,43767,43784,43801,43817,43834,43851,43867,43884,43901,43917,43934,43952,43967,43984,44000,44017,44033,44051,44067,44084,44101,44117,44134,44151,44168,44184,44201,44217,44234,44251,44267,44284,44301,44317,44334,44351,44367,44384,44401,44417,44434,44451,44467,44484,44501,44518,44534,44551,44567,44584,44600,44617,44634,44651,44667,44684,44701,44717,44734,44751,44767,44783,44801,44817,44834,44851,44868,44884,44901,44917,44935,44950,44968,44985,45001,45018,45034,45050,45068,45084,45101,45117,45134,45151,45168,45184,45200,45217,45234,45251,45267,45284,45300,45317,45335,45351,45367,45384,45401,45417,45434,45451,45468,45484,45501,45519,45534,45551,45567,45584,45601,45617,45634,45651,45668,45684,45701,45717,45734,45751,45767,45784,45801,45818,45834,45851,45867,45884,45901,45917,45934,45950,45968,45984,46003,46017,46034,46051,46067,46084,46101,46118,46134,46151,46167,46184,46201,46217,46234,46250,46267,46284,46300,46317,46334,46352,46368,46384,46401,46418,46434,46450,46467,46485,46501,46517,46534,46551,46567,46584,46601,46617,46634,46651,46668,46684,46700,46717,46734,46751,46767,46784,46801,46818,46834,46851,46867,46884,46901,46917,46934,46951,46967,46984,47001,47018,47035,47051,47067,47083,47101,47120,47134,47151,47167,47184,47201,47217,47234,47251,47267,47284,47301,47317,47334,47351,47367,47384,47401,47417,47434,47451,47468,47484,47501,47518,47534,47551,47568,47584,47600,47617,47634,47651,47667,47684,47701,47718,47734,47751,47767,47785,47801,47817,47835,47851,47868,47884,47901,47918,47934,47951,47967,47984,48002,48017,48035,48051,48067,48084,48101,48117,48134,48151,48168,48185,48203,48216,48233,48250,48267,48282,48300,48317,48335,48351,48368,48389,48416,48433,48451,48468,48485,48500,48517,48536,48550,48567,48584,48600,48619,48634,48651,48669,48684,48701,48718,48734,48751,48768,48784,48800,48818,48834,48851,48868,48884,48901,48919,48934,48951,48968,48984,49001,49017,49034,49051,49068,49084,49101,49118,49134,49152,49165,49184,49201,49217,49235,49252,49267,49284,49301,49318,49335,49351,49368,49384,49401,49417,49434,49451,49468,49485,49500,49518,49534,49555,49567,49584,49601,49617,49635,49651,49668,49684,49701,49717,49734,49750,49770,49784,49800,49818,49835,49851,49867,49886,49901,49918,49934,49950,49967,49984,50001,50018,50034,50051,50068,50084,50101,50118,50134,50151,50168,50185,50200,50218,50234,50251,50268,50285,50301,50318,50335,50351,50368,50384,50401,50418,50434,50451,50468,50485,50501,50518,50534,50551,50569,50584,50601,50618,50634,50651,50671,50701,50717,50735,50751,50767,50784,50801,50818,50834,50851,50868,50885,50901,50918,50934,50951,50968,50984,51002,51018,51034,51051,51067,51084,51101,51118,51135,51151,51168,51184,51201,51218,51235,51251,51268,51284,51301,51318,51334,51351,51369,51385,51400,51418,51435,51451,51468,51484,51501,51518,51535,51551,51568,51584,51601,51618,51634,51651,51668,51685,51701,51717,51734,51751,51768,51784,51801,51818,51835,51852,51867,51884,51901,51918,51934,51951,51967,51984,52001,52018,52035,52052,52068,52084,52101,52118,52135,52151,52168,52185,52201,52218,52235,52251,52268,52285,52301,52318,52335,52351,52368,52385,52401,52418,52434,52451,52469,52485,52501,52517,52535,52551,52568,52584,52601,52618,52635,52651,52668,52684,52701,52718,52734,52751,52768,52784,52801,52818,52835,52851,52868,52885,52901,52918,52935,52951,52968,52984,53001,53017,53035,53050,53067,53085,53100,53118,53134,53151,53168,53185,53209,53233,53250,53267,53283,53300,53316,53333,53350,53367,53383,53400,53416,53433,53450,53467,53483,53500,53517,53533,53550,53567,53583,53601,53618,53634,53651,53668,53684,53701,53719,53734,53751,53768,53785,53801,53817,53835,53851,53868,53885,53901,53918,53935,53951,53968,53983,54002,54018,54034,54051,54068,54085,54101,54119,54134,54151,54168,54185,54202,54218,54235,54251,54267,54284,54301,54317,54334,54350,54368,54385,54401,54418,54435,54451,54470,54484,54501,54518,54535,54551,54568,54585,54601,54617,54635,54652,54668,54684,54701,54717,54735,54751,54768,54784,54801,54818,54834,54851,54869,54884,54901,54918,54934,54951,54968,54985,55001,55019,55035,55051,55068,55084,55101,55118,55135,55151,55168,55184,55201,55218,55235,55251,55269,55285,55302,55319,55334,55351,55368,55384,55401,55418,55434,55451,55469,55484,55506,55517,55534,55551,55568,55585,55601,55618,55635,55650,55668,55684,55702,55718,55734,55751,55768,55784,55801,55817,55835,55851,55869,55884,55901,55918,55934,55951,55968,55984,56001,56018,56035,56051,56068,56084,56101,56118,56134,56151,56168,56185,56201,56218,56234,56251,56267,56283,56301,56318,56334,56351,56367,56385,56401,56418,56435,56451,56468,56486,56501,56518,56534,56551,56568,56589,56617,56633,56652,56669,56685,56701,56718,56735,56753,56768,56785,56801,56818,56835,56851,56868,56884,56901,56918,56933,56951,56968,56984,57002,57018,57035,57050,57068,57084,57101,57118,57135,57152,57168,57184,57201,57218,57235,57251,57268,57285,57301,57318,57335,57352,57367,57385,57402,57418,57435,57450,57468,57484,57501,57518,57533,57551,57568,57584,57601,57619,57634,57652,57668,57684,57701,57718,57735,57752,57768,57785,57802,57821,57833,57850,57867,57885,57902,57918,57934,57952,57968,57984,58001,58018,58034,58051,58068,58084,58102,58118,58135,58151,58168,58184,58201,58218,58234,58252,58268,58284,58301,58318,58340,58367,58383,58402,58418,58435,58452,58468,58485,58500,58518,58535,58552,58568,58585,58601,58618,58635,58651,58668,58684,58702,58718,58735,58751,58768,58785,58801,58818,58835,58850,58868,58885,58900,58918,58935,58951,58968,58985,59002,59018,59034,59051,59068,59085,59101,59118,59135,59151,59168,59186,59202,59219,59235,59250,59268,59284,59301,59317,59335,59351,59368,59385,59402,59417,59435,59451,59468,59485,59501,59518,59534,59551,59568,59585,59601,59618,59636,59651,59668,59685,59701,59718,59736,59752,59768,59785,59801,59818,59835,59852,59868,59885,59901,59918,59935,59950,59968,59985,60001,60017,60035,60051,60068,60084,60101,60118,60134,60151,60167,60184,60201,60219,60235,60251,60267,60284,60301,60318,60335,60351,60368,60385,60401,60418,60435,60452,60467,60484,60501,60518,60535,60553,60567,60585,60601,60617,60635,60652,60668,60685,60702,60718,60735,60752,60768,60784,60801,60818,60835,60851,60867,60884,60902,60917,60935,60951,60968,60984,61001,61018,61035,61057,61084,61100,61118,61135,61151,61168,61185,61201,61218,61235,61251,61268,61285,61302,61318,61335,61352,61368,61384,61401,61419,61435,61452,61468,61485,61501,61518,61535,61551,61568,61585,61602,61618,61635,61651,61668,61685,61702,61718,61735,61752,61768,61785,61801,61818,61835,61851,61868,61885,61901,61918,61934,61952,61968,61985,62002,62019,62035,62052,62068,62085,62101,62118,62135,62151,62168,62185,62202,62218,62235,62252,62269,62284,62301,62318,62335,62351,62368,62385,62401,62418,62435,62452,62468,62484,62502,62518,62535,62552,62568,62585,62601,62618,62635,62652,62668,62684,62701,62718,62735,62751,62768,62785,62801,62818,62835,62851,62868,62884,62901,62918,62935,62951,62968,62985,63001,63018,63035,63051,63069,63085,63101,63118,63135,63152,63168,63185,63201,63218,63235,63252,63268,63285,63301,63318,63335,63351,63368,63386,63401,63418,63435,63453,63468,63485,63501,63518,63535,63551,63568,63585,63602,63620,63633,63650,63667,63686,63702,63717,63735,63751,63768,63784,63800,63818,63834,63851,63868,63885,63901,63918,63935,63951,63970,63983,64000,64018,64034,64051,64068,64085,64102,64118,64134,64152,64167,64185,64202,64218,64235,64251,64269,64285,64301,64318,64335,64351,64368,64386,64402,64418,64435,64451,64469,64485,64502,64518,64535,64551,64568,64585,64601,64618,64635,64652,64668,64685,64702,64717,64735,64752,64768,64784,64801,64818,64834,64851,64868,64885,64902,64919,64935,64951,64968,64985,65001,65018,65035,65052,65069,65085,65102,65118,65135,65152,65168,65185,65202,65218,65236,65252,65268,65284,65302,65318,65335,65351,65368,65385,65402,65418,65435,65451,65469,65485,65502,65517,65535,65551,65568,65585,65602,65619,65635,65651,65668,65685,65701,65719,65735,65752,65768,65785,65802,65819,65835,65851,65868,65885,65902,65918,65935,65953,65968,65985,66001,66019,66035,66052,66068,66085,66102,66118,66137,66151,66168,66185,66201,66218,66235,66252,66268,66285,66301,66319,66335,66352,66368,66385,66401,66418,66435,66452,66469,66486,66501,66519,66535,66551,66568,66586,66601,66618,66635,66651,66669,66685,66702,66719,66735,66752,66769,66789,66802,66818,66836,66852,66868,66884,66901,66918,66934,66952,66968,66984,67001,67018,67036,67052,67069,67085,67101,67118,67135,67151,67168,67185,67202,67218,67234,67252,67269,67285,67301,67318,67335,67351,67368,67385,67402,67419,67435,67452,67469,67485,67501,67518,67535,67552,67568,67585,67601,67619,67634,67651,67668,67685,67702,67719,67735,67752,67768,67785,67802,67818,67835,67852,67868,67885,67902,67918,67936,67952,67967,67985,68003,68018,68034,68051,68068,68085,68101,68118,68134,68153,68168,68185,68200,68218,68235,68251,68268,68286,68302,68319,68334,68352,68368,68385,68401,68418,68435,68451,68468,68485,68502,68518,68535,68552,68569,68585,68601,68618,68635,68652,68668,68685,68701,68718,68735,68752,68769,68784,68802,68818,68835,68852,68869,68885,68902,68918,68937,68952,68968,68985,69001,69019,69035,69052,69068,69085,69102,69119,69143,69168,69185,69202,69218,69235,69252,69268,69285,69301,69318,69335,69352,69368,69385,69402,69419,69435,69452,69468,69486,69501,69519,69535,69552,69569,69585,69602,69618,69635,69652,69669,69685,69702,69719,69735,69756,69768,69785,69802,69818,69835,69852,69868,69885,69902,69918,69935,69952,69968,69985,70002,70020,70035,70052,70069,70085,70102,70119,70135,70152,70168,70185,70202,70218,70235,70252,70268,70285,70302,70319,70335,70351,70373,70400,70417,70436,70452,70469,70485,70502,70518,70534,70552,70569,70585,70602,70619,70635,70652,70671,70684,70700,70717,70736,70752,70768,70785,70801,70819,70836,70850,70867,70886,70901,70918,70935,70956,70968,70985,71002,71019,71035,71052,71069,71085,71101,71119,71135,71152,71169,71185,71202,71218,71235,71252,71267,71286,71302,71318,71335,71351,71368,71385,71401,71418,71436,71452,71469,71485,71502,71518,71535,71552,71568,71585,71602,71618,71635,71652,71669,71685,71702,71719,71737,71751,71768,71786,71802,71819,71835,71852,71868,71885,71902,71919,71940,71956,71973,71991,72003,72017,72033,72051,72067,72085,72102,72120,72134,72151,72168,72185,72202,72218,72235,72252,72269,72285,72302,72318,72335,72352,72368,72385,72402,72418,72435,72452,72468,72486,72502,72518,72535,72552,72568,72584,72604,72619,72635,72652,72669,72686,72702,72717,72735,72752,72768,72785,72801,72818,72835,72854,72867,72885,72902,72918,72935,72952,72969,72985,73003,73018,73035,73052,73069,73085,73101,73119,73134,73151,73169,73185,73202,73219,73235,73252,73271,73285,73302,73319,73335,73352,73369,73386,73402,73418,73435,73452,73469,73485,73502,73519,73534,73552,73569,73586,73602,73619,73635,73652,73668,73685,73703,73719,73735,73752,73768,73785,73802,73819,73835,73852,73869,73885,73902,73919,73941,73980,73984,74001,74018,74035,74051,74069,74085,74102,74119,74136,74152,74169,74185,74202,74218,74235,74252,74269,74285,74302,74319,74336,74358,74368,74385,74403,74420,74436,74452,74468,74485,74502,74519,74535,74552,74569,74586,74602,74619,74636,74652,74669,74685,74702,74721,74736,74752,74769,74785,74802,74819,74836,74853,74869,74885,74902,74919,74935,74952,74969,74986,75002,75019,75036,75052,75069,75086,75102,75119,75136,75152,75169,75185,75202,75219,75235,75252,75269,75286,75302,75319,75335,75352,75368,75386,75402,75419,75435,75452,75469,75485,75502,75519,75535,75552,75569,75585,75602,75619,75636,75652,75668,75686,75703,75719,75735,75752,75769,75786,75802,75818,75836,75853,75869,75885,75902,75918,75934,75953,75969,75985,76003,76019,76035,76052,76069,76086,76102,76119,76135,76152,76169,76186,76202,76219,76236,76252,76270,76284,76301,76319,76335,76352,76369,76385,76402,76418,76435,76453,76469,76485,76502,76519,76535,76552,76569,76585,76602,76618,76636,76652,76669,76685,76702,76719,76735,76752,76769,76786,76802,76819,76836,76852,76869,76885,76902,76919,76935,76952,76969,76986,77002,77018,77035,77052,77068,77086,77102,77119,77135,77152,77169,77185,77202,77219,77235,77252,77269,77285,77302,77322,77334,77351,77367,77386,77403,77419,77435,77452,77469,77485,77501,77518,77536,77551,77569,77585,77603,77619,77635,77652,77669,77686,77702,77719,77735,77752,77769,77787,77802,77819,77836,77852,77869,77886,77902,77919,77936,77952,77969,77986,78002,78018,78035,78052,78069,78086,78102,78118,78135,78151,78169,78186,78203,78219,78235,78252,78269,78285,78302,78319,78336,78352,78369,78386,78402,78419,78436,78452,78470,78486,78503,78519,78535,78552,78569,78586,78602,78619,78636,78652,78668,78686,78702,78718,78736,78753,78769,78785,78802,78819,78835,78852,78869,78885,78902,78919,78935,78951,78969,78986,79002,79019,79035,79052,79069,79085,79101,79118,79136,79152,79169,79185,79202,79219,79235,79252,79268,79287,79305,79317,79335,79352,79367,79385,79402,79418,79434,79452,79468,79485,79501,79518,79535,79552,79568,79585,79602,79619,79636,79652,79667,79686,79703,79718,79735,79752,79769,79785,79802,79819,79836,79853,79869,79885,79902,79920,79935,79952,79968,79985,80002,80019,80035,80056,80067,80085,80102,80118,80136,80153,80169,80185,80201,80218,80235,80252,80269,80285,80302,80319,80336,80352,80368,80385,80402,80419,80434,80452,80469,80485,80502,80520,80535,80552,80569,80585,80601,80619,80635,80652,80668,80685,80702,80719,80736,80752,80769,80785,80802,80819,80837,80852,80868,80885,80902,80917,80935,80951,80969,80985,81002,81019,81034,81052,81069,81086,81102,81119,81135,81153,81168,81185,81203,81218,81235,81252,81269,81285,81302,81319,81335,81351,81369,81391,81401,81418,81435,81451,81468,81485,81501,81519,81535,81552,81569,81585,81602,81619,81634,81652,81668,81685,81702,81719,81735,81752,81769,81785,81802,81819,81836,81851,81869,81885,81902,81918,81938,81952,81968,81986,82002,82018,82035,82052,82071,82086,82102,82118,82136,82151,82169,82187,82203,82218,82235,82252,82269,82286,82302,82319,82336,82352,82367,82386,82402,82419,82436,82451,82468,82484,82502,82518,82535,82552,82568,82585,82602,82618,82635,82652,82669,82688,82700,82718,82735,82752,82769,82785,82801,82817,82834,82853,82870,82885,82902,82919,82944,82969,82986,83001,83017,83035,83052,83069,83085,83102,83117,83135,83152,83169,83185,83202,83219,83246,83268,83284,83302,83318,83336,83352,83369,83385,83402,83418,83436,83452,83467,83485,83502,83519,83537,83552,83569,83586,83602,83619,83635,83652,83669,83685,83706,83717,83734,83750,83770,83786,83801,83818,83836,83857,83884,83901,83918,83935,83952,83969,83986,84002,84019,84036,84052,84069,84085,84101,84119,84135,84152,84169,84186,84202,84219,84236,84253,84269,84286,84303,84319,84336,84353,84369,84385,84403,84420,84436,84452,84469,84486,84502,84518,84537,84551,84568,84585,84603,84619,84636,84652,84669,84686,84702,84718,84736,84752,84769,84785,84802,84819,84836,84853,84869,84885,84902,84919,84937,84952,84969,84986,85002,85019,85036,85052,85069,85086,85102,85119,85135,85152,85169,85185,85202,85219,85236,85252,85269,85285,85302,85318,85336,85352,85370,85386,85402,85419,85436,85452,85469,85486,85502,85519,85536,85552,85569,85586,85602,85619,85636,85652,85669,85686,85703,85722,85753,85769,85786,85802,85818,85836,85852,85869,85886,85902,85919,85935,85952,85969,85986,86003,86019,86036,86052,86069,86086,86102,86119,86140,86151,86169,86185,86202,86220,86235,86252,86269,86285,86302,86319,86336,86353,86369,86386,86402,86418,86435,86453,86469,86486,86502,86519,86536,86551,86569,86585,86602,86619,86636,86652,86668,86685,86703,86718,86735,86751,86769,86785,86802,86818,86836,86853,86870,86885,86902,86919,86936,86952,86968,86986,87002,87019,87036,87052,87069,87086,87102,87120,87136,87153,87169,87186,87202,87219,87236,87253,87269,87286,87302,87319,87336,87353,87368,87386,87403,87419,87435,87453,87469,87486,87502,87519,87535,87552,87570,87586,87603,87619,87636,87653,87669,87686,87702,87719,87735,87752,87769,87786,87802,87819,87836,87852,87869,87886,87903,87919,87936,87952,87969,87986,88002,88019,88036,88052,88069,88085,88102,88119,88135,88153,88169,88186,88203,88219,88236,88253,88269,88286,88302,88319,88336,88353,88369,88386,88402,88420,88437,88452,88469,88486,88503,88518,88536,88552,88569,88586,88603,88619,88635,88652,88670,88686,88703,88718,88736,88753,88769,88786,88802,88820,88836,88852,88869,88886,88902,88919,88936,88952,88969,88986,89003,89019,89036,89053,89068,89086,89103,89119,89136,89152,89169,89186,89202,89219,89235,89254,89269,89285,89301,89319,89337,89352,89368,89385,89402,89419,89436,89453,89470,89485,89502,89518,89536,89552,89570,89586,89602,89619,89635,89652,89669,89685,89702,89719,89737,89752,89769,89785,89803,89819,89836,89852,89869,89886,89902,89919,89936,89953,89969,89985,90002,90019,90036,90052,90069,90086,90104,90119,90136,90152,90169,90186,90203,90219,90236,90252,90269,90286,90302,90320,90336,90352,90369,90386,90402,90419,90436,90453,90469,90486,90502,90519,90536,90553,90569,90587,90602,90619,90636,90652,90669,90686,90702,90719,90736,90752,90769,90786,90802,90819,90836,90852,90869,90885,90902,90919,90935,90952,90969,90986,91002,91019,91037,91053,91069,91085,91102,91119,91136,91152,91169,91186,91202,91219,91236,91252,91268,91286,91301,91319,91336,91352,91369,91385,91403,91419,91435,91452,91469,91486,91503,91519,91536,91553,91569,91586,91602,91619,91635,91652,91669,91686,91703,91719,91735,91753,91769,91787,91803,91819,91835,91852,91869,91885,91902,91922,91935,91952,91969,91985,92002,92019,92036,92051,92069,92086,92102,92119,92136,92152,92169,92186,92202,92219,92235,92252,92269,92286,92304,92319,92336,92353,92369,92385,92403,92419,92436,92452,92469,92486,92502,92519,92536,92553,92569,92586,92603,92619,92635,92652,92669,92685,92702,92719,92736,92752,92769,92785,92802,92819,92836,92853,92870,92886,92903,92918,92935,92952,92969,92985,93002,93019,93035,93052,93069,93086,93102,93119,93136,93153,93169,93186,93202,93219,93236,93253,93269,93286,93303,93319,93336,93353,93369,93386,93403,93419,93436,93453,93469,93485,93503,93519,93536,93552,93569,93586,93603,93620,93636,93652,93669,93686,93703,93720,93736,93753,93770,93786,93803,93819,93836,93853,93869,93886,93903,93920,93936,93956,93968,93985,94003,94020,94036,94052,94069,94086,94103,94120,94136,94153,94168,94186,94202,94219,94236,94253,94270,94286,94303,94320,94335,94352,94369,94386,94402,94420,94436,94453,94470,94486,94503,94519,94537,94553,94569,94585,94604,94620,94635,94651,94667,94687,94703,94719,94736,94752,94769,94786,94802,94819,94836,94852,94868,94885,94902,94918,94935,94952,94969,94984,95002,95019,95036,95051,95069,95086,95103,95119,95136,95152,95169,95185,95202,95218,95235,95251,95268,95286,95303,95319,95336,95353,95371,95385,95402,95419,95436,95453,95469,95486,95503,95520,95536,95560,95585,95603,95619,95636,95653,95670,95687,95703,95719,95735,95752,95769,95785,95802,95819,95836,95853,95869,95886,95902,95919,95936,95954,95968,95985,96002,96019,96036,96053,96070,96085,96103,96119,96137,96152,96169,96186,96201,96219,96236,96253,96269,96286,96303,96320,96336,96353,96370,96386,96403,96419,96436,96453,96470,96487,96503,96519,96536,96552,96569,96586,96602,96619,96636,96653,96669,96686,96703,96719,96736,96753,96771,96786,96803,96819,96835,96852,96869,96885,96902,96920,96937,96953,96969,96986,97003,97019,97036,97053,97070,97086,97103,97120,97136,97153,97169,97186,97203,97219,97236,97253,97270,97286,97303,97320,97337,97353,97369,97386,97403,97419,97436,97453,97470,97487,97503,97520,97536,97552,97569,97586,97603,97620,97637,97653,97670,97686,97703,97720,97738,97753,97770,97786,97803,97820,97837,97853,97869,97886,97903,97919,97938,97954,97969,97986,98003,98019,98036,98053,98069,98086,98102,98119,98135,98151,98168,98186,98203,98220,98235,98253,98270,98286,98302,98319,98336,98353,98369,98387,98403,98419,98435,98453,98470,98486,98503,98519,98536,98553,98570,98586,98602,98618,98636,98653,98669,98686,98703,98720,98736,98753,98770,98786,98803,98819,98836,98853,98870,98886,98903,98919,98937,98953,98970,98986,99003,99027,99052,99070,99087,99104,99119,99136,99152,99170,99186,99203,99220,99236,99253,99269,99286,99303,99319,99337,99353,99369,99386,99403,99420,99436,99454,99470,99486,99503,99520,99537,99553,99570,99586,99604,99620,99636,99653,99670,99687,99703,99720,99736,99753,99769,99786,99803,99820,99836,99852,99870,99886,99902,99920,99936,99953,99969,99993,100001,100018,100035,100054,100070,100086,100103,100120,100137,100153,100170,100186,100203,100220,100236,100253,100270,100286,100303,100320,100336,100353,100370,100386,100403,100420,100437,100453,100469,100487,100503,100519,100536,100553,100569,100587,100603,100620,100636,100653,100669,100686,100702,100720,100737,100754,100769,100786,100803,100819,100836,100852,100870,100886,100903,100919,100937,100953,100970,100987,101003,101020,101043,101068,101085,101104,101120,101136,101153,101170,101186,101204,101220,101236,101253,101270,101286,101303,101320,101337,101352,101370,101386,101403,101418,101436,101452,101469,101486,101503,101520,101535,101553,101570,101586,101603,101620,101639,101652,101668,101687,101703,101719,101736,101753,101770,101786,101803,101820,101836,101853,101870,101887,101903,101920,101936,101953,101970,101986,102003,102020,102036,102053,102070,102088,102103,102120,102136,102152,102170,102186,102203,102220,102236,102252,102269,102286,102303,102319,102336,102351,102369,102386,102403,102420,102436,102453,102470,102486,102504,102519,102536,102552,102575,102602,102619,102636,102653,102669,102686,102703,102720,102736,102753,102769,102786,102803,102820,102836,102853,102870,102886,102903,102919,102936,102952,102969,102986,103005,103020,103042,103052,103069,103086,103103,103119,103137,103154,103170,103187,103203,103220,103236,103253,103270,103286,103303,103320,103336,103353,103369,103386,103403,103419,103436,103453,103469,103486,103503,103520,103536,103553,103569,103586,103603,103620,103635,103653,103670,103686,103703,103720,103737,103755,103769,103786,103803,103819,103836,103853,103870,103886,103902,103919,103936,103953,103969,103986,104005,104019,104036,104053,104071,104086,104103,104120,104137,104153,104169,104186,104203,104221,104236,104253,104270,104286,104303,104320,104336,104352,104370,104387,104409,104418,104434,104452,104470,104487,104503,104520,104537,104553,104570,104586,104603,104620,104637,104653,104670,104687,104703,104720,104737,104753,104771,104785,104803,104819,104836,104853,104870,104887,104903,104920,104936,104953,104970,104987,105002,105019,105037,105053,105070,105086,105102,105120,105136,105153,105169,105186,105203,105220,105236,105253,105270,105286,105303,105319,105336,105357,105371,105386,105403,105419,105437,105453,105470,105486,105503,105520,105536,105553,105570,105587,105603,105620,105636,105653,105670,105686,105702,105720,105736,105753,105770,105786,105803,105820,105836,105853,105870,105886,105903,105920,105936,105954,105970,105987,106003,106020,106036,106053,106070,106087,106103,106120,106136,106153,106170,106187,106203,106220,106236,106253,106270,106286,106303,106320,106336,106354,106370,106387,106404,106420,106436,106453,106469,106487,106503,106520,106537,106553,106570,106587,106603,106620,106637,106653,106670,106686,106703,106720,106737,106752,106769,106786,106803,106820,106836,106853,106870,106886,106903,106920,106937,106953,106970,106987,107003,107020,107037,107053,107069,107087,107103,107120,107136,107153,107170,107187,107205,107218,107235,107253,107271,107287,107304,107320,107337,107354,107370,107386,107404,107420,107437,107453,107470,107487,107503,107520,107537,107552,107570,107586,107603,107620,107636,107653,107673,107686,107703,107720,107736,107753,107769,107788,107803,107820,107836,107853,107870,107887,107903,107920,107938,107953,107969,107986,108003,108020,108036,108056,108069,108086,108103,108120,108136,108153,108169,108186,108203,108219,108236,108253,108270,108286,108302,108320,108337,108354,108370,108386,108403,108419,108436,108453,108469,108486,108503,108520,108536,108553,108570,108587,108603,108619,108637,108653,108670,108685,108703,108720,108736,108753,108769,108787,108803,108820,108837,108856,108869,108885,108902,108921,108938,108953,108969,108986,109003,109020,109037,109053,109070,109086,109103,109120,109137,109153,109170,109186,109203,109219,109236,109253,109271,109288,109302,109319,109336,109354,109370,109387,109403,109420,109440,109453,109469,109487,109503,109520,109537,109553,109570,109586,109602,109620,109636,109653,109670,109688,109703,109720,109737,109753,109769,109786,109803,109820,109838,109853,109870,109886,109903,109923,109936,109953,109970,109987,110003,110020,110036,110054,110070,110087,110104,110120,110137,110154,110171,110187,110203,110221,110237,110254,110270,110288,110306,110320,110337,110353,110369,110387,110403,110420,110436,110453,110472,110487,110503,110519,110536,110554,110570,110586,110603,110619,110636,110653,110670,110687,110703,110720,110738,110754,110770,110787,110804,110820,110837,110854,110870,110887,110903,110920,110936,110953,110970,110987,111004,111020,111037,111053,111070,111087,111104,111120,111137,111153,111169,111187,111204,111219,111237,111253,111270,111287,111303,111322,111337,111353,111370,111387,111403,111420,111437,111453,111470,111487,111503,111520,111537,111553,111570,111587,111603,111620,111637,111654,111671,111687,111703,111720,111737,111754,111770,111786,111803,111820,111837,111853,111870,111887,111904,111945],"hit":[null],"x":[-1.8775510204081634,-1.8775510204081634,-1.8775510204081634,-1.8775510204081634,-1.8775510204081634,-1.8775510204081634,-1.8775510204081634,-1.8775510204081634,-1.8775510204081634,-1.8775510204081634,-1.8775510204081634,-1.8775510204081634,-1.8775510204081634,-1.8775510204081634,-1.8775510204081634,-1.8775510204081634,-1.8775510204081634,-1.8775510204081634,-0.6836734693877551,-0.6836734693877551,-0.6836734693877551,-0.6802721088435374,-0.6802721088435374,-0.6802721088435374,-0.6768707482993197,-0.6768707482993197,-0.673469387755102,-0.673469387755102,-0.6700680272108843,-0.6666666666666666,-0.6598639455782312,-0.6428571428571429,-0.6156462585034014,-0.564625850340136,-0.5,-0.4217687074829932,-0.336734693877551,-0.2755102040816326,-0.21428571428571427,-0.1836734693877551,-0.1564625850340136,-0.1360544217687075,-0.11904761904761904,-0.09863945578231292,-0.08503401360544217,-0.07482993197278912,-0.06802721088435375,-0.05102040816326531,-0.05102040816326531,-0.05102040816326531,-0.05102040816326531,-0.05102040816326531,-0.05102040816326531,-0.05102040816326531,-0.05102040816326531,-0.05102040816326531,-0.05102040816326531,-0.05102040816326531,-0.05102040816326531,-0.05102040816326531,-0.05102040816326531,-0.05102040816326531,-0.05102040816326531,-0.05102040816326531,-0.05102040816326531,-0.05102040816326531,-0.05102040816326531,-0.05102040816326531,-0.05102040816326531,-0.05102040816326531,-0.05102040816326531,-0.05102040816326531,-0.05102040816326531,-0.05102040816326531,-0.05102040816326531,-0.05102040816326531,-0.05102040816326531,-0.05102040816326531,-0.05102040816326531,-0.05102040816326531,-0.05102040816326531,-0.05102040816326531,-0.05102040816326531,-0.05102040816326531,-0.047619047619047616,-0.04421768707482993,-0.03741496598639456,-0.023809523809523808,0.013605442176870748,0.047619047619047616,0.08163265306122448,0.11904761904761904,0.14965986394557823,0.16666666666666666,0.1870748299319728,0.20068027210884354,0.21428571428571427,0.22789115646258504,0.23809523809523808,0.24829931972789115,0.2585034013605442,0.2619047619047619,0.2687074829931973,0.2755102040816326,0.2789115646258503,0.2891156462585034,0.29591836734693877,0.29931972789115646,0.30612244897959184,0.3129251700680272,0.3163265306122449,0.3231292517006803,0.32653061224489793,0.3299319727891156,0.3333333333333333,0.3333333333333333,0.336734693877551,0.3401360544217687,0.3435374149659864,0.3435374149659864,0.3469387755102041,0.3469387755102041,0.3469387755102041,0.3469387755102041,0.3469387755102041,0.3469387755102041,0.3469387755102041,0.3469387755102041,0.3469387755102041,0.3469387755102041,0.3469387755102041,0.3469387755102041,0.3469387755102041,0.3469387755102041,0.3469387755102041,0.3469387755102041,0.3469387755102041,0.35034013605442177,0.35374149659863946,0.36394557823129253,0.3707482993197279,0.37755102040816324,0.391156462585034,0.41156462585034015,0.4387755102040816,0.46598639455782315,0.48299319727891155,0.5034013605442177,0.5204081632653061,0.5340136054421769,0.54421768707483,0.5578231292517006,0.5578231292517006,0.5578231292517006,0.5578231292517006,0.5578231292517006,0.5578231292517006,0.5578231292517006,0.5578231292517006,0.5578231292517006,0.5578231292517006,0.5578231292517006,0.5578231292517006,0.5578231292517006,0.5578231292517006,0.5578231292517006,0.5578231292517006,0.5578231292517006,0.5578231292517006,0.5578231292517006,0.5578231292517006,0.5578231292517006,0.5578231292517006,0.5578231292517006,0.5578231292517006,0.5578231292517006,0.5578231292517006,0.564625850340136,0.5680272108843537,0.5782312925170068,0.6020408163265306,0.6530612244897959,0.6972789115646258,0.7380952380952381,0.7721088435374149,0.7891156462585034,0.8095238095238095,0.8231292517006803,0.8333333333333334,0.8435374149659864,0.8503401360544217,0.8571428571428571,0.8605442176870748,0.8673469387755102,0.8673469387755102,0.8707482993197279,0.8707482993197279,0.8707482993197279,0.8707482993197279,0.8707482993197279,0.8707482993197279,0.8707482993197279,0.8707482993197279,0.8707482993197279,0.8707482993197279,0.8707482993197279,0.8707482993197279,0.8707482993197279,0.8707482993197279,0.8707482993197279,0.8707482993197279,0.8707482993197279,0.8707482993197279,0.8707482993197279,0.8707482993197279,0.8707482993197279,0.8707482993197279,0.8707482993197279,0.8707482993197279,0.8707482993197279,0.8707482993197279,0.8707482993197279,0.8707482993197279,0.8707482993197279,0.8707482993197279,0.8707482993197279,0.8707482993197279,0.8707482993197279,0.8707482993197279,0.8707482993197279,0.8707482993197279,0.8707482993197279,0.8707482993197279,0.8707482993197279,0.8707482993197279,0.8707482993197279,0.8707482993197279,0.8707482993197279,0.8673469387755102,0.8673469387755102,0.8673469387755102,0.8673469387755102,0.8673469387755102,0.8673469387755102,0.8673469387755102,0.8741496598639455,0.8809523809523809,0.8877551020408163,0.8945578231292517,0.9013605442176871,0.9081632653061225,0.9115646258503401,0.9149659863945578,0.9217687074829932,0.9285714285714286,0.9319727891156463,0.95578231292517,0.9591836734693877,0.9591836734693877,0.95578231292517,0.9421768707482994,0.9319727891156463,0.9115646258503401,0.8809523809523809,0.8401360544217688,0.7993197278911565,0.7619047619047619,0.7312925170068028,0.7142857142857143,0.7074829931972789,0.7006802721088435,0.6972789115646258,0.6904761904761905,0.6836734693877551,0.673469387755102,0.6564625850340136,0.6360544217687075,0.6122448979591837,0.5952380952380952,0.5782312925170068,0.564625850340136,0.5476190476190477,0.5340136054421769,0.5136054421768708,0.4897959183673469,0.46258503401360546,0.43197278911564624,0.41496598639455784,0.4013605442176871,0.3877551020408163,0.37755102040816324,0.3707482993197279,0.3673469387755102,0.3673469387755102,0.3673469387755102,0.3673469387755102,0.37755102040816324,0.3877551020408163,0.4013605442176871,0.41496598639455784,0.4387755102040816,0.4557823129251701,0.47959183673469385,0.5,0.5238095238095238,0.5510204081632653,0.5714285714285714,0.5918367346938775,0.6020408163265306,0.6122448979591837,0.6156462585034014,0.6156462585034014,0.6190476190476191,0.6190476190476191,0.6224489795918368,0.6292517006802721,0.6394557823129252,0.6496598639455783,0.6564625850340136,0.6598639455782312,0.6666666666666666,0.6700680272108843,0.673469387755102,0.6802721088435374,0.6870748299319728,0.6938775510204082,0.6972789115646258,0.7006802721088435,0.7040816326530612,0.7040816326530612,0.7040816326530612,0.7040816326530612,0.7040816326530612,0.7040816326530612,0.7040816326530612,0.7040816326530612,0.7040816326530612,0.7040816326530612,0.7040816326530612,0.7040816326530612,0.7040816326530612,0.7040816326530612,0.7040816326530612,0.7040816326530612,0.7040816326530612,0.7040816326530612,0.7040816326530612,0.7040816326530612,0.7040816326530612,0.6904761904761905,0.6802721088435374,0.6632653061224489,0.6462585034013606,0.6326530612244898,0.6190476190476191,0.608843537414966,0.5986394557823129,0.5952380952380952,0.5884353741496599,0.5850340136054422,0.5782312925170068,0.5748299319727891,0.5714285714285714,0.5714285714285714,0.5714285714285714,0.5714285714285714,0.5714285714285714,0.5714285714285714,0.5714285714285714,0.5714285714285714,0.5714285714285714,0.5714285714285714,0.5714285714285714,0.5714285714285714,0.5714285714285714,0.5714285714285714,0.5714285714285714,0.5714285714285714,0.5714285714285714,0.5714285714285714,0.5714285714285714,0.5714285714285714,0.5714285714285714,0.5714285714285714,0.5714285714285714,0.5714285714285714,0.5714285714285714,0.5714285714285714,0.5714285714285714,0.5714285714285714,0.5714285714285714,0.5714285714285714,0.5714285714285714,0.5714285714285714,0.5714285714285714,0.5714285714285714,0.5714285714285714,0.5714285714285714,0.5714285714285714,0.5714285714285714,0.5714285714285714,0.5714285714285714,0.5714285714285714,0.5714285714285714,0.5714285714285714,0.5714285714285714,0.5714285714285714,0.5714285714285714,0.5714285714285714,0.5714285714285714,0.5714285714285714,0.5714285714285714,0.5714285714285714,0.5714285714285714,0.5714285714285714,0.5714285714285714,0.5714285714285714,0.5714285714285714,0.5714285714285714,0.5714285714285714,0.5714285714285714,0.5714285714285714,0.5714285714285714,0.5714285714285714,0.5714285714285714,0.5714285714285714,0.5714285714285714,0.5714285714285714,0.5714285714285714,0.5714285714285714,0.5714285714285714,0.5714285714285714,0.5714285714285714,0.5714285714285714,0.5714285714285714,0.5714285714285714,0.5714285714285714,0.5714285714285714,0.5714285714285714,0.5714285714285714,0.5714285714285714,0.5714285714285714,0.5714285714285714,0.5714285714285714,0.5714285714285714,0.5714285714285714,0.5714285714285714,0.5714285714285714,0.5714285714285714,0.5714285714285714,0.5714285714285714,0.5714285714285714,0.5714285714285714,0.5714285714285714,0.5714285714285714,0.5714285714285714,0.5714285714285714,0.5714285714285714,0.5714285714285714,0.5714285714285714,0.5714285714285714,0.5714285714285714,0.5714285714285714,0.5714285714285714,0.5714285714285714,0.5714285714285714,0.5714285714285714,0.5714285714285714,0.5714285714285714,0.5714285714285714,0.5714285714285714,0.5714285714285714,0.5714285714285714,0.5714285714285714,0.5714285714285714,0.5714285714285714,0.5714285714285714,0.5714285714285714,0.5714285714285714,0.5714285714285714,0.5714285714285714,0.5714285714285714,0.5714285714285714,0.5714285714285714,0.5714285714285714,0.5714285714285714,0.5714285714285714,0.5714285714285714,0.5714285714285714,0.5714285714285714,0.5714285714285714,0.5714285714285714,0.5714285714285714,0.5714285714285714,0.5714285714285714,0.5714285714285714,0.5714285714285714,0.5714285714285714,0.5714285714285714,0.5714285714285714,0.5714285714285714,0.5714285714285714,0.5714285714285714,0.5714285714285714,0.5714285714285714,0.5714285714285714,0.5714285714285714,0.5714285714285714,0.5714285714285714,0.5714285714285714,0.5714285714285714,0.5714285714285714,0.5714285714285714,0.5714285714285714,0.5714285714285714,0.5714285714285714,0.5714285714285714,0.5714285714285714,0.5714285714285714,0.5714285714285714,0.5714285714285714,0.5714285714285714,0.5714285714285714,0.5714285714285714,0.5714285714285714,0.5714285714285714,0.5714285714285714,0.5714285714285714,0.5714285714285714,0.5714285714285714,0.5714285714285714,0.5714285714285714,0.5714285714285714,0.5714285714285714,0.5714285714285714,0.5714285714285714,0.5714285714285714,0.5714285714285714,0.5714285714285714,0.5714285714285714,0.5714285714285714,0.5714285714285714,0.5748299319727891,0.5748299319727891,0.5748299319727891,0.5748299319727891,0.5748299319727891,0.5748299319727891,0.5748299319727891,0.5748299319727891,0.5782312925170068,0.5782312925170068,0.5782312925170068,0.5782312925170068,0.5782312925170068,0.5782312925170068,0.5782312925170068,0.5782312925170068,0.5782312925170068,0.5782312925170068,0.5782312925170068,0.5782312925170068,0.5782312925170068,0.5782312925170068,0.5782312925170068,0.5782312925170068,0.5782312925170068,0.5816326530612245,0.5816326530612245,0.5816326530612245,0.5816326530612245,0.5816326530612245,0.5816326530612245,0.5816326530612245,0.5816326530612245,0.5816326530612245,0.5816326530612245,0.5816326530612245,0.5850340136054422,0.5850340136054422,0.5850340136054422,0.5850340136054422,0.5850340136054422,0.5850340136054422,0.5850340136054422,0.5850340136054422,0.5850340136054422,0.5884353741496599,0.5884353741496599,0.5884353741496599,0.5884353741496599,0.5918367346938775,0.5918367346938775,0.5918367346938775,0.5952380952380952,0.5952380952380952,0.5952380952380952,0.5986394557823129,0.6020408163265306,0.6020408163265306,0.6054421768707483,0.608843537414966,0.6122448979591837,0.6156462585034014,0.6156462585034014,0.6190476190476191,0.6224489795918368,0.6224489795918368,0.6258503401360545,0.6258503401360545,0.6292517006802721,0.6292517006802721,0.6326530612244898,0.6326530612244898,0.6326530612244898,0.6360544217687075,0.6360544217687075,0.6360544217687075,0.6394557823129252,0.6394557823129252,0.6394557823129252,0.6428571428571429,0.6428571428571429,0.6428571428571429,0.6462585034013606,0.6462585034013606,0.6462585034013606,0.6496598639455783,0.6496598639455783,0.6530612244897959,0.6530612244897959,0.6564625850340136,0.6564625850340136,0.6564625850340136,0.6598639455782312,0.6598639455782312,0.6632653061224489,0.6632653061224489,0.6632653061224489,0.6666666666666666,0.6666666666666666,0.6666666666666666,0.6666666666666666,0.6700680272108843,0.6700680272108843,0.6700680272108843,0.6700680272108843,0.6700680272108843,0.6700680272108843,0.6700680272108843,0.6700680272108843,0.673469387755102,0.673469387755102,0.673469387755102,0.673469387755102,0.673469387755102,0.673469387755102,0.673469387755102,0.673469387755102,0.673469387755102,0.673469387755102,0.673469387755102,0.673469387755102,0.673469387755102,0.673469387755102,0.673469387755102,0.673469387755102,0.6700680272108843,0.6700680272108843,0.6700680272108843,0.6666666666666666,0.6632653061224489,0.6632653061224489,0.6598639455782312,0.6598639455782312,0.6598639455782312,0.6564625850340136,0.6564625850340136,0.6564625850340136,0.6530612244897959,0.6530612244897959,0.6530612244897959,0.6530612244897959,0.6496598639455783,0.6496598639455783,0.6496598639455783,0.6496598639455783,0.6462585034013606,0.6462585034013606,0.6428571428571429,0.6428571428571429,0.6394557823129252,0.6360544217687075,0.6292517006802721,0.6258503401360545,0.6190476190476191,0.6156462585034014,0.608843537414966,0.6054421768707483,0.5952380952380952,0.5918367346938775,0.5782312925170068,0.5714285714285714,0.5612244897959183,0.5510204081632653,0.5408163265306123,0.5306122448979592,0.5170068027210885,0.4931972789115646,0.47959183673469385,0.46258503401360546,0.4557823129251701,0.4489795918367347,0.4421768707482993,0.43537414965986393,0.43197278911564624,0.42517006802721086,0.4217687074829932,0.41836734693877553,0.41496598639455784,0.41156462585034015,0.40816326530612246,0.40476190476190477,0.40476190476190477,0.4013605442176871,0.3979591836734694,0.3945578231292517,0.391156462585034,0.3843537414965986,0.38095238095238093,0.37755102040816324,0.3741496598639456,0.3707482993197279,0.3707482993197279,0.3707482993197279,0.3707482993197279,0.3707482993197279,0.3741496598639456,0.3741496598639456,0.37755102040816324,0.37755102040816324,0.38095238095238093,0.38095238095238093,0.38095238095238093,0.38095238095238093,0.38095238095238093,0.3741496598639456,0.36394557823129253,0.35374149659863946,0.3469387755102041,0.3333333333333333,0.3231292517006803,0.29931972789115646,0.2857142857142857,0.272108843537415,0.2619047619047619,0.25170068027210885,0.24489795918367346,0.23809523809523808,0.23129251700680273,0.22789115646258504,0.22448979591836735,0.22108843537414966,0.21428571428571427,0.2108843537414966,0.20748299319727892,0.20748299319727892,0.20748299319727892,0.20748299319727892,0.20748299319727892,0.20748299319727892,0.20748299319727892,0.20748299319727892,0.2108843537414966,0.2108843537414966,0.21428571428571427,0.21428571428571427,0.22108843537414966,0.22108843537414966,0.22789115646258504,0.23129251700680273,0.23809523809523808,0.24489795918367346,0.25170068027210885,0.25510204081632654,0.2687074829931973,0.2857142857142857,0.30612244897959184,0.3333333333333333,0.36054421768707484,0.3945578231292517,0.41496598639455784,0.4387755102040816,0.4523809523809524,0.46258503401360546,0.46938775510204084,0.47619047619047616,0.47619047619047616,0.47619047619047616,0.47619047619047616,0.47619047619047616,0.47278911564625853,0.46938775510204084,0.46258503401360546,0.4557823129251701,0.4489795918367347,0.445578231292517,0.43537414965986393,0.4217687074829932,0.40816326530612246,0.3877551020408163,0.38095238095238093,0.3707482993197279,0.36394557823129253,0.35714285714285715,0.3469387755102041,0.3333333333333333,0.3129251700680272,0.2925170068027211,0.2755102040816326,0.25510204081632654,0.23809523809523808,0.22448979591836735,0.2108843537414966,0.20068027210884354,0.19387755102040816,0.1870748299319728,0.18027210884353742,0.17006802721088435,0.16666666666666666,0.16326530612244897,0.1598639455782313,0.1564625850340136,0.15306122448979592,0.15306122448979592,0.14965986394557823,0.14965986394557823,0.14965986394557823,0.14965986394557823,0.14965986394557823,0.14625850340136054,0.14625850340136054,0.14625850340136054,0.14285714285714285,0.14285714285714285,0.14285714285714285,0.13945578231292516,0.13945578231292516,0.13945578231292516,0.1360544217687075,0.1360544217687075,0.1326530612244898,0.1292517006802721,0.12244897959183673,0.11564625850340136,0.10884353741496598,0.09863945578231292,0.09183673469387756,0.08503401360544217,0.08163265306122448,0.07482993197278912,0.07142857142857142,0.06462585034013606,0.061224489795918366,0.05442176870748299,0.047619047619047616,0.04421768707482993,0.04081632653061224,0.03741496598639456,0.03741496598639456,0.034013605442176874,0.034013605442176874,0.034013605442176874,0.034013605442176874,0.034013605442176874,0.034013605442176874,0.034013605442176874,0.034013605442176874,0.034013605442176874,0.03741496598639456,0.03741496598639456,0.04081632653061224,0.04421768707482993,0.047619047619047616,0.05102040816326531,0.05442176870748299,0.05782312925170068,0.061224489795918366,0.06462585034013606,0.06802721088435375,0.06802721088435375,0.07142857142857142,0.07142857142857142,0.07482993197278912,0.08163265306122448,0.08843537414965986,0.09863945578231292,0.1054421768707483,0.11224489795918367,0.11904761904761904,0.12244897959183673,0.1292517006802721,0.1326530612244898,0.1360544217687075,0.13945578231292516,0.14285714285714285,0.14625850340136054,0.14965986394557823,0.1564625850340136,0.1598639455782313,0.16326530612244897,0.16666666666666666,0.17006802721088435,0.17346938775510204,0.17346938775510204,0.17687074829931973,0.18027210884353742,0.1836734693877551,0.1836734693877551,0.19047619047619047,0.19387755102040816,0.19727891156462585,0.20068027210884354,0.20748299319727892,0.21428571428571427,0.22108843537414966,0.22448979591836735,0.23129251700680273,0.24149659863945577,0.24829931972789115,0.2585034013605442,0.2653061224489796,0.2755102040816326,0.29591836734693877,0.30612244897959184,0.30952380952380953,0.3197278911564626,0.3231292517006803,0.32653061224489793,0.3299319727891156,0.336734693877551,0.3401360544217687,0.3435374149659864,0.35034013605442177,0.36394557823129253,0.36394557823129253,0.3741496598639456,0.3945578231292517,0.40476190476190477,0.41836734693877553,0.4387755102040816,0.46258503401360546,0.4931972789115646,0.5068027210884354,0.54421768707483,0.5680272108843537,0.5884353741496599,0.6020408163265306,0.6190476190476191,0.6292517006802721,0.6360544217687075,0.6394557823129252,0.6428571428571429,0.6428571428571429,0.6360544217687075,0.6224489795918368,0.6054421768707483,0.5884353741496599,0.5748299319727891,0.5510204081632653,0.5374149659863946,0.5238095238095238,0.5170068027210885,0.5102040816326531,0.5034013605442177,0.4965986394557823,0.4897959183673469,0.47619047619047616,0.46598639455782315,0.445578231292517,0.43197278911564624,0.4217687074829932,0.41156462585034015,0.40816326530612246,0.4013605442176871,0.4013605442176871,0.3979591836734694,0.3979591836734694,0.3979591836734694,0.3979591836734694,0.3979591836734694,0.3979591836734694,0.3979591836734694,0.3979591836734694,0.3979591836734694,0.3979591836734694,0.4013605442176871,0.4013605442176871,0.4013605442176871,0.4013605442176871,0.4013605442176871,0.40476190476190477,0.40476190476190477,0.40476190476190477,0.40476190476190477,0.40476190476190477,0.40476190476190477,0.40476190476190477,0.40476190476190477,0.40476190476190477,0.40476190476190477,0.40476190476190477,0.40476190476190477,0.40476190476190477,0.40476190476190477,0.40476190476190477,0.40476190476190477,0.40476190476190477,0.40476190476190477,0.40476190476190477,0.40476190476190477,0.40476190476190477,0.40476190476190477,0.40476190476190477,0.40476190476190477,0.40476190476190477,0.40476190476190477,0.40476190476190477,0.40476190476190477,0.40476190476190477,0.40476190476190477,0.40476190476190477,0.40476190476190477,0.40476190476190477,0.40476190476190477,0.40476190476190477,0.40476190476190477,0.40816326530612246,0.40816326530612246,0.40816326530612246,0.40816326530612246,0.40816326530612246,0.40816326530612246,0.40816326530612246,0.40816326530612246,0.40816326530612246,0.40816326530612246,0.40816326530612246,0.40816326530612246,0.40816326530612246,0.40816326530612246,0.41156462585034015,0.41156462585034015,0.41156462585034015,0.41156462585034015,0.41156462585034015,0.41156462585034015,0.41156462585034015,0.41156462585034015,0.41156462585034015,0.41156462585034015,0.41156462585034015,0.41156462585034015,0.41496598639455784,0.41496598639455784,0.41496598639455784,0.41496598639455784,0.41496598639455784,0.41496598639455784,0.41496598639455784,0.41496598639455784,0.41496598639455784,0.41496598639455784,0.41496598639455784,0.41496598639455784,0.41496598639455784,0.41496598639455784,0.41496598639455784,0.41496598639455784,0.41836734693877553,0.41836734693877553,0.41836734693877553,0.41836734693877553,0.41836734693877553,0.41836734693877553,0.41836734693877553,0.41836734693877553,0.41836734693877553,0.41836734693877553,0.41836734693877553,0.41836734693877553,0.41836734693877553,0.41836734693877553,0.41836734693877553,0.41836734693877553,0.41836734693877553,0.41836734693877553,0.41836734693877553,0.41836734693877553,0.41836734693877553,0.41836734693877553,0.41836734693877553,0.41836734693877553,0.41836734693877553,0.41836734693877553,0.41836734693877553,0.41836734693877553,0.41836734693877553,0.41836734693877553,0.41836734693877553,0.41836734693877553,0.41836734693877553,0.41836734693877553,0.41836734693877553,0.41836734693877553,0.41836734693877553,0.41836734693877553,0.4217687074829932,0.4217687074829932,0.4217687074829932,0.4217687074829932,0.4217687074829932,0.4217687074829932,0.4217687074829932,0.4217687074829932,0.4217687074829932,0.4217687074829932,0.4217687074829932,0.4217687074829932,0.4217687074829932,0.4217687074829932,0.4217687074829932,0.4217687074829932,0.4217687074829932,0.4217687074829932,0.4217687074829932,0.4217687074829932,0.4217687074829932,0.4217687074829932,0.4217687074829932,0.4217687074829932,0.42517006802721086,0.42517006802721086,0.42517006802721086,0.42517006802721086,0.42517006802721086,0.42517006802721086,0.42517006802721086,0.42517006802721086,0.42517006802721086,0.42517006802721086,0.42517006802721086,0.42517006802721086,0.42517006802721086,0.42517006802721086,0.42517006802721086,0.42517006802721086,0.42857142857142855,0.42857142857142855,0.42857142857142855,0.42857142857142855,0.43197278911564624,0.43197278911564624,0.4387755102040816,0.4489795918367347,0.4557823129251701,0.45918367346938777,0.46598639455782315,0.46938775510204084,0.47278911564625853,0.47619047619047616,0.47959183673469385,0.48639455782312924,0.4931972789115646,0.5034013605442177,0.5068027210884354,0.5238095238095238,0.54421768707483,0.5612244897959183,0.5748299319727891,0.5884353741496599,0.5986394557823129,0.6054421768707483,0.6190476190476191,0.6258503401360545,0.6394557823129252,0.6462585034013606,0.6564625850340136,0.6598639455782312,0.6666666666666666,0.6768707482993197,0.6938775510204082,0.7074829931972789,0.7312925170068028,0.7517006802721088,0.7789115646258503,0.8027210884353742,0.826530612244898,0.8435374149659864,0.8571428571428571,0.8707482993197279,0.8775510204081632,0.8809523809523809,0.8809523809523809,0.8843537414965986,0.8843537414965986,0.8843537414965986,0.8775510204081632,0.8707482993197279,0.8639455782312925,0.8571428571428571,0.8537414965986394,0.8537414965986394,0.8537414965986394,0.8537414965986394,0.8537414965986394,0.8537414965986394,0.8571428571428571,0.8639455782312925,0.8877551020408163,0.9387755102040817,1.08843537414966,1.2619047619047619,1.3265306122448979,1.370748299319728,1.4081632653061225,1.4217687074829932,1.4251700680272108,1.4251700680272108,1.4251700680272108,1.4251700680272108,1.4251700680272108,1.4217687074829932,1.4149659863945578,1.4047619047619047,1.3605442176870748,1.346938775510204,1.2789115646258504,1.2380952380952381,1.2142857142857142,1.1904761904761905,1.163265306122449,1.1462585034013606,1.129251700680272,1.1156462585034013,1.1088435374149659,1.1054421768707483,1.1020408163265305,1.098639455782313,1.098639455782313,1.098639455782313,1.098639455782313,1.1020408163265305,1.1054421768707483,1.1122448979591837,1.1224489795918366,1.129251700680272,1.1360544217687074,1.1428571428571428,1.1462585034013606,1.1496598639455782,1.1496598639455782,1.1496598639455782,1.153061224489796,1.153061224489796,1.153061224489796,1.153061224489796,1.1564625850340136,1.1564625850340136,1.1564625850340136,1.1564625850340136,1.1598639455782314,1.1598639455782314,1.1598639455782314,1.1598639455782314,1.1598639455782314,1.1598639455782314,1.1598639455782314,1.1598639455782314,1.1598639455782314,1.1598639455782314,1.1598639455782314,1.1598639455782314,1.1598639455782314,1.1598639455782314,1.1598639455782314,1.1598639455782314,1.1598639455782314,1.1598639455782314,1.1598639455782314,1.1598639455782314,1.1598639455782314,1.1598639455782314,1.1598639455782314,1.1598639455782314,1.1598639455782314,1.1598639455782314,1.1598639455782314,1.1598639455782314,1.1598639455782314,1.1598639455782314,1.1598639455782314,1.1598639455782314,1.1598639455782314,1.1598639455782314,1.1598639455782314,1.1598639455782314,1.1598639455782314,1.1598639455782314,1.1598639455782314,1.1598639455782314,1.1598639455782314,1.1598639455782314,1.1598639455782314,1.1598639455782314,1.1598639455782314,1.1598639455782314,1.1598639455782314,1.1598639455782314,1.1598639455782314,1.1598639455782314,1.1598639455782314,1.1598639455782314,1.1598639455782314,1.1598639455782314,1.1598639455782314,1.1598639455782314,1.1598639455782314,1.1598639455782314,1.1598639455782314,1.1598639455782314,1.1598639455782314,1.1598639455782314,1.1598639455782314,1.1598639455782314,1.1598639455782314,1.1598639455782314,1.1598639455782314,1.1598639455782314,1.1598639455782314,1.1598639455782314,1.1598639455782314,1.1598639455782314,1.1598639455782314,1.1598639455782314,1.1598639455782314,1.1598639455782314,1.1598639455782314,1.1598639455782314,1.1598639455782314,1.1598639455782314,1.1598639455782314,1.1598639455782314,1.1598639455782314,1.1598639455782314,1.1564625850340136,1.1564625850340136,1.1564625850340136,1.1564625850340136,1.1564625850340136,1.153061224489796,1.153061224489796,1.153061224489796,1.1496598639455782,1.1496598639455782,1.1462585034013606,1.1462585034013606,1.1462585034013606,1.1462585034013606,1.1428571428571428,1.1428571428571428,1.1428571428571428,1.1428571428571428,1.1428571428571428,1.1428571428571428,1.1428571428571428,1.1428571428571428,1.1428571428571428,1.1394557823129252,1.1394557823129252,1.1394557823129252,1.1394557823129252,1.1394557823129252,1.1394557823129252,1.1394557823129252,1.1394557823129252,1.1394557823129252,1.1394557823129252,1.1394557823129252,1.1394557823129252,1.1394557823129252,1.1394557823129252,1.1394557823129252,1.1394557823129252,1.1394557823129252,1.1394557823129252,1.1394557823129252,1.1394557823129252,1.1394557823129252,1.1394557823129252,1.1394557823129252,1.1394557823129252,1.1394557823129252,1.1394557823129252,1.1394557823129252,1.1394557823129252,1.1394557823129252,1.1394557823129252,1.1394557823129252,1.1394557823129252,1.1394557823129252,1.1394557823129252,1.1394557823129252,1.1394557823129252,1.1394557823129252,1.1394557823129252,1.1394557823129252,1.1394557823129252,1.1394557823129252,1.1394557823129252,1.1394557823129252,1.1394557823129252,1.1394557823129252,1.1394557823129252,1.1394557823129252,1.1394557823129252,1.1394557823129252,1.1394557823129252,1.1394557823129252,1.1394557823129252,1.1394557823129252,1.1394557823129252,1.1394557823129252,1.1394557823129252,1.1394557823129252,1.1394557823129252,1.1394557823129252,1.1394557823129252,1.1394557823129252,1.1394557823129252,1.1394557823129252,1.1394557823129252,1.1394557823129252,1.1394557823129252,1.1394557823129252,1.1394557823129252,1.1394557823129252,1.1394557823129252,1.1394557823129252,1.1394557823129252,1.1394557823129252,1.1394557823129252,1.1394557823129252,1.1394557823129252,1.1394557823129252,1.1394557823129252,1.1394557823129252,1.1394557823129252,1.1394557823129252,1.1394557823129252,1.1394557823129252,1.1394557823129252,1.1394557823129252,1.1394557823129252,1.1394557823129252,1.1394557823129252,1.1394557823129252,1.1394557823129252,1.1394557823129252,1.1394557823129252,1.1394557823129252,1.1394557823129252,1.1394557823129252,1.1394557823129252,1.1394557823129252,1.1394557823129252,1.1394557823129252,1.1394557823129252,1.1394557823129252,1.1394557823129252,1.1394557823129252,1.1394557823129252,1.1394557823129252,1.1394557823129252,1.1394557823129252,1.1394557823129252,1.1394557823129252,1.1394557823129252,1.1394557823129252,1.1394557823129252,1.1394557823129252,1.1394557823129252,1.1394557823129252,1.1394557823129252,1.1394557823129252,1.1394557823129252,1.1394557823129252,1.1394557823129252,1.1394557823129252,1.1394557823129252,1.1394557823129252,1.1394557823129252,1.1394557823129252,1.1394557823129252,1.1394557823129252,1.1394557823129252,1.1394557823129252,1.1394557823129252,1.1394557823129252,1.1394557823129252,1.1394557823129252,1.1394557823129252,1.1394557823129252,1.1394557823129252,1.1394557823129252,1.1394557823129252,1.1394557823129252,1.1394557823129252,1.1394557823129252,1.1394557823129252,1.1394557823129252,1.1394557823129252,1.1394557823129252,1.1394557823129252,1.1394557823129252,1.1394557823129252,1.1394557823129252,1.1394557823129252,1.1394557823129252,1.139455