[{"success":true,"trial_type":"fullscreen","trial_index":0,"time_elapsed":3328,"internal_node_id":"0.0-0.0","protocol_sum":"","subject_identifier":115,"subject_sum":[200,55,100,156,206,67,242,114,145,56,231,44,195,21,32,112,87,172,130,89,154,89,190,114,118,90,71,127,34,209,74,84],"subject_pair":57,"STUDY_ID":"669a702db1122fc5150a13ce","PROLIFIC_PID":"5d6513f46f5284000118ef1d","SESSION_ID":"669ac8470797f165bf7bfcf1","practice_instructions":1,"leaderboard_instructions":0,"bonus":0,"reveal_word":true,"self_rating":"5","confidence":"22"},{"view_history":"[{\"page_index\":0,\"viewing_time\":6380.0999999940395}]","rt":6380.300000011921,"trial_type":"instructions","trial_index":1,"time_elapsed":9709,"internal_node_id":"0.0-1.0","protocol_sum":"","subject_identifier":115,"subject_sum":[200,55,100,156,206,67,242,114,145,56,231,44,195,21,32,112,87,172,130,89,154,89,190,114,118,90,71,127,34,209,74,84],"subject_pair":57,"STUDY_ID":"669a702db1122fc5150a13ce","PROLIFIC_PID":"5d6513f46f5284000118ef1d","SESSION_ID":"669ac8470797f165bf7bfcf1","practice_instructions":1,"leaderboard_instructions":0,"bonus":0,"reveal_word":true,"self_rating":"5","confidence":"22"},{"view_history":"[{\"page_index\":0,\"viewing_time\":41883.5}]","rt":41883.70000001788,"trial_type":"instructions","trial_index":2,"time_elapsed":51593,"internal_node_id":"0.0-2.0-0.0","protocol_sum":"","subject_identifier":115,"subject_sum":[200,55,100,156,206,67,242,114,145,56,231,44,195,21,32,112,87,172,130,89,154,89,190,114,118,90,71,127,34,209,74,84],"subject_pair":57,"STUDY_ID":"669a702db1122fc5150a13ce","PROLIFIC_PID":"5d6513f46f5284000118ef1d","SESSION_ID":"669ac8470797f165bf7bfcf1","practice_instructions":1,"leaderboard_instructions":0,"bonus":0,"reveal_word":true,"self_rating":"5","confidence":"22"},{"rt":12459.40000000596,"responses":"{\"Q0\":\"... reveal the word with as <b>few letter guesses</b> as possible\"}","question_order":"[0]","trial_type":"survey-multi-choice","trial_index":3,"time_elapsed":64053,"internal_node_id":"0.0-2.0-1.0","protocol_sum":"","subject_identifier":115,"subject_sum":[200,55,100,156,206,67,242,114,145,56,231,44,195,21,32,112,87,172,130,89,154,89,190,114,118,90,71,127,34,209,74,84],"subject_pair":57,"correct":true,"test_part":"multichoice_nonpretend","STUDY_ID":"669a702db1122fc5150a13ce","PROLIFIC_PID":"5d6513f46f5284000118ef1d","SESSION_ID":"669ac8470797f165bf7bfcf1","practice_instructions":1,"leaderboard_instructions":0,"bonus":0,"reveal_word":true,"self_rating":"5","confidence":"22"},{"view_history":"[{\"page_index\":0,\"viewing_time\":1430.7999999821186}]","rt":1430.7999999821186,"trial_type":"instructions","trial_index":4,"time_elapsed":65484,"internal_node_id":"0.0-3.0","protocol_sum":"","subject_identifier":115,"subject_sum":[200,55,100,156,206,67,242,114,145,56,231,44,195,21,32,112,87,172,130,89,154,89,190,114,118,90,71,127,34,209,74,84],"subject_pair":57,"STUDY_ID":"669a702db1122fc5150a13ce","PROLIFIC_PID":"5d6513f46f5284000118ef1d","SESSION_ID":"669ac8470797f165bf7bfcf1","practice_instructions":1,"leaderboard_instructions":0,"bonus":0,"reveal_word":true,"self_rating":"5","confidence":"22"},{"word":"ZEBRA","click_log":{"letter":["","H","S","M","T","A","L","E","Z","B","R"],"t":[0,6597.300000011921,11880.100000023842,16694.30000001192,33718.10000002384,35673,44421.10000002384,46294.80000001192,49683,50491.30000001192,51798.90000000596],"hit":[null,0,0,0,0,1,0,1,1,1,1],"asked":["","H","HS","HSM","HSMT","HSMTA","HSMTAL","HSMTALE","HSMTALEZ","HSMTALEZB","HSMTALEZBR"],"word_state":["_____","_____","_____","_____","_____","____A","____A","_E__A","ZE__A","ZEB_A","ZEBRA"]},"hover_log":{"letter":["?","?","?","J","J","J","?","K","?","L","?","M","M","N","N","N","N","N","N","N","N","N","N","N","N","N","N","N","N","N","N","N","N","N","N","N","N","N","N","N","N","N","?","?","?","D","?","?","?","?","?","?","?","?","?","C","C","C","C","C","C","?","?","B","B","B","B","B","B","B","B","B","B","B","B","B","B","?","?","?","?","?","?","?","?","?","?","?","?","?","?","?","?","?","?","?","?","?","?","?","?","?","?","?","?","?","?","?","?","?","?","?","?","?","?","?","?","?","?","?","?","?","?","?","?","?","?","?","?","?","?","?","?","?","?","?","?","?","?","?","?","?","?","?","?","?","?","?","?","?","?","B","B","B","?","K","K","?","?","?","?","?","?","?","?","?","?","?","?","?","?","?","K","K","K","K","K","K","K","K","?","B","?","?","?","?","?","?","?","?","?","?","?","?","?","?","?","?","?","?","?","?","?","?","?","?","?","?","?","?","?","?","?","?","?","?","?","?","?","?","?","?","?","?","?","?","?","?","?","?","?","?","?","?","?","?","?","?","?","?","?","?","?","?","?","?","?","?","?","?","?","?","?","?","?","?","?","?","?","?","?","?","?","?","?","?","?","?","?","?","?","?","?","?","?","?","?","?","?","?","?","?","?","?","?","?","?","?","?","?","?","?","?","?","?","?","?","?","?","?","?","?","?","?","?","?","?","?","?","?","?","?","?","?","?","?","?","?","?","?","?","?","?","?","?","?","?","?","?","?","?","?","?","?","?","?","?","?","?","?","?","?","?","?","?","?","?","?","?","?","?","?","?","?","?","?","?","?","?","?","?","?","?","?","?","?","?","?","?","?","?","?","?","?","?","?","?","?","?","?","?","?","?","?","?","?","?","?","?","?","?","?","?","?","?","?","?","?","?","?","?","?","?","?","?","?","?","?","?","?","?","?","?","?","?","?","?","?","?","?","?","?","?","?","?","?","?","?","?","?","?","F","?","N","?","?","?","?","?","?","?","?","?","?","?","?","?","?","?","?","?","?","?","?","?","N","N","N","?","?","O","?","?","?","P","?","?","?","Q","Q","?","?","R","R","R","R","R","R","R","R","R","R","R","R","R","R","R","R","R","R","?","?","?","?","?","H","H","H","H","H","H","H","H","H","H","H","H","H","H","H","H","H","H","H","H","H","H","H","H","H","H","H","H","H","H","H","H","H","H","H","H","H","H","H","H","H","H","H","H","H","H","H","H","H","H","H","H","H","H","H","H","H","H","H","H","H","H","H","H","H","H","H","H","H","H","H","H","H","H","H","H","H","H","H","?","?","P","P","?","?","?","?","W","W","?","V","?","?","?","?","K","K","J","?","?","?","?","?","?","?","?","?","?","?","?","?","?","?","?","?","?","?","?","?","?","?","?","?","?","?","?","?","?","?","?","?","?","?","?","?","?","?","?","?","?","?","?","?","?","?","?","?","?","?","?","?","?","?","?","?","?","?","?","?","?","?","?","?","?","?","?","?","?","?","?","?","?","?","?","?","?","?","?","?","?","?","?","?","?","?","?","?","?","?","?","?","?","?","?","?","?","?","?","?","?","?","?","?","?","?","?","?","?","?","?","?","?","?","?","?","?","?","?","?","?","?","B","B","?","?","L","L","L","L","L","L","L","L","?","?","?","?","?","?","M","M","?","?","?","?","?","?","?","?","?","?","N","N","N","?","E","?","?","?","?","?","?","?","?","?","?","?","?","?","?","?","?","?","?","?","?","?","?","?","?","?","?","?","?","?","?","?","?","?","?","?","?","?","?","?","?","?","?","?","?","?","?","?","?","?","?","?","?","?","?","?","?","?","?","?","?","?","?","?","?","?","?","?","?","?","?","?","?","?","?","?","?","?","?","?","?","?","?","?","?","?","?","?","?","?","?","?","?","?","?","?","?","?","?","?","?","?","?","?","?","?","?","?","?","?","?","?","?","?","?","?","?","?","?","?","?","?","?","?","?","?","?","?","?","?","?","?","?","?","?","?","?","?","?","?","?","?","?","?","?","?","?","?","?","?","E","E","?","?","M","M","M","M","?","?","?","?","U","U","U","U","?","T","T","T","?","S","S","S","S","S","S","S","S","S","S","S","S","S","S","S","S","S","S","S","S","S","S","S","S","S","S","S","S","S","S","S","S","S","S","S","S","S","S","S","S","S","S","S","S","S","S","S","S","S","S","S","?","?","?","?","?","?","?","?","?","?","?","?","?","?","?","?","?","?","?","?","?","?","?","?","?","?","?","?","?","?","?","?","?","?","?","?","?","?","?","?","?","?","?","?","?","?","?","?","?","?","?","?","?","?","?","?","?","?","?","?","?","?","?","?","?","?","?","?","?","?","?","?","?","?","?","?","?","?","?","?","?","?","?","?","?","?","?","?","?","?","?","?","?","?","?","?","?","?","?","?","?","?","?","?","?","?","?","?","?","?","?","?","?","?","?","?","?","?","?","?","?","?","?","?","?","?","?","?","?","?","?","?","?","?","?","?","?","?","?","?","?","?","?","?","?","?","?","?","?","?","?","?","?","?","?","?","?","?","?","?","?","?","?","?","?","?","?","?","?","?","?","?","?","?","?","?","?","?","?","?","?","?","?","?","?","?","?","?","?","?","?","?","?","?","?","?","?","?","?","?","?","?","?","?","?","?","?","?","?","?","?","?","?","?","?","?","?","?","?","?","?","?","?","?","?","?","?","?","?","?","?","?","?","?","?","?","?","?","?","?","?","?","?","?","?","?","?","?","?","?","?","?","?","?","?","?","?","?","?","?","?","?","?","?","?","?","?","?","?","?","?","?","?","?","?","?","?","?","?","?","?","?","?","?","?","?","D","D","D","?","?","?","?","N","N","N","N","N","N","N","N","N","N","N","N","N","N","N","N","N","N","N","N","N","N","N","N","N","N","N","N","N","N","N","N","N","N","N","N","N","N","N","?","?","?","?","?","?","?","?","?","M","M","M","M","M","M","M","M","M","M","M","M","M","M","M","M","M","M","M","M","M","M","M","M","M","M","M","M","M","M","M","M","M","M","M","M","M","M","M","M","M","M","M","M","M","M","M","M","M","M","M","M","M","M","M","M","M","M","M","M","M","M","M","M","M","M","M","?","?","?","?","?","?","?","?","?","?","?","?","?","?","?","?","?","?","?","?","?","?","?","?","?","?","?","?","?","?","?","?","?","A","?","?","?","?","?","?","?","?","?","?","?","?","?","?","?","?","?","?","?","?","?","?","?","?","?","?","?","?","?","?","?","?","?","?","?","?","?","?","?","?","?","?","?","?","?","?","?","?","?","?","?","?","?","?","?","?","?","?","?","?","?","?","?","?","?","?","?","?","?","?","?","?","?","?","?","?","?","?","?","?","?","?","?","?","?","?","?","?","?","?","?","?","?","?","?","?","?","?","?","?","?","?","?","?","?","?","?","?","?","W","?","?","?","?","?","?","?","?","?","?","?","?","?","?","?","?","?","?","?","?","?","Z","Z","Z","?","?","?","?","?","P","P","P","P","P","P","P","P","P","P","P","P","P","P","P","P","P","P","P","P","P","P","P","P","P","P","P","P","P","P","P","P","P","P","P","P","P","P","P","P","P","P","P","P","P","P","P","P","P","P","P","P","P","P","P","P","P","P","P","P","P","P","P","P","P","P","P","P","P","P","P","P","P","P","P","?","Q","Q","Q","?","?","R","R","R","R","R","R","R","R","R","R","R","R","R","R","R","R","R","R","R","R","R","R","R","R","R","R","?","?","?","?","?","?","?","?","F","?","?","D","?","C","C","C","C","C","C","C","C","C","C","C","C","C","C","C","C","C","C","C","C","C","C","C","C","C","C","C","C","C","C","C","C","C","C","C","C","C","C","C","C","?","D","D","D","?","?","E","E","E","E","E","?","?","?","D","D","D","?","C","C","C","C","C","C","C","C","C","C","C","C","C","C","C","C","C","C","C","C","C","C","C","C","C","C","C","C","C","C","C","C","C","C","C","C","C","C","C","C","C","C","C","C","?","?","?","O","P","P","?","Q","Q","Q","Q","Q","Q","Q","Q","Q","Q","Q","Q","Q","Q","Q","Q","Q","Q","Q","Q","Q","Q","Q","Q","Q","Q","Q","Q","Q","?","P","P","P","O","O","N","?","?","?","?","?","?","?","?","?","?","?","C","C","C","C","C","C","C","C","C","C","C","C","C","C","C","C","?","?","?","?","B","B","B","B","B","B","B","B","B","B","B","B","B","B","B","B","B","B","B","B","B","B","B","B","B","B","B","B","B","B","B","B","B","B","B","B","B","B","B","B","B","B","B","B","B","B","B","B","B","B","B","B","B","B","B","B","B","B","B","B","B","B","B","B","B","B","B","B","B","B","B","B","B","B","B","B","B","B","B","B","B","B","B","B","B","B","B","B","B","B","B","B","B","B","B","B","B","B","B","B","B","B","B","B","B","B","B","B","B","B","B","B","B","B","B","B","B","B","B","B","B","B","B","B","B","B","B","B","B","B","B","B","B","B","B","B","B","B","B","B","B","B","B","B","B","B","B","B","B","B","B","B","B","B","B","B","B","B","B","B","B","B","B","B","B","B","B","B","B","B","B","B","B","B","B","B","B","B","B","B","B","B","B","B","B","B","?","?","?","?","?","?","?","?","?","?","?","?","?","?","?","?","?","?","?","?","?","?","?","?","?","?","?","?","?","?","?","?","?","?","?","?","?","?","?","?","?","?","?","?","?","?","?","?","?","?","?","?","?","?","?","?","?","?","?","?","?","?","?","?","?","?","?","?","?","?","?","?","?","?","?","?","?","?","?","?","?","?","?","?","?","?","?","?","?","?","?","?","?","?","?","?","?","?","?","?","?","?","?","?","?","?","?","?","?","?","?","?","?","?","?","?","?","?","?","?","?","?","?","?","?","?","?","?","?","?","?","?","?","?","?","?","?","?","?","?","?","?","?","?","?","?","?","?","?","?","?","?","?","?","?","?","?","?","?","?","?","G","G","G","G","G","?","?","?","?","?","?","?","?","N","N","?","M","M","M","M","M","M","M","M","M","M","M","M","M","?","?","?","?","?","?","?","?","?","?","?","?","?","?","?","?","?","?","?","?","?","?","?","?","?","?","?","?","?","?","?","?","?","?","?","?","?","?","?","?","?","?","?","?","?","?","?","?","?","?","?","?","?","?","?","?","?","?","?","?","?","?","?","?","?","?","?","?","?","?","?","?","?","?","?","?","?","?","?","?","?","?","?","?","?","?","?","?","?","?","?","?","?","?","?","?","?","?","?","?","?","?","?","?","?","?","?","?","?","?","?","?","?","?","?","?","?","?","?","?","?","?","?","?","?","?","?","?","?","?","?","?","?","?","?","?","?","?","?","?","?","?","?","?","?","?","?","?","?","?","?","L","L","L","L","L","L","L","L","L","L","L","L","L","L","L","L","L","L","L","L","L","L","L","L","L","?","?","?","?","?","?","?","?","?","?","?","?","?","?","?","?","?","?","?","?","?","?","?","?","?","?","?","?","?","?","?","?","?","?","?","?","?","?","?","?","?","?","?","?","?","?","?","?","?","?","?","?","?","?","?","?","?","?","?","?","?","?","?","?","?","?","?","?","?","?","?","?","?","?","?","?","?","?","?","?","?","?","?","?","?","?","?","?","?","?","?","?","?","?","?","?","?","?","?","?","?","?","?","?","?","?","?","?","?","?","?","?","?","?","?","?","?","?","?","?","?","?","?","?","?","?","?","?","?","?","?","?","?","?","?","?","?","?","?","?","?","?","?","?","?","?","?","?","?","?","?","?","?","?","?","?","?","?","?","?","?","?","?","?","?","?","?","?","?","?","?","?","?","?","?","?","?","?","?","?","?","?","?","?","?","?","?","?","?","?","?","?","?","?","?","?","?","?","?","?","?","U","U","U","U","U","?","?","?","?","?","?","?","?","?","?","?","?","?","?","?","?","?","?","?","?","?","?","?","?","?","?","?","T","T","T","T","T","T","T","T","T","T","T","T","T","T","T","T","T","T","T","T","T","T","T","T","T","T","T","T","T","T","T","T","T","T","T","T","T","T","T","T","T","T","T","T","T","T","T","T","T","T","T","T","T","T","T","T","T","T","T","T","T","T","T","T","T","T","T","T","T","T","T","T","T","T","T","T","T","T","T","T","T","T","T","T","T","T","T","T","T","T","T","?","?","J","?","?","?","?","?","?","?","?","?","?","?","?","?","?","?","?","?","?","?","?","?","?","?","?","?","?","?","?","?","?","?","?","?","?","?","?","?","?","?","?","?","?","?","?","?","?","?","?","?","?","?","?","?","?","?","?","?","?","?","?","?","?","?","?","?","?","?","?","?","?","?","?","?","?","?","?","?","?","?","?","?","?","?","?","?","?","?","?","?","?","?","?","?","?","?","?","?","?","?","?","?","?","?","?","?","?","?","?","?","?","?","?","?","?","?","?","?","?","?","?","A","A","A","A","A","A","A","A","A","A","A","A","A","A","A","A","A","A","A","A","A","A","A","A","?","?","?","?","?","?","?","?","?","?","?","?","?","?","?","?","?","?","?","?","?","?","?","?","?","?","?","?","?","?","?","?","?","?","?","?","?","?","?","?","?","?","?","?","?","?","?","?","?","?","?","?","?","?","?","?","?","?","?","?","?","?","?","?","?","?","?","?","?","?","?","?","?","?","?","?","?","?","?","?","?","?","?","?","?","?","?","?","?","?","?","?","?","?","?","?","?","?","A","A","A","A","A","A","B","?","C","D","?","E","F","?","?","?","?","?","?","?","?","?","?","?","?","?","?","?","?","?","?","?","?","?","?","?","?","?","?","?","?","?","?","?","?","?","?","?","?","?","?","?","?","?","?","?","?","?","?","?","?","?","?","?","?","?","?","?","?","?","?","?","?","?","?","?","?","?","?","?","?","?","?","?","?","?","?","?","?","?","?","?","?","?","?","?","?","?","?","?","?","?","?","?","?","?","?","?","?","?","?","?","?","?","?","?","?","?","?","?","?","?","?","?","?","?","?","?","?","?","?","?","?","?","?","?","?","?","?","?","?","?","?","?","?","?","?","?","?","?","?","?","?","?","?","?","?","?","?","?","?","?","?","?","?","?","?","?","?","?","?","?","?","?","?","?","?","?","?","?","?","?","?","?","?","?","?","?","?","?","?","?","?","?","?","?","?","?","?","?","?","?","?","?","?","?","?","?","?","?","?","?","?","?","?","?","?","?","?","?","?","?","?","?","?","?","?","?","?","?","?","?","?","?","?","?","?","?","?","?","?","?","?","?","?","?","?","?","?","?","?","?","?","?","?","?","?","?","?","?","?","?","?","?","?","?","?","?","?","?","?","?","?","?","?","?","?","?","?","?","?","?","?","?","?","?","?","?","?","?","?","?","?","?","?","?","?","?","?","?","?","?","?","?","?","?","?","?","?","?","?","?","?","?","?","?","?","?","?","?","?","?","?","?","?","?","?","?","?","?","?","?","?","?","?","?","?","?","?","?","?","?","?","?","?","?","?","?","?","?","?","?","?","?","?","?","?","?","?","?","?","?","?","?","?","?","?","?","?","?","?","?","?","?","?","?","?","?","?","?","?","?","?","?","?","?","?","?","?","?","?","?","?","?","?","?","?","?","?","?","?","?","?","?","?","?","?","?","?","?","?","?","?","?","?","?","?","?","?","?","?","?","?","?","?","?","?","?","?","?","?","?","?","?","?","?","?","?","E","E","?","?","?","?","?","?","?","?","?","?","?","?","?","?","?","?","?","?","?","?","?","?","?","E","E","E","E","E","E","E","E","?","?","?","?","?","?","?","?","?","?","?","?","?","?","?","?","E","E","E","E","?","?","?","?","?","?","?","?","?","?","?","?","?","?","?","?","?","?","?","?","?","?","?","?","?","?","?","?","?","?","?","?","?","?","?","?","?","?","?","?","?","?","?","?","?","?","?","?","?","?","?","?","?","?","?","?","?","?","?","?","?","?","?","?","?","?","D","D","D","D","D","D","D","D","?","?","?","?","?","?","?","?","?","?","?","?","?","?","?","?","?","L","L","L","L","L","L","L","L","L","L","L","L","L","L","L","L","L","L","L","L","L","L","L","L","L","L","L","L","L","L","L","L","L","L","L","L","L","L","L","L","L","L","L","L","L","L","L","L","L","L","L","L","L","L","L","L","L","L","L","L","L","L","L","?","?","?","?","E","?","?","?","?","?","?","?","?","?","?","?","?","?","?","?","?","?","?","?","?","?","?","?","?","?","?","?","?","?","?","?","?","?","?","?","?","?","?","?","?","?","?","?","?","?","?","?","?","?","?","?","?","?","?","?","?","?","?","?","?","?","?","?","?","?","?","?","?","?","?","?","?","?","?","?","?","?","?","?","?","?","?","?","?","?","?","?","E","E","E","E","E","E","E","E","E","E","E","E","E","E","E","E","E","E","E","E","E","E","E","E","E","E","E","E","E","E","E","E","?","?","?","?","?","?","?","?","?","?","?","?","?","?","?","?","?","?","?","?","?","?","?","?","?","?","?","?","?","?","?","?","?","?","?","?","?","?","?","?","?","?","?","?","?","?","?","?","?","?","?","?","?","?","?","?","?","?","?","?","?","?","?","?","?","?","?","?","?","?","?","?","?","?","?","?","?","?","?","?","?","?","?","?","?","?","?","?","?","?","?","?","?","?","?","?","?","?","?","?","?","?","?","?","?","?","?","?","?","?","?","?","?","?","?","?","?","?","?","?","?","?","?","?","?","?","?","?","?","?","?","?","?","?","?","?","?","?","?","?","?","?","?","?","?","?","?","?","?","?","?","?","?","?","?","?","?","?","?","?","?","?","?","?","?","D","D","?","?","L","L","L","L","L","L","L","L","L","L","L","L","L","L","L","L","L","L","L","L","?","?","?","?","?","?","?","?","?","?","?","B","B","B","B","B","B","?","?","?","L","M","?","W","X","?","?","Y","Y","Y","Y","?","?","?","?","?","?","?","?","?","?","?","?","?","?","?","?","?","?","?","?","Z","Z","Z","Z","Z","Z","Z","Z","Z","Z","Z","Z","Z","Z","Z","Z","Z","Z","Z","Z","Z","Z","Z","Z","Z","Z","Z","Z","Z","Z","Z","Z","Z","Z","Z","Z","Z","Z","Z","Z","Z","Z","Z","Z","Z","Z","?","?","O","N","?","?","C","C","?","B","B","B","B","B","B","B","B","B","B","B","B","B","B","B","B","B","B","B","B","B","B","B","B","B","B","B","B","B","B","B","B","B","B","B","B","B","B","B","B","B","B","B","B","B","B","B","B","B","B","?","?","?","?","?","?","L","L","M","M","M","?","?","?","?","?","?","?","?","?","?","?","?","?","?","?","?","?","?","?","?","?","?","?","?","?","?","?","?","?","?","?","?","?","?","?","?","?","P","P","P","P","P","P","P","P","P","?","Q","Q","Q","Q","Q","Q","Q","Q","Q","Q","?","?","R","R","R","R","R","?","?","R","R","R","R","R","R","R","R","R","R","R","R","R","R","R","R","R","R","R","R","R","R","R","R","R","R","R","R","R","R","R","R","R","R","R","R","R","R","R","?","?","?","G","?","?","?","?","?","?","?","?","?","?","?","?","?","?","?","?","?","?","?","?","?","?","?","?","?","?","?","?","?","?","?","?","?","?","?","?","?","?","?","?","?","?","?","?","?","?","?","?","?","?","?","?","?","?","?","?","?","?","?","?","?","?","?","?","?","?","?","?","?","?","?","?","?","?","?","?","?","?","?","?","?","?","?","?","?","?","?","?","?","?","?","?","?","?","?","?","?","?","?","?","?","?","?","?","?","?","?","?","?","?","?","?","?","?","?","?","?","?","?","?","?","?","?","?","?","?","?","?","?","?","?","?","?","?","?","?","?","?"],"t":[25,30,43,62,73,85,98,110,122,134,146,158,170,182,194,207,219,231,243,255,267,279,291,303,315,328,340,352,365,378,390,402,414,427,438,449,461,473,485,497,509,521,534,546,558,570,582,594,606,619,631,644,657,669,680,692,703,716,728,740,752,764,776,788,800,812,825,837,849,861,873,885,897,909,921,934,946,958,970,982,994,1006,1018,1031,1043,1055,1068,1079,1091,1103,1116,1128,1140,1153,1164,1176,1188,1200,1213,1225,1237,1249,1261,1273,1285,1298,1315,1327,1340,1352,1364,1377,1389,1401,1413,1425,1438,1449,1461,1473,1485,1497,1509,1521,1534,1546,1559,1572,1584,1596,1606,1618,1631,1643,1655,1667,1680,1693,1705,1721,1733,1746,1758,1770,1782,1794,1806,1818,1830,1843,1855,1867,1879,1891,1903,1915,1927,1940,1952,1964,1976,1988,2001,2013,2026,2038,2050,2061,2073,2085,2097,2110,2128,2140,2152,2164,2176,2188,2201,2213,2225,2237,2249,2261,2273,2285,2297,2309,2321,2333,2346,2358,2370,2383,2395,2407,2419,2431,2443,2456,2468,2479,2491,2503,2515,2527,2539,2552,2564,2576,2589,2601,2613,2625,2637,2649,2661,2673,2685,2697,2709,2721,2734,2746,2758,2770,2782,2794,2806,2818,2831,2843,2856,2873,2885,2897,2910,2922,2933,2946,2958,2970,2982,2994,3006,3019,3032,3044,3057,3067,3079,3091,3103,3115,3128,3140,3152,3164,3176,3189,3201,3213,3225,3237,3249,3261,3273,3285,3297,3309,3321,3334,3346,3359,3371,3383,3395,3407,3419,3431,3443,3455,3467,3479,3491,3503,3515,3527,3540,3552,3564,3576,3588,3600,3612,3624,3637,3649,3662,3675,3687,3699,3711,3723,3735,3747,3759,3771,3788,3800,3812,3824,3836,3849,3861,3873,3885,3898,3910,3927,3939,3952,3965,3982,3994,4006,4018,4030,4042,4055,4067,4079,4091,4104,4116,4129,4141,4154,4166,4177,4188,4201,4213,4225,4237,4249,4261,4273,4285,4297,4309,4321,4333,4346,4358,4370,4382,4394,4406,4418,4430,4443,4455,4468,4485,4497,4509,4521,4533,4546,4558,4571,4583,4595,4607,4619,4631,4643,4656,4668,4680,4692,4704,4716,4728,4740,4752,4764,4776,4788,4800,4812,4824,4837,4849,4861,4873,4885,4897,4909,4921,4934,4946,4959,4971,4983,4995,5007,5019,5031,5043,5055,5067,5081,5098,5110,5122,5134,5146,5158,5171,5188,5200,5213,5224,5237,5249,5261,5273,5285,5297,5309,5321,5334,5346,5358,5371,5388,5400,5412,5425,5437,5450,5462,5474,5485,5497,5509,5522,5533,5546,5558,5570,5588,5600,5612,5624,5636,5649,5661,5673,5685,5697,5709,5721,5733,5746,5758,5770,5782,5794,5806,5818,5830,5842,5855,5867,5879,5892,5905,5917,5927,5939,5951,5964,5978,5994,6006,6019,6031,6043,6055,6067,6079,6091,6104,6116,6128,6140,6152,6164,6177,6190,6202,6214,6224,6238,6255,6267,6281,6297,6309,6322,6334,6347,6359,6371,6383,6395,6407,6419,6431,6448,6461,6473,6485,6497,6509,6522,6534,6546,6558,6571,6583,6595,6607,6619,6631,6643,6655,6667,6680,6693,6706,6718,6730,6741,6753,6765,6777,6789,6801,6814,6826,6838,6855,6867,6879,6892,6910,6922,6935,6948,6960,6970,6982,6994,7007,7019,7032,7044,7057,7069,7079,7091,7103,7115,7127,7140,7152,7164,7176,7188,7200,7212,7225,7237,7249,7261,7273,7285,7297,7310,7328,7346,7358,7370,7383,7400,7412,7424,7436,7449,7461,7473,7485,7497,7509,7521,7534,7546,7558,7570,7582,7594,7606,7619,7632,7644,7657,7669,7681,7693,7705,7715,7727,7740,7752,7764,7776,7789,7801,7814,7826,7838,7851,7862,7879,7892,7909,7921,7934,7946,7958,7970,7982,7994,8006,8019,8031,8043,8055,8067,8079,8091,8104,8117,8129,8141,8153,8170,8182,8194,8206,8219,8231,8243,8255,8267,8279,8291,8303,8315,8327,8340,8352,8365,8378,8390,8400,8412,8424,8437,8449,8461,8473,8485,8497,8510,8522,8534,8546,8558,8570,8582,8594,8606,8618,8630,8643,8655,8667,8679,8693,8705,8717,8729,8740,8752,8764,8776,8789,8807,8819,8831,8843,8855,8867,8880,8892,8903,8915,8928,8940,8952,8964,8976,8988,9000,9014,9031,9049,9061,9073,9085,9097,9109,9121,9134,9146,9158,9170,9182,9196,9214,9231,9243,9255,9267,9279,9292,9309,9321,9333,9346,9358,9370,9382,9396,9414,9430,9443,9455,9467,9479,9491,9503,9515,9527,9540,9552,9564,9576,9588,9600,9614,9632,9649,9662,9675,9687,9699,9711,9721,9733,9746,9758,9770,9782,9795,9813,9831,9844,9856,9868,9880,9892,9904,9916,9927,9939,9952,9964,9976,9988,10000,10013,10026,10038,10050,10063,10073,10085,10099,10115,10128,10140,10152,10164,10176,10188,10201,10218,10231,10243,10255,10267,10279,10291,10303,10315,10327,10340,10352,10364,10376,10389,10401,10413,10425,10437,10449,10462,10473,10485,10497,10509,10521,10534,10546,10559,10571,10583,10596,10607,10618,10631,10643,10655,10667,10679,10691,10704,10716,10728,10740,10752,10764,10776,10788,10801,10812,10825,10837,10849,10861,10873,10885,10897,10911,10927,10940,10952,10964,10976,10988,11000,11012,11024,11036,11049,11061,11073,11085,11099,11116,11128,11140,11152,11164,11176,11188,11201,11212,11225,11243,11255,11273,11285,11297,11309,11321,11334,11346,11358,11370,11382,11394,11406,11418,11430,11443,11455,11467,11479,11491,11503,11516,11528,11540,11552,11564,11576,11588,11600,11614,11631,11642,11655,11667,11679,11691,11703,11717,11733,11745,11758,11770,11782,11794,11808,11824,11836,11849,11861,11873,11885,11897,11911,11927,11940,11952,11964,11976,11988,12000,12012,12025,12038,12050,12063,12074,12091,12103,12115,12127,12140,12152,12164,12176,12188,12200,12213,12231,12249,12267,12279,12291,12303,12315,12327,12339,12352,12364,12376,12389,12402,12414,12426,12438,12451,12463,12475,12486,12497,12509,12521,12534,12546,12559,12576,12590,12607,12620,12632,12643,12655,12667,12679,12691,12703,12716,12727,12740,12752,12764,12776,12788,12801,12813,12826,12838,12850,12862,12874,12886,12898,12911,12923,12935,12947,12959,12971,12983,12994,13006,13019,13031,13043,13055,13067,13080,13093,13105,13117,13129,13141,13153,13166,13178,13190,13200,13212,13226,13243,13255,13267,13279,13291,13303,13316,13329,13341,13354,13366,13378,13390,13402,13414,13424,13436,13449,13461,13473,13485,13497,13509,13522,13534,13547,13560,13572,13584,13596,13607,13625,13643,13655,13667,13679,13691,13703,13716,13733,13746,13758,13770,13782,13794,13806,13819,13832,13844,13855,13867,13879,13891,13903,13916,13929,13941,13954,13965,13976,13988,14000,14012,14026,14043,14055,14067,14079,14091,14103,14115,14128,14140,14153,14166,14178,14190,14202,14214,14231,14243,14255,14267,14279,14291,14303,14315,14328,14340,14352,14365,14378,14389,14400,14412,14426,14443,14455,14468,14485,14497,14509,14521,14535,14554,14571,14584,14596,14608,14620,14632,14644,14656,14669,14679,14691,14703,14715,14728,14740,14752,14764,14777,14789,14802,14814,14827,14838,14850,14863,14875,14887,14899,14911,14923,14935,14948,14958,14970,14982,14994,15007,15019,15031,15043,15055,15067,15079,15091,15103,15115,15128,15140,15153,15166,15176,15188,15200,15212,15225,15237,15249,15261,15273,15285,15297,15309,15321,15334,15346,15358,15371,15383,15396,15407,15419,15431,15443,15456,15468,15480,15491,15503,15515,15528,15540,15552,15564,15578,15590,15602,15614,15625,15637,15649,15661,15673,15685,15697,15709,15721,15735,15747,15764,15776,15789,15801,15813,15825,15837,15849,15861,15873,15887,15904,15916,15929,15941,15953,15965,15978,15989,16001,16013,16025,16038,16050,16061,16073,16085,16097,16109,16122,16134,16147,16159,16171,16184,16196,16208,16220,16237,16249,16261,16273,16285,16297,16309,16321,16334,16346,16359,16371,16383,16395,16407,16419,16432,16444,16456,16467,16479,16491,16503,16515,16527,16541,16558,16572,16584,16596,16614,16626,16638,16650,16662,16675,16687,16697,16709,16721,16734,16746,16759,16777,16790,16808,16821,16832,16844,16856,16869,16881,16893,16905,16917,16929,16941,16952,16964,16976,16988,17000,17013,17026,17038,17050,17063,17075,17086,17097,17109,17121,17134,17146,17158,17170,17182,17194,17206,17218,17230,17243,17255,17267,17279,17291,17303,17315,17327,17341,17358,17371,17384,17394,17406,17418,17430,17443,17461,17473,17485,17497,17510,17522,17534,17546,17558,17570,17583,17594,17607,17619,17631,17643,17655,17667,17679,17691,17703,17716,17727,17740,17752,17764,17776,17788,17800,17812,17824,17837,17850,17867,17879,17892,17905,17916,17928,17940,17952,17965,17976,17988,18000,18012,18025,18037,18050,18061,18074,18091,18103,18115,18127,18140,18152,18165,18182,18194,18207,18220,18232,18243,18255,18267,18279,18291,18303,18315,18327,18340,18353,18366,18378,18390,18400,18412,18424,18437,18449,18462,18474,18491,18503,18515,18527,18540,18552,18565,18578,18590,18602,18614,18630,18643,18655,18667,18679,18693,18705,18716,18727,18739,18752,18764,18776,18788,18800,18813,18825,18838,18850,18862,18875,18886,18898,18909,18922,18934,18946,18958,18970,18982,18994,19006,19018,19031,19043,19055,19068,19079,19091,19103,19115,19127,19140,19152,19164,19176,19188,19200,19212,19224,19237,19249,19261,19273,19285,19299,19315,19328,19339,19353,19370,19382,19394,19407,19419,19431,19444,19456,19469,19479,19491,19503,19515,19527,19540,19552,19564,19578,19590,19601,19613,19625,19637,19649,19662,19674,19687,19698,19710,19723,19735,19745,19758,19770,19782,19794,19806,19818,19830,19843,19855,19869,19881,19893,19905,19917,19929,19941,19954,19965,19977,19994,20006,20018,20030,20042,20055,20067,20079,20092,20105,20117,20129,20142,20154,20165,20176,20188,20200,20212,20225,20237,20249,20261,20273,20285,20297,20309,20321,20333,20345,20358,20370,20382,20395,20408,20420,20432,20444,20457,20469,20480,20497,20509,20521,20534,20546,20558,20571,20584,20596,20608,20620,20632,20643,20655,20667,20679,20691,20703,20716,20727,20739,20752,20764,20776,20788,20800,20812,20824,20836,20849,20861,20874,20887,20899,20911,20927,20939,20952,20964,20976,20988,21000,21013,21025,21038,21050,21063,21073,21085,21097,21109,21121,21134,21146,21158,21171,21184,21196,21207,21218,21230,21244,21261,21273,21285,21297,21309,21321,21333,21346,21358,21370,21382,21394,21407,21419,21431,21443,21455,21467,21479,21491,21504,21516,21528,21540,21552,21564,21576,21588,21601,21614,21626,21638,21650,21662,21675,21687,21699,21709,21723,21739,21752,21764,21777,21788,21800,21812,21824,21836,21849,21862,21880,21892,21904,21916,21928,21940,21952,21965,21976,21988,22000,22012,22024,22037,22049,22061,22073,22085,22097,22109,22121,22133,22145,22158,22170,22182,22195,22208,22220,22231,22248,22261,22275,22291,22303,22316,22328,22340,22358,22370,22383,22395,22408,22419,22430,22442,22455,22467,22479,22497,22509,22521,22533,22545,22558,22570,22582,22594,22606,22618,22630,22642,22655,22667,22679,22691,22703,22715,22727,22739,22752,22764,22776,22788,22800,22812,22824,22836,22849,22861,22873,22885,22897,22909,22922,22934,22946,22958,22970,22982,22994,23006,23019,23031,23044,23056,23068,23079,23092,23109,23121,23134,23145,23158,23170,23182,23195,23208,23218,23230,23242,23255,23267,23279,23292,23309,23322,23334,23346,23358,23371,23384,23396,23408,23420,23431,23448,23461,23473,23485,23497,23509,23522,23534,23545,23558,23570,23582,23594,23607,23619,23632,23644,23656,23668,23681,23693,23705,23715,23727,23739,23752,23764,23776,23788,23800,23812,23824,23837,23849,23861,23873,23885,23897,23909,23922,23933,23946,23958,23970,23983,23995,24007,24019,24031,24043,24055,24067,24079,24091,24103,24115,24127,24139,24151,24164,24176,24188,24200,24212,24224,24236,24248,24261,24273,24286,24303,24315,24327,24340,24352,24365,24377,24395,24412,24425,24437,24449,24463,24474,24486,24498,24515,24527,24539,24552,24564,24576,24589,24602,24614,24626,24638,24650,24661,24673,24686,24698,24710,24721,24733,24746,24758,24770,24784,24796,24808,24820,24832,24844,24861,24873,24885,24899,24917,24934,24947,24959,24976,24988,25000,25013,25025,25037,25049,25061,25073,25086,25104,25121,25134,25147,25159,25171,25184,25196,25208,25219,25236,25248,25261,25273,25285,25297,25309,25322,25339,25352,25364,25376,25388,25400,25412,25424,25437,25449,25461,25473,25485,25497,25509,25521,25533,25546,25558,25571,25582,25595,25607,25619,25632,25644,25656,25673,25685,25697,25709,25722,25741,25758,25770,25782,25795,25807,25819,25831,25843,25855,25867,25879,25891,25903,25915,25927,25939,25952,25964,25976,25988,26000,26012,26025,26037,26049,26061,26073,26085,26097,26110,26122,26134,26147,26159,26171,26182,26194,26206,26218,26230,26242,26255,26267,26279,26291,26303,26315,26327,26339,26352,26364,26376,26388,26401,26413,26425,26437,26449,26461,26473,26485,26498,26510,26522,26534,26546,26558,26570,26582,26594,26607,26625,26637,26649,26661,26673,26685,26697,26709,26721,26733,26746,26758,26770,26783,26795,26807,26819,26831,26843,26855,26867,26879,26892,26903,26915,26927,26940,26952,26964,26976,26988,27000,27012,27024,27036,27049,27061,27073,27085,27097,27109,27121,27134,27146,27158,27170,27183,27195,27207,27219,27231,27243,27255,27267,27279,27291,27303,27315,27327,27339,27351,27364,27376,27388,27400,27412,27424,27436,27449,27461,27473,27485,27497,27509,27522,27541,27558,27570,27582,27595,27608,27620,27632,27644,27657,27668,27679,27691,27704,27715,27729,27746,27758,27770,27782,27794,27807,27819,27831,27843,27856,27868,27880,27892,27903,27915,27927,27939,27951,27964,27976,27988,28001,28014,28026,28038,28050,28063,28074,28091,28103,28115,28128,28140,28151,28164,28176,28189,28208,28226,28243,28254,28267,28279,28291,28303,28315,28328,28341,28353,28365,28376,28388,28400,28414,28430,28443,28455,28467,28479,28491,28503,28515,28528,28540,28553,28565,28576,28588,28600,28614,28631,28651,28668,28681,28691,28703,28715,28728,28740,28753,28765,28777,28790,28802,28812,28824,28836,28848,28861,28873,28885,28899,28911,28923,28935,28946,28958,28970,28982,28995,29013,29030,29042,29055,29067,29079,29092,29105,29117,29129,29141,29153,29165,29178,29190,29206,29221,29237,29249,29261,29273,29285,29297,29309,29322,29339,29352,29364,29376,29388,29400,29412,29424,29436,29449,29461,29473,29485,29497,29509,29522,29534,29546,29559,29571,29583,29595,29607,29619,29631,29643,29655,29667,29680,29692,29704,29716,29728,29739,29751,29764,29776,29788,29801,29814,29826,29839,29851,29862,29874,29886,29898,29910,29922,29934,29946,29958,29970,29982,29994,30006,30018,30030,30043,30056,30069,30079,30091,30103,30116,30127,30139,30152,30164,30176,30189,30202,30214,30226,30237,30249,30261,30273,30285,30297,30309,30322,30340,30351,30364,30376,30388,30401,30414,30426,30437,30449,30461,30473,30485,30497,30509,30524,30540,30554,30565,30577,30589,30606,30618,30630,30643,30655,30668,30681,30691,30703,30715,30728,30747,30764,30776,30789,30800,30812,30824,30836,30849,30861,30874,30887,30899,30911,30923,30935,30947,30959,30970,30982,30994,31006,31018,31031,31049,31061,31074,31086,31099,31111,31123,31135,31147,31159,31171,31188,31200,31212,31225,31236,31248,31261,31274,31291,31303,31315,31329,31346,31359,31371,31384,31396,31408,31420,31432,31444,31454,31467,31479,31491,31503,31515,31529,31546,31559,31571,31584,31596,31608,31620,31632,31644,31656,31668,31680,31692,31704,31716,31728,31740,31752,31765,31777,31789,31801,31813,31826,31837,31848,31861,31873,31885,31897,31909,31921,31934,31947,31959,31971,31982,31994,32006,32018,32031,32043,32055,32067,32079,32091,32103,32115,32127,32140,32152,32164,32177,32190,32202,32214,32226,32236,32248,32261,32273,32285,32297,32309,32322,32334,32346,32358,32370,32382,32394,32406,32418,32431,32443,32455,32467,32479,32491,32509,32521,32534,32552,32564,32576,32588,32602,32614,32626,32638,32650,32663,32674,32687,32699,32710,32721,32734,32746,32758,32770,32782,32794,32806,32818,32831,32843,32855,32867,32880,32891,32903,32915,32927,32941,32958,32971,32982,32994,33006,33018,33030,33043,33055,33067,33079,33092,33105,33117,33129,33141,33153,33165,33177,33190,33202,33214,33226,33244,33261,33273,33286,33303,33315,33327,33340,33352,33364,33376,33388,33400,33412,33424,33436,33448,33461,33473,33485,33497,33509,33521,33533,33546,33558,33570,33583,33595,33608,33620,33632,33645,33656,33667,33679,33692,33704,33716,33727,33741,33759,33777,33789,33802,33814,33826,33838,33850,33862,33874,33887,33903,33915,33927,33940,33951,33964,33976,33988,34000,34012,34024,34036,34050,34068,34085,34097,34109,34121,34133,34146,34158,34171,34184,34196,34208,34220,34230,34242,34255,34267,34279,34291,34303,34315,34327,34340,34352,34365,34378,34390,34402,34414,34426,34438,34450,34462,34474,34486,34497,34509,34521,34533,34546,34558,34570,34582,34594,34607,34620,34632,34644,34656,34668,34681,34693,34705,34717,34729,34746,34758,34770,34782,34794,34807,34819,34831,34843,34855,34868,34881,34893,34905,34917,34929,34941,34954,34965,34977,34990,35006,35018,35030,35043,35055,35067,35079,35091,35103,35116,35128,35141,35153,35166,35177,35189,35200,35212,35224,35236,35249,35267,35285,35297,35309,35321,35333,35346,35359,35371,35384,35396,35408,35420,35431,35443,35455,35467,35479,35491,35503,35515,35527,35539,35552,35564,35576,35588,35600,35612,35624,35636,35649,35661,35673,35685,35697,35709,35721,35733,35746,35758,35770,35782,35794,35806,35818,35830,35843,35855,35867,35879,35891,35903,35916,35928,35941,35954,35965,35982,35994,36007,36019,36032,36042,36055,36068,36085,36097,36109,36121,36134,36146,36160,36172,36184,36196,36206,36218,36230,36244,36261,36275,36291,36303,36315,36327,36340,36352,36365,36378,36390,36402,36414,36426,36438,36450,36462,36473,36485,36497,36509,36521,36533,36545,36558,36570,36582,36594,36606,36618,36630,36642,36655,36667,36679,36691,36703,36715,36728,36740,36752,36764,36777,36789,36802,36814,36826,36838,36850,36863,36875,36887,36899,36911,36922,36934,36946,36958,36970,36982,36994,37006,37018,37030,37042,37055,37067,37079,37091,37103,37115,37127,37139,37152,37164,37176,37189,37201,37213,37224,37236,37248,37261,37279,37291,37303,37315,37327,37339,37351,37365,37382,37394,37406,37418,37430,37442,37455,37467,37479,37491,37503,37515,37528,37541,37553,37563,37576,37588,37600,37612,37624,37636,37649,37661,37673,37685,37697,37709,37721,37733,37745,37758,37770,37783,37796,37808,37820,37832,37843,37861,37873,37885,37897,37909,37921,37933,37946,37958,37970,37982,37994,38006,38018,38031,38043,38056,38066,38079,38091,38103,38115,38127,38140,38152,38165,38178,38190,38202,38213,38224,38236,38248,38261,38273,38285,38297,38309,38321,38334,38346,38358,38371,38384,38396,38408,38420,38432,38444,38456,38469,38480,38491,38503,38515,38527,38539,38552,38564,38576,38588,38600,38612,38624,38636,38649,38661,38673,38685,38698,38710,38721,38733,38745,38758,38770,38783,38796,38808,38819,38831,38843,38855,38867,38880,38893,38905,38917,38929,38941,38952,38964,38976,38988,39000,39013,39025,39037,39048,39061,39073,39085,39097,39109,39121,39133,39145,39157,39170,39182,39194,39206,39218,39231,39243,39255,39267,39279,39291,39303,39315,39327,39340,39352,39365,39378,39389,39401,39413,39425,39438,39450,39462,39473,39485,39497,39509,39521,39534,39547,39559,39572,39582,39594,39606,39618,39630,39642,39654,39667,39679,39691,39704,39716,39728,39741,39751,39763,39776,39788,39801,39813,39826,39837,39850,39862,39874,39886,39898,39910,39922,39934,39946,39959,39970,39982,39994,40006,40019,40031,40044,40056,40073,40085,40099,40115,40127,40139,40152,40164,40176,40189,40201,40213,40225,40238,40250,40261,40273,40285,40297,40309,40321,40333,40347,40364,40378,40390,40402,40414,40426,40438,40448,40460,40473,40485,40497,40509,40521,40533,40546,40558,40571,40584,40596,40606,40618,40630,40642,40654,40667,40679,40691,40703,40716,40733,40745,40758,40770,40783,40796,40808,40820,40832,40844,40856,40868,40881,40893,40905,40917,40929,40941,40952,40963,40976,40989,41008,41025,41038,41050,41062,41075,41086,41098,41110,41121,41133,41145,41157,41170,41182,41194,41206,41218,41230,41242,41254,41267,41279,41292,41309,41322,41334,41347,41359,41371,41384,41396,41407,41419,41431,41443,41456,41468,41480,41491,41503,41515,41527,41539,41552,41564,41577,41590,41602,41614,41624,41636,41648,41660,41673,41685,41697,41709,41721,41733,41746,41758,41771,41784,41796,41808,41820,41832,41844,41855,41867,41879,41891,41904,41916,41929,41941,41954,41965,41976,41989,42001,42013,42025,42037,42050,42062,42073,42085,42097,42109,42121,42133,42145,42157,42170,42182,42194,42206,42218,42230,42242,42255,42267,42279,42291,42303,42315,42327,42339,42351,42364,42376,42388,42400,42413,42426,42438,42450,42463,42475,42485,42497,42509,42522,42539,42551,42564,42576,42588,42600,42613,42625,42637,42649,42661,42673,42685,42697,42709,42721,42733,42745,42758,42770,42782,42794,42807,42820,42832,42844,42856,42868,42881,42893,42905,42916,42928,42939,42951,42964,42976,42988,43001,43018,43030,43043,43055,43068,43079,43091,43103,43115,43128,43141,43153,43170,43182,43194,43206,43218,43230,43242,43254,43267,43279,43291,43303,43315,43328,43341,43354,43366,43378,43390,43401,43413,43425,43437,43449,43461,43473,43485,43497,43509,43521,43534,43546,43558,43570,43583,43596,43608,43618,43630,43642,43654,43667,43679,43692,43704,43715,43727,43739,43751,43764,43776,43788,43800,43812,43824,43837,43849,43861,43873,43885,43897,43909,43921,43933,43946,43958,43970,43982,43994,44007,44024,44037,44050,44061,44073,44085,44097,44109,44121,44133,44146,44158,44170,44182,44194,44208,44224,44237,44248,44261,44273,44285,44297,44311,44329,44347,44364,44376,44388,44400,44413,44424,44437,44448,44461,44473,44485,44497,44509,44521,44533,44545,44558,44570,44582,44594,44606,44618,44631,44643,44656,44667,44679,44691,44703,44715,44727,44739,44751,44765,44782,44794,44807,44820,44832,44844,44856,44869,44881,44891,44903,44915,44927,44940,44952,44964,44982,44994,45006,45018,45030,45042,45055,45067,45079,45091,45104,45116,45128,45141,45153,45163,45176,45188,45200,45212,45224,45236,45248,45261,45273,45285,45297,45309,45321,45334,45346,45358,45370,45382,45394,45406,45418,45431,45443,45456,45468,45479,45491,45503,45515,45527,45540,45552,45565,45578,45590,45602,45613,45625,45637,45649,45661,45674,45685,45697,45709,45721,45734,45747,45759,45770,45782,45794,45806,45818,45830,45842,45855,45867,45880,45893,45904,45916,45934,45946,45958,45970,45982,45994,46006,46019,46036,46049,46061,46073,46085,46097,46109,46122,46134,46147,46159,46171,46183,46196,46207,46218,46230,46242,46254,46267,46279,46291,46303,46315,46329,46347,46365,46382,46394,46408,46427,46443,46455,46467,46479,46491,46503,46515,46527,46539,46552,46564,46576,46589,46602,46614,46626,46638,46650,46662,46675,46687,46697,46709,46721,46733,46746,46758,46771,46784,46794,46806,46818,46831,46843,46855,46867,46880,46893,46905,46917,46929,46939,46953,46970,46982,46994,47007,47020,47032,47044,47056,47068,47081,47093,47105,47117,47129,47141,47151,47163,47176,47188,47200,47212,47225,47236,47248,47260,47273,47285,47297,47309,47322,47335,47347,47359,47370,47382,47394,47406,47418,47430,47442,47455,47467,47479,47491,47503,47515,47527,47541,47559,47572,47584,47596,47607,47619,47631,47643,47655,47668,47680,47693,47703,47715,47727,47740,47752,47765,47777,47790,47802,47813,47824,47836,47848,47861,47873,47885,47897,47910,47923,47935,47947,47959,47971,47984,47996,48008,48020,48032,48043,48054,48067,48079,48091,48103,48116,48129,48141,48153,48165,48177,48190,48202,48213,48224,48236,48248,48261,48273,48285,48297,48309,48321,48334,48347,48359,48372,48384,48395,48406,48419,48431,48443,48455,48467,48479,48491,48503,48515,48527,48539,48551,48564,48576,48588,48600,48612,48625,48637,48649,48662,48674,48686,48698,48709,48721,48733,48745,48757,48770,48782,48794,48806,48818,48830,48842,48855,48867,48879,48891,48903,48915,48927,48939,48951,48964,48976,48988,49000,49012,49024,49036,49048,49061,49073,49085,49097,49109,49121,49135,49151,49164,49176,49188,49200,49212,49224,49237,49248,49261,49273,49285,49297,49309,49321,49334,49346,49358,49370,49382,49394,49406,49418,49430,49442,49454,49467,49479,49491,49503,49516,49528,49540,49552,49564,49576,49588,49600,49612,49625,49637,49649,49661,49673,49685,49697,49709,49722,49734,49746,49758,49770,49782,49794,49806,49819,49830,49843,49854,49867,49879,49891,49903,49915,49927,49939,49952,49964,49976,49988,50000,50013,50030,50043,50054,50067,50079,50091,50103,50115,50127,50140,50152,50164,50176,50188,50200,50212,50224,50237,50249,50261,50273,50285,50297,50309,50321,50333,50346,50358,50370,50382,50394,50406,50418,50430,50443,50455,50467,50479,50491,50503,50516,50528,50540,50552,50564,50576,50588,50600,50613,50625,50637,50649,50661,50673,50685,50698,50710,50721,50733,50746,50758,50770,50782,50794,50806,50818,50830,50843,50855,50867,50879,50891,50904,50916,50928,50940,50952,50964,50976,50988,51000,51012,51024,51037,51049,51061,51073,51085,51097,51109,51121,51133,51146,51158,51171,51188,51200,51212,51224,51236,51249,51261,51273,51285,51297,51309,51321,51334,51346,51358,51370,51382,51394,51406,51420,51437,51449,51461,51473,51485,51497,51509,51521,51534,51546,51558,51570,51582,51594,51606,51618,51630,51643,51655,51667,51679,51691,51703,51715,51727,51739,51751,51765,51782,51794,51807,51818,51830,51842,51855,51867,51879,51891,51903,51915,51927,51939,51952,51964,51976,51988,52000,52012,52024,52036,52049,52061,52073,52085,52097,52109,52121,52133,52145,52158,52170,52182,52194,52206,52218,52231,52242,52255,52267,52279,52291,52303,52315,52327,52339,52352,52364,52376,52388,52400,52412,52424,52436,52449,52461,52473,52485,52497,52509,52521,52533,52545,52558,52570,52582,52594,52606,52618,52630,52642,52655,52667,52679,52691,52703,52715,52727,52739,52752,52764,52776,52788,52800,52812,52824,52836,52848,52861,52873,52887,52903,52916,52933,52945,52958,52970,52982,52994,53006,53018,53030,53042,53055,53067,53079,53091,53103,53115,53127,53139,53152,53164,53176,53188,53200,53212,53224,53236,53249,53261,53274,53292,53309,53321,53333,53345,53358,53370,53382,53394,53406,53418,53430,53442,53455,53467,53479,53491,53503,53515,53527,53539,53551,53565,53582,53594,53606,53618,53630,53642,53654,53668,53685,53697,53709,53721,53733,53746,53758,53770,53782,53794,53807],"hit":[null],"x":[-1.804421768707483,-1.804421768707483,-1.804421768707483,0.028756957323778243,0.035559678412213615,0.04576376004486668,0.07297464439860818,0.13419913419452653,0.2022263450788803,0.2770562770516694,0.3518862090244585,0.41651205936459457,0.48453927024894833,0.542362399500649,0.5865800865754789,0.6103896103850027,0.6171923314734381,0.6171923314734381,0.6171923314734381,0.6171923314734381,0.6171923314734381,0.6171923314734381,0.6171923314734381,0.6171923314734381,0.6171923314734381,0.6171923314734381,0.6171923314734381,0.6171923314734381,0.6171923314734381,0.6171923314734381,0.6171923314734381,0.6171923314734381,0.6171923314734381,0.606988249840785,0.5899814471196966,0.5797773654870435,0.5797773654870435,0.5695732838543904,0.5491651205890844,0.5491651205890844,0.542362399500649,0.5253555967795606,0.49814471242581904,0.4573283858952068,0.41651205936459457,0.3858998144666354,0.36549165120132926,0.3552875695686762,0.3552875695686762,0.3552875695686762,0.3552875695686762,0.3552875695686762,0.3552875695686762,0.3552875695686762,0.3518862090244585,0.3382807668475878,0.324675324670717,0.3042671614054109,0.29066171922854017,0.26685219541901634,0.24304267160949253,0.21923314779996872,0.18862090290200953,0.15800865800405034,0.13419913419452653,0.1205936920176558,0.1171923314734381,0.1171923314734381,0.1171923314734381,0.1171923314734381,0.1171923314734381,0.11379097092922041,0.11038961038500274,0.10698824984078505,0.10018552875234968,0.09678416820813199,0.0899814471196966,0.08658008657547893,0.08317872603126124,0.08317872603126124,0.08317872603126124,0.08317872603126124,0.08317872603126124,0.08317872603126124,0.08317872603126124,0.08317872603126124,0.08317872603126124,0.08317872603126124,0.08317872603126124,0.08317872603126124,0.08317872603126124,0.08317872603126124,0.08317872603126124,0.08317872603126124,0.08317872603126124,0.08317872603126124,0.08317872603126124,0.08317872603126124,0.08317872603126124,0.08317872603126124,0.08317872603126124,0.07637600494282586,0.07297464439860818,0.07297464439860818,0.07297464439860818,0.07297464439860818,0.07297464439860818,0.07297464439860818,0.07297464439860818,0.06957328385439049,0.0661719233101728,0.06277056276595512,0.06277056276595512,0.05936920222173743,0.05936920222173743,0.06277056276595512,0.07297464439860818,0.08317872603126124,0.0899814471196966,0.0933828076639143,0.0933828076639143,0.0933828076639143,0.0933828076639143,0.0933828076639143,0.0933828076639143,0.0933828076639143,0.0933828076639143,0.0933828076639143,0.0933828076639143,0.0933828076639143,0.0933828076639143,0.0933828076639143,0.0933828076639143,0.0933828076639143,0.0933828076639143,0.0899814471196966,0.0899814471196966,0.08658008657547893,0.08658008657547893,0.07977736548704355,0.07977736548704355,0.07977736548704355,0.07977736548704355,0.07977736548704355,0.08658008657547893,0.0933828076639143,0.10358688929656736,0.1171923314734381,0.12739641310609118,0.13079777365030887,0.13760049473874422,0.1444032158271796,0.15120593691561499,0.15460729745983268,0.15460729745983268,0.15460729745983268,0.15460729745983268,0.15460729745983268,0.15800865800405034,0.15800865800405034,0.15800865800405034,0.15800865800405034,0.15800865800405034,0.15800865800405034,0.15800865800405034,0.15800865800405034,0.15800865800405034,0.15800865800405034,0.15800865800405034,0.15460729745983268,0.15460729745983268,0.15460729745983268,0.15120593691561499,0.15120593691561499,0.15120593691561499,0.15120593691561499,0.15120593691561499,0.15120593691561499,0.15120593691561499,0.15460729745983268,0.1682127396367034,0.18862090290200953,0.23283858997683946,0.26345083487479865,0.2838589981401048,0.2974644403169755,0.31787260358228164,0.324675324670717,0.324675324670717,0.324675324670717,0.324675324670717,0.324675324670717,0.32127396412649933,0.31787260358228164,0.31787260358228164,0.31787260358228164,0.31787260358228164,0.31447124303806395,0.3042671614054109,0.2872603586843225,0.26004947433058095,0.2226345083441864,0.1716141001809211,0.1444032158271796,0.1171923314734381,0.10698824984078505,0.10698824984078505,0.10698824984078505,0.10698824984078505,0.11379097092922041,0.13079777365030887,0.1682127396367034,0.23623995052105715,0.3484848484802408,0.4913419913373837,0.6682127396367035,0.8552875695686762,1.0321583178679958,1.161410018548268,1.2396413110652749,1.260049474330581,1.260049474330581,1.2498453926979278,1.2158317872557511,1.1273964131060912,1.0049474335142545,0.8518862090244586,0.6784168212693564,0.5083487940584721,0.3790970933782,0.2974644403169755,0.24644403215371022,0.24304267160949253,0.24304267160949253,0.24304267160949253,0.24304267160949253,0.24304267160949253,0.24304267160949253,0.24304267160949253,0.24304267160949253,0.2498453926979279,0.25664811378636326,0.25664811378636326,0.26345083487479865,0.26345083487479865,0.26685219541901634,0.26685219541901634,0.26685219541901634,0.26685219541901634,0.26685219541901634,0.270253555963234,0.270253555963234,0.270253555963234,0.270253555963234,0.270253555963234,0.270253555963234,0.2770562770516694,0.2872603586843225,0.3042671614054109,0.3348794063033701,0.3893011750108531,0.4573283858952068,0.5253555967795606,0.5763760049428258,0.6001855287523497,0.6239950525618735,0.6376004947387443,0.6376004947387443,0.6376004947387443,0.6376004947387443,0.6376004947387443,0.6376004947387443,0.6376004947387443,0.6376004947387443,0.6376004947387443,0.6239950525618735,0.606988249840785,0.5797773654870435,0.5253555967795606,0.4607297464394245,0.3824984539224177,0.31787260358228164,0.2838589981401048,0.270253555963234,0.26685219541901634,0.26345083487479865,0.26345083487479865,0.26345083487479865,0.2532467532421456,0.2498453926979279,0.24304267160949253,0.23623995052105715,0.2294372294326218,0.2260358688884041,0.2260358688884041,0.2260358688884041,0.2226345083441864,0.2226345083441864,0.2226345083441864,0.2226345083441864,0.2226345083441864,0.2226345083441864,0.2226345083441864,0.2226345083441864,0.2226345083441864,0.2226345083441864,0.2226345083441864,0.21923314779996872,0.21923314779996872,0.21923314779996872,0.2226345083441864,0.2260358688884041,0.23283858997683946,0.23623995052105715,0.24304267160949253,0.24644403215371022,0.2498453926979279,0.2532467532421456,0.26004947433058095,0.2804576375958871,0.29406307977275786,0.30766852194962857,0.31787260358228164,0.3348794063033701,0.3416821273918055,0.3450834879360231,0.3484848484802408,0.3552875695686762,0.3586889301128939,0.36209029065711157,0.36889301174554695,0.36889301174554695,0.36889301174554695,0.36889301174554695,0.36889301174554695,0.36889301174554695,0.36889301174554695,0.37229437228976464,0.37569573283398233,0.3790970933782,0.3858998144666354,0.3927025355550708,0.3995052566435061,0.3995052566435061,0.4063079777319415,0.4097093382761592,0.41651205936459457,0.42331478045302995,0.43011750154146533,0.433518862085683,0.44712430426255373,0.4607297464394245,0.48113790970473064,0.49814471242581904,0.5117501546026898,0.532158317867996,0.5457637600448667,0.5593692022217375,0.5695732838543904,0.5797773654870435,0.5899814471196966,0.5899814471196966,0.5933828076639143,0.5933828076639143,0.5933828076639143,0.5933828076639143,0.5933828076639143,0.5933828076639143,0.5933828076639143,0.5933828076639143,0.5933828076639143,0.5933828076639143,0.5933828076639143,0.5933828076639143,0.5933828076639143,0.596784168208132,0.596784168208132,0.6001855287523497,0.606988249840785,0.6171923314734381,0.6307977736503089,0.6444032158271796,0.6580086580040504,0.6682127396367035,0.6784168212693564,0.6852195423577918,0.6886209029020095,0.6988249845346626,0.7090290661673156,0.7226345083441864,0.7328385899768395,0.7430426716094926,0.7566481137863633,0.770253555963234,0.7770562770516694,0.780457637595887,0.780457637595887,0.780457637595887,0.780457637595887,0.780457637595887,0.780457637595887,0.780457637595887,0.780457637595887,0.780457637595887,0.7770562770516694,0.7770562770516694,0.7770562770516694,0.780457637595887,0.7838589981401047,0.7872603586843224,0.7974644403169755,0.8042671614054109,0.8110698824938463,0.8212739641264993,0.8348794063033701,0.8518862090244586,0.868893011745547,0.8927025355550707,0.9165120593645946,0.933518862085683,0.9403215831741184,0.9403215831741184,0.9403215831741184,0.9403215831741184,0.933518862085683,0.9199134199088123,0.9029066171877238,0.868893011745547,0.8348794063033701,0.7872603586843224,0.7328385899768395,0.6784168212693564,0.6171923314734381,0.542362399500649,0.48453927024894833,0.4573283858952068,0.43011750154146533,0.41651205936459457,0.41651205936459457,0.41651205936459457,0.41651205936459457,0.42331478045302995,0.42671614099724764,0.43011750154146533,0.433518862085683,0.44712430426255373,0.4607297464394245,0.47093382807207756,0.48113790970473064,0.48453927024894833,0.487940630793166,0.487940630793166,0.49814471242581904,0.5117501546026898,0.532158317867996,0.5525664811333021,0.5797773654870435,0.6035868892965673,0.6239950525618735,0.6580086580040504,0.6988249845346626,0.7430426716094926,0.7906617192285401,0.824675324670717,0.8518862090244586,0.8790970933782,0.9063079777319415,0.9505256648067715,0.998144712425819,1.0321583178679958,1.0593692022217374,1.0865800865754789,1.096784168208132,1.096784168208132,1.096784168208132,1.096784168208132,1.096784168208132,1.096784168208132,1.096784168208132,1.096784168208132,1.096784168208132,1.096784168208132,1.096784168208132,1.096784168208132,1.096784168208132,1.096784168208132,1.0933828076639143,1.0933828076639143,1.0899814471196967,1.0865800865754789,1.0797773654870435,1.0695732838543905,1.0593692022217374,1.042362399500649,1.0253555967795605,1.0049474335142545,0.998144712425819,0.987940630793166,0.987940630793166,0.987940630793166,0.987940630793166,0.987940630793166,0.987940630793166,0.987940630793166,0.987940630793166,0.9845392702489483,0.9845392702489483,0.9845392702489483,0.9845392702489483,0.9845392702489483,0.9845392702489483,0.9845392702489483,0.9845392702489483,0.9845392702489483,0.9845392702489483,0.9845392702489483,0.9845392702489483,0.9845392702489483,0.9845392702489483,0.9845392702489483,0.9845392702489483,0.9845392702489483,0.9845392702489483,0.9845392702489483,0.9845392702489483,0.9845392702489483,0.9845392702489483,0.9845392702489483,0.987940630793166,0.987940630793166,0.987940630793166,0.987940630793166,0.987940630793166,0.987940630793166,0.987940630793166,0.987940630793166,0.987940630793166,0.987940630793166,0.987940630793166,0.987940630793166,0.987940630793166,0.987940630793166,0.987940630793166,0.987940630793166,0.987940630793166,0.987940630793166,0.987940630793166,0.987940630793166,0.987940630793166,0.987940630793166,0.987940630793166,0.987940630793166,0.987940630793166,0.987940630793166,0.987940630793166,0.987940630793166,0.987940630793166,0.987940630793166,0.987940630793166,0.987940630793166,0.987940630793166,0.987940630793166,0.987940630793166,0.987940630793166,0.987940630793166,0.987940630793166,0.987940630793166,0.987940630793166,0.987940630793166,0.987940630793166,0.987940630793166,0.987940630793166,0.987940630793166,0.9845392702489483,0.9709338280720775,0.933518862085683,0.8824984539224177,0.8314780457591524,0.780457637595887,0.7260358688884041,0.6750154607251387,0.6205936920176558,0.5763760049428258,0.5287569573237783,0.48113790970473064,0.4369202226299007,0.3927025355550708,0.3450834879360231,0.29066171922854017,0.23283858997683946,0.1716141001809211,0.10698824984078505,0.02195423623534287,-0.08688930117962312,-0.17192331478506528,-0.20933828077145986,-0.22634508349254828,-0.23654916512520135,-0.23654916512520135,-0.22634508349254828,-0.20933828077145986,-0.18552875696193605,-0.16512059369662993,-0.14131106988710612,-0.12430426716601768,-0.11069882498914693,-0.10049474335649386,-0.10049474335649386,-0.10049474335649386,-0.10049474335649386,-0.10049474335649386,-0.10049474335649386,-0.10049474335649386,-0.10049474335649386,-0.10049474335649386,-0.10049474335649386,-0.09709338281227618,-0.09709338281227618,-0.09709338281227618,-0.09709338281227618,-0.09709338281227618,-0.09709338281227618,-0.09709338281227618,-0.09709338281227618,-0.09709338281227618,-0.09709338281227618,-0.09709338281227618,-0.09709338281227618,-0.09709338281227618,-0.09709338281227618,-0.09709338281227618,-0.09709338281227618,-0.09709338281227618,-0.09709338281227618,-0.09709338281227618,-0.09709338281227618,-0.09709338281227618,-0.09709338281227618,-0.09709338281227618,-0.09709338281227618,-0.09709338281227618,-0.09709338281227618,-0.09709338281227618,-0.09709338281227618,-0.09709338281227618,-0.09709338281227618,-0.09709338281227618,-0.09709338281227618,-0.09709338281227618,-0.09709338281227618,-0.09709338281227618,-0.09709338281227618,-0.09709338281227618,-0.09709338281227618,-0.09709338281227618,-0.09709338281227618,-0.09709338281227618,-0.09709338281227618,-0.09709338281227618,-0.09709338281227618,-0.09709338281227618,-0.09709338281227618,-0.09709338281227618,-0.09709338281227618,-0.09709338281227618,-0.09709338281227618,-0.09709338281227618,-0.09709338281227618,-0.09709338281227618,-0.09709338281227618,-0.09709338281227618,-0.09709338281227618,-0.09709338281227618,-0.09709338281227618,-0.09709338281227618,-0.09709338281227618,-0.09709338281227618,-0.09709338281227618,-0.09709338281227618,-0.09369202226805849,-0.09369202226805849,-0.0902906617238408,-0.0902906617238408,-0.08348794063540543,-0.08008658009118774,-0.07328385900275237,-0.06988249845853468,-0.0630797773700993,-0.05967841682588162,-0.056277056281663934,-0.056277056281663934,-0.046072974649010875,-0.03586889301635781,-0.022263450839487064,-0.0018552875741809404,0.015151515146907496,0.03215831786799593,0.04576376004486668,0.052566481133302055,0.052566481133302055,0.052566481133302055,0.052566481133302055,0.052566481133302055,0.052566481133302055,0.052566481133302055,0.052566481133302055,0.052566481133302055,0.052566481133302055,0.052566481133302055,0.052566481133302055,0.052566481133302055,0.05936920222173743,0.06277056276595512,0.0661719233101728,0.07297464439860818,0.08658008657547893,0.11038961038500274,0.15460729745983268,0.20902906616731565,0.25664811378636326,0.2974644403169755,0.324675324670717,0.3382807668475878,0.3416821273918055,0.3416821273918055,0.3416821273918055,0.3416821273918055,0.3416821273918055,0.3450834879360231,0.3484848484802408,0.3518862090244585,0.3552875695686762,0.36209029065711157,0.37229437228976464,0.3995052566435061,0.433518862085683,0.4641311069836422,0.49814471242581904,0.532158317867996,0.5525664811333021,0.5661719233101729,0.5695732838543904,0.5695732838543904,0.5695732838543904,0.5695732838543904,0.5695732838543904,0.5695732838543904,0.5695732838543904,0.5695732838543904,0.5593692022217375,0.5457637600448667,0.5253555967795606,0.49814471242581904,0.47093382807207756,0.4437229437183361,0.41651205936459457,0.3893011750108531,0.37229437228976464,0.36209029065711157,0.3484848484802408,0.3382807668475878,0.3348794063033701,0.3348794063033701,0.3348794063033701,0.3348794063033701,0.3348794063033701,0.3348794063033701,0.3348794063033701,0.3280766852149347,0.3280766852149347,0.3280766852149347,0.3280766852149347,0.3280766852149347,0.3280766852149347,0.3280766852149347,0.3280766852149347,0.3280766852149347,0.3280766852149347,0.324675324670717,0.324675324670717,0.324675324670717,0.324675324670717,0.324675324670717,0.324675324670717,0.324675324670717,0.324675324670717,0.324675324670717,0.324675324670717,0.324675324670717,0.324675324670717,0.31787260358228164,0.31787260358228164,0.31787260358228164,0.31787260358228164,0.31447124303806395,0.31447124303806395,0.31447124303806395,0.31447124303806395,0.31447124303806395,0.31447124303806395,0.31447124303806395,0.31447124303806395,0.31447124303806395,0.31447124303806395,0.31447124303806395,0.31447124303806395,0.31447124303806395,0.31447124303806395,0.31447124303806395,0.31447124303806395,0.31447124303806395,0.31447124303806395,0.31787260358228164,0.32127396412649933,0.32127396412649933,0.324675324670717,0.324675324670717,0.3348794063033701,0.3518862090244585,0.36889301174554695,0.3927025355550708,0.4097093382761592,0.4097093382761592,0.4097093382761592,0.4097093382761592,0.4097093382761592,0.4097093382761592,0.4097093382761592,0.4097093382761592,0.4097093382761592,0.4097093382761592,0.4097093382761592,0.4063079777319415,0.4063079777319415,0.4029066171877238,0.3995052566435061,0.3995052566435061,0.3995052566435061,0.3995052566435061,0.3995052566435061,0.3995052566435061,0.3995052566435061,0.3995052566435061,0.3995052566435061,0.3995052566435061,0.3995052566435061,0.3995052566435061,0.3995052566435061,0.3995052566435061,0.3995052566435061,0.3995052566435061,0.4063079777319415,0.42331478045302995,0.433518862085683,0.4437229437183361,0.4607297464394245,0.47093382807207756,0.47773654916051295,0.48113790970473064,0.48113790970473064,0.487940630793166,0.49814471242581904,0.5151515151469075,0.5287569573237783,0.542362399500649,0.5559678416775198,0.5695732838543904,0.5797773654870435,0.5899814471196966,0.5933828076639143,0.5933828076639143,0.5933828076639143,0.5933828076639143,0.5933828076639143,0.596784168208132,0.6035868892965673,0.6137909709292204,0.6205936920176558,0.6307977736503089,0.6376004947387443,0.6444032158271796,0.651205936915615,0.6614100185482681,0.6886209029020095,0.715831787255751,0.7396413110652749,0.770253555963234,0.7974644403169755,0.8110698824938463,0.814471243038064,0.814471243038064,0.814471243038064,0.814471243038064,0.8042671614054109,0.7872603586843224,0.760049474330581,0.7396413110652749,0.705627705623098,0.671614100180921,0.6341991341945266,0.5933828076639143,0.5525664811333021,0.5049474335142544,0.4607297464394245,0.43011750154146533,0.4029066171877238,0.3927025355550708,0.3790970933782,0.36209029065711157,0.3484848484802408,0.3348794063033701,0.31787260358228164,0.3042671614054109,0.2872603586843225,0.270253555963234,0.24644403215371022,0.21923314779996872,0.18521954235779184,0.15460729745983268,0.1171923314734381,0.07977736548704355,0.049165120589084364,0.025355596779560556,0.015151515146907496,0.008348794058472121,0.008348794058472121,0.0049474335142544335,-0.0018552875741809404,-0.008658008662616314,-0.018862090295269376,-0.022263450839487064,-0.02566481138370475,-0.02566481138370475,-0.02566481138370475,-0.02566481138370475,-0.02566481138370475,-0.02566481138370475,-0.02566481138370475,-0.02566481138370475,-0.02566481138370475,-0.02566481138370475,-0.02566481138370475,-0.02566481138370475,-0.02566481138370475,-0.02566481138370475,-0.02566481138370475,-0.02566481138370475,-0.02566481138370475,-0.02566481138370475,-0.02566481138370475,-0.02566481138370475,-0.02566481138370475,-0.022263450839487064,-0.022263450839487064,-0.022263450839487064,-0.022263450839487064,-0.022263450839487064,-0.022263450839487064,-0.022263450839487064,-0.022263450839487064,-0.022263450839487064,-0.022263450839487064,-0.022263450839487064,-0.022263450839487064,-0.022263450839487064,-0.022263450839487064,-0.022263450839487064,-0.022263450839487064,-0.022263450839487064,-0.02566481138370475,-0.02566481138370475,-0.02906617192792244,-0.032467532472140126,-0.0392702535605755,-0.046072974649010875,-0.05967841682588162,-0.06988249845853468,-0.08348794063540543,-0.09709338281227618,-0.11069882498914693,-0.12430426716601768,-0.13110698825445305,-0.13110698825445305,-0.1175015460775823,-0.10049474335649386,-0.0902906617238408,-0.08348794063540543,-0.08008658009118774,-0.07328385900275237,-0.07328385900275237,-0.07328385900275237,-0.07328385900275237,-0.06988249845853468,-0.06988249845853468,-0.06988249845853468,-0.06988249845853468,-0.06988249845853468,-0.06988249845853468,-0.06988249845853468,-0.06988249845853468,-0.06988249845853468,-0.06988249845853468,-0.06988249845853468,-0.06988249845853468,-0.06988249845853468,-0.06988249845853468,-0.06988249845853468,-0.06988249845853468,-0.06988249845853468,-0.06988249845853468,-0.06988249845853468,-0.06988249845853468,-0.06988249845853468,-0.06988249845853468,-0.06988249845853468,-0.06648113791431699,-0.06648113791431699,-0.06648113791431699,-0.06648113791431699,-0.06648113791431699,-0.06648113791431699,-0.06648113791431699,-0.06648113791431699,-0.06648113791431699,-0.06648113791431699,-0.06648113791431699,-0.06648113791431699,-0.06648113791431699,-0.06648113791431699,-0.06648113791431699,-0.06648113791431699,-0.06648113791431699,-0.06648113791431699,-0.06648113791431699,-0.06648113791431699,-0.06648113791431699,-0.06648113791431699,-0.06648113791431699,-0.06648113791431699,-0.06648113791431699,-0.06648113791431699,-0.06648113791431699,-0.06648113791431699,-0.06648113791431699,-0.06648113791431699,-0.06648113791431699,-0.06648113791431699,-0.06648113791431699,-0.06648113791431699,-0.06648113791431699,-0.06648113791431699,-0.06648113791431699,-0.06648113791431699,-0.06648113791431699,-0.06648113791431699,-0.06648113791431699,-0.06648113791431699,-0.06648113791431699,-0.06648113791431699,-0.06648113791431699,-0.06648113791431699,-0.06648113791431699,-0.06648113791431699,-0.06648113791431699,-0.06648113791431699,-0.06648113791431699,-0.06648113791431699,-0.06648113791431699,-0.06648113791431699,-0.06648113791431699,-0.06648113791431699,-0.06648113791431699,-0.06648113791431699,-0.06648113791431699,-0.06648113791431699,-0.06648113791431699,-0.06648113791431699,-0.06648113791431699,-0.06648113791431699,-0.06648113791431699,-0.06648113791431699,-0.06648113791431699,-0.06648113791431699,-0.06648113791431699,-0.06648113791431699,-0.06648113791431699,-0.06648113791431699,-0.06648113791431699,-0.06648113791431699,-0.06648113791431699,-0.06648113791431699,-0.06648113791431699,-0.06648113791431699,-0.06648113791431699,-0.0630797773700993,-0.05287569573744624,-0.018862090295269376,0.01855287569112518,0.05596784167751974,0.10018552875234968,0.13419913419452653,0.17841682126935648,0.2260358688884041,0.2872603586843225,0.31787260358228164,0.3416821273918055,0.3552875695686762,0.3552875695686762,0.3552875695686762,0.3552875695686762,0.3552875695686762,0.3552875695686762,0.3586889301128939,0.3586889301128939,0.3586889301128939,0.3586889301128939,0.3586889301128939,0.3586889301128939,0.3586889301128939,0.3586889301128939,0.3586889301128939,0.3586889301128939,0.3586889301128939,0.3586889301128939,0.3586889301128939,0.3586889301128939,0.3586889301128939,0.3586889301128939,0.3586889301128939,0.3586889301128939,0.3586889301128939,0.3586889301128939,0.3586889301128939,0.3586889301128939,0.3586889301128939,0.3586889301128939,0.3586889301128939,0.3586889301128939,0.3586889301128939,0.3586889301128939,0.3586889301128939,0.3586889301128939,0.3586889301128939,0.3586889301128939,0.3586889301128939,0.3586889301128939,0.3586889301128939,0.3586889301128939,0.3586889301128939,0.36209029065711157,0.36209029065711157,0.36209029065711157,0.36209029065711157,0.36209029065711157,0.36209029065711157,0.36209029065711157,0.36209029065711157,0.36209029065711157,0.36209029065711157,0.36209029065711157,0.36209029065711157,0.36209029065711157,0.36209029065711157,0.36209029065711157,0.36209029065711157,0.36209029065711157,0.36209029065711157,0.36209029065711157,0.36209029065711157,0.36209029065711157,0.36209029065711157,0.36209029065711157,0.36209029065711157,0.36209029065711157,0.36209029065711157,0.36209029065711157,0.36209029065711157,0.36209029065711157,0.36209029065711157,0.36209029065711157,0.36209029065711157,0.36209029065711157,0.36209029065711157,0.36209029065711157,0.36209029065711157,0.36209029065711157,0.36209029065711157,0.36209029065711157,0.36209029065711157,0.36209029065711157,0.36209029065711157,0.36209029065711157,0.36209029065711157,0.36209029065711157,0.36209029065711157,0.36209029065711157,0.36209029065711157,0.36209029065711157,0.36209029065711157,0.36209029065711157,0.36209029065711157,0.36209029065711157,0.36209029065711157,0.36209029065711157,0.36209029065711157,0.36209029065711157,0.36209029065711157,0.36209029065711157,0.36209029065711157,0.36209029065711157,0.36209029065711157,0.36209029065711157,0.36209029065711157,0.36209029065711157,0.36209029065711157,0.36209029065711157,0.36209029065711157,0.36209029065711157,0.36209029065711157,0.36209029065711157,0.36209029065711157,0.36209029065711157,0.36209029065711157,0.36209029065711157,0.36209029065711157,0.36209029065711157,0.36209029065711157,0.36209029065711157,0.36209029065711157,0.36209029065711157,0.36209029065711157,0.36209029065711157,0.36209029065711157,0.36209029065711157,0.36209029065711157,0.36209029065711157,0.36209029065711157,0.36209029065711157,0.36209029065711157,0.36209029065711157,0.36209029065711157,0.36209029065711157,0.36209029065711157,0.36209029065711157,0.36209029065711157,0.36209029065711157,0.36209029065711157,0.36209029065711157,0.36209029065711157,0.36209029065711157,0.36209029065711157,0.36209029065711157,0.36209029065711157,0.36209029065711157,0.36209029065711157,0.36209029065711157,0.36549165120132926,0.37229437228976464,0.3858998144666354,0.4029066171877238,0.42671614099724764,0.4539270253509891,0.48113790970473064,0.49814471242581904,0.5117501546026898,0.5151515151469075,0.5151515151469075,0.5151515151469075,0.5151515151469075,0.5151515151469075,0.5151515151469075,0.5151515151469075,0.5151515151469075,0.5151515151469075,0.5151515151469075,0.5151515151469075,0.5151515151469075,0.5151515151469075,0.5151515151469075,0.5151515151469075,0.5151515151469075,0.5151515151469075,0.5151515151469075,0.5151515151469075,0.5151515151469075,0.5151515151469075,0.5151515151469075,0.5151515151469075,0.5151515151469075,0.5151515151469075,0.5185528756911252,0.5185528756911252,0.5185528756911252,0.5185528756911252,0.5185528756911252,0.5185528756911252,0.5185528756911252,0.5185528756911252,0.5185528756911252,0.5185528756911252,0.5185528756911252,0.5185528756911252,0.5185528756911252,0.5151515151469075,0.5117501546026898,0.5049474335142544,0.49814471242581904,0.49474335188160135,0.4913419913373837,0.487940630793166,0.487940630793166,0.487940630793166,0.487940630793166,0.48453927024894833,0.48113790970473064,0.48113790970473064,0.48113790970473064,0.47773654916051295,0.47773654916051295,0.47773654916051295,0.47773654916051295,0.47433518861629526,0.47433518861629526,0.47093382807207756,0.4675324675278599,0.4641311069836422,0.4607297464394245,0.4607297464394245,0.4607297464394245,0.4607297464394245,0.4607297464394245,0.4607297464394245,0.4607297464394245,0.4607297464394245,0.4607297464394245,0.4607297464394245,0.4607297464394245,0.4607297464394245,0.4607297464394245,0.4607297464394245,0.4607297464394245,0.4607297464394245,0.4607297464394245,0.4607297464394245,0.4607297464394245,0.4607297464394245,0.4607297464394245,0.4607297464394245,0.4607297464394245,0.4607297464394245,0.4607297464394245,0.4607297464394245,0.4607297464394245,0.4607297464394245,0.4607297464394245,0.4607297464394245,0.4607297464394245,0.4607297464394245,0.4607297464394245,0.4607297464394245,0.4607297464394245,0.4607297464394245,0.4607297464394245,0.4607297464394245,0.4607297464394245,0.4607297464394245,0.4607297464394245,0.4607297464394245,0.4607297464394245,0.4607297464394245,0.4607297464394245,0.4607297464394245,0.4607297464394245,0.4607297464394245,0.4607297464394245,0.4607297464394245,0.4607297464394245,0.4607297464394245,0.4641311069836422,0.4641311069836422,0.47093382807207756,0.48113790970473064,0.48113790970473064,0.48113790970473064,0.48113790970473064,0.47093382807207756,0.4607297464394245,0.4539270253509891,0.4403215831741184,0.433518862085683,0.42671614099724764,0.42671614099724764,0.42671614099724764,0.42671614099724764,0.42671614099724764,0.42671614099724764,0.42671614099724764,0.42671614099724764,0.42671614099724764,0.42671614099724764,0.42671614099724764,0.42671614099724764,0.42671614099724764,0.42671614099724764,0.42671614099724764,0.42671614099724764,0.42671614099724764,0.42671614099724764,0.42671614099724764,0.3995052566435061,0.3348794063033701,0.21923314779996872,0.0899814471196966,-0.03586889301635781,-0.15831787260819455,-0.2705627705673782,-0.3726035868939088,-0.4610389610435687,-0.5086580086626163,-0.5290661719279225,-0.5358688930163578,-0.5358688930163578,-0.5358688930163578,-0.5358688930163578,-0.5256648113837048,-0.5086580086626163,-0.4916512059415279,-0.47124304267622175,-0.45423623995513335,-0.4372294372340449,-0.42022263451295644,-0.4066171923360857,-0.3896103896149973,-0.3828076685265619,-0.3828076685265619,-0.3828076685265619,-0.3828076685265619,-0.3828076685265619,-0.3794063079823442,-0.3794063079823442,-0.3794063079823442,-0.3794063079823442,-0.3794063079823442,-0.3760049474381265,-0.3760049474381265,-0.3760049474381265,-0.3760049474381265,-0.3760049474381265,-0.3760049474381265,-0.3760049474381265,-0.3760049474381265,-0.3760049474381265,-0.3760049474381265,-0.3760049474381265,-0.3760049474381265,-0.3760049474381265,-0.3760049474381265,-0.3760049474381265,-0.3760049474381265,-0.3760049474381265,-0.3760049474381265,-0.3760049474381265,-0.3760049474381265,-0.3760049474381265,-0.3760049474381265,-0.3760049474381265,-0.3760049474381265,-0.3760049474381265,-0.3760049474381265,-0.3760049474381265,-0.3760049474381265,-0.3760049474381265,-0.3760049474381265,-0.3760049474381265,-0.3760049474381265,-0.3760049474381265,-0.3726035868939088,-0.3726035868939088,-0.3726035868939088,-0.3726035868939088,-0.3726035868939088,-0.3726035868939088,-0.3726035868939088,-0.3726035868939088,-0.3726035868939088,-0.3726035868939088,-0.3726035868939088,-0.3726035868939088,-0.3726035868939088,-0.3726035868939088,-0.3726035868939088,-0.3726035868939088,-0.3726035868939088,-0.3726035868939088,-0.3726035868939088,-0.3726035868939088,-0.3726035868939088,-0.3726035868939088,-0.3726035868939088,-0.3726035868939088,-0.3726035868939088,-0.3726035868939088,-0.3726035868939088,-0.3726035868939088,-0.3726035868939088,-0.3726035868939088,-0.3726035868939088,-0.3726035868939088,-0.3726035868939088,-0.3726035868939088,-0.3726035868939088,-0.3726035868939088,-0.3726035868939088,-0.3726035868939088,-0.3726035868939088,-0.3726035868939088,-0.36920222634969113,-0.36239950526125575,-0.34199134199594966,-0.2773654916558136,-0.13790970934288843,0.10358688929656736,0.36209029065711157,0.6137909709292204,0.8178726035822816,0.987940630793166,1.1103896103850028,1.1818181818135742,1.1988249845346626,1.1988249845346626,1.1988249845346626,1.1988249845346626,1.1988249845346626,1.195423623990445,1.195423623990445,1.195423623990445,1.195423623990445,1.1886209029020096,1.1784168212693564,1.1682127396367035,1.151205936915615,1.1341991341945266,1.1205936920176558,1.106988249840785,1.0797773654870435,1.042362399500649,1.008348794058472,0.9777365491605129,0.9505256648067715,0.933518862085683,0.9131106988203769,0.8961038960992884,0.8790970933782,0.8586889301128939,0.8484848484802409,0.8416821273918055,0.8416821273918055,0.8348794063033701,0.8348794063033701,0.8348794063033701,0.8348794063033701,0.8348794063033701,0.8348794063033701,0.8348794063033701,0.8348794063033701,0.8348794063033701,0.8348794063033701,0.8348794063033701,0.8348794063033701,0.8348794063033701,0.8348794063033701,0.8348794063033701,0.8348794063033701,0.8348794063033701,0.8348794063033701,0.8348794063033701,0.8348794063033701,0.8348794063033701,0.8348794063033701,0.8348794063033701,0.8348794063033701,0.8348794063033701,0.8348794063033701,0.8348794063033701,0.8348794063033701,0.8348794063033701,0.8348794063033701,0.8348794063033701,0.8348794063033701,0.8348794063033701,0.8348794063033701,0.8348794063033701,0.8348794063033701,0.8348794063033701,0.8348794063033701,0.8348794063033701,0.8348794063033701,0.8348794063033701,0.8348794063033701,0.8348794063033701,0.8348794063033701,0.8348794063033701,0.8348794063033701,0.8348794063033701,0.8348794063033701,0.8348794063033701,0.8348794063033701,0.8348794063033701,0.8348794063033701,0.8348794063033701,0.8348794063033701,0.8348794063033701,0.8348794063033701,0.8348794063033701,0.8348794063033701,0.8348794063033701,0.8348794063033701,0.8348794063033701,0.8348794063033701,0.8348794063033701,0.8348794063033701,0.8348794063033701,0.8348794063033701,0.8348794063033701,0.8416821273918055,0.8552875695686762,0.8722943722897646,0.8995052566435061,0.9301175015414653,0.9675324675278599,0.998144712425819,1.0287569573237783,1.0593692022217374,1.0865800865754789,1.1103896103850028,1.1239950525618734,1.1239950525618734,1.1239950525618734,1.1239950525618734,1.1239950525618734,1.1239950525618734,1.1239950525618734,1.1239950525618734,1.1239950525618734,1.1239950525618734,1.1239950525618734,1.1239950525618734,1.1239950525618734,1.1239950525618734,1.1205936920176558,1.1205936920176558,1.1205936920176558,1.1171923314734382,1.1171923314734382,1.1137909709292204,1.1137909709292204,1.1137909709292204,1.1137909709292204,1.106988249840785,1.1035868892965675,1.0899814471196967,1.0695732838543905,1.042362399500649,1.0151515151469075,0.9845392702489483,0.9505256648067715,0.9029066171877238,0.8178726035822816,0.7090290661673156,0.6035868892965673,0.5117501546026898,0.43011750154146533,0.36889301174554695,0.31787260358228164,0.29406307977275786,0.29066171922854017,0.29066171922854017,0.29066171922854017,0.29066171922854017,0.29066171922854017,0.29066171922854017,0.29066171922854017,0.29066171922854017,0.29066171922854017,0.29066171922854017,0.29066171922854017,0.29066171922854017,0.29066171922854017,0.29066171922854017,0.29066171922854017,0.29066171922854017,0.29066171922854017,0.29066171922854017,0.29066171922854017,0.29066171922854017,0.29066171922854017,0.29066171922854017,0.29066171922854017,0.29066171922854017,0.29066171922854017,0.29066171922854017,0.29066171922854017,0.29066171922854017,0.29066171922854017,0.29066171922854017,0.29066171922854017,0.29066171922854017,0.29066171922854017,0.29066171922854017,0.29066171922854017,0.29066171922854017,0.29406307977275786,0.30766852194962857,0.3382807668475878,0.3824984539224177,0.41651205936459457,0.4437229437183361,0.47773654916051295,0.5083487940584721,0.5355596784122136,0.5389610389564313,0.5389610389564313,0.5389610389564313,0.5355596784122136,0.5219542362353429,0.5015460729700367,0.48113790970473064,0.4573283858952068,0.42671614099724764,0.3893011750108531,0.36209029065711157,0.3314780457591524,0.31106988249384626,0.2974644403169755,0.2974644403169755,0.2974644403169755,0.2974644403169755,0.2974644403169755,0.2974644403169755,0.2974644403169755,0.2974644403169755,0.2974644403169755,0.2974644403169755,0.2974644403169755,0.2974644403169755,0.2974644403169755,0.2974644403169755,0.2974644403169755,0.2974644403169755,0.2974644403169755,0.2974644403169755,0.2974644403169755,0.2974644403169755,0.2974644403169755,0.2974644403169755,0.2974644403169755,0.2974644403169755,0.2974644403169755,0.2974644403169755,0.2974644403169755,0.2974644403169755,0.29406307977275786,0.2838589981401048,0.2736549165074517,0.26345083487479865,0.26345083487479865,0.26345083487479865,0.26345083487479865,0.26345083487479865,0.26345083487479865,0.26345083487479865,0.26345083487479865,0.26345083487479865,0.2804576375958871,0.31787260358228164,0.3893011750108531,0.4913419913373837,0.596784168208132,0.6988249845346626,0.8008658008611932,0.8824984539224177,0.9369202226299007,0.9505256648067715,0.9505256648067715,0.9505256648067715,0.9505256648067715,0.9505256648067715,0.9505256648067715,0.9505256648067715,0.9505256648067715,0.9505256648067715,0.9505256648067715,0.9505256648067715,0.9505256648067715,0.9505256648067715,0.9505256648067715,0.9505256648067715,0.9505256648067715,0.9505256648067715,0.9505256648067715,0.9607297464394245,0.9641311069836422,0.9709338280720775,0.9777365491605129,0.9777365491605129,0.9777365491605129,0.9777365491605129,0.9777365491605129,0.9777365491605129,0.9743351886162952,0.9573283858952069,0.9369202226299007,0.8995052566435061,0.8586889301128939,0.8076685219496286,0.7430426716094926,0.6784168212693564,0.606988249840785,0.5491651205890844,0.49814471242581904,0.4607297464394245,0.43011750154146533,0.4063079777319415,0.3858998144666354,0.37229437228976464,0.36549165120132926,0.36209029065711157,0.3518862090244585,0.3450834879360231,0.3314780457591524,0.31787260358228164,0.2974644403169755,0.2872603586843225,0.2736549165074517,0.26345083487479865,0.25664811378636326,0.2532467532421456,0.2532467532421456,0.2498453926979279,0.24644403215371022,0.24644403215371022,0.24304267160949253,0.24304267160949253,0.23964131106527484,0.23623995052105715,0.2260358688884041,0.21243042671153334,0.2022263450788803,0.18862090290200953,0.18521954235779184,0.17841682126935648,0.1716141001809211,0.16141001854826803,0.15460729745983268,0.15120593691561499,0.15120593691561499,0.15120593691561499,0.15120593691561499,0.15120593691561499,0.15120593691561499,0.15120593691561499,0.15120593691561499,0.15120593691561499,0.15120593691561499,0.15120593691561499,0.15120593691561499,0.15120593691561499,0.15120593691561499,0.15120593691561499,0.15120593691561499,0.15120593691561499,0.15120593691561499,0.15120593691561499,0.15120593691561499,0.15120593691561499,0.15120593691561499,0.15120593691561499,0.15120593691561499,0.15120593691561499,0.15120593691561499,0.15120593691561499,0.15120593691561499,0.15120593691561499,0.15120593691561499,0.15120593691561499,0.15120593691561499,0.15120593691561499,0.15120593691561499,0.15120593691561499,0.15120593691561499,0.15120593691561499,0.15120593691561499,0.15120593691561499,0.1478045763713973,0.1478045763713973,0.1478045763713973,0.1478045763713973,0.1478045763713973,0.1478045763713973,0.1444032158271796,0.1444032158271796,0.1444032158271796,0.1444032158271796,0.1444032158271796,0.1444032158271796,0.1444032158271796,0.1444032158271796,0.1444032158271796,0.1444032158271796,0.1444032158271796,0.1444032158271796,0.1444032158271796,0.1444032158271796,0.1444032158271796,0.1444032158271796,0.1444032158271796,0.1444032158271796,0.1444032158271796,0.1444032158271796,0.1444032158271796,0.1444032158271796,0.1444032158271796,0.1444032158271796,0.1444032158271796,0.1444032158271796,0.1444032158271796,0.1444032158271796,0.1444032158271796,0.1444032158271796,0.1444032158271796,0.1444032158271796,0.1444032158271796,0.1444032158271796,0.1444032158271796,0.1444032158271796,0.1444032158271796,0.1444032158271796,0.1444032158271796,0.1444032158271796,0.1444032158271796,0.1444032158271796,0.1444032158271796,0.1444032158271796,0.1444032158271796,0.1444032158271796,0.1444032158271796,0.1444032158271796,0.1444032158271796,0.1444032158271796,0.1444032158271796,0.1444032158271796,0.1444032158271796,0.1444032158271796,0.1444032158271796,0.1444032158271796,0.1444032158271796,0.1444032158271796,0.1444032158271796,0.1444032158271796,0.1444032158271796,0.1444032158271796,0.1444032158271796,0.1444032158271796,0.1444032158271796,0.1444032158271796,0.1444032158271796,0.1444032158271796,0.1444032158271796,0.1444032158271796,0.1444032158271796,0.1444032158271796,0.1444032158271796,0.1444032158271796,0.1444032158271796,0.1444032158271796,0.1444032158271796,0.1444032158271796,0.1444032158271796,0.1444032158271796,0.1444032158271796,0.1444032158271796,0.1444032158271796,0.1444032158271796,0.1444032158271796,0.1444032158271796,0.1444032158271796,0.1444032158271796,0.1444032158271796,0.1444032158271796,0.1444032158271796,0.1444032158271796,0.1444032158271796,0.1444032158271796,0.1444032158271796,0.1444032158271796,0.1444032158271796,0.1444032158271796,0.1444032158271796,0.1444032158271796,0.1444032158271796,0.1444032158271796,0.1444032158271796,0.1444032158271796,0.1444032158271796,0.1444032158271796,0.1444032158271796,0.1444032158271796,0.1444032158271796,0.1444032158271796,0.1444032158271796,0.1444032158271796,0.1444032158271796,0.1444032158271796,0.1444032158271796,0.1444032158271796,0.1444032158271796,0.1444032158271796,0.1444032158271796,0.1444032158271796,0.1444032158271796,0.1444032158271796,0.1444032158271796,0.1444032158271796,0.1444032158271796,0.1444032158271796,0.1444032158271796,0.1444032158271796,0.1444032158271796,0.1444032158271796,0.1444032158271796,0.1444032158271796,0.1444032158271796,0.1444032158271796,0.1444032158271796,0.15460729745983268,0.1682127396367034,0.18862090290200953,0.21583178725575103,0.21923314779996872,0.2260358688884041,0.2260358688884041,0.2260358688884041,0.2260358688884041,0.2260358688884041,0.2260358688884041,0.2260358688884041,0.2260358688884041,0.2260358688884041,0.2260358688884041,0.2260358688884041,0.2260358688884041,0.2260358688884041,0.2260358688884041,0.2260358688884041,0.2260358688884041,0.2260358688884041,0.2260358688884041,0.2260358688884041,0.2260358688884041,0.2260358688884041,0.2260358688884041,0.2260358688884041,0.2260358688884041,0.23964131106527484,0.26345083487479865,0.2838589981401048,0.2974644403169755,0.30766852194962857,0.31787260358228164,0.31787260358228164,0.31787260358228164,0.32127396412649933,0.324675324670717,0.3348794063033701,0.3484848484802408,0.3586889301128939,0.36889301174554695,0.3824984539224177,0.3893011750108531,0.3927025355550708,0.3961038960992884,0.3961038960992884,0.3961038960992884,0.3961038960992884,0.3961038960992884,0.3961038960992884,0.3961038960992884,0.3961038960992884,0.3961038960992884,0.3961038960992884,0.4029066171877238,0.4097093382761592,0.42331478045302995,0.433518862085683,0.44712430426255373,0.4573283858952068,0.4641311069836422,0.4675324675278599,0.4675324675278599,0.4675324675278599,0.4675324675278599,0.47093382807207756,0.48113790970473064,0.4913419913373837,0.5083487940584721,0.5185528756911252,0.5355596784122136,0.5457637600448667,0.5559678416775198,0.5593692022217375,0.5627705627659552,0.5695732838543904,0.5695732838543904,0.5695732838543904,0.5695732838543904,0.5695732838543904,0.5695732838543904,0.5695732838543904,0.5695732838543904,0.5695732838543904,0.5695732838543904,0.5695732838543904,0.5695732838543904,0.5763760049428258,0.5899814471196966,0.6035868892965673,0.6171923314734381,0.6273964131060912,0.6341991341945266,0.6410018552829619,0.6444032158271796,0.651205936915615,0.6580086580040504,0.6648113790924858,0.6784168212693564,0.6886209029020095,0.6954236239904449,0.705627705623098,0.7226345083441864,0.7362399505210572,0.7532467532421456,0.7634508348747987,0.770253555963234,0.770253555963234,0.770253555963234,0.7668521954190164,0.760049474330581,0.760049474330581,0.760049474330581,0.760049474330581,0.760049474330581,0.760049474330581,0.760049474330581,0.760049474330581,0.760049474330581,0.760049474330581,0.7668521954190164,0.770253555963234,0.7770562770516694,0.780457637595887,0.7838589981401047,0.7838589981401047,0.7872603586843224,0.7872603586843224,0.7872603586843224,0.7906617192285401,0.7974644403169755,0.7974644403169755,0.8076685219496286,0.814471243038064,0.8280766852149347,0.8484848484802409,0.8654916512013293,0.8790970933782,0.889301175010853,0.8961038960992884,0.9063079777319415,0.9131106988203769,0.9199134199088123,0.9199134199088123,0.9267161409972476,0.9267161409972476,0.9267161409972476,0.9267161409972476,0.9267161409972476,0.9267161409972476,0.9267161409972476,0.9267161409972476,0.9267161409972476,0.9267161409972476,0.92331478045303,0.9165120593645946,0.8995052566435061,0.8824984539224177,0.868893011745547,0.8586889301128939,0.8416821273918055,0.8280766852149347,0.8212739641264993,0.814471243038064,0.8076685219496286,0.7974644403169755,0.7838589981401047,0.770253555963234,0.7498453926979279,0.7226345083441864,0.6988249845346626,0.6648113790924858,0.6273964131060912,0.5831787260312612,0.5457637600448667,0.5083487940584721,0.47093382807207756,0.4437229437183361,0.41991341990881226,0.4063079777319415,0.3893011750108531,0.3790970933782,0.3790970933782,0.3790970933782,0.3790970933782,0.3790970933782,0.3790970933782,0.3790970933782,0.3790970933782,0.37229437228976464,0.36209029065711157,0.3586889301128939,0.3552875695686762,0.3518862090244585,0.3518862090244585,0.3518862090244585,0.3518862090244585,0.3518862090244585,0.3518862090244585,0.3518862090244585,0.3518862090244585,0.3518862090244585,0.3518862090244585,0.3518862090244585,0.3518862090244585,0.3518862090244585,0.3518862090244585,0.3518862090244585,0.3518862090244585,0.3518862090244585,0.3518862090244585,0.3518862090244585,0.3518862090244585,0.3518862090244585,0.3518862090244585,0.3518862090244585,0.3518862090244585,0.3518862090244585,0.3518862090244585,0.3518862090244585,0.3518862090244585,0.3518862090244585,0.3518862090244585,0.3518862090244585,0.3518862090244585,0.3518862090244585,0.3518862090244585,0.3518862090244585,0.3518862090244585,0.3518862090244585,0.3518862090244585,0.3518862090244585,0.3518862090244585,0.3518862090244585,0.3518862090244585,0.3518862090244585,0.3518862090244585,0.3518862090244585,0.3518862090244585,0.3518862090244585,0.3518862090244585,0.3518862090244585,0.3518862090244585,0.3518862090244585,0.3518862090244585,0.3518862090244585,0.3518862090244585,0.3518862090244585,0.3518862090244585,0.3518862090244585,0.3518862090244585,0.3518862090244585,0.3518862090244585,0.3518862090244585,0.3518862090244585,0.3518862090244585,0.3518862090244585,0.3518862090244585,0.3518862090244585,0.3518862090244585,0.3518862090244585,0.3518862090244585,0.3518862090244585,0.3518862090244585,0.3518862090244585,0.3518862090244585,0.3518862090244585,0.3518862090244585,0.3518862090244585,0.3518862090244585,0.3518862090244585,0.3518862090244585,0.3518862090244585,0.3518862090244585,0.3518862090244585,0.3518862090244585,0.3518862090244585,0.3518862090244585,0.3518862090244585,0.3518862090244585,0.3518862090244585,0.3518862090244585,0.3518862090244585,0.3518862090244585,0.3518862090244585,0.3518862090244585,0.3518862090244585,0.3518862090244585,0.3518862090244585,0.3518862090244585,0.3518862090244585,0.3518862090244585,0.3518862090244585,0.3518862090244585,0.3518862090244585,0.3518862090244585,0.3518862090244585,0.3518862090244585,0.3518862090244585,0.3518862090244585,0.3518862090244585,0.3518862090244585,0.3518862090244585,0.3518862090244585,0.3518862090244585,0.3518862090244585,0.3518862090244585,0.3518862090244585,0.3518862090244585,0.3518862090244585,0.3518862090244585,0.3518862090244585,0.3518862090244585,0.3518862090244585,0.3518862090244585,0.3518862090244585,0.3518862090244585,0.3518862090244585,0.3518862090244585,0.3518862090244585,0.3450834879360231,0.324675324670717,0.324675324670717,0.324675324670717,0.324675324670717,0.324675324670717,0.324675324670717,0.324675324670717,0.324675324670717,0.324675324670717,0.324675324670717,0.324675324670717,0.324675324670717,0.324675324670717,0.324675324670717,0.324675324670717,0.324675324670717,0.324675324670717,0.31787260358228164,0.2974644403169755,0.29066171922854017,0.29066171922854017,0.2838589981401048,0.2804576375958871,0.2804576375958871,0.2804576375958871,0.2804576375958871,0.2804576375958871,0.2804576375958871,0.2804576375958871,0.2770562770516694,0.2770562770516694,0.2770562770516694,0.2770562770516694,0.2770562770516694,0.2770562770516694,0.2770562770516694,0.2770562770516694,0.2736549165074517,0.2736549165074517,0.2736549165074517,0.2736549165074517,0.2804576375958871,0.2872603586843225,0.29066171922854017,0.2974644403169755,0.30766852194962857,0.32127396412649933,0.3314780457591524,0.3416821273918055,0.3484848484802408,0.3552875695686762,0.36889301174554695,0.37229437228976464,0.3790970933782,0.3790970933782,0.3790970933782,0.3790970933782,0.3790970933782,0.3790970933782,0.3790970933782,0.3790970933782,0.3790970933782,0.3790970933782,0.3790970933782,0.3790970933782,0.3790970933782,0.3790970933782,0.3790970933782,0.3790970933782,0.3790970933782,0.3790970933782,0.3790970933782,0.3790970933782,0.3790970933782,0.3790970933782,0.3790970933782,0.3790970933782,0.3790970933782,0.3790970933782,0.3790970933782,0.3790970933782,0.3790970933782,0.3790970933782,0.3790970933782,0.3790970933782,0.3790970933782,0.3790970933782,0.3790970933782,0.3790970933782,0.3790970933782,0.3790970933782,0.3790970933782,0.3790970933782,0.3790970933782,0.3790970933782,0.3790970933782,0.3790970933782,0.3790970933782,0.3790970933782,0.3790970933782,0.3790970933782,0.3790970933782,0.3790970933782,0.3790970933782,0.3790970933782,0.3790970933782,0.3790970933782,0.3790970933782,0.3790970933782,0.3790970933782,0.3790970933782,0.3790970933782,0.3790970933782,0.3790970933782,0.3790970933782,0.3790970933782,0.3790970933782,0.3790970933782,0.3790970933782,0.3790970933782,0.3790970933782,0.3790970933782,0.3790970933782,0.3790970933782,0.3790970933782,0.3790970933782,0.3790970933782,0.3790970933782,0.3790970933782,0.3790970933782,0.3790970933782,0.3790970933782,0.3790970933782,0.3790970933782,0.3790970933782,0.3790970933782,0.3790970933782,0.3790970933782,0.3790970933782,0.3790970933782,0.3790970933782,0.3790970933782,0.3790970933782,0.3790970933782,0.3790970933782,0.3790970933782,0.3790970933782,0.3790970933782,0.3790970933782,0.3790970933782,0.3790970933782,0.3790970933782,0.3790970933782,0.3790970933782,0.3790970933782,0.3790970933782,0.3790970933782,0.3790970933782,0.3790970933782,0.3790970933782,0.3790970933782,0.3790970933782,0.3790970933782,0.3790970933782,0.3790970933782,0.3790970933782,0.3790970933782,0.3790970933782,0.3790970933782,0.3790970933782,0.3790970933782,0.3790970933782,0.3790970933782,0.3790970933782,0.3790970933782,0.3790970933782,0.3790970933782,0.3790970933782,0.3790970933782,0.3790970933782,0.3790970933782,0.3790970933782,0.3790970933782,0.3790970933782,0.3790970933782,0.3790970933782,0.3790970933782,0.3790970933782,0.3790970933782,0.3790970933782,0.3790970933782,0.3790970933782,0.3790970933782,0.3790970933782,0.3790970933782,0.3790970933782,0.3790970933782,0.3790970933782,0.3790970933782,0.3790970933782,0.3790970933782,0.3790970933782,0.3790970933782,0.3790970933782,0.3790970933782,0.3790970933782,0.3790970933782,0.3790970933782,0.3790970933782,0.3790970933782,0.3790970933782,0.3790970933782,0.3790970933782,0.3790970933782,0.3790970933782,0.3790970933782,0.3790970933782,0.3790970933782,0.3790970933782,0.3790970933782,0.3790970933782,0.3790970933782,0.3790970933782,0.3790970933782,0.3790970933782,0.3790970933782,0.3790970933782,0.3790970933782,0.3790970933782,0.3790970933782,0.3790970933782,0.3790970933782,0.3790970933782,0.3790970933782,0.3790970933782,0.3790970933782,0.3790970933782,0.3790970933782,0.3790970933782,0.3790970933782,0.3790970933782,0.37569573283398233,0.36549165120132926,0.3484848484802408,0.324675324670717,0.3042671614054109,0.2872603586843225,0.270253555963234,0.26004947433058095,0.2498453926979279,0.24304267160949253,0.23623995052105715,0.2294372294326218,0.2260358688884041,0.2226345083441864,0.21583178725575103,0.21583178725575103,0.21583178725575103,0.21243042671153334,0.20902906616731565,0.20902906616731565,0.20562770562309798,0.20562770562309798,0.20562770562309798,0.20562770562309798,0.20562770562309798,0.20562770562309798,0.20562770562309798,0.20562770562309798,0.20562770562309798,0.20562770562309798,0.20562770562309798,0.1988249845346626,0.1988249845346626,0.1954236239904449,0.19202226344622722,0.18862090290200953,0.18862090290200953,0.18521954235779184,0.18181818181357415,0.18181818181357415,0.17841682126935648,0.1750154607251388,0.1750154607251388,0.1716141001809211,0.1716141001809211,0.1716141001809211,0.1716141001809211,0.1716141001809211,0.1716141001809211,0.1716141001809211,0.1716141001809211,0.1716141001809211,0.1716141001809211,0.1716141001809211,0.1716141001809211,0.1716141001809211,0.1716141001809211,0.1716141001809211,0.1716141001809211,0.1716141001809211,0.1716141001809211,0.1716141001809211,0.1716141001809211,0.1716141001809211,0.1716141001809211,0.1716141001809211,0.1716141001809211,0.1716141001809211,0.1716141001809211,0.1716141001809211,0.1716141001809211,0.1716141001809211,0.1716141001809211,0.1716141001809211,0.1716141001809211,0.1716141001809211,0.1716141001809211,0.1716141001809211,0.1716141001809211,0.1716141001809211,0.1682127396367034,0.16481137909248572,0.16141001854826803,0.15460729745983268,0.1478045763713973,0.1444032158271796,0.13760049473874422,0.13760049473874422,0.13760049473874422,0.13760049473874422,0.13760049473874422,0.13760049473874422,0.13760049473874422,0.13760049473874422,0.13760049473874422,0.13760049473874422,0.13760049473874422,0.13760049473874422,0.13760049473874422,0.13760049473874422,0.13760049473874422,0.13760049473874422,0.13760049473874422,0.13760049473874422,0.13760049473874422,0.13760049473874422,0.13760049473874422,0.13760049473874422,0.13760049473874422,0.13760049473874422,0.13760049473874422,0.13760049473874422,0.13760049473874422,0.13760049473874422,0.13760049473874422,0.13760049473874422,0.13760049473874422,0.13760049473874422,0.13760049473874422,0.13760049473874422,0.13760049473874422,0.13760049473874422,0.13760049473874422,0.13760049473874422,0.13760049473874422,0.13760049473874422,0.13079777365030887,0.1171923314734381,0.08317872603126124,0.04576376004486668,-0.005256648118398628,-0.05967841682588162,-0.10389610390071155,-0.14131106988710612,-0.16171923315241224,-0.17532467532928298,-0.18212739641771836,-0.18212739641771836,-0.18552875696193605,-0.18552875696193605,-0.18552875696193605,-0.18552875696193605,-0.18552875696193605,-0.18552875696193605,-0.18552875696193605,-0.18552875696193605,-0.18552875696193605,-0.18552875696193605,-0.18552875696193605,-0.18552875696193605,-0.18552875696193605,-0.18552875696193605,-0.18552875696193605,-0.18552875696193605,-0.18552875696193605,-0.18552875696193605,-0.18552875696193605,-0.18552875696193605,-0.18552875696193605,-0.18552875696193605,-0.18552875696193605,-0.18552875696193605,-0.18552875696193605,-0.18552875696193605,-0.18552875696193605,-0.18552875696193605,-0.18552875696193605,-0.18552875696193605,-0.18552875696193605,-0.18552875696193605,-0.18552875696193605,-0.18552875696193605,-0.18552875696193605,-0.18552875696193605,-0.18552875696193605,-0.18552875696193605,-0.18552875696193605,-0.18552875696193605,-0.18552875696193605,-0.18552875696193605,-0.18552875696193605,-0.18552875696193605,-0.18552875696193605,-0.18552875696193605,-0.18552875696193605,-0.18552875696193605,-0.18552875696193605,-0.18552875696193605,-0.18552875696193605,-0.18552875696193605,-0.18552875696193605,-0.18552875696193605,-0.18552875696193605,-0.18552875696193605,-0.18552875696193605,-0.18552875696193605,-0.18552875696193605,-0.18552875696193605,-0.18552875