[{"success":true,"trial_type":"fullscreen","trial_index":0,"time_elapsed":3911,"internal_node_id":"0.0-0.0","protocol_sum":"","subject_identifier":333,"subject_sum":[224,240,93,169,58,15,90,134,163,190,95,192,227,1,96,101,19,201,247,229,157,172,35,87,52,138,160,242,244,125,185,132],"subject_pair":166,"STUDY_ID":"66a0b3911f23dfc7665bb169","PROLIFIC_PID":"66982245404fc59cc905adfc","SESSION_ID":"66a16d3d03080928279cb25e","practice_instructions":1,"leaderboard_instructions":0,"bonus":0,"reveal_word":true,"self_rating":"2","confidence":"100"},{"view_history":"[{\"page_index\":0,\"viewing_time\":1885}]","rt":1885,"trial_type":"instructions","trial_index":1,"time_elapsed":5799,"internal_node_id":"0.0-1.0","protocol_sum":"","subject_identifier":333,"subject_sum":[224,240,93,169,58,15,90,134,163,190,95,192,227,1,96,101,19,201,247,229,157,172,35,87,52,138,160,242,244,125,185,132],"subject_pair":166,"STUDY_ID":"66a0b3911f23dfc7665bb169","PROLIFIC_PID":"66982245404fc59cc905adfc","SESSION_ID":"66a16d3d03080928279cb25e","practice_instructions":1,"leaderboard_instructions":0,"bonus":0,"reveal_word":true,"self_rating":"2","confidence":"100"},{"view_history":"[{\"page_index\":0,\"viewing_time\":9307}]","rt":9307,"trial_type":"instructions","trial_index":2,"time_elapsed":15106,"internal_node_id":"0.0-2.0-0.0","protocol_sum":"","subject_identifier":333,"subject_sum":[224,240,93,169,58,15,90,134,163,190,95,192,227,1,96,101,19,201,247,229,157,172,35,87,52,138,160,242,244,125,185,132],"subject_pair":166,"STUDY_ID":"66a0b3911f23dfc7665bb169","PROLIFIC_PID":"66982245404fc59cc905adfc","SESSION_ID":"66a16d3d03080928279cb25e","practice_instructions":1,"leaderboard_instructions":0,"bonus":0,"reveal_word":true,"self_rating":"2","confidence":"100"},{"rt":9897,"responses":"{\"Q0\":\"... reveal the word with as <b>few letter guesses</b> as possible\"}","question_order":"[0]","trial_type":"survey-multi-choice","trial_index":3,"time_elapsed":25003,"internal_node_id":"0.0-2.0-1.0","protocol_sum":"","subject_identifier":333,"subject_sum":[224,240,93,169,58,15,90,134,163,190,95,192,227,1,96,101,19,201,247,229,157,172,35,87,52,138,160,242,244,125,185,132],"subject_pair":166,"correct":true,"test_part":"multichoice_nonpretend","STUDY_ID":"66a0b3911f23dfc7665bb169","PROLIFIC_PID":"66982245404fc59cc905adfc","SESSION_ID":"66a16d3d03080928279cb25e","practice_instructions":1,"leaderboard_instructions":0,"bonus":0,"reveal_word":true,"self_rating":"2","confidence":"100"},{"view_history":"[{\"page_index\":0,\"viewing_time\":2333}]","rt":2333,"trial_type":"instructions","trial_index":4,"time_elapsed":27338,"internal_node_id":"0.0-3.0","protocol_sum":"","subject_identifier":333,"subject_sum":[224,240,93,169,58,15,90,134,163,190,95,192,227,1,96,101,19,201,247,229,157,172,35,87,52,138,160,242,244,125,185,132],"subject_pair":166,"STUDY_ID":"66a0b3911f23dfc7665bb169","PROLIFIC_PID":"66982245404fc59cc905adfc","SESSION_ID":"66a16d3d03080928279cb25e","practice_instructions":1,"leaderboard_instructions":0,"bonus":0,"reveal_word":true,"self_rating":"2","confidence":"100"},{"word":"ZEBRA","click_log":{"letter":[""],"t":[0],"hit":[null],"asked":[""],"word_state":["_____"]},"hover_log":{"letter":["?","?","?","?","?","?","?","?","?","?","?","?","?","?","?","?","?","?","?","?","?","?","?","?","?","?","?","?","?","?","?","?","?","?","?","?","?","?","?","?","?","?","?","?","?","?","?","?","?","?","?","?","?","?","?","?","?","?","?","?","?","?","?","?","?","?","?","?","?","?","?","?","?","?","?","?","?","?","?","?","?","?","?","?","?","?","?","?","?","?","?","?","?","?","?","?","?","?","?","?","?","?","?","?","?","?","?","?","?","?","?","?","?","?","?","?","?","?","?","?","?","?","?","?","?","?","?","?","?","?","?","?","?","?","?","?","?","?","?","?","?","?","?","?","?","?","?","?","?","?","?","?","?","?","?","?","?","?","?","?","?","?","?","?","?","?","?","?","?","?","?","?","?","?","?","?","?","?","?","?","?","?","?","?","?","?","?","?","?","?","?","?","?","?","?","?","?","?","?","?","?","?","?","?","?","?","?","?","?","?","?","?","?","?","?","?","?","?","?","?","?","?","?","?","?","?","?","?","?","?","?","?","?","?","?","?","?","?","?","?","?","?","?","?","?","?","?","?","?","?","?","?","?","?","?","?","?","?","?","?","?","?","?","?","?","?","?","?","?","?","?","?","?","?","?","?","?","?","?","?","?","?","?","?","?","?","?","?","?","?","?","?","?","?","?","?","?","?","?","?","?","?","?","?","?","?","?","?","?","?","?","?","?","?","?","?","?","?","?","?","?","?","?","?","?","?","?","?","?","?","?","?","?","?","?","?","?","?","?","?","?","?","?","?","?","?","?","?","?","?","?","?","?","?","?","?","?","?","?","?","?","?","?","?","?","?","?","?","?","?","?","?","?","?","?","?","?","?","?","?","?","?","?","?","?","?","?","?","?","?","?","?","?","?","?","?","?","?","?","?","?","?","?","?","?","?","?","?","?","?","?","?","?","?","?","?","?","?","?","?","?","?","?","?","?","?","?","?","?","?","?","?","?","?","?","?","?","?","?","?","?","?","?","?","?","?","?","?","?","?","?","?","?","?","?","?","?","?","?","?","?","?","?","?","?","?","?","?","?","?","?","?","?","?","?","?","?","?","?","?","?","?","?","?","?","?","?","?","?","?","?","?","?","?","?","?","?","?","?","?","?","?","?","?","?","?","?","?","?","?","?","?","?","?","?","?","?","?","?","?","?","?","?","?","?","?","?","?","?","?","?","?","?","?","?","?","?","?","?","?","?","?","?","?","?","?","?","?","?","?","?","?","?","?","?","?","?","?","?","?","?","?","?","?","?","?","?","?","?","?","?","?","?","?","?","?","?","?","?","?","?","?","?","?","?","?","?","?","?","?","?","?","?","?","?","?","?","?","?","?","?","?","?","?","?","?","?","?","?","?","?","?","?","?","?","?","?","?","?","?","?","?","?","?","?","?","?","?","?","?","?","?","?","?","?","?","?","?","?","?","?","?","?","?","?","?","?","?","?","?","?","?","?","?","?","?","?","?","?","?","?","?","?","?","?","?","?","?","?","?","?","?","?","?","?","?","?","?","?","?","?","?","?","?","?","?","?","?","?","?","?","?","?","?","?","?","?","?","?","?","?","?","?","?","?","?","?","?","?","?","?","?","?","?","?","?","?","?","?","?","?","?","?","?","?","?","?","?","?","?","?","?","?","?","?","?","?","?","?","?","?","?","?","?","?","?","?","?","?","?","?","?","?","?","?","?","?","?","?","?","?","?","?","?","?","?","?","?","?","?","?","?","?","?","?","?","?","?","?","?","?","?","?","?","?","?","?","?","?","?","?","?","?","?","?","?","?","?","?","?","?","?","?","?","?","?","?","?","?","?","?","?","?","?","?","?","?","?","?","?","?","?","?","?","?","?","?","?","?","?","?","?","?","?","?","?","?","?","?","?","?","?","?","?","?","?","?","?","?","?","?","?","?","?","?","?","?","?","?","?","?","?","?","?","?","?","?","?","?","?","?","?","?","?","?","?","?","?","?","?","?","?","?","?","?","?","?","?","?","?","?","?","?","?","?","?","?","?","?","?","?","?","?","?","?","?","?","?","?","?","?","?","?","?","?","?","?","?","?","?","?","?","?","?","?","?","?","?","?","?","?","?","?","?","?","?","?","?","?","?","?","?","?","?","?","?","?","?","?","?","?","?","?","?","?","?","?","?","?","?","?","?","?","?","?","?","?","?","?","?","?","?","?","?","?","?","?","?","?","?","?","?","?","?","?","?","?","?","?","?","?","?","?","?","?","?","?","?","?","?","?","?","?","?","?","?","?","?","?","?","?","?","?","?","?","?","?","?","?","?","?","?","?","?","?","?","?","?","?","?","?","?","?","?","?","?","?","?","?","?","?","?","?","?","?","?","?","?","?","?","?","?","?","?","?","?","?","?","?","?","?","?","?","?","?","?","?","?","?","?","?","?","?","?","?","?","?","?","?","?","?","?","?","?","?","?","?","?","?","?","?","?","?","?","?","?","?","?","?","?","?","?","?","?","?","?","?","?","?","?","?","?","?","?","?","?","?","?","?","?","?","?","?","?","?","?","?","?","?","?","?","?","?","?","?","?","?","?","?","?","?","?","?","?","?","?","?","?","?","?","?","?","?","?","?","?","?","?","?","?","?","?","?","?","?","?","?","?","?","?","?","?","?","?","?","?","?","?","?","?","?","?","?","?","?","?","?","?","?","?","?","?","?","?","?","?","?","?","?","?","?","?","?","?","?","?","?","?","?","?","?","?","?","?","?","?","?","?","?","?","?","?","?","?","?","?","?","?","?","?","?","?","?","?","?","?","?","?","?","?","?","?","?","?","?","?","?","?","?","?","?","?","?","?","?","?","?","?","?","?","?","?","?","?","?","?","?","?","?","?","?","?","?","?","?","?","?","?","?","?","?","?","?","?","?","?","?","?","?","?","?","?","?","?","?","?","?","?","?","?","?","?","?","?","?","?","?","?","?","?","?","?","?","?","?","?","?","?","?","?","?","?","?","?","?","?","?","?","?","?","?","?","?","?","?","?","?","?","?","?","?","?","?","?","?","?","?","?","?","?","?","?","?","?","?","?","?","?","?","?","?","?","?","?","?","?","?","?","?","?","?","?","?","?","?","?","?","?","?","?","?","?"],"t":[23,36,50,69,84,101,117,135,152,168,186,201,217,234,252,269,284,302,318,335,351,367,385,401,419,435,452,468,485,501,517,534,551,568,585,602,618,634,652,668,685,702,718,735,752,769,785,801,819,834,852,869,885,901,919,935,952,968,985,1002,1018,1034,1052,1068,1085,1101,1119,1135,1152,1168,1187,1202,1222,1235,1251,1268,1285,1303,1319,1335,1352,1368,1385,1402,1420,1435,1452,1469,1486,1502,1519,1536,1552,1569,1585,1602,1618,1636,1651,1668,1685,1702,1719,1736,1757,1769,1785,1802,1824,1837,1853,1869,1886,1903,1919,1937,1953,1970,1985,2003,2019,2036,2053,2070,2086,2103,2119,2137,2153,2170,2187,2203,2220,2237,2253,2270,2286,2302,2319,2336,2353,2370,2387,2403,2420,2436,2453,2470,2486,2504,2520,2537,2554,2571,2587,2603,2620,2637,2654,2669,2686,2703,2721,2737,2754,2771,2787,2804,2820,2836,2854,2871,2886,2904,2920,2938,2954,2970,2987,3004,3020,3037,3053,3070,3087,3105,3121,3137,3153,3171,3187,3204,3221,3237,3253,3271,3288,3303,3321,3337,3354,3371,3388,3404,3420,3438,3454,3471,3487,3505,3521,3538,3554,3570,3587,3605,3621,3637,3654,3670,3688,3704,3721,3737,3754,3771,3788,3804,3821,3838,3855,3872,3888,3905,3921,3938,3955,3971,3988,4005,4021,4037,4055,4071,4088,4103,4121,4137,4155,4171,4188,4205,4222,4238,4254,4272,4288,4304,4321,4338,4354,4371,4388,4405,4421,4437,4454,4471,4487,4504,4522,4537,4554,4571,4588,4605,4622,4637,4654,4672,4688,4705,4722,4738,4754,4772,4789,4804,4822,4838,4855,4872,4888,4905,4922,4938,4955,4972,4988,5005,5023,5038,5055,5072,5088,5105,5122,5139,5155,5171,5189,5205,5222,5238,5255,5272,5288,5305,5322,5338,5355,5372,5389,5405,5422,5439,5455,5472,5489,5505,5523,5539,5555,5572,5589,5606,5622,5639,5656,5672,5689,5706,5722,5739,5756,5773,5789,5805,5822,5839,5855,5872,5890,5906,5922,5939,5955,5972,5989,6006,6022,6039,6056,6073,6090,6106,6123,6139,6157,6173,6189,6206,6223,6241,6257,6273,6290,6307,6323,6340,6357,6374,6390,6407,6423,6441,6457,6474,6490,6508,6524,6540,6557,6573,6590,6607,6624,6640,6657,6674,6690,6707,6723,6740,6756,6773,6790,6808,6824,6841,6857,6873,6890,6908,6924,6941,6957,6974,6991,7007,7028,7042,7058,7075,7091,7108,7123,7140,7157,7174,7192,7208,7225,7240,7257,7275,7290,7308,7324,7342,7358,7374,7391,7407,7424,7441,7457,7474,7491,7507,7524,7541,7557,7574,7591,7608,7624,7641,7657,7674,7691,7707,7725,7741,7758,7774,7791,7808,7824,7841,7858,7875,7891,7908,7925,7941,7957,7975,7991,8008,8025,8041,8058,8075,8091,8108,8125,8142,8158,8175,8191,8208,8226,8244,8260,8276,8292,8310,8327,8342,8359,8376,8392,8408,8424,8442,8458,8476,8492,8509,8525,8543,8559,8576,8593,8609,8626,8643,8659,8675,8692,8709,8725,8742,8759,8776,8792,8809,8826,8843,8859,8876,8893,8909,8926,8942,8960,8976,8992,9010,9026,9042,9059,9076,9093,9109,9126,9143,9160,9176,9193,9209,9226,9243,9259,9276,9293,9310,9327,9344,9359,9376,9393,9409,9426,9444,9460,9477,9492,9510,9526,9544,9560,9576,9593,9610,9627,9643,9660,9677,9694,9710,9726,9742,9760,9776,9793,9809,9827,9843,9859,9877,9894,9910,9927,9944,9960,9977,9994,10011,10027,10043,10060,10077,10094,10110,10127,10144,10161,10177,10194,10211,10227,10244,10261,10276,10294,10311,10327,10344,10361,10378,10394,10411,10427,10444,10461,10477,10494,10510,10527,10545,10561,10578,10594,10611,10628,10644,10661,10679,10694,10711,10727,10744,10760,10778,10795,10811,10828,10845,10862,10877,10894,10911,10928,10945,10961,10978,10995,11012,11028,11045,11062,11078,11095,11112,11128,11145,11161,11178,11194,11211,11228,11245,11261,11279,11295,11312,11328,11345,11362,11378,11396,11412,11428,11445,11462,11478,11495,11512,11529,11546,11561,11579,11595,11612,11628,11646,11662,11678,11695,11712,11728,11745,11763,11779,11795,11812,11829,11846,11861,11878,11895,11912,11928,11946,11962,11979,11995,12013,12029,12046,12063,12079,12096,12113,12129,12145,12163,12179,12195,12213,12229,12246,12263,12279,12296,12313,12329,12346,12363,12379,12396,12413,12429,12446,12462,12480,12496,12515,12529,12546,12563,12580,12596,12612,12629,12647,12662,12679,12696,12713,12729,12746,12763,12780,12796,12813,12830,12846,12864,12880,12896,12913,12930,12947,12963,12980,12997,13013,13030,13047,13063,13080,13097,13113,13130,13146,13164,13181,13197,13213,13230,13247,13264,13280,13297,13314,13331,13346,13363,13381,13397,13413,13430,13447,13464,13480,13497,13514,13530,13546,13564,13581,13597,13614,13630,13647,13663,13680,13696,13713,13730,13747,13763,13781,13797,13813,13830,13846,13864,13880,13897,13913,13930,13947,13963,13980,13997,14014,14030,14047,14064,14081,14097,14114,14130,14147,14164,14181,14198,14213,14231,14247,14263,14281,14298,14314,14331,14347,14365,14381,14397,14414,14431,14448,14464,14481,14498,14514,14530,14548,14564,14581,14598,14615,14631,14649,14665,14681,14699,14715,14731,14748,14765,14781,14798,14815,14832,14849,14866,14881,14898,14915,14932,14948,14965,14981,14998,15016,15032,15048,15066,15082,15099,15115,15132,15149,15166,15182,15199,15215,15232,15248,15265,15283,15299,15316,15333,15349,15366,15382,15400,15416,15432,15449,15466,15483,15498,15516,15532,15549,15565,15583,15599,15617,15633,15650,15667,15683,15700,15717,15732,15750,15766,15783,15799,15815,15832,15850,15867,15883,15900,15916,15933,15949,15966,15983,16000,16017,16033,16050,16067,16084,16100,16116,16133,16149,16166,16183,16200,16217,16233,16250,16267,16283,16300,16316,16333,16350,16366,16383,16400,16417,16433,16450,16467,16483,16499,16517,16533,16550,16567,16584,16600,16617,16634,16650,16667,16683,16700,16716,16733,16750,16767,16784,16800,16817,16834,16854,16868,16885,16900,16917,16934,16951,16968,16985,17001,17018,17034,17050,17068,17084,17101,17118,17134,17151,17168,17184,17205,17218,17235,17251,17268,17284,17300,17317,17334,17350,17367,17384,17400,17417,17434,17450,17467,17484,17501,17517,17534,17552,17571,17586,17600,17622,17635,17652,17669,17685,17701,17718,17735,17752,17769,17785,17802,17818,17835,17852,17868,17885,17901,17918,17934,17950,17969,17985,18001,18018,18035,18052,18068,18085,18102,18119,18136,18151,18169,18184,18202,18219,18236,18252,18268,18285,18302,18319,18335,18351,18369,18385,18402,18419,18435,18452,18469,18486,18502,18519,18536,18552,18569,18585,18602,18618,18636,18652,18669,18686,18702,18718,18735,18752,18770,18785,18802,18819,18835,18852,18868,18886,18902,18919,18935,18952,18969,18985,19002,19020,19035,19052,19069,19086,19102,19119,19136,19152,19169,19186,19202,19219,19237,19252,19269,19286,19302,19319,19336,19352,19370,19387,19403,19419,19436,19453,19470,19486,19503,19520,19536,19552,19569,19587,19604,19619,19636,19653,19669,19687,19704,19720,19736,19754,19770,19787,19803,19820,19837,19853,19870,19887,19903,19920,19937,19953,19970,19987,20003,20020,20037,20054,20070,20087,20104,20120,20137,20154,20171,20186,20204,20221,20237,20254,20270,20288,20304,20321,20337,20354,20371,20387,20404,20421,20440,20454,20471,20487,20504,20521,20538,20554,20571,20587,20604,20621,20638,20654,20671,20687,20704,20721,20737,20754,20771,20788,20805,20821,20837,20854,20871,20888,20904,20921,20937,20954,20971,20988,21003,21021,21038,21054,21071,21088,21105,21122,21138,21155,21172,21187,21204,21221,21238,21255,21271,21288,21304,21322,21338,21355,21371,21388,21404,21422,21438,21455,21472,21487,21504,21521,21538,21555,21572,21588,21605,21622,21639,21655,21672,21688,21705,21722,21739,21754,21772,21788,21805,21821,21839,21856,21872,21889,21906,21923,21939,21955,21972,21988,22005,22022,22039,22055,22072,22089,22105,22122,22139,22156,22173,22189,22205,22222,22238,22256,22273,22288,22305,22323,22339,22356,22373,22390,22406,22422,22439,22456,22473,22489,22506,22522,22539,22556,22572,22590,22606,22624,22639,22656,22672,22689,22706,22723,22739,22756,22773,22789,22806,22823,22839,22857,22873,22889,22906,22922,22939,22956,22972,22990,23006,23023,23039,23056],"hit":[null],"x":[-3.7823129251700682,-3.7823129251700682,-3.7823129251700682,-3.7823129251700682,-3.7823129251700682,-3.7823129251700682,-3.7823129251700682,-3.7823129251700682,-3.7823129251700682,-3.7823129251700682,-3.7823129251700682,-3.7823129251700682,-3.7823129251700682,-3.7823129251700682,-3.7823129251700682,-3.7823129251700682,-3.7823129251700682,-3.7823129251700682,-3.7823129251700682,-3.7823129251700682,-3.7823129251700682,-3.7823129251700682,-3.7823129251700682,-3.7823129251700682,-3.7823129251700682,-3.7823129251700682,-3.7823129251700682,-3.7823129251700682,-3.7823129251700682,-3.7823129251700682,-3.7823129251700682,-3.7823129251700682,-3.7823129251700682,-3.7823129251700682,-3.7823129251700682,-3.7823129251700682,-3.7823129251700682,-3.7823129251700682,-3.7823129251700682,-3.7823129251700682,-3.7823129251700682,-3.7823129251700682,-3.7823129251700682,-3.7823129251700682,-3.7823129251700682,-3.7823129251700682,-3.7823129251700682,-3.7823129251700682,-3.7823129251700682,-3.7823129251700682,-3.7823129251700682,-3.7823129251700682,-3.7823129251700682,-3.7823129251700682,-3.7823129251700682,-3.7823129251700682,-3.7823129251700682,-3.7823129251700682,-3.7823129251700682,-3.7823129251700682,-3.7823129251700682,-3.7823129251700682,-3.7823129251700682,-3.7823129251700682,-3.7823129251700682,-3.7823129251700682,-3.7823129251700682,-3.7823129251700682,-3.7823129251700682,-3.7823129251700682,-2.8554421768707483,-2.8010204081632653,-2.739795918367347,-2.630952380952381,-2.556122448979592,-2.5051020408163267,-2.477891156462585,-2.4676870748299318,-2.4676870748299318,-2.4676870748299318,-2.4676870748299318,-2.4676870748299318,-2.4676870748299318,-2.4676870748299318,-2.4676870748299318,-2.4676870748299318,-2.4676870748299318,-2.4676870748299318,-2.4676870748299318,-2.4676870748299318,-2.4676870748299318,-2.4676870748299318,-2.4642857142857144,-2.454081632653061,-2.433673469387755,-2.4030612244897958,-2.3622448979591835,-2.304421768707483,-2.2363945578231292,-2.1683673469387754,-2.107142857142857,-2.0799319727891157,-2.062925170068027,-2.056122448979592,-2.052721088435374,-2.0493197278911564,-2.045918367346939,-2.0391156462585034,-2.0357142857142856,-2.0323129251700682,-2.0323129251700682,-2.0323129251700682,-2.0323129251700682,-2.0323129251700682,-2.0323129251700682,-2.0323129251700682,-2.0323129251700682,-2.0323129251700682,-2.0323129251700682,-2.0323129251700682,-2.0323129251700682,-2.0323129251700682,-2.0323129251700682,-2.0323129251700682,-2.0323129251700682,-2.0323129251700682,-2.0323129251700682,-2.0323129251700682,-2.0323129251700682,-2.0323129251700682,-2.0323129251700682,-2.0323129251700682,-2.0323129251700682,-2.0323129251700682,-2.0323129251700682,-2.0323129251700682,-2.0323129251700682,-2.0323129251700682,-2.0323129251700682,-2.0323129251700682,-2.0323129251700682,-2.0323129251700682,-2.0323129251700682,-2.0323129251700682,-2.0323129251700682,-2.0323129251700682,-2.0323129251700682,-2.0323129251700682,-2.0323129251700682,-2.0323129251700682,-2.0323129251700682,-2.0323129251700682,-2.0323129251700682,-2.0323129251700682,-2.0323129251700682,-2.0323129251700682,-2.0323129251700682,-2.0323129251700682,-2.0323129251700682,-2.0323129251700682,-2.0323129251700682,-2.0323129251700682,-2.0323129251700682,-2.0323129251700682,-2.0323129251700682,-2.0323129251700682,-2.0323129251700682,-2.0323129251700682,-2.0323129251700682,-2.0323129251700682,-2.0323129251700682,-2.0323129251700682,-2.0323129251700682,-2.0323129251700682,-2.0323129251700682,-2.0323129251700682,-2.0323129251700682,-2.0323129251700682,-2.0323129251700682,-2.0323129251700682,-2.0323129251700682,-2.0323129251700682,-2.0323129251700682,-2.0323129251700682,-2.0323129251700682,-2.0323129251700682,-2.0323129251700682,-2.0323129251700682,-2.0323129251700682,-2.0323129251700682,-2.0323129251700682,-2.0323129251700682,-2.0323129251700682,-2.0323129251700682,-2.0323129251700682,-2.0323129251700682,-2.0323129251700682,-2.0323129251700682,-2.0323129251700682,-2.0323129251700682,-2.0323129251700682,-2.0323129251700682,-2.0323129251700682,-2.0323129251700682,-2.0323129251700682,-2.0323129251700682,-2.0323129251700682,-2.0323129251700682,-2.0323129251700682,-2.0323129251700682,-2.0323129251700682,-2.0323129251700682,-2.0323129251700682,-2.0323129251700682,-2.0323129251700682,-2.0323129251700682,-2.0323129251700682,-2.0323129251700682,-2.0323129251700682,-2.0323129251700682,-2.0323129251700682,-2.0323129251700682,-2.0323129251700682,-2.0323129251700682,-2.0323129251700682,-2.0323129251700682,-2.0323129251700682,-2.0323129251700682,-2.0323129251700682,-2.0323129251700682,-2.0323129251700682,-2.0323129251700682,-2.0323129251700682,-2.0323129251700682,-2.0323129251700682,-2.0323129251700682,-2.0323129251700682,-2.0323129251700682,-2.0323129251700682,-2.0323129251700682,-2.0323129251700682,-2.0323129251700682,-2.0323129251700682,-2.0323129251700682,-2.0323129251700682,-2.0323129251700682,-2.0323129251700682,-2.0323129251700682,-2.0323129251700682,-2.0323129251700682,-2.0323129251700682,-2.0323129251700682,-2.0323129251700682,-2.0323129251700682,-2.0323129251700682,-2.0323129251700682,-2.0323129251700682,-2.0323129251700682,-2.0323129251700682,-2.0323129251700682,-2.0323129251700682,-2.0323129251700682,-2.0323129251700682,-2.0323129251700682,-2.0323129251700682,-2.0323129251700682,-2.0323129251700682,-2.0323129251700682,-2.0323129251700682,-2.0323129251700682,-2.0323129251700682,-2.0323129251700682,-2.0323129251700682,-2.0323129251700682,-2.0323129251700682,-2.0323129251700682,-2.0323129251700682,-2.0323129251700682,-2.0323129251700682,-2.0323129251700682,-2.0323129251700682,-2.0323129251700682,-2.0323129251700682,-2.0323129251700682,-2.0323129251700682,-2.0323129251700682,-2.0323129251700682,-2.0323129251700682,-2.0323129251700682,-2.0323129251700682,-2.0323129251700682,-2.0323129251700682,-2.0323129251700682,-2.0323129251700682,-2.0323129251700682,-2.0323129251700682,-2.0323129251700682,-2.0323129251700682,-2.0323129251700682,-2.0323129251700682,-2.0323129251700682,-2.0323129251700682,-2.0323129251700682,-2.0323129251700682,-2.0323129251700682,-2.0323129251700682,-2.0323129251700682,-2.0323129251700682,-2.0323129251700682,-2.0323129251700682,-2.0323129251700682,-2.0323129251700682,-2.0323129251700682,-2.0323129251700682,-2.0323129251700682,-2.0323129251700682,-2.0323129251700682,-2.0323129251700682,-2.0323129251700682,-2.0323129251700682,-2.0323129251700682,-2.0323129251700682,-2.0323129251700682,-2.0323129251700682,-2.0323129251700682,-2.0323129251700682,-2.0323129251700682,-2.0323129251700682,-2.0323129251700682,-2.0323129251700682,-2.0323129251700682,-2.0323129251700682,-2.0323129251700682,-2.0323129251700682,-2.0323129251700682,-2.0323129251700682,-2.0323129251700682,-2.0323129251700682,-2.0323129251700682,-2.0323129251700682,-2.0323129251700682,-2.0323129251700682,-2.0323129251700682,-2.0323129251700682,-2.0323129251700682,-2.0323129251700682,-2.0323129251700682,-2.0323129251700682,-2.0323129251700682,-2.0323129251700682,-2.0323129251700682,-2.0323129251700682,-2.0323129251700682,-2.0323129251700682,-2.0323129251700682,-2.0323129251700682,-2.0323129251700682,-2.0323129251700682,-2.0323129251700682,-2.0323129251700682,-2.0323129251700682,-2.0323129251700682,-2.0323129251700682,-2.0323129251700682,-2.0323129251700682,-2.0323129251700682,-2.0323129251700682,-2.0323129251700682,-2.0323129251700682,-2.0323129251700682,-2.0323129251700682,-2.0323129251700682,-2.0323129251700682,-2.0323129251700682,-2.0323129251700682,-2.0323129251700682,-2.0323129251700682,-2.0323129251700682,-2.0323129251700682,-2.0323129251700682,-2.0323129251700682,-2.0323129251700682,-2.0323129251700682,-2.0323129251700682,-2.0323129251700682,-2.0323129251700682,-2.0323129251700682,-2.0323129251700682,-2.0323129251700682,-2.0323129251700682,-2.0323129251700682,-2.0323129251700682,-2.0323129251700682,-2.0289115646258504,-1.998299319727891,-1.9438775510204083,-1.8588435374149659,-1.7704081632653061,-1.651360544217687,-1.5153061224489797,-1.4064625850340136,-1.3112244897959184,-1.239795918367347,-1.1921768707482994,-1.1581632653061225,-1.1377551020408163,-1.1173469387755102,-1.0935374149659864,-1.0731292517006803,-1.0391156462585034,-1.0119047619047619,-0.9812925170068028,-0.9574829931972789,-0.9540816326530612,-0.9540816326530612,-0.9540816326530612,-0.9540816326530612,-0.9540816326530612,-0.9540816326530612,-0.9506802721088435,-0.9506802721088435,-0.9506802721088435,-0.9506802721088435,-0.9506802721088435,-0.9506802721088435,-0.9506802721088435,-0.9506802721088435,-0.9506802721088435,-0.9506802721088435,-0.9506802721088435,-0.9506802721088435,-0.9506802721088435,-0.9506802721088435,-0.9472789115646258,-0.9438775510204082,-0.9404761904761905,-0.9336734693877551,-0.9302721088435374,-0.923469387755102,-0.9200680272108843,-0.9200680272108843,-0.9200680272108843,-0.9200680272108843,-0.9200680272108843,-0.9200680272108843,-0.9200680272108843,-0.9200680272108843,-0.9166666666666666,-0.9098639455782312,-0.8962585034013606,-0.8860544217687075,-0.8724489795918368,-0.8656462585034014,-0.858843537414966,-0.8520408163265306,-0.8520408163265306,-0.8520408163265306,-0.8520408163265306,-0.8520408163265306,-0.8520408163265306,-0.8520408163265306,-0.8520408163265306,-0.8520408163265306,-0.8520408163265306,-0.8520408163265306,-0.8520408163265306,-0.8520408163265306,-0.8520408163265306,-0.8520408163265306,-0.8520408163265306,-0.8520408163265306,-0.8520408163265306,-0.8520408163265306,-0.8520408163265306,-0.8520408163265306,-0.8520408163265306,-0.8520408163265306,-0.8520408163265306,-0.8520408163265306,-0.8520408163265306,-0.8520408163265306,-0.8520408163265306,-0.8520408163265306,-0.8520408163265306,-0.8520408163265306,-0.8520408163265306,-0.8520408163265306,-0.8520408163265306,-0.8520408163265306,-0.8520408163265306,-0.8520408163265306,-0.8520408163265306,-0.8520408163265306,-0.8520408163265306,-0.8520408163265306,-0.8520408163265306,-0.8520408163265306,-0.8520408163265306,-0.8520408163265306,-0.8520408163265306,-0.8520408163265306,-0.8520408163265306,-0.8520408163265306,-0.8520408163265306,-0.8520408163265306,-0.8520408163265306,-0.8520408163265306,-0.8520408163265306,-0.8520408163265306,-0.8520408163265306,-0.8520408163265306,-0.8520408163265306,-0.8520408163265306,-0.8520408163265306,-0.8520408163265306,-0.8520408163265306,-0.8520408163265306,-0.8520408163265306,-0.8520408163265306,-0.8520408163265306,-0.8520408163265306,-0.8520408163265306,-0.8520408163265306,-0.8520408163265306,-0.8520408163265306,-0.8520408163265306,-0.8520408163265306,-0.8520408163265306,-0.8520408163265306,-0.8520408163265306,-0.8520408163265306,-0.8520408163265306,-0.8520408163265306,-0.8520408163265306,-0.8520408163265306,-0.8520408163265306,-0.8520408163265306,-0.8520408163265306,-0.8520408163265306,-0.8520408163265306,-0.8520408163265306,-0.8520408163265306,-0.8520408163265306,-0.8520408163265306,-0.8520408163265306,-0.8520408163265306,-0.8520408163265306,-0.8520408163265306,-0.8520408163265306,-0.8520408163265306,-0.8520408163265306,-0.8520408163265306,-0.8520408163265306,-0.8520408163265306,-0.8520408163265306,-0.8520408163265306,-0.8520408163265306,-0.8520408163265306,-0.8520408163265306,-0.8520408163265306,-0.8520408163265306,-0.8520408163265306,-0.8520408163265306,-0.8520408163265306,-0.8520408163265306,-0.8520408163265306,-0.8520408163265306,-0.8520408163265306,-0.8520408163265306,-0.8520408163265306,-0.8520408163265306,-0.8520408163265306,-0.8520408163265306,-0.8520408163265306,-0.8520408163265306,-0.8520408163265306,-0.8520408163265306,-0.8520408163265306,-0.8520408163265306,-0.8520408163265306,-0.8520408163265306,-0.8520408163265306,-0.8520408163265306,-0.8520408163265306,-0.8520408163265306,-0.8520408163265306,-0.8520408163265306,-0.8520408163265306,-0.8520408163265306,-0.8520408163265306,-0.8520408163265306,-0.8520408163265306,-0.8520408163265306,-0.8520408163265306,-0.8520408163265306,-0.8520408163265306,-0.8520408163265306,-0.8520408163265306,-0.8520408163265306,-0.8520408163265306,-0.8520408163265306,-0.8520408163265306,-0.8520408163265306,-0.8520408163265306,-0.8520408163265306,-0.8520408163265306,-0.8520408163265306,-0.8520408163265306,-0.8520408163265306,-0.8520408163265306,-0.8520408163265306,-0.8520408163265306,-0.8520408163265306,-0.8520408163265306,-0.8520408163265306,-0.8520408163265306,-0.8520408163265306,-0.8520408163265306,-0.8520408163265306,-0.8520408163265306,-0.8520408163265306,-0.8520408163265306,-0.8520408163265306,-0.8520408163265306,-0.8520408163265306,-0.8520408163265306,-0.8520408163265306,-0.8520408163265306,-0.8520408163265306,-0.8520408163265306,-0.8520408163265306,-0.8520408163265306,-0.8520408163265306,-0.8520408163265306,-0.8520408163265306,-0.8520408163265306,-0.8520408163265306,-0.8520408163265306,-0.8520408163265306,-0.8520408163265306,-0.8520408163265306,-0.8520408163265306,-0.8520408163265306,-0.8520408163265306,-0.8520408163265306,-0.8520408163265306,-0.8520408163265306,-0.8520408163265306,-0.8520408163265306,-0.8520408163265306,-0.8520408163265306,-0.8520408163265306,-0.8520408163265306,-0.8520408163265306,-0.8520408163265306,-0.8520408163265306,-0.8520408163265306,-0.8520408163265306,-0.8520408163265306,-0.8520408163265306,-0.8520408163265306,-0.8520408163265306,-0.8520408163265306,-0.8520408163265306,-0.8520408163265306,-0.8520408163265306,-0.8520408163265306,-0.8520408163265306,-0.8520408163265306,-0.8520408163265306,-0.8520408163265306,-0.8520408163265306,-0.8520408163265306,-0.8520408163265306,-0.8520408163265306,-0.8520408163265306,-0.8520408163265306,-0.8520408163265306,-0.8520408163265306,-0.8520408163265306,-0.8520408163265306,-0.8520408163265306,-0.8520408163265306,-0.8520408163265306,-0.8520408163265306,-0.8520408163265306,-0.8520408163265306,-0.8520408163265306,-0.8520408163265306,-0.8520408163265306,-0.8520408163265306,-0.8520408163265306,-0.8520408163265306,-0.8520408163265306,-0.8520408163265306,-0.8520408163265306,-0.8520408163265306,-0.8520408163265306,-0.8520408163265306,-0.8520408163265306,-0.8520408163265306,-0.8520408163265306,-0.8520408163265306,-0.8520408163265306,-0.8520408163265306,-0.8520408163265306,-0.8520408163265306,-0.8520408163265306,-0.8520408163265306,-0.8520408163265306,-0.8520408163265306,-0.8520408163265306,-0.8520408163265306,-0.8520408163265306,-0.8520408163265306,-0.8520408163265306,-0.8520408163265306,-0.8520408163265306,-0.8520408163265306,-0.8520408163265306,-0.8520408163265306,-0.8520408163265306,-0.8520408163265306,-0.8520408163265306,-0.8520408163265306,-0.8520408163265306,-0.8520408163265306,-0.8520408163265306,-0.8520408163265306,-0.8520408163265306,-0.8520408163265306,-0.8520408163265306,-0.8520408163265306,-0.8520408163265306,-0.8520408163265306,-0.8520408163265306,-0.8520408163265306,-0.8520408163265306,-0.8520408163265306,-0.8520408163265306,-0.8520408163265306,-0.8520408163265306,-0.8520408163265306,-0.8520408163265306,-0.8520408163265306,-0.8520408163265306,-0.8520408163265306,-0.8520408163265306,-0.8520408163265306,-0.8520408163265306,-0.8520408163265306,-0.8520408163265306,-0.8520408163265306,-0.8520408163265306,-0.8520408163265306,-0.8520408163265306,-0.8520408163265306,-0.8520408163265306,-0.8520408163265306,-0.8520408163265306,-0.8520408163265306,-0.8520408163265306,-0.8520408163265306,-0.8520408163265306,-0.8520408163265306,-0.8520408163265306,-0.8520408163265306,-0.8520408163265306,-0.8520408163265306,-0.8520408163265306,-0.8520408163265306,-0.8520408163265306,-0.8520408163265306,-0.8520408163265306,-0.8520408163265306,-0.8520408163265306,-0.8520408163265306,-0.8520408163265306,-0.8520408163265306,-0.8520408163265306,-0.8520408163265306,-0.8520408163265306,-0.8520408163265306,-0.8520408163265306,-0.8520408163265306,-0.8520408163265306,-0.8520408163265306,-0.8520408163265306,-0.8520408163265306,-0.8520408163265306,-0.8520408163265306,-0.8520408163265306,-0.8520408163265306,-0.8520408163265306,-0.8520408163265306,-0.8520408163265306,-0.8520408163265306,-0.8520408163265306,-0.8520408163265306,-0.8520408163265306,-0.8520408163265306,-0.8520408163265306,-0.8520408163265306,-0.8520408163265306,-0.8520408163265306,-0.8520408163265306,-0.8520408163265306,-0.8520408163265306,-0.8520408163265306,-0.8520408163265306,-0.8520408163265306,-0.8520408163265306,-0.8520408163265306,-0.8520408163265306,-0.8520408163265306,-0.8520408163265306,-0.8520408163265306,-0.8520408163265306,-0.8520408163265306,-0.8520408163265306,-0.8520408163265306,-0.8520408163265306,-0.8520408163265306,-0.8520408163265306,-0.8520408163265306,-0.8520408163265306,-0.8520408163265306,-0.8520408163265306,-0.8520408163265306,-0.8520408163265306,-0.8520408163265306,-0.8520408163265306,-0.8520408163265306,-0.8520408163265306,-0.8520408163265306,-0.8520408163265306,-0.8520408163265306,-0.8520408163265306,-0.8520408163265306,-0.8520408163265306,-0.8520408163265306,-0.8520408163265306,-0.8520408163265306,-0.8520408163265306,-0.8520408163265306,-0.8520408163265306,-0.8520408163265306,-0.8520408163265306,-0.8520408163265306,-0.8520408163265306,-0.8520408163265306,-0.8520408163265306,-0.8520408163265306,-0.8520408163265306,-0.8520408163265306,-0.8520408163265306,-0.8520408163265306,-0.8520408163265306,-0.8520408163265306,-0.8520408163265306,-0.8520408163265306,-0.8520408163265306,-0.8520408163265306,-0.8520408163265306,-0.8520408163265306,-0.8520408163265306,-0.8520408163265306,-0.8520408163265306,-0.8520408163265306,-0.8520408163265306,-0.8520408163265306,-0.8520408163265306,-0.8520408163265306,-0.8520408163265306,-0.8520408163265306,-0.8520408163265306,-0.8520408163265306,-0.8520408163265306,-0.8520408163265306,-0.8520408163265306,-0.8520408163265306,-0.8520408163265306,-0.8520408163265306,-0.8520408163265306,-0.8520408163265306,-0.8520408163265306,-0.8520408163265306,-0.8520408163265306,-0.8520408163265306,-0.8520408163265306,-0.8520408163265306,-0.8520408163265306,-0.8520408163265306,-0.8520408163265306,-0.8520408163265306,-0.8520408163265306,-0.8520408163265306,-0.8520408163265306,-0.8520408163265306,-0.8520408163265306,-0.8520408163265306,-0.8520408163265306,-0.8520408163265306,-0.8520408163265306,-0.8520408163265306,-0.8520408163265306,-0.8520408163265306,-0.8520408163265306,-0.8520408163265306,-0.8520408163265306,-0.8520408163265306,-0.8520408163265306,-0.8520408163265306,-0.8520408163265306,-0.8520408163265306,-0.8520408163265306,-0.8520408163265306,-0.8520408163265306,-0.8520408163265306,-0.8520408163265306,-0.8520408163265306,-0.8520408163265306,-0.8520408163265306,-0.8520408163265306,-0.8520408163265306,-0.8520408163265306,-0.8520408163265306,-0.8520408163265306,-0.8520408163265306,-0.8520408163265306,-0.8520408163265306,-0.8520408163265306,-0.8520408163265306,-0.8520408163265306,-0.8520408163265306,-0.8520408163265306,-0.8520408163265306,-0.8520408163265306,-0.8520408163265306,-0.8520408163265306,-0.8520408163265306,-0.8520408163265306,-0.8520408163265306,-0.8520408163265306,-0.8520408163265306,-0.8520408163265306,-0.8520408163265306,-0.8520408163265306,-0.8520408163265306,-0.8520408163265306,-0.8520408163265306,-0.8520408163265306,-0.8520408163265306,-0.8520408163265306,-0.8520408163265306,-0.8520408163265306,-0.8520408163265306,-0.8520408163265306,-0.8520408163265306,-0.8520408163265306,-0.8520408163265306,-0.8520408163265306,-0.8520408163265306,-0.8520408163265306,-0.8520408163265306,-0.8520408163265306,-0.8520408163265306,-0.8520408163265306,-0.8520408163265306,-0.8520408163265306,-0.8520408163265306,-0.8520408163265306,-0.8520408163265306,-0.8520408163265306,-0.8520408163265306,-0.8520408163265306,-0.8520408163265306,-0.8520408163265306,-0.8520408163265306,-0.8520408163265306,-0.8520408163265306,-0.8520408163265306,-0.8520408163265306,-0.8520408163265306,-0.8520408163265306,-0.8520408163265306,-0.8520408163265306,-0.8520408163265306,-0.8520408163265306,-0.8520408163265306,-0.8520408163265306,-0.8520408163265306,-0.8520408163265306,-0.8520408163265306,-0.8520408163265306,-0.8520408163265306,-0.8520408163265306,-0.8520408163265306,-0.8520408163265306,-0.858843537414966,-0.9472789115646258,-1.0357142857142858,-1.0833333333333333,-1.0935374149659864,-1.1037414965986394,-1.1241496598639455,-1.1479591836734695,-1.1649659863945578,-1.1785714285714286,-1.1785714285714286,-1.1819727891156462,-1.1819727891156462,-1.1819727891156462,-1.185374149659864,-1.1887755102040816,-1.195578231292517,-1.195578231292517,-1.195578231292517,-1.195578231292517,-1.195578231292517,-1.195578231292517,-1.195578231292517,-1.195578231292517,-1.195578231292517,-1.1989795918367347,-1.1989795918367347,-1.1989795918367347,-1.1989795918367347,-1.1989795918367347,-1.1989795918367347,-1.1989795918367347,-1.1989795918367347,-1.1989795918367347,-1.1989795918367347,-1.1989795918367347,-1.1989795918367347,-1.185374149659864,-1.16156462585034,-1.1377551020408163,-1.120748299319728,-1.0935374149659864,-1.0629251700680271,-1.0357142857142858,-1.0085034013605443,-0.9778911564625851,-0.9574829931972789,-0.9336734693877551,-0.9132653061224489,-0.8962585034013606,-0.8894557823129252,-0.8860544217687075,-0.8860544217687075,-0.8826530612244898,-0.8724489795918368,-0.858843537414966,-0.8452380952380952,-0.8350340136054422,-0.8316326530612245,-0.8316326530612245,-0.8316326530612245,-0.8316326530612245,-0.8316326530612245,-0.8316326530612245,-0.8316326530612245,-0.8316326530612245,-0.8316326530612245,-0.8316326530612245,-0.8316326530612245,-0.8316326530612245,-0.8316326530612245,-0.8316326530612245,-0.8316326530612245,-0.8316326530612245,-0.8316326530612245,-0.8316326530612245,-0.8316326530612245,-0.8316326530612245,-0.8316326530612245,-0.8316326530612245,-0.8316326530612245,-0.8316326530612245,-0.8316326530612245,-0.8316326530612245,-0.8316326530612245,-0.8316326530612245,-0.8316326530612245,-0.8316326530612245,-0.8316326530612245,-0.8316326530612245,-0.8316326530612245,-0.8316326530612245,-0.8316326530612245,-0.8316326530612245,-0.8316326530612245,-0.8316326530612245,-0.8316326530612245,-0.8316326530612245,-0.8316326530612245,-0.8316326530612245,-0.8316326530612245,-0.8316326530612245,-0.8316326530612245,-0.8316326530612245,-0.8316326530612245,-0.8316326530612245,-0.8316326530612245,-0.8316326530612245,-0.8316326530612245,-0.8316326530612245,-0.8316326530612245,-0.8316326530612245,-0.8316326530612245,-0.8316326530612245,-0.8316326530612245,-0.8316326530612245,-0.8316326530612245,-0.8316326530612245,-0.8316326530612245,-0.8316326530612245,-0.8316326530612245,-0.8316326530612245,-0.8316326530612245,-0.8316326530612245,-0.8316326530612245,-0.8316326530612245,-0.8316326530612245,-0.8316326530612245,-0.8316326530612245,-0.8316326530612245,-0.8316326530612245,-0.8316326530612245,-0.8316326530612245,-0.8316326530612245,-0.8316326530612245,-0.8316326530612245,-0.8316326530612245,-0.8316326530612245,-0.8316326530612245,-0.8316326530612245,-0.8316326530612245,-0.8316326530612245,-0.8316326530612245,-0.8316326530612245,-0.8316326530612245,-0.8316326530612245,-0.8316326530612245,-0.8316326530612245,-0.8316326530612245,-0.8316326530612245,-0.8316326530612245,-0.8316326530612245,-0.8316326530612245,-0.8316326530612245,-0.8316326530612245,-0.8316326530612245,-0.8316326530612245,-0.8316326530612245,-0.8316326530612245,-0.8316326530612245,-0.8316326530612245,-0.8316326530612245,-0.8316326530612245,-0.8316326530612245,-0.8316326530612245,-0.8316326530612245,-0.8316326530612245,-0.8316326530612245,-0.8316326530612245,-0.8316326530612245,-0.8316326530612245,-0.8316326530612245,-0.8316326530612245,-0.8316326530612245,-0.8316326530612245,-0.8316326530612245,-0.8316326530612245,-0.8316326530612245,-0.8316326530612245,-0.8316326530612245,-0.8316326530612245,-0.8316326530612245,-0.8316326530612245,-0.8316326530612245,-0.8316326530612245,-0.8316326530612245,-0.8316326530612245,-0.8316326530612245,-0.8316326530612245,-0.8316326530612245,-0.8316326530612245,-0.8316326530612245,-0.8316326530612245,-0.8316326530612245,-0.8316326530612245,-0.8316326530612245,-0.8316326530612245,-0.8316326530612245,-0.8316326530612245,-0.8316326530612245,-0.8316326530612245,-0.8316326530612245,-0.8316326530612245,-0.8316326530612245,-0.8316326530612245,-0.8316326530612245,-0.8316326530612245,-0.8316326530612245,-0.8316326530612245,-0.8316326530612245,-0.8316326530612245,-0.8316326530612245,-0.8316326530612245,-0.8316326530612245,-0.8316326530612245,-0.8316326530612245,-0.8316326530612245,-0.8316326530612245,-0.8316326530612245,-0.8316326530612245,-0.8316326530612245,-0.8316326530612245,-0.8316326530612245,-0.8316326530612245,-0.8316326530612245,-0.8316326530612245,-0.8316326530612245,-0.8316326530612245,-0.8316326530612245,-0.8316326530612245,-0.8316326530612245,-0.8316326530612245,-0.8316326530612245,-0.8316326530612245,-0.8316326530612245,-0.8316326530612245,-0.8316326530612245,-0.8316326530612245,-0.8316326530612245,-0.8316326530612245,-0.8316326530612245,-0.8316326530612245,-0.8316326530612245,-0.8316326530612245,-0.8316326530612245,-0.8316326530612245,-0.8316326530612245,-0.8316326530612245,-0.8316326530612245,-0.8316326530612245,-0.8316326530612245,-0.8316326530612245,-0.8316326530612245,-0.8316326530612245,-0.8316326530612245,-0.8316326530612245,-0.8316326530612245,-0.8316326530612245,-0.8316326530612245,-0.8316326530612245,-0.8316326530612245,-0.8316326530612245,-0.8316326530612245,-0.8316326530612245,-0.8316326530612245,-0.8316326530612245,-0.8316326530612245,-0.8316326530612245,-0.8316326530612245,-0.8316326530612245,-0.8316326530612245,-0.8316326530612245,-0.8316326530612245,-0.8316326530612245,-0.8316326530612245,-0.8316326530612245,-0.8316326530612245,-0.8316326530612245,-0.8316326530612245,-0.8316326530612245,-0.8316326530612245,-0.8316326530612245,-0.8316326530612245,-0.8316326530612245,-0.8316326530612245,-0.8316326530612245,-0.8316326530612245,-0.8316326530612245,-0.8316326530612245,-0.8316326530612245,-0.8316326530612245,-0.8316326530612245,-0.8316326530612245,-0.8316326530612245,-0.8316326530612245,-0.8316326530612245,-0.8316326530612245,-0.8316326530612245,-0.8316326530612245,-0.8316326530612245,-0.8316326530612245,-0.8316326530612245,-0.8316326530612245,-0.8316326530612245,-0.8316326530612245,-0.8316326530612245,-0.8316326530612245,-0.8316326530612245,-0.8316326530612245,-0.8316326530612245,-0.8316326530612245,-0.8316326530612245,-0.8316326530612245,-0.8316326530612245,-0.8316326530612245,-0.8316326530612245,-0.8316326530612245,-0.8316326530612245,-0.8316326530612245,-0.8316326530612245,-0.8316326530612245,-0.8316326530612245,-0.8316326530612245,-0.8316326530612245,-0.8316326530612245,-0.8316326530612245,-0.8316326530612245,-0.8316326530612245,-0.8316326530612245,-0.8316326530612245,-0.8316326530612245,-0.8316326530612245,-0.8316326530612245,-0.8316326530612245,-0.8316326530612245,-0.8316326530612245,-0.8316326530612245,-0.8316326530612245,-0.8316326530612245,-0.8316326530612245,-0.8316326530612245,-0.8316326530612245,-0.8316326530612245,-0.8316326530612245,-0.8316326530612245,-0.8316326530612245,-0.8316326530612245,-0.8316326530612245,-0.8316326530612245,-0.8316326530612245,-0.8316326530612245,-0.8316326530612245,-0.8316326530612245,-0.8316326530612245,-0.8316326530612245,-0.8316326530612245,-0.8316326530612245,-0.8316326530612245,-0.8316326530612245,-0.8316326530612245,-0.8316326530612245,-0.8316326530612245,-0.8316326530612245,-0.8316326530612245,-0.8316326530612245,-0.8316326530612245,-0.8316326530612245,-0.8316326530612245,-0.8316326530612245,-0.8316326530612245,-0.8316326530612245,-0.8316326530612245,-0.8316326530612245,-0.8316326530612245,-0.8316326530612245,-0.8316326530612245,-0.8316326530612245,-0.8316326530612245,-0.8316326530612245,-0.8316326530612245,-0.8316326530612245,-0.8316326530612245,-0.8316326530612245],"y":[-4.285714285714286,-4.285714285714286,-4.285714285714286,-4.285714285714286,-4.285714285714286,-4.285714285714286,-4.285714285714286,-4.285714285714286,-4.285714285714286,-4.285714285714286,-4.285714285714286,-4.285714285714286,-4.285714285714286,-4.285714285714286,-4.285714285714286,-4.285714285714286,-4.285714285714286,-4.285714285714286,-4.285714285714286,-4.285714285714286,-4.285714285714286,-4.285714285714286,-4.285714285714286,-4.285714285714286,-4.285714285714286,-4.285714285714286,-4.285714285714286,-4.285714285714286,-4.285714285714286,-4.285714285714286,-4.285714285714286,-4.285714285714286,-4.285714285714286,-4.285714285714286,-4.285714285714286,-4.285714285714286,-4.285714285714286,-4.285714285714286,-4.285714285714286,-4.285714285714286,-4.285714285714286,-4.285714285714286,-4.285714285714286,-4.285714285714286,-4.285714285714286,-4.285714285714286,-4.285714285714286,-4.285714285714286,-4.285714285714286,-4.285714285714286,-4.285714285714286,-4.285714285714286,-4.285714285714286,-4.285714285714286,-4.285714285714286,-4.285714285714286,-4.285714285714286,-4.285714285714286,-4.285714285714286,-4.285714285714286,-4.285714285714286,-4.285714285714286,-4.285714285714286,-4.285714285714286,-4.285714285714286,-4.285714285714286,-4.285714285714286,-4.285714285714286,-4.285714285714286,-4.285714285714286,1.0952380952380953,1.0952380952380953,1.0952380952380953,1.0857142857142856,1.0666666666666667,1.0476190476190477,1.0476190476190477,1.0476190476190477,1.0476190476190477,1.0476190476190477,1.0476190476190477,1.0476190476190477,1.0476190476190477,1.0476190476190477,1.0476190476190477,1.0476190476190477,1.0476190476190477,1.0476190476190477,1.0476190476190477,1.0476190476190477,1.0476190476190477,1.0476190476190477,1.0476190476190477,1.0476190476190477,1.0476190476190477,1.0380952380952382,1.0285714285714285,0.9904761904761905,0.9619047619047619,0.9333333333333333,0.9047619047619048,0.8857142857142857,0.8761904761904762,0.8666666666666667,0.8666666666666667,0.8571428571428571,0.8476190476190476,0.8380952380952381,0.8285714285714286,0.819047619047619,0.819047619047619,0.819047619047619,0.819047619047619,0.819047619047619,0.819047619047619,0.819047619047619,0.819047619047619,0.819047619047619,0.819047619047619,0.819047619047619,0.819047619047619,0.819047619047619,0.819047619047619,0.819047619047619,0.819047619047619,0.819047619047619,0.819047619047619,0.819047619047619,0.819047619047619,0.819047619047619,0.819047619047619,0.819047619047619,0.819047619047619,0.819047619047619,0.819047619047619,0.819047619047619,0.819047619047619,0.819047619047619,0.819047619047619,0.819047619047619,0.819047619047619,0.819047619047619,0.819047619047619,0.819047619047619,0.819047619047619,0.819047619047619,0.819047619047619,0.819047619047619,0.819047619047619,0.819047619047619,0.819047619047619,0.819047619047619,0.819047619047619,0.819047619047619,0.819047619047619,0.819047619047619,0.819047619047619,0.819047619047619,0.819047619047619,0.819047619047619,0.819047619047619,0.819047619047619,0.819047619047619,0.819047619047619,0.819047619047619,0.819047619047619,0.819047619047619,0.819047619047619,0.819047619047619,0.819047619047619,0.819047619047619,0.819047619047619,0.819047619047619,0.819047619047619,0.819047619047619,0.819047619047619,0.819047619047619,0.819047619047619,0.819047619047619,0.819047619047619,0.819047619047619,0.819047619047619,0.819047619047619,0.819047619047619,0.819047619047619,0.819047619047619,0.819047619047619,0.819047619047619,0.819047619047619,0.819047619047619,0.819047619047619,0.819047619047619,0.819047619047619,0.819047619047619,0.819047619047619,0.819047619047619,0.819047619047619,0.819047619047619,0.819047619047619,0.819047619047619,0.819047619047619,0.819047619047619,0.819047619047619,0.819047619047619,0.819047619047619,0.819047619047619,0.819047619047619,0.819047619047619,0.819047619047619,0.819047619047619,0.819047619047619,0.819047619047619,0.819047619047619,0.819047619047619,0.819047619047619,0.819047619047619,0.819047619047619,0.819047619047619,0.819047619047619,0.819047619047619,0.819047619047619,0.819047619047619,0.819047619047619,0.819047619047619,0.819047619047619,0.819047619047619,0.819047619047619,0.819047619047619,0.819047619047619,0.819047619047619,0.819047619047619,0.819047619047619,0.819047619047619,0.819047619047619,0.819047619047619,0.819047619047619,0.819047619047619,0.819047619047619,0.819047619047619,0.819047619047619,0.819047619047619,0.819047619047619,0.819047619047619,0.819047619047619,0.819047619047619,0.819047619047619,0.819047619047619,0.819047619047619,0.819047619047619,0.819047619047619,0.819047619047619,0.819047619047619,0.819047619047619,0.819047619047619,0.819047619047619,0.819047619047619,0.819047619047619,0.819047619047619,0.819047619047619,0.819047619047619,0.819047619047619,0.819047619047619,0.819047619047619,0.819047619047619,0.819047619047619,0.819047619047619,0.819047619047619,0.819047619047619,0.819047619047619,0.819047619047619,0.819047619047619,0.819047619047619,0.819047619047619,0.819047619047619,0.819047619047619,0.819047619047619,0.819047619047619,0.819047619047619,0.819047619047619,0.819047619047619,0.819047619047619,0.819047619047619,0.819047619047619,0.819047619047619,0.819047619047619,0.819047619047619,0.819047619047619,0.819047619047619,0.819047619047619,0.819047619047619,0.819047619047619,0.819047619047619,0.819047619047619,0.819047619047619,0.819047619047619,0.819047619047619,0.819047619047619,0.819047619047619,0.819047619047619,0.819047619047619,0.819047619047619,0.819047619047619,0.819047619047619,0.819047619047619,0.819047619047619,0.819047619047619,0.819047619047619,0.819047619047619,0.819047619047619,0.819047619047619,0.819047619047619,0.819047619047619,0.819047619047619,0.819047619047619,0.819047619047619,0.819047619047619,0.819047619047619,0.819047619047619,0.819047619047619,0.819047619047619,0.819047619047619,0.819047619047619,0.819047619047619,0.819047619047619,0.819047619047619,0.819047619047619,0.819047619047619,0.819047619047619,0.819047619047619,0.819047619047619,0.819047619047619,0.819047619047619,0.819047619047619,0.819047619047619,0.819047619047619,0.819047619047619,0.819047619047619,0.819047619047619,0.819047619047619,0.819047619047619,0.819047619047619,0.819047619047619,0.819047619047619,0.819047619047619,0.819047619047619,0.819047619047619,0.819047619047619,0.819047619047619,0.819047619047619,0.819047619047619,0.819047619047619,0.819047619047619,0.819047619047619,0.819047619047619,0.819047619047619,0.819047619047619,0.819047619047619,0.819047619047619,0.819047619047619,0.819047619047619,0.819047619047619,0.819047619047619,0.819047619047619,0.819047619047619,0.819047619047619,0.819047619047619,0.819047619047619,0.819047619047619,0.819047619047619,0.819047619047619,0.819047619047619,0.819047619047619,0.819047619047619,0.819047619047619,0.819047619047619,0.819047619047619,0.819047619047619,0.819047619047619,0.819047619047619,0.819047619047619,0.819047619047619,0.819047619047619,0.819047619047619,0.819047619047619,0.819047619047619,0.819047619047619,0.819047619047619,0.819047619047619,0.819047619047619,0.819047619047619,0.819047619047619,0.819047619047619,0.819047619047619,0.819047619047619,0.819047619047619,0.8380952380952381,0.8380952380952381,0.8285714285714286,0.7904761904761904,0.7904761904761904,0.8095238095238095,0.8380952380952381,0.8857142857142857,0.9047619047619048,0.9238095238095239,0.9333333333333333,0.9523809523809523,0.9809523809523809,1.019047619047619,1.0380952380952382,1.0571428571428572,1.0571428571428572,1.0666666666666667,1.0666666666666667,1.0666666666666667,1.0666666666666667,1.0666666666666667,1.0666666666666667,1.0666666666666667,1.0571428571428572,1.0380952380952382,1.019047619047619,1.0095238095238095,1.0095238095238095,1.0095238095238095,1.0095238095238095,1,0.9904761904761905,0.9809523809523809,0.9809523809523809,0.9809523809523809,0.9809523809523809,0.9714285714285714,0.9714285714285714,0.9714285714285714,0.9714285714285714,0.9714285714285714,0.9619047619047619,0.9619047619047619,0.9619047619047619,0.9619047619047619,0.9619047619047619,0.9619047619047619,0.9619047619047619,0.9619047619047619,0.9619047619047619,0.9619047619047619,0.9523809523809523,0.9428571428571428,0.9238095238095239,0.9047619047619048,0.8952380952380953,0.8761904761904762,0.8761904761904762,0.8666666666666667,0.8666666666666667,0.8666666666666667,0.8666666666666667,0.8666666666666667,0.8666666666666667,0.8666666666666667,0.8666666666666667,0.8666666666666667,0.8666666666666667,0.8666666666666667,0.8666666666666667,0.8666666666666667,0.8666666666666667,0.8666666666666667,0.8666666666666667,0.8666666666666667,0.8666666666666667,0.8666666666666667,0.8666666666666667,0.8666666666666667,0.8666666666666667,0.8666666666666667,0.8666666666666667,0.8666666666666667,0.8666666666666667,0.8666666666666667,0.8666666666666667,0.8666666666666667,0.8666666666666667,0.8666666666666667,0.8666666666666667,0.8666666666666667,0.8666666666666667,0.8666666666666667,0.8666666666666667,0.8666666666666667,0.8666666666666667,0.8666666666666667,0.8666666666666667,0.8666666666666667,0.8666666666666667,0.8666666666666667,0.8666666666666667,0.8666666666666667,0.8666666666666667,0.8666666666666667,0.8666666666666667,0.8666666666666667,0.8666666666666667,0.8666666666666667,0.8666666666666667,0.8666666666666667,0.8666666666666667,0.8666666666666667,0.8666666666666667,0.8666666666666667,0.8666666666666667,0.8666666666666667,0.8666666666666667,0.8666666666666667,0.8666666666666667,0.8666666666666667,0.8666666666666667,0.8666666666666667,0.8666666666666667,0.8666666666666667,0.8666666666666667,0.8666666666666667,0.8666666666666667,0.8666666666666667,0.8666666666666667,0.8666666666666667,0.8666666666666667,0.8666666666666667,0.8666666666666667,0.8666666666666667,0.8666666666666667,0.8666666666666667,0.8666666666666667,0.8666666666666667,0.8666666666666667,0.8666666666666667,0.8666666666666667,0.8666666666666667,0.8666666666666667,0.8666666666666667,0.8666666666666667,0.8666666666666667,0.8666666666666667,0.8666666666666667,0.8666666666666667,0.8666666666666667,0.8666666666666667,0.8666666666666667,0.8666666666666667,0.8666666666666667,0.8666666666666667,0.8666666666666667,0.8666666666666667,0.8666666666666667,0.8666666666666667,0.8666666666666667,0.8666666666666667,0.8666666666666667,0.8666666666666667,0.8666666666666667,0.8666666666666667,0.8666666666666667,0.8666666666666667,0.8666666666666667,0.8666666666666667,0.8666666666666667,0.8666666666666667,0.8666666666666667,0.8666666666666667,0.8666666666666667,0.8666666666666667,0.8666666666666667,0.8666666666666667,0.8666666666666667,0.8666666666666667,0.8666666666666667,0.8666666666666667,0.8666666666666667,0.8666666666666667,0.8666666666666667,0.8666666666666667,0.8666666666666667,0.8666666666666667,0.8666666666666667,0.8666666666666667,0.8666666666666667,0.8666666666666667,0.8666666666666667,0.8666666666666667,0.8666666666666667,0.8666666666666667,0.8666666666666667,0.8666666666666667,0.8666666666666667,0.8666666666666667,0.8666666666666667,0.8666666666666667,0.8666666666666667,0.8666666666666667,0.8666666666666667,0.8666666666666667,0.8666666666666667,0.8666666666666667,0.8666666666666667,0.8666666666666667,0.8666666666666667,0.8666666666666667,0.8666666666666667,0.8666666666666667,0.8666666666666667,0.8666666666666667,0.8666666666666667,0.8666666666666667,0.8666666666666667,0.8666666666666667,0.8666666666666667,0.8666666666666667,0.8666666666666667,0.8666666666666667,0.8666666666666667,0.8666666666666667,0.8666666666666667,0.8666666666666667,0.8666666666666667,0.8666666666666667,0.8666666666666667,0.8666666666666667,0.8666666666666667,0.8666666666666667,0.8666666666666667,0.8666666666666667,0.8666666666666667,0.8666666666666667,0.8666666666666667,0.8666666666666667,0.8666666666666667,0.8666666666666667,0.8666666666666667,0.8666666666666667,0.8666666666666667,0.8666666666666667,0.8666666666666667,0.8666666666666667,0.8666666666666667,0.8666666666666667,0.8666666666666667,0.8666666666666667,0.8666666666666667,0.8666666666666667,0.8666666666666667,0.8666666666666667,0.8666666666666667,0.8666666666666667,0.8666666666666667,0.8666666666666667,0.8666666666666667,0.8666666666666667,0.8666666666666667,0.8666666666666667,0.8666666666666667,0.8666666666666667,0.8666666666666667,0.8666666666666667,0.8666666666666667,0.8666666666666667,0.8666666666666667,0.8666666666666667,0.8666666666666667,0.8666666666666667,0.8666666666666667,0.8666666666666667,0.8666666666666667,0.8666666666666667,0.8666666666666667,0.8666666666666667,0.8666666666666667,0.8666666666666667,0.8666666666666667,0.8666666666666667,0.8666666666666667,0.8666666666666667,0.8666666666666667,0.8666666666666667,0.8666666666666667,0.8666666666666667,0.8666666666666667,0.8666666666666667,0.8666666666666667,0.8666666666666667,0.8666666666666667,0.8666666666666667,0.8666666666666667,0.8666666666666667,0.8666666666666667,0.8666666666666667,0.8666666666666667,0.8666666666666667,0.8666666666666667,0.8666666666666667,0.8666666666666667,0.8666666666666667,0.8666666666666667,0.8666666666666667,0.8666666666666667,0.8666666666666667,0.8666666666666667,0.8666666666666667,0.8666666666666667,0.8666666666666667,0.8666666666666667,0.8666666666666667,0.8666666666666667,0.8666666666666667,0.8666666666666667,0.8666666666666667,0.8666666666666667,0.8666666666666667,0.8666666666666667,0.8666666666666667,0.8666666666666667,0.8666666666666667,0.8666666666666667,0.8666666666666667,0.8666666666666667,0.8666666666666667,0.8666666666666667,0.8666666666666667,0.8666666666666667,0.8666666666666667,0.8666666666666667,0.8666666666666667,0.8666666666666667,0.8666666666666667,0.8666666666666667,0.8666666666666667,0.8666666666666667,0.8666666666666667,0.8666666666666667,0.8666666666666667,0.8666666666666667,0.8666666666666667,0.8666666666666667,0.8666666666666667,0.8666666666666667,0.8666666666666667,0.8666666666666667,0.8666666666666667,0.8666666666666667,0.8666666666666667,0.8666666666666667,0.8666666666666667,0.8666666666666667,0.8666666666666667,0.8666666666666667,0.8666666666666667,0.8666666666666667,0.8666666666666667,0.8666666666666667,0.8666666666666667,0.8666666666666667,0.8666666666666667,0.8666666666666667,0.8666666666666667,0.8666666666666667,0.8666666666666667,0.8666666666666667,0.8666666666666667,0.8666666666666667,0.8666666666666667,0.8666666666666667,0.8666666666666667,0.8666666666666667,0.8666666666666667,0.8666666666666667,0.8666666666666667,0.8666666666666667,0.8666666666666667,0.8666666666666667,0.8666666666666667,0.8666666666666667,0.8666666666666667,0.8666666666666667,0.8666666666666667,0.8666666666666667,0.8666666666666667,0.8666666666666667,0.8666666666666667,0.8666666666666667,0.8666666666666667,0.8666666666666667,0.8666666666666667,0.8666666666666667,0.8666666666666667,0.8666666666666667,0.8666666666666667,0.8666666666666667,0.8666666666666667,0.8666666666666667,0.8666666666666667,0.8666666666666667,0.8666666666666667,0.8666666666666667,0.8666666666666667,0.8666666666666667,0.8666666666666667,0.8666666666666667,0.8666666666666667,0.8666666666666667,0.8666666666666667,0.8666666666666667,0.8666666666666667,0.8666666666666667,0.8666666666666667,0.8666666666666667,0.8666666666666667,0.8666666666666667,0.8666666666666667,0.8666666666666667,0.8666666666666667,0.8666666666666667,0.8666666666666667,0.8666666666666667,0.8666666666666667,0.8666666666666667,0.8666666666666667,0.8666666666666667,0.8666666666666667,0.8666666666666667,0.8666666666666667,0.8666666666666667,0.8666666666666667,0.8666666666666667,0.8666666666666667,0.8666666666666667,0.8666666666666667,0.8666666666666667,0.8666666666666667,0.8666666666666667,0.8666666666666667,0.8666666666666667,0.8666666666666667,0.8666666666666667,0.8666666666666667,0.8666666666666667,0.8666666666666667,0.8666666666666667,0.8666666666666667,0.8666666666666667,0.8666666666666667,0.8666666666666667,0.8666666666666667,0.8666666666666667,0.8666666666666667,0.8666666666666667,0.8666666666666667,0.8666666666666667,0.8666666666666667,0.8666666666666667,0.8666666666666667,0.8666666666666667,0.8666666666666667,0.8666666666666667,0.8666666666666667,0.8666666666666667,0.8666666666666667,0.8666666666666667,0.8666666666666667,0.8666666666666667,0.8666666666666667,0.8666666666666667,0.8666666666666667,0.8666666666666667,0.8666666666666667,0.8666666666666667,0.8666666666666667,0.8666666666666667,0.8666666666666667,0.8666666666666667,0.8666666666666667,0.8666666666666667,0.8666666666666667,0.8666666666666667,0.8666666666666667,0.8666666666666667,0.8666666666666667,0.8666666666666667,0.8666666666666667,0.8666666666666667,0.8666666666666667,0.8666666666666667,0.8666666666666667,0.8666666666666667,0.8666666666666667,0.8666666666666667,0.8666666666666667,0.8666666666666667,0.8666666666666667,0.8666666666666667,0.8666666666666667,0.8666666666666667,0.8666666666666667,0.8666666666666667,0.8666666666666667,0.8666666666666667,0.8666666666666667,0.8666666666666667,0.8666666666666667,0.8666666666666667,0.8666666666666667,0.8666666666666667,0.8666666666666667,0.8666666666666667,0.8666666666666667,0.8666666666666667,0.8666666666666667,0.8666666666666667,0.8666666666666667,0.8666666666666667,0.8666666666666667,0.8666666666666667,0.8666666666666667,0.8666666666666667,0.8666666666666667,0.8666666666666667,0.8666666666666667,0.8666666666666667,0.8666666666666667,0.8666666666666667,0.8666666666666667,0.8666666666666667,0.8666666666666667,0.8666666666666667,0.8666666666666667,0.8666666666666667,0.8666666666666667,0.8666666666666667,0.8666666666666667,0.8666666666666667,0.8666666666666667,0.8666666666666667,0.8666666666666667,0.8666666666666667,0.8666666666666667,0.8666666666666667,0.8666666666666667,0.8666666666666667,0.8666666666666667,0.8666666666666667,0.8666666666666667,0.8666666666666667,0.8666666666666667,0.8666666666666667,0.8666666666666667,0.8666666666666667,0.8666666666666667,0.8666666666666667,0.8666666666666667,0.8666666666666667,0.8666666666666667,0.8666666666666667,0.8666666666666667,0.8666666666666667,0.8666666666666667,0.8666666666666667,0.8666666666666667,0.8666666666666667,0.8666666666666667,0.8666666666666667,0.8666666666666667,0.8666666666666667,0.8666666666666667,0.8666666666666667,0.8666666666666667,0.8666666666666667,0.8666666666666667,0.8666666666666667,0.8666666666666667,0.8666666666666667,0.8666666666666667,0.8666666666666667,0.8666666666666667,0.8666666666666667,0.8666666666666667,0.8666666666666667,0.8666666666666667,0.8666666666666667,0.8666666666666667,0.8666666666666667,0.8666666666666667,0.8666666666666667,0.8666666666666667,0.8666666666666667,0.8666666666666667,0.8666666666666667,0.8666666666666667,0.8666666666666667,0.8666666666666667,0.8666666666666667,0.8666666666666667,0.9619047619047619,1.1047619047619048,1.2380952380952381,1.4761904761904763,1.7809523809523808,2.0476190476190474,2.1523809523809523,2.2,2.2285714285714286,2.2285714285714286,2.238095238095238,2.238095238095238,2.238095238095238,2.238095238095238,2.238095238095238,2.238095238095238,2.238095238095238,2.238095238095238,2.238095238095238,2.238095238095238,2.238095238095238,2.238095238095238,2.238095238095238,2.238095238095238,2.238095238095238,2.238095238095238,2.238095238095238,2.238095238095238,2.238095238095238,2.238095238095238,2.238095238095238,2.238095238095238,2.238095238095238,2.238095238095238,2.238095238095238,2.2285714285714286,2.1904761904761907,2.1333333333333333,2.0285714285714285,1.9428571428571428,1.819047619047619,1.6857142857142857,1.5714285714285714,1.457142857142857,1.3047619047619048,1.2476190476190476,1.1904761904761905,1.1428571428571428,1.1047619047619048,1.0952380952380953,1.0952380952380953,1.0952380952380953,1.0857142857142856,1.0666666666666667,1.0380952380952382,1.019047619047619,0.9904761904761905,0.9904761904761905,0.9904761904761905,0.9904761904761905,0.9904761904761905,0.9904761904761905,0.9904761904761905,0.9904761904761905,0.9904761904761905,0.9904761904761905,0.9904761904761905,0.9904761904761905,0.9904761904761905,0.9904761904761905,0.9904761904761905,0.9904761904761905,0.9904761904761905,0.9904761904761905,0.9904761904761905,0.9904761904761905,0.9904761904761905,0.9904761904761905,0.9904761904761905,0.9904761904761905,0.9904761904761905,0.9904761904761905,0.9904761904761905,0.9904761904761905,0.9904761904761905,0.9904761904761905,0.9904761904761905,0.9904761904761905,0.9904761904761905,0.9904761904761905,0.9904761904761905,0.9904761904761905,0.9904761904761905,0.9904761904761905,0.9904761904761905,0.9904761904761905,0.9904761904761905,0.9904761904761905,0.9904761904761905,0.9904761904761905,0.9904761904761905,0.9904761904761905,0.9904761904761905,0.9904761904761905,0.9904761904761905,0.9904761904761905,0.9904761904761905,0.9904761904761905,0.9904761904761905,0.9904761904761905,0.9904761904761905,0.9904761904761905,0.9904761904761905,0.9904761904761905,0.9904761904761905,0.9904761904761905,0.9904761904761905,0.9904761904761905,0.9904761904761905,0.9904761904761905,0.9904761904761905,0.9904761904761905,0.9904761904761905,0.9904761904761905,0.9904761904761905,0.9904761904761905,0.9904761904761905,0.9904761904761905,0.9904761904761905,0.9904761904761905,0.9904761904761905,0.9904761904761905,0.9904761904761905,0.9904761904761905,0.9904761904761905,0.9904761904761905,0.9904761904761905,0.9904761904761905,0.9904761904761905,0.9904761904761905,0.9904761904761905,0.9904761904761905,0.9904761904761905,0.9904761904761905,0.9904761904761905,0.9904761904761905,0.9904761904761905,0.9904761904761905,0.9904761904761905,0.9904761904761905,0.9904761904761905,0.9904761904761905,0.9904761904761905,0.9904761904761905,0.9904761904761905,0.9904761904761905,0.9904761904761905,0.9904761904761905,0.9904761904761905,0.9904761904761905,0.9904761904761905,0.9904761904761905,0.9904761904761905,0.9904761904761905,0.9904761904761905,0.9904761904761905,0.9904761904761905,0.9904761904761905,0.9904761904761905,0.9904761904761905,0.9904761904761905,0.9904761904761905,0.9904761904761905,0.9904761904761905,0.9904761904761905,0.9904761904761905,0.9904761904761905,0.9904761904761905,0.9904761904761905,0.9904761904761905,0.9904761904761905,0.9904761904761905,0.9904761904761905,0.9904761904761905,0.9904761904761905,0.9904761904761905,0.9904761904761905,0.9904761904761905,0.9904761904761905,0.9904761904761905,0.9904761904761905,0.9904761904761905,0.9904761904761905,0.9904761904761905,0.9904761904761905,0.9904761904761905,0.9904761904761905,0.9904761904761905,0.9904761904761905,0.9904761904761905,0.9904761904761905,0.9904761904761905,0.9904761904761905,0.9904761904761905,0.9904761904761905,0.9904761904761905,0.9904761904761905,0.9904761904761905,0.9904761904761905,0.9904761904761905,0.9904761904761905,0.9904761904761905,0.9904761904761905,0.9904761904761905,0.9904761904761905,0.9904761904761905,0.9904761904761905,0.9904761904761905,0.9904761904761905,0.9904761904761905,0.9904761904761905,0.9904761904761905,0.9904761904761905,0.9904761904761905,0.9904761904761905,0.9904761904761905,0.9904761904761905,0.9904761904761905,0.9904761904761905,0.9904761904761905,0.9904761904761905,0.9904761904761905,0.9904761904761905,0.9904761904761905,0.9904761904761905,0.9904761904761905,0.9904761904761905,0.9904761904761905,0.9904761904761905,0.9904761904761905,0.9904761904761905,0.9904761904761905,0.9904761904761905,0.9904761904761905,0.9904761904761905,0.9904761904761905,0.9904761904761905,0.9904761904761905,0.9904761904761905,0.9904761904761905,0.9904761904761905,0.9904761904761905,0.9904761904761905,0.9904761904761905,0.9904761904761905,0.9904761904761905,0.9904761904761905,0.9904761904761905,0.9904761904761905,0.9904761904761905,0.9904761904761905,0.9904761904761905,0.9904761904761905,0.9904761904761905,0.9904761904761905,0.9904761904761905,0.9904761904761905,0.9904761904761905,0.9904761904761905,0.9904761904761905,0.9904761904761905,0.9904761904761905,0.9904761904761905,0.9904761904761905,0.9904761904761905,0.9904761904761905,0.9904761904761905,0.9904761904761905,0.9904761904761905,0.9904761904761905,0.9904761904761905,0.9904761904761905,0.9904761904761905,0.9904761904761905,0.9904761904761905,0.9904761904761905,0.9904761904761905,0.9904761904761905,0.9904761904761905,0.9904761904761905,0.9904761904761905,0.9904761904761905,0.9904761904761905,0.9904761904761905,0.9904761904761905,0.9904761904761905,0.9904761904761905,0.9904761904761905,0.9904761904761905,0.9904761904761905,0.9904761904761905,0.9904761904761905,0.9904761904761905,0.9904761904761905,0.9904761904761905,0.9904761904761905,0.9904761904761905,0.9904761904761905,0.9904761904761905,0.9904761904761905,0.9904761904761905,0.9904761904761905,0.9904761904761905,0.9904761904761905,0.9904761904761905,0.9904761904761905,0.9904761904761905,0.9904761904761905,0.9904761904761905,0.9904761904761905,0.9904761904761905,0.9904761904761905,0.9904761904761905,0.9904761904761905,0.9904761904761905,0.9904761904761905,0.9904761904761905,0.9904761904761905,0.9904761904761905,0.9904761904761905,0.9904761904761905,0.9904761904761905,0.9904761904761905,0.9904761904761905,0.9904761904761905,0.9904761904761905,0.9904761904761905,0.9904761904761905,0.9904761904761905,0.9904761904761905,0.9904761904761905,0.9904761904761905,0.9904761904761905,0.9904761904761905,0.9904761904761905,0.9904761904761905,0.9904761904761905,0.9904761904761905,0.9904761904761905,0.9904761904761905,0.9904761904761905,0.9904761904761905,0.9904761904761905,0.9904761904761905,0.9904761904761905,0.9904761904761905,0.9904761904761905,0.9904761904761905,0.9904761904761905,0.9904761904761905,0.9904761904761905,0.9904761904761905,0.9904761904761905,0.9904761904761905,0.9904761904761905,0.9904761904761905,0.9904761904761905,0.9904761904761905,0.9904761904761905,0.9904761904761905,0.9904761904761905,0.9904761904761905,0.9904761904761905,0.9904761904761905,0.9904761904761905,0.9904761904761905,0.9904761904761905,0.9904761904761905,0.9904761904761905,0.9904761904761905,0.9904761904761905,0.9904761904761905]},"final_keyboard_state":[],"num_clicks":0,"points":15,"cheat":false,"trial_type":"Hangman","trial_index":5,"time_elapsed":50398,"internal_node_id":"0.0-4.0","protocol_sum":"","subject_identifier":333,"subject_sum":[224,240,93,169,58,15,90,134,163,190,95,192,227,1,96,101,19,201,247,229,157,172,35,87,52,138,160,242,244,125,185,132],"subject_pair":166,"STUDY_ID":"66a0b3911f23dfc7665bb169","PROLIFIC_PID":"66982245404fc59cc905adfc","SESSION_ID":"66a16d3d03080928279cb25e","practice_instructions":1,"leaderboard_instructions":0,"bonus":0,"reveal_word":true,"self_rating":"2","confidence":"100"},{"view_history":"[{\"page_index\":0,\"viewing_time\":7985},{\"page_index\":1,\"viewing_time\":12805}]","rt":20790,"trial_type":"instructions","trial_index":6,"time_elapsed":71189,"internal_node_id":"0.0-5.0","protocol_sum":"","subject_identifier":333,"subject_sum":[224,240,93,169,58,15,90,134,163,190,95,192,227,1,96,101,19,201,247,229,157,172,35,87,52,138,160,242,244,125,185,132],"subject_pair":166,"STUDY_ID":"66a0b3911f23dfc7665bb169","PROLIFIC_PID":"66982245404fc59cc905adfc","SESSION_ID":"66a16d3d03080928279cb25e","practice_instructions":1,"leaderboard_instructions":0,"bonus":0,"reveal_word":true,"self_rating":"2","confidence":"100"},{"rt":18312,"responses":"{\"Q0\":\"...from <b>a previous session</b> that is not part of the upcoming tournament.\"}","question_order":"[0]","trial_type":"survey-multi-choice","trial_index":7,"time_elapsed":89502,"internal_node_id":"0.0-6.0","protocol_sum":"","subject_identifier":333,"subject_sum":[224,240,93,169,58,15,90,134,163,190,95,192,227,1,96,101,19,201,247,229,157,172,35,87,52,138,160,242,244,125,185,132],"subject_pair":166,"correct":true,"test_part":"multichoice_leaderboard","STUDY_ID":"66a0b3911f23dfc7665bb169","PROLIFIC_PID":"66982245404fc59cc905adfc","SESSION_ID":"66a16d3d03080928279cb25e","practice_instructions":1,"leaderboard_instructions":0,"bonus":0,"reveal_word":true,"self_rating":"2","confidence":"100"},{"view_history":"[{\"page_index\":0,\"viewing_time\":23467}]","rt":23467,"trial_type":"instructions","trial_index":8,"time_elapsed":112969,"internal_node_id":"0.0-8.0","protocol_sum":"","subject_identifier":333,"subject_sum":[224,240,93,169,58,15,90,134,163,190,95,192,227,1,96,101,19,201,247,229,157,172,35,87,52,138,160,242,244,125,185,132],"subject_pair":166,"STUDY_ID":"66a0b3911f23dfc7665bb169","PROLIFIC_PID":"66982245404fc59cc905adfc","SESSION_ID":"66a16d3d03080928279cb25e","practice_instructions":1,"leaderboard_instructions":0,"bonus":0,"reveal_word":true,"self_rating":"2","confidence":"100"},{"rt":16332,"responses":"{\"Q0\":\"...players' leaderboard position (in terms of <b>points</b>) in an <b>upcoming tournament.</b>\"}","question_order":"[0]","trial_type":"survey-multi-choice","trial_index":9,"time_elapsed":129301,"internal_node_id":"0.0-9.0","protocol_sum":"","subject_identifier":333,"subject_sum":[224,240,93,169,58,15,90,134,163,190,95,192,227,1,96,101,19,201,247,229,157,172,35,87,52,138,160,242,244,125,185,132],"subject_pair":166,"correct":true,"test_part":"multichoice_tournament","STUDY_ID":"66a0b3911f23dfc7665bb169","PROLIFIC_PID":"66982245404fc59cc905adfc","SESSION_ID":"66a16d3d03080928279cb25e","practice_instructions":1,"leaderboard_instructions":0,"bonus":0,"reveal_word":true,"self_rating":"2","confidence":"100"},{"view_history":"[{\"page_index\":0,\"viewing_time\":12527}]","rt":12528,"trial_type":"instructions","trial_index":10,"time_elapsed":141829,"internal_node_id":"0.0-11.0","protocol_sum":"","subject_identifier":333,"subject_sum":[224,240,93,169,58,15,90,134,163,190,95,192,227,1,96,101,19,201,247,229,157,172,35,87,52,138,160,242,244,125,185,132],"subject_pair":166,"STUDY_ID":"66a0b3911f23dfc7665bb169","PROLIFIC_PID":"66982245404fc59cc905adfc","SESSION_ID":"66a16d3d03080928279cb25e","practice_instructions":1,"leaderboard_instructions":0,"bonus":0,"reveal_word":true,"self_rating":"2","confidence":"100"},{"view_history":"[{\"page_index\":0,\"viewing_time\":19702}]","rt":19702,"trial_type":"instructions","trial_index":11,"time_elapsed":161532,"internal_node_id":"0.0-12.0-0.0","protocol_sum":"","subject_identifier":333,"subject_sum":[224,240,93,169,58,15,90,134,163,190,95,192,227,1,96,101,19,201,247,229,157,172,35,87,52,138,160,242,244,125,185,132],"subject_pair":166,"STUDY_ID":"66a0b3911f23dfc7665bb169","PROLIFIC_PID":"66982245404fc59cc905adfc","SESSION_ID":"66a16d3d03080928279cb25e","practice_instructions":1,"leaderboard_instructions":0,"bonus":0,"reveal_word":true,"self_rating":"2","confidence":"100"},{"rt":9240,"response":"WRIST","responses":["WRIST"],"trial_type":"type-this","trial_index":12,"time_elapsed":171278,"internal_node_id":"0.0-12.0-1.0","protocol_sum":"","subject_identifier":333,"subject_sum":[224,240,93,169,58,15,90,134,163,190,95,192,227,1,96,101,19,201,247,229,157,172,35,87,52,138,160,242,244,125,185,132],"subject_pair":166,"STUDY_ID":"66a0b3911f23dfc7665bb169","PROLIFIC_PID":"66982245404fc59cc905adfc","SESSION_ID":"66a16d3d03080928279cb25e","practice_instructions":1,"leaderboard_instructions":0,"bonus":0,"reveal_word":true,"self_rating":"2","confidence":"100"},{"word":"WRIST","click_log":{"letter":["","M","K","E","A","R","W","I","S","T"],"t":[0,3700,30393,34648,38952,44507,85664,87283,88283,89167],"hit":[null,0,0,0,0,1,1,1,1,1],"asked":["","M","MK","MKE","MKEA","MKEAR","MKEARW","MKEARWI","MKEARWIS","MKEARWIST"],"word_state":["_____","_____","_____","_____","_____","_R___","WR___","WRI__","WRIS_","WRIST"]},"hover_log":{"letter":["?","?","?","?","?","?","?","?","?","?","?","?","?","?","?","?","?","?","?","?","?","?","?","?","?","?","?","?","?","?","?","?","?","?","?","?","?","?","?","?","?","?","?","?","?","?","?","?","?","?","?","?","?","?","?","?","?","?","?","?","?","?","?","?","?","?","?","?","?","?","?","?","?","?","?","?","?","?","?","?","?","?","?","?","?","?","?","?","?","?","?","?","?","?","?","?","?","?","?","?","?","?","?","?","?","?","?","?","?","?","?","?","?","?","?","?","?","?","?","?","?","?","?","?","?","?","?","?","?","?","?","?","?","?","?","?","?","?","?","?","?","?","?","?","?","?","?","?","?","?","?","?","?","?","?","?","?","?","?","?","?","?","?","?","?","?","?","?","?","?","?","?","?","?","?","?","?","?","?","?","?","?","?","?","?","?","?","?","?","?","?","?","?","?","?","?","?","?","?","?","?","?","?","?","?","?","?","?","?","?","?","?","?","?","?","?","?","?","?","?","?","?","?","?","?","?","?","?","?","?","?","?","?","?","?","?","?","?","?","?","?","?","?","?","?","?","?","?","?","?","?","?","?","?","?","?","?","?","?","?","?","?","?","?","?","?","?","?","?","?","?","?","?","?","?","?","?","?","?","?","?","?","?","?","?","?","?","?","?","?","?","?","?","?","?","?","?","?","?","?","?","?","?","?","?","?","?","?","?","?","?","?","?","?","?","?","?","?","?","?","?","?","?","?","?","?","?","?","?","?","?","?","?","?","?","?","?","?","?","?","?","?","?","?","?","?","?","?","?","?","?","?","?","?","?","?","?","?","?","?","?","?","?","?","?","?","?","?","?","?","?","?","?","?","?","?","?","?","?","?","?","?","?","?","?","?","?","?","?","?","?","?","?","?","?","?","?","?","?","?","?","?","?","?","?","?","?","?","?","?","?","?","?","?","?","?","?","?","?","?","?","?","?","?","?","?","?","?","?","?","?","?","?","?","?","?","?","?","?","?","?","?","?","?","?","?","?","?","?","?","?","?","?","?","?","?","?","?","?","?","?","?","?","?","?","?","?","?","?","?","?","?","?","?","?","?","?","?","?","?","?","?","?","?","?","?","?","?","?","?","?","?","?","?","?","?","?","?","?","?","?","?","?","?","?","?","?","?","?","?","?","?","?","?","?","?","?","?","?","?","?","?","?","?","?","?","?","?","?","?","?","?","?","?","?","?","?","?","?","?","?","?","?","?","?","?","?","?","?","?","?","?","?","?","?","?","?","?","?","?","?","?","?","?","?","?","?","?","?","?","?","?","?","?","?","?","?","?","?","?","?","?","?","?","?","?","?","?","?","?","?","?","?","?","?","?","?","?","?","?","?","?","?","?","?","?","?","?","?","?","?","?","?","?","?","?","?","?","?","?","?","?","?","?","?","?","?","?","?","?","?","?","?","?","?","?","?","?","?","?","?","?","?","?","?","?","?","?","?","?","?","?","?","?","?","?","?","?","?","?","?","?","?","?","?","?","?","?","?","?","?","?","?","?","?","?","?","?","?","?","?","?","?","?","?","?","?","?","?","?","?","?","?","?","?","?","?","?","?","?","?","?","?","?","?","?","?","?","?","?","?","?","?","?","?","?","?","?","?","?","?","?","?","?","?","?","?","?","?","?","?","?","?","?","?","?","?","?","?","?","?","?","?","?","?","?","?","?","?","?","?","?","?","?","?","?","?","?","?","?","?","?","?","?","?","?","?","?","?","?","?","?","?","?","?","?","?","?","?","?","?","?","?","?","?","?","?","?","?","?","?","?","?","?","?","?","?","?","?","?","?","?","?","?","?","?","?","?","?","?","?","?","?","?","?","?","?","?","?","?","?","?","?","?","?","?","?","?","?","?","?","?","?","?","?","?","?","?","?","?","?","?","?","?","?","?","?","?","?","?","?","?","?","?","?","?","?","?","?","?","?","?","?","?","?","?","?","?","?","?","?","?","?","?","?","?","?","?","?","?","?","?","?","?","?","?","?","?","?","?","?","?","?","?","?","?","?","?","?","?","?","?","?","?","?","?","?","?","?","?","?","?","?","?","?","?","?","?","?","?","?","?","?","?","?","?","?","?","?","?","?","?","?","?","?","?","?","?","?","?","?","?","?","?","?","?","?","?","?","?","?","?","?","?","?","?","?","?","?","?","?","?","?","?","?","?","?","?","?","?","?","?","?","?","?","?","?","?","?","?","?","?","?","?","?","?","?","?","?","?","?","?","?","?","?","?","?","?","?","?","?","?","?","?","?","?","?","?","?","?","?","?","?","?","?","?","?","?","?","?","?","?","?","?","?","?","?","?","?","?","?","?","?","?","?","?","?","?","?","?","?","?","?","?","?","?","?","?","?","?","?","?","?","?","?","?","?","?","?","?","?","?","?","?","?","?","?","?","?","?","?","?","?","?","?","?","?","?","?","?","?","?","?","?","?","?","?","?","?","?","?","?","?","?","?","?","?","?","?","?","?","?","?","?","?","?","?","?","?","?","?","?","?","?","?","?","?","?","?","?","?","?","?","?","?","?","?","?","?","?","?","?","?","?","?","?","?","?","?","?","?","?","?","?","?","?","?","?","?","?","?","?","?","?","?","?","?","?","?","?","?","?","?","?","?","?","?","?","?","?","?","?","?","?","?","?","?","?","?","?","?","?","?","?","?","?","?","?","?","?","?","?","?","?","?","?","?","?","?","?","?","?","?","?","?","?","?","?","?","?","?","?","?","?","?","?","?","?","?","?","?","?","?","?","?","?","?","?","?","?","?","?","?","?","?","?","?","?","?","?","?","?","?","?","?","?","?","?","?","?","?","?","?","?","?","?","?","?","?","?","?","?","?","?","?","?","?","?","?","?","?","?","?","?","?","?","?","?","?","?","?","?","?","?","?","?","?","?","?","?","?","?","?","?","?","?","?","?","?","?","?","?","?","?","?","?","?","?","?","?","?","?","?","?","?","?","?","?","?","?","?","?","?","?","?","?","?","?","?","?","?","?","?","?","?","?","?","?","?","?","?","?","?","?","?","?","?","?","?","?","?","?","?","?","?","?","?","?","?","?","?","?","?","?","?","?","?","?","?","?","?","?","?","?","?","?","?","?","?","?","?","?","?","?","?","?","?","?","?","?","?","?","?","?","?","?","?","?","?","?","?","?","?","?","?","?","?","?","?","?","?","?","?","?","?","?","?","?","?","?","?","?","?","?","?","?","?","?","?","?","?","?","?","?","?","?","?","?","?","?","?","?","?","?","?","?","?","?","?","?","?","?","?","?","?","?","?","?","?","?","?","?","?","?","?","?","?","?","?","?","?","?","?","?","?","?","?","?","?","?","?","?","?","?","?","?","?","?","?","?","?","?","?","?","?","?","?","?","?","?","?","?","?","?","?","?","?","?","?","?","?","?","?","?","?","?","?","?","?","?","?","?","?","?","?","?","?","?","?","?","?","?","?","?","?","?","?","?","?","?","?","?","?","?","?","?","?","?","?","?","?","?","?","?","?","?","?","?","?","?","?","?","?","?","?","?","?","?","?","?","?","?","?","?","?","?","?","?","?","?","?","?","?","?","?","?","?","?","?","?","?","?","?","?","?","?","?","?","?","?","?","?","?","?","?","?","?","?","?","?","?","?","?","?","?","?","?","?","?","?","?","?","?","?","?","?","?","?","?","?","?","?","?","?","?","?","?","?","?","?","?","?","?","?","?","?","?","?","?","?","?","?","?","?","?","?","?","?","?","?","?","?","?","?","?","?","?","?","?","?","?","?","?","?","?","?","?","?","?","?","?","?","?","?","?","?","?","?","?","?","?","?","?","?","?","?","?","?","?","?","?","?","?","?","?","?","?","?","?","?","?","?","?","?","?","?","?","?","?","?","?","?","?","?","?","?","?","?","?","?","?","?","?","?","?","?","?","?","?","?","?","?","?","?","?","?","?","?","?","?","?","?","?","?","?","?","?","?","?","?","?","?","?","?","?","?","?","?","?","?","?","?","?","?","?","?","?","?","?","?","?","?","?","?","?","?","?","?","?","?","?","?","?","?","?","?","?","?","?","?","?","?","?","?","?","?","?","?","?","?","?","?","?","?","?","?","?","?","?","?","?","?","?","?","?","?","?","?","?","?","?","?","?","?","?","?","?","?","?","?","?","?","?","?","?","?","?","?","?","?","?","?","?","?","?","?","?","?","?","?","?","?","?","?","?","?","?","?","?","?","?","?","?","?","?","?","?","?","?","?","?","?","?","?","?","?","?","?","?","?","?","?","?","?","?","?","?","?","?","?","?","?","?","?","?","?","?","?","?","?","?","?","?","?","?","?","?","?","?","?","?","?","?","?","?","?","?","?","?","?","?","?","?","?","?","?","?","?","?","?","?","?","?","?","?","?","?","?","?","?","?","?","?","?","?","?","?","?","?","?","?","?","?","?","?","?","?","?","?","?","?","?","?","?","?","?","?","?","?","?","?","?","?","?","?","?","?","?","?","?","?","?","?","?","?","?","?","?","?","?","?","?","?","?","?","?","?","?","?","?","?","?","?","?","?","?","?","?","?","?","?","?","?","?","?","?","?","?","?","?","?","?","?","?","?","?","?","?","?","?","?","?","?","?","?","?","?","?","?","?","?","?","?","?","?","?","?","?","?","?","?","?","?","?","?","?","?","?","?","?","?","?","?","?","?","?","?","?","?","?","?","?","?","?","?","?","?","?","?","?","?","?","?","?","?","?","?","?","?","?","?","?","?","?","?","?","?","?","?","?","?","?","?","?","?","?","?","?","?","?","?","?","?","?","?","?","?","?","?","?","?","?","?","?","?","?","?","?","?","?","?","?","?","?","?","?","?","?","?","?","?","?","?","?","?","?","?","?","?","?","?","?","?","?","?","?","?","?","?","?","?","?","?","?","?","?","?","?","?","?","?","?","?","?","?","?","?","?","?","?","?","?","?","?","?","?","?","?","?","?","?","?","?","?","?","?","?","?","?","?","?","?","?","?","?","?","?","?","?","?","?","?","?","?","?","?","?","?","?","?","?","?","?","?","?","?","?","?","?","?","?","?","?","?","?","?","?","?","?","?","?","?","?","?","?","?","?","?","?","?","?","?","?","?","?","?","?","?","?","?","?","?","?","?","?","?","?","?","?","?","?","?","?","?","?","?","?","?","?","?","?","?","?","?","?","?","?","?","?","?","?","?","?","?","?","?","?","?","?","?","?","?","?","?","?","?","?","?","?","?","?","?","?","?","?","?","?","?","?","?","?","?","?","?","?","?","?","?","?","?","?","?","?","?","?","?","?","?","?","?","?","?","?","?","?","?","?","?","?","?","?","?","?","?","?","?","?","?","?","?","?","?","?","?","?","?","?","?","?","?","?","?","?","?","?","?","?","?","?","?","?","?","?","?","?","?","?","?","?","?","?","?","?","?","?","?","?","?","?","?","?","?","?","?","?","?","?","?","?","?","?","?","?","?","?","?","?","?","?","?","?","?","?","?","?","?","?","?","?","?","?","?","?","?","?","?","?","?","?","?","?","?","?","?","?","?","?","?","?","?","?","?","?","?","?","?","?","?","?","?","?","?","?","?","?","?","?","?","?","?","?","?","?","?","?","?","?","?","?","?","?","?","?","?","?","?","?","?","?","?","?","?","?","?","?","?","?","?","?","?","?","?","?","?","?","?","?","?","?","?","?","?","?","?","?","?","?","?","?","?","?","?","?","?","?","?","?","?","?","?","?","?","?","?","?","?","?","?","?","?","?","?","?","?","?","?","?","?","?","?","?","?","?","?","?","?","?","?","?","?","?","?","?","?","?","?","?","?","?","?","?","?","?","?","?","?","?","?","?","?","?","?","?","?","?","?","?","?","?","?","?","?","?","?","?","?","?","?","?","?","?","?","?","?","?","?","?","?","?","?","?","?","?","?","?","?","?","?","?","?","?","?","?","?","?","?","?","?","?","?","?","?","?","?","?","?","?","?","?","?","?","?","?","?","?","?","?","?","?","?","?","?","?","?","?","?","?","?","?","?","?","?","?","?","?","?","?","?","?","?","?","?","?","?","?","?","?","?","?","?","?","?","?","?","?","?","?","?","?","?","?","?","?","?","?","?","?","?","?","?","?","?","?","?","?","?","?","?","?","?","?","?","?","?","?","?","?","?","?","?","?","?","?","?","?","?","?","?","?","?","?","?","?","?","?","?","?","?","?","?","?","?","?","?","?","?","?","?","?","?","?","?","?","?","?","?","?","?","?","?","?","?","?","?","?","?","?","?","?","?","?","?","?","?","?","?","?","?","?","?","?","?","?","?","?","?","?","?","?","?","?","?","?","?","?","?","?","?","?","?","?","?","?","?","?","?","?","?","?","?","?","?","?","?","?","?","?","?","?","?","?","?","?","?","?","?","?","?","?","?","?","?","?","?","?","?","?","?","?","?","?","?","?","?","?","?","?","?","?","?","?","?","?","?","?","?","?","?","?","?","?","?","?","?","?","?","?","?","?","?","?","?","?","?","?","?","?","?","?","?","?","?","?","?","?","?","?","?","?","?","?","?","?","?","?","?","?","?","?","?","?","?","?","?","?","?","?","?","?","?","?","?","?","?","?","?","?","?","?","?","?","?","?","?","?","?","?","?","?","?","?","?","?","?","?","?","?","?","?","?","?","?","?","?","?","?","?","?","?","?","?","?","?","?","?","?","?","?","?","?","?","?","?","?","?","?","?","?","?","?","?","?","?","?","?","?","?","?","?","?","?","?","?","?","?","?","?","?","?","?","?","?","?","?","?","?","?","?","?","?","?","?","?","?","?","?","?","?","?","?","?","?","?","?","?","?","?","?","?","?","?","?","?","?","?","?","?","?","?","?","?","?","?","?","?","?","?","?","?","?","?","?","?","?","?","?","?","?","?","?","?","?","?","?","?","?","?","?","?","?","?","?","?","?","?","?","?","?","?","?","?","?","?","?","?","?","?","?","?","?","?","?","?","?","?","?","?","?","?","?","?","?","?","?","?","?","?","?","?","?","?","?","?","?","?","?","?","?","?","?","?","?","?","?","?","?","?","?","?","?","?","?","?","?","?","?","?","?","?","?","?","?","?","?","?","?","?","?","?","?","?","?","?","?","?","?","?","?","?","?","?","?","?","?","?","?","?","?","?","?","?","?","?","?","?","?","?","?","?","?","?","?","?","?","?","?","?","?","?","?","?","?","?","?","?","?","?","?","?","?","?","?","?","?","?","?","?","?","?","?","?","?","?","?","?","?","?","?","?","?","?","?","?","?","?","?","?","?","?","?","?","?","?","?","?","?","?","?","?","?","?","?","?","?","?","?","?","?","?","?","?","?","?","?","?","?","?","?","?","?","?","?","?","?","?","?","?","?","?","?","?","?","?","?","?","?","?","?","?","?","?","?","?","?","?","?","?","?","?","?","?","?","?","?","?","?","?","?","?","?","?","?","?","?","?","?","?","?","?","?","?","?","?","?","?","?","?","?","?","?","?","?","?","?","?","?","?","?","?","?","?","?","?","?","?","?","?","?","?","?","?","?","?","?","?","?","?","?","?","?","?","?","?","?","?","?","?","?","?","?","?","?","?","?","?","?","?","?","?","?","?","?","?","?","?","?","?","?","?","?","?","?","?","?","?","?","?","?","?","?","?","?","?","?","?","?","?","?","?","?","?","?","?","?","?","?","?","?","?","?","?","?","?","?","?","?","?","?","?","?","?","?","?","?","?","?","?","?","?","?","?","?","?","?","?","?","?","?","?","?","?","?","?","?","?","?","?","?","?","?","?","?","?","?","?","?","?","?","?","?","?","?","?","?","?","?","?","?","?","?","?","?","?","?","?","?","?","?","?","?","?","?","?","?","?","?","?","?","?","?","?","?","?","?","?","?","?","?","?","?","?","?","?","?","?","?","?","?","?","?","?","?","?","?","?","?","?","?","?","?","?","?","?","?","?","?","?","?","?","?","?","?","?","?","?","?","?","?","?","?","?","?","?","?","?","?","?","?","?","?","?","?","?","?","?","?","?","?","?","?","?","?","?","?","?","?","?","?","?","?","?","?","?","?","?","?","?","?","?","?","?","?","?","?","?","?","?","?","?","?","?","?","?","?","?","?","?","?","?","?","?","?","?","?","?","?","?","?","?","?","?","?","?","?","?","?","?","?","?","?","?","?","?","?","?","?","?","?","?","?","?","?","?","?","?","?","?","?","?","?","?","?","?","?","?","?","?","?","?","?","?","?","?","?","?","?","?","?","?","?","?","?","?","?","?","?","?","?","?","?","?","?","?","?","?","?","?","?","?","?","?","?","?","?","?","?","?","?","?","?","?","?","?","?","?","?","?","?","?","?","?","?","?","?","?","?","?","?","?","?","?","?","?","?","?","?","?","?","?","?","?","?","?","?","?","?","?","?","?","?","?","?","?","?","?","?","?","?","?","?","?","?","?","?","?","?","?","?","?","?","?","?","?","?","?","?","?","?","?","?","?","?","?","?","?","?","?","?","?","?","?","?","?","?","?","?","?","?","?","?","?","?","?","?","?","?","?","?","?","?","?","?","?","?","?","?","?","?","?","?","?","?","?","?","?","?","?","?","?","?","?","?","?","?","?","?","?","?","?","?","?","?","?","?","?","?","?","?","?","?","?","?","?","?","?","?","?","?","?","?","?","?","?","?","?","?","?","?","?","?","?","?","?","?","?","?","?","?","?","?","?","?","?","?","?","?","?","?","?","?","?","?","?","?","?","?","?","?","?","?","?","?","?","?","?","?","?","?","?","?","?","?","?","?","?","?","?","?","?","?","?","?","?","?","?","?","?","?","?","?","?","?","?","?","?","?","?","?","?","?","?","?","?","?","?","?","?","?","?","?","?","?","?","?","?","?","?","?","?","?","?","?","?","?","?","?","?","?","?","?","?","?","?","?","?","?","?","?","?","?","?","?","?","?","?","?","?","?","?","?","?","?","?","?","?","?","?","?","?","?","?","?","?","?","?","?","?","?","?","?","?","?","?","?","?","?","?","?","?","?","?","?","?","?","?","?","?","?","?","?","?","?","?","?","?","?","?","?","?","?","?","?","?","?","?","?","?","?","?","?","?","?","?","?","?","?","?","?","?","?","?","?","?","?","?","?","?","?","?","?","?","?","?","?","?","?","?","?","?","?","?","?","?","?","?","?","?","?","?","?","?","?","?","?","?","?","?","?","?","?","?","?","?","?","?","?","?","?","?","?","?","?","?","?","?","?","?","?","?","?","?","?","?","?","?","?","?","?","?","?","?","?","?","?","?","?","?","?","?","?","?","?","?","?","?","?","?","?","?","?","?","?","?","?","?","?","?","?","?","?","?","?","?","?","?","?","?","?","?","?","?","?","?","?","?","?","?","?","?","?","?","?","?","?","?","?","?","?","?","?","?","?","?","?","?","?","?","?","?","?","?","?","?","?","?","?","?","?","?","?","?","?","?","?","?","?","?","?","?","?","?","?","?","?","?","?","?","?","?","?","?","?","?","?","?","?","?","?","?","?","?","?","?","?","?","?","?","?","?","?","?","?","?","?","?","?","?","?","?","?","?","?","?","?","?","?","?","?","?","?","?","?","?","?","?","?","?","?","?","?","?","?","?","?","?","?","?","?","?","?","?","?","?","?","?","?","?","?","?","?","?","?","?","?","?","?","?","?","?","?","?","?","?","?","?","?","?","?","?","?","?","?","?","?","?","?","?","?","?","?","?","?","?","?","?","?","?","?","?","?","?","?","?","?","?","?","?","?","?","?","?","?","?","?","?","?","?","?","?","?","?","?","?","?","?","?","?","?","?","?","?","?","?","?","?","?","?","?","?","?","?","?","?","?","?","?","?","?","?","?","?","?","?","?","?","?","?","?","?","?","?","?","?","?","?","?","?","?","?","?","?","?","?","?","?","?","?","?","?","?","?","?","?","?","?","?","?","?","?","?","?","?","?","?","?","?","?","?","?","?","?","?","?","?","?","?","?","?","?","?","?","?","?","?","?","?","?","?","?","?","?","?","?","?","?","?","?","?","?","?","?","?","?","?","?","?","?","?","?","?","?","?","?","?","?","?","?","?","?","?","?","?","?","?","?","?","?","?","?","?","?","?","?","?","?","?","?","?","?","?","?","?","?","?","?","?","?","?","?","?","?","?","?","?","?","?","?","?","?","?","?","?","?","?","?","?","?","?","?","?","?","?","?","?","?","?","?","?","?","?","?","?","?","?","?","?","?","?","?","?","?","?","?","?","?","?","?","?","?","?","?","?","?","?","?","?","?","?","?","?","?","?","?","?","?","?","?","?","?","?","?","?","?","?","?","?","?","?","?","?","?","?","?","?","?","?","?","?","?","?","?","?","?","?","?","?","?","?","?","?","?","?","?","?","?","?","?","?","?","?","?","?","?","?","?","?","?","?","?","?","?","?","?","?","?","?","?","?","?","?","?","?","?","?","?","?","?","?","?","?","?","?","?","?","?","?","?","?","?","?","?","?","?","?","?","?","?","?","?","?","?","?","?","?","?","?","?","?","?","?","?","?","?","?","?","?","?","?","?","?","?","?","?","?","?","?","?","?","?","?","?","?","?","?","?","?","?","?","?","?","?","?","?","?","?","?","?","?","?","?","?","?","?","?","?","?","?","?","?","?","?","?","?","?","?","?","?","?","?","?","?","?","?","?","?","?","?","?","?","?","?","?","?","?","?","?","?","?","?","?","?","?","?","?","?","?","?","?","?","?","?","?","?","?","?","?","?","?","?","?","?","?","?","?","?","?","?","?","?","?","?","?","?","?","?","?","?","?","?","?","?","?","?","?","?","?","?","?","?","?","?","?","?","?","?","?","?","?","?","?","?","?","?","?","?","?","?","?","?","?","?","?","?","?","?","?","?","?","?","?","?","?","?","?","?","?","?","?","?","?","?","?","?","?","?","?","?","?","?","?","?","?","?","?","?","?","?","?","?","?","?","?","?","?","?","?","?","?","?","?","?","?","?","?","?","?","?","?","?","?","?","?","?","?","?","?","?","?","?","?","?","?","?","?","?","?","?","?","?","?","?","?","?","?","?","?","?","?","?","?","?","?","?","?","?","?","?","?","?","?","?","?","?","?","?","?","?","?","?","?","?","?","?","?","?","?","?","?","?","?","?","?","?","?","?","?","?","?","?","?","?","?","?","?","?","?","?","?","?","?","?","?","?","?","?","?","?","?","?","?","?","?","?","?","?","?","?","?","?","?","?","?","?","?","?","?","?","?","?","?","?","?","?","?","?","?","?","?","?","?","?","?","?","?","?","?","?","?","?","?","?","?","?","?","?","?","?","?","?","?","?","?","?","?","?","?","?","?","?","?","?","?","?","?","?","?","?","?","?","?","?","?","?","?","?","?","?","?","?","?","?","?","?","?","?","?","?","?","?","?","?","?","?","?","?","?","?","?","?","?","?","?","?","?","?","?","?","?","?","?","?","?","?","?","?","?","?","?","?","?","?","?","?","?","?","?","?","?","?","?","?","?","?","?","?","?","?","?","?","?","?","?","?","?","?","?","?","?","?","?","?","?","?","?","?","?","?","?","?","?","?","?","?","?","?","?","?","?","?","?","?","?","?","?","?","?","?","?","?","?","?","?","?","?","?","?","?","?","?","?","?","?","?","?","?","?","?","?","?","?","?","?","?","?","?","?","?","?","?","?","?","?","?","?","?","?","?","?","?","?","?","?","?","?","?","?","?","?","?","?","?","?","?","?","?","?","?","?","?","?","?","?","?","?","?","?","?","?","?","?","?","?","?","?","?","?","?","?","?","?","?","?","?","?","?","?","?","?","?","?","?","?","?","?","?","?","?","?","?","?","?","?","?","?","?","?","?","?","?","?","?","?","?","?","?","?","?","?","?","?","?","?","?","?","?","?","?","?","?","?","?","?","?","?","?","?","?","?","?","?","?","?","?","?","?","?","?","?","?","?","?","?","?","?","?","?","?","?","?","?","?","?","?","?","?","?","?","?","?","?","?","?","?","?","?","?","?","?","?","?","?","?","?","?","?","?","?","?","?","?","?","?","?","?","?","?","?","?","?","?","?","?","?","?","?","?","?","?","?","?","?","?","?","?","?","?","?","?","?","?","?","?","?","?","?","?","?","?","?","?","?","?","?","?","?","?","?","?","?","?","?","?","?","?","?","?","?","?","?","?","?","?","?","?","?","?","?","?","?","?","?","?","?","?","?","?","?","?","?","?","?","?","?","?","?","?","?","?","?","?","?","?","?","?","?","?","?","?","?","?","?","?","?","?","?","?","?","?","?","?","?","?","?","?","?","?","?","?","?","?","?","?","?","?","?","?","?","?","?","?","?","?","?","?","?","?","?","?","?","?","?","?","?","?","?","?","?","?","?","?","?","?","?","?","?","?","?","?","?","?","?","?","?","?","?","?","?","?","?","?","?","?","?","?","?","?","?","?","?","?","?","?","?","?","?","?","?","?","?","?","?","?","?","?","?","?","?","?","?","?","?","?","?","?","?","?","?","?","?","?","?","?","?","?","?","?","?","?","?","?","?","?","?","?","?","?","?","?","?","?","?","?","?","?","?","?","?","?","?","?","?","?","?","?","?","?","?","?","?","?","?","?","?","?","?","?","?","?","?","?","?","?","?","?","?","?","?","?","?","?","?","?","?","?","?","?","?","?","?","?","?","?","?","?","?","?","?","?","?","?","?","?","?","?","?","?","?","?","?","?","?","?","?","?","?","?","?","?","?","?","?","?","?","?","?","?","?","?","?","?","?","?","?","?","?","?","?","?","?","?","?","?","?","?","?","?","?","?","?","?","?","?","?","?","?","?","?","?","?","?","?","?","?","?","?","?","?","?","?","?","?","?","?","?","?","?","?","?","?","?","?","?","?","?","?","?","?","?","?","?","?","?","?","?","?","?","?","?","?","?","?","?","?","?","?","?","?","?","?","?","?","?","?","?","?","?","?","?","?","?","?","?","?","?","?","?","?","?","?","?","?","?","?","?","?","?","?","?","?","?","?","?","?","?","?","?","?","?","?","?","?","?","?","?","?","?","?","?","?","?","?","?","?","?","?","?","?","?","?","?","?","?","?","?","?","?","?","?","?","?","?","?","?","?","?","?","?","?","?","?","?","?","?","?","?","?","?","?","?","?","?","?","?","?","?","?","?","?","?","?","?","?","?","?","?","?","?","?","?","?","?","?","?","?","?","?","?","?","?","?","?","?","?","?","?","?","?","?","?","?","?","?","?","?","?","?","?","?","?","?","?","?","?","?","?","?","?","?","?","?","?","?","?","?","?","?","?","?","?","?","?","?","?","?","?","?","?","?","?","?","?","?","?","?","?","?","?","?","?","?","?","?","?","?","?","?","?","?","?","?","?","?","?","?","?","?","?","?","?","?","?","?","?","?","?","?","?","?","?","?","?","?","?","?","?","?","?","?","?","?","?","?","?","?","?","?","?","?","?","?","?","?","?","?","?","?","?","?","?","?","?","?","?","?","?","?","?","?","?","?","?","?","?","?","?","?","?","?","?","?","?","?","?","?","?","?","?","?","?","?","?","?","?","?","?","?","?","?","?","?","?","?","?","?","?","?","?","?","?","?","?","?","?","?","?","?","?","?","?","?","?","?","?","?","?","?","?","?","?","?","?","?","?","?","?","?","?","?","?","?","?","?","?","?","?","?","?","?","?","?","?","?","?","?","?","?","?","?","?","?","?","?","?","?","?","?","?","?","?","?","?","?","?","?","?","?","?","?","?","?","?","?","?","?","?","?","?","?","?","?","?","?","?","?","?","?","?","?","?","?","?","?","?","?","?","?","?","?","?","?","?","?","?","?","?","?","?","?","?","?","?","?","?","?","?","?","?","?","?","?","?",