[{"success":true,"trial_type":"fullscreen","trial_index":0,"time_elapsed":3258,"internal_node_id":"0.0-0.0","protocol_sum":"","subject_identifier":516,"subject_sum":[163,15,78,244,33,118,210,143,14,34,147,83,60,95,83,46,156,156,86,150,198,136,19,179,83,21,209,126,220,68,246,177],"subject_pair":258,"STUDY_ID":"66a3ed3c5d10d0e7d8a6b9da","PROLIFIC_PID":"667dd2e8aebd2f94fe977b31","SESSION_ID":"66a4362f7ffea2e59f43de4f","practice_instructions":1,"leaderboard_instructions":0,"bonus":0,"reveal_word":false,"self_rating":"2","confidence":"85"},{"view_history":"[{\"page_index\":0,\"viewing_time\":3294}]","rt":3295,"trial_type":"instructions","trial_index":1,"time_elapsed":6555,"internal_node_id":"0.0-1.0","protocol_sum":"","subject_identifier":516,"subject_sum":[163,15,78,244,33,118,210,143,14,34,147,83,60,95,83,46,156,156,86,150,198,136,19,179,83,21,209,126,220,68,246,177],"subject_pair":258,"STUDY_ID":"66a3ed3c5d10d0e7d8a6b9da","PROLIFIC_PID":"667dd2e8aebd2f94fe977b31","SESSION_ID":"66a4362f7ffea2e59f43de4f","practice_instructions":1,"leaderboard_instructions":0,"bonus":0,"reveal_word":false,"self_rating":"2","confidence":"85"},{"view_history":"[{\"page_index\":0,\"viewing_time\":13014}]","rt":13015,"trial_type":"instructions","trial_index":2,"time_elapsed":19570,"internal_node_id":"0.0-2.0-0.0","protocol_sum":"","subject_identifier":516,"subject_sum":[163,15,78,244,33,118,210,143,14,34,147,83,60,95,83,46,156,156,86,150,198,136,19,179,83,21,209,126,220,68,246,177],"subject_pair":258,"STUDY_ID":"66a3ed3c5d10d0e7d8a6b9da","PROLIFIC_PID":"667dd2e8aebd2f94fe977b31","SESSION_ID":"66a4362f7ffea2e59f43de4f","practice_instructions":1,"leaderboard_instructions":0,"bonus":0,"reveal_word":false,"self_rating":"2","confidence":"85"},{"rt":4118,"responses":"{\"Q0\":\"... reveal the word with as <b>few letter guesses</b> as possible\"}","question_order":"[0]","trial_type":"survey-multi-choice","trial_index":3,"time_elapsed":23691,"internal_node_id":"0.0-2.0-1.0","protocol_sum":"","subject_identifier":516,"subject_sum":[163,15,78,244,33,118,210,143,14,34,147,83,60,95,83,46,156,156,86,150,198,136,19,179,83,21,209,126,220,68,246,177],"subject_pair":258,"correct":true,"test_part":"multichoice_nonpretend","STUDY_ID":"66a3ed3c5d10d0e7d8a6b9da","PROLIFIC_PID":"667dd2e8aebd2f94fe977b31","SESSION_ID":"66a4362f7ffea2e59f43de4f","practice_instructions":1,"leaderboard_instructions":0,"bonus":0,"reveal_word":false,"self_rating":"2","confidence":"85"},{"view_history":"[{\"page_index\":0,\"viewing_time\":1076}]","rt":1076,"trial_type":"instructions","trial_index":4,"time_elapsed":24770,"internal_node_id":"0.0-3.0","protocol_sum":"","subject_identifier":516,"subject_sum":[163,15,78,244,33,118,210,143,14,34,147,83,60,95,83,46,156,156,86,150,198,136,19,179,83,21,209,126,220,68,246,177],"subject_pair":258,"STUDY_ID":"66a3ed3c5d10d0e7d8a6b9da","PROLIFIC_PID":"667dd2e8aebd2f94fe977b31","SESSION_ID":"66a4362f7ffea2e59f43de4f","practice_instructions":1,"leaderboard_instructions":0,"bonus":0,"reveal_word":false,"self_rating":"2","confidence":"85"},{"word":"ZEBRA","click_log":{"letter":["","E","A","Z","B","R"],"t":[0,3311.9999999999964,7709.999999999996,9592.999999999996,10760.999999999996,11959.999999999996],"hit":[null,1,1,1,1,1],"asked":["","E","EA","EAZ","EAZB","EAZBR"],"word_state":["_____","_E___","_E__A","ZE__A","ZEB_A","ZEBRA"]},"hover_log":{"letter":["?","?","?","?","?","?","?","?","?","?","?","?","?","?","?","?","?","?","?","?","?","?","?","?","?","?","?","?","?","?","?","?","?","?","?","?","?","?","?","?","?","?","?","?","?","?","?","?","?","?","?","?","?","?","?","?","?","?","?","?","?","?","?","?","?","?","?","?","?","?","?","?","?","?","?","?","?","?","?","?","?","?","?","?","?","?","?","?","?","?","?","?","?","?","?","?","?","?","?","?","?","?","?","?","?","?","?","?","?","?","?","?","?","?","?","?","?","?","?","?","?","?","?","?","?","?","?","?","?","?","?","?","?","?","?","?","?","?","?","?","?","?","?","?","?","?","?","M","M","M","M","M","M","M","?","?","?","?","?","?","?","?","?","?","?","?","?","?","?","?","?","E","E","E","E","E","E","E","E","E","E","E","E","E","E","E","E","E","E","E","E","E","E","E","E","E","E","E","E","E","E","E","E","E","E","E","E","E","E","E","E","E","E","E","E","E","E","E","E","E","E","E","E","E","E","E","E","E","E","E","E","E","E","E","E","E","E","E","E","E","E","E","E","E","E","E","E","E","E","E","E","E","E","E","E","E","E","E","E","E","E","E","E","E","E","E","E","E","E","E","E","E","E","E","E","E","E","E","E","E","E","E","E","E","E","?","?","?","N","N","N","N","?","?","?","W","W","?","?","?","?","?","?","?","?","?","?","?","?","?","?","?","?","?","?","?","?","?","?","?","?","?","?","?","?","?","?","?","?","?","?","?","?","?","?","?","?","?","?","?","?","?","?","?","?","?","?","?","?","?","?","?","?","?","?","?","?","?","?","?","?","?","?","?","?","?","?","?","?","?","?","?","?","?","?","?","?","?","?","?","?","?","?","?","?","?","?","?","?","?","?","X","X","X","X","X","X","X","X","X","X","X","X","X","X","X","X","X","?","?","?","?","?","?","?","?","?","?","P","P","P","?","O","O","O","?","N","N","?","?","?","?","?","?","?","?","?","?","?","?","B","B","B","B","B","B","B","A","A","A","A","A","A","A","A","A","A","A","A","A","A","A","A","A","A","A","A","A","A","A","A","A","A","A","A","A","A","A","A","A","A","A","A","A","A","A","A","A","A","A","A","A","A","A","A","A","A","A","A","A","A","A","A","A","A","A","A","?","K","U","U","?","?","?","?","?","?","?","?","?","?","?","?","?","?","?","?","?","?","?","?","?","?","?","?","?","?","?","?","?","?","?","Y","Y","Y","Y","?","?","?","?","?","?","?","Z","Z","Z","Z","Z","Z","Z","Z","Z","Z","Z","Z","Z","Z","Z","Z","Z","Z","Z","Z","Z","Z","Z","Z","Z","Z","Z","Z","Z","Z","Z","Z","Z","Z","Z","Z","Z","Z","Z","Z","Y","Y","?","N","?","?","B","?","A","A","A","A","A","A","A","A","A","A","A","A","?","?","?","?","?","?","?","?","?","?","?","?","B","B","B","B","B","B","B","B","B","B","B","B","B","B","B","B","B","B","B","B","B","B","B","B","B","B","B","B","B","B","B","B","B","B","B","B","B","B","?","?","?","M","M","N","?","?","?","?","?","?","?","?","?","?","?","?","?","?","?","?","?","?","?","?","?","?","?","?","?","?","?","?","?","?","?","R","R","R","R","R","R","R","R","R","R","R","R","R","R","R","R","R","R","R","R","R","R","R","R","R","R","R","R","R","R","R","R","R","R","R","R","R","R","R","R","R","R","R","R","R","R","R","R","R","R","R","R","R","R","R","R","R","R","R","R","R","R","R","R","R","R","R","R","R","R","R","R","R","R","R","R","R","R","R","R","R","R","R","R","R","R","R","R","R","R","R","R","R","R","R","R","R","R","R","R","R","R","R","R","R","R","R","R","R","R","R","R","R","R","R","R","R","R","R","R","R","R","R","R","R","R","R","R","R","R","R","R","R","R","R","R","R"],"t":[38,53,79,94,108,124,141,159,175,191,208,225,242,259,274,292,308,325,342,359,375,391,409,425,442,458,475,492,507,525,542,559,575,592,608,625,641,658,675,692,708,725,742,758,775,792,808,825,842,858,875,892,908,925,942,958,975,992,1008,1025,1041,1058,1074,1092,1108,1125,1142,1159,1175,1192,1209,1225,1242,1258,1277,1291,1308,1325,1342,1358,1375,1392,1408,1425,1442,1459,1475,1491,1508,1525,1542,1558,1575,1592,1608,1624,1642,1658,1675,1692,1709,1725,1742,1759,1775,1792,1808,1825,1842,1858,1875,1892,1908,1925,1942,1959,1975,1992,2008,2025,2042,2059,2075,2092,2109,2125,2141,2159,2175,2191,2208,2225,2242,2258,2275,2292,2309,2325,2342,2358,2375,2391,2408,2425,2442,2458,2475,2492,2508,2524,2541,2558,2574,2591,2608,2624,2641,2658,2675,2691,2708,2725,2741,2758,2775,2792,2808,2824,2841,2858,2874,2891,2908,2924,2941,2958,2975,2991,3008,3025,3041,3058,3075,3091,3108,3124,3141,3158,3175,3191,3208,3225,3241,3258,3275,3292,3308,3326,3342,3358,3375,3391,3408,3425,3442,3458,3475,3492,3508,3525,3542,3558,3575,3592,3608,3625,3642,3659,3675,3692,3709,3724,3741,3758,3774,3792,3808,3825,3842,3858,3875,3892,3908,3925,3941,3958,3975,3992,4009,4025,4042,4059,4075,4091,4108,4125,4141,4158,4175,4191,4208,4225,4242,4258,4274,4292,4308,4325,4342,4358,4374,4391,4408,4425,4442,4458,4475,4491,4508,4526,4541,4558,4575,4592,4608,4625,4642,4658,4675,4692,4708,4725,4741,4758,4775,4791,4808,4824,4841,4858,4874,4891,4908,4925,4941,4958,4974,4991,5007,5024,5041,5058,5075,5092,5108,5125,5140,5158,5174,5192,5208,5225,5241,5258,5276,5292,5308,5324,5341,5358,5374,5391,5408,5424,5441,5459,5475,5491,5508,5525,5542,5558,5575,5591,5608,5624,5641,5658,5675,5691,5707,5724,5741,5758,5774,5792,5808,5825,5842,5858,5875,5891,5908,5925,5942,5958,5975,5992,6008,6025,6042,6058,6075,6091,6108,6125,6141,6158,6175,6192,6208,6225,6241,6258,6274,6291,6308,6324,6341,6358,6375,6391,6408,6425,6442,6457,6475,6491,6508,6525,6541,6558,6574,6591,6607,6624,6641,6657,6674,6691,6708,6725,6742,6757,6775,6791,6808,6824,6840,6857,6875,6891,6907,6924,6941,6958,6974,6991,7008,7024,7041,7057,7074,7091,7107,7124,7141,7158,7174,7191,7208,7225,7241,7258,7275,7291,7308,7324,7341,7357,7374,7390,7407,7424,7441,7458,7474,7491,7508,7525,7541,7558,7574,7591,7607,7624,7641,7658,7674,7691,7708,7725,7742,7757,7775,7792,7808,7825,7842,7858,7875,7891,7909,7925,7941,7958,7975,7991,8008,8025,8042,8059,8075,8092,8108,8125,8142,8158,8175,8192,8208,8225,8242,8258,8275,8293,8308,8325,8342,8359,8375,8392,8408,8425,8441,8458,8474,8491,8508,8525,8541,8558,8575,8591,8608,8624,8641,8658,8674,8691,8708,8724,8741,8757,8774,8791,8808,8824,8841,8858,8874,8891,8908,8924,8941,8958,8974,8991,9007,9024,9041,9058,9074,9091,9108,9124,9142,9158,9174,9191,9208,9224,9241,9258,9274,9291,9308,9324,9341,9358,9374,9391,9408,9424,9441,9458,9475,9492,9509,9524,9541,9558,9575,9591,9608,9625,9642,9658,9675,9692,9708,9725,9742,9758,9775,9791,9809,9825,9841,9856,9873,9891,9908,9925,9941,9958,9974,9991,10008,10025,10041,10058,10074,10091,10108,10124,10141,10158,10175,10191,10208,10224,10241,10258,10274,10291,10308,10324,10341,10357,10375,10391,10408,10424,10441,10458,10475,10491,10508,10524,10541,10558,10574,10591,10608,10624,10641,10658,10675,10691,10708,10725,10741,10758,10775,10791,10808,10825,10842,10858,10875,10892,10908,10925,10942,10958,10975,10992,11009,11025,11041,11058,11074,11091,11108,11124,11141,11158,11174,11191,11208,11225,11241,11258,11275,11291,11308,11325,11341,11358,11375,11391,11408,11425,11441,11458,11475,11491,11508,11524,11541,11558,11575,11591,11608,11624,11641,11658,11675,11691,11708,11725,11741,11758,11775,11791,11808,11825,11841,11857,11875,11891,11908,11924,11941,11958,11976,11991,12008,12025,12041,12058,12075,12092,12108,12125,12142,12159,12175,12192,12209,12225,12241,12258,12275,12292,12308,12325,12341,12358,12375,12392,12409,12425,12441,12459,12475,12492,12508,12525,12542,12558,12574,12591,12608,12625,12642,12659,12675,12692,12708,12725,12742,12758,12775,12792,12808,12825,12842,12859,12875,12891,12908,12924,12942,12958,12975,12992,13009,13025,13041,13058,13075,13092,13108,13125,13142,13158,13175,13191,13208,13225,13242,13258,13275,13292,13309,13324,13341,13358,13375,13392,13409,13425,13441,13459,13475,13491,13508,13525,13542,13559,13575,13592,13608,13625,13642,13658,13675,13692,13708,13725,13742,13759,13775,13792,13808,13824,13842,13858,13875,13892,13909,13925,13942,13958,13975],"hit":[null],"x":[-1.8775510204081634,-1.8775510204081634,-1.8775510204081634,-1.8775510204081634,-1.8775510204081634,-1.8775510204081634,-1.8775510204081634,-1.8775510204081634,-1.8775510204081634,-1.8775510204081634,-1.8775510204081634,-1.8775510204081634,-1.8775510204081634,-1.8775510204081634,-1.8775510204081634,-1.8775510204081634,-1.8775510204081634,-1.8775510204081634,-1.8775510204081634,-1.8775510204081634,-1.8775510204081634,-1.8775510204081634,-1.8775510204081634,-1.8775510204081634,-1.8775510204081634,-1.8775510204081634,-1.8775510204081634,-1.8775510204081634,-1.8775510204081634,-1.8775510204081634,-1.8775510204081634,-1.8775510204081634,-1.8775510204081634,-1.8775510204081634,-1.8775510204081634,-1.8775510204081634,-1.8775510204081634,-1.8775510204081634,-1.8775510204081634,-1.8775510204081634,-1.8775510204081634,-1.8775510204081634,-1.8775510204081634,-1.8775510204081634,-1.8775510204081634,-1.8775510204081634,-1.8775510204081634,-1.8775510204081634,-1.8775510204081634,-1.8775510204081634,-1.8775510204081634,-1.8775510204081634,-1.8775510204081634,-1.8775510204081634,-1.8775510204081634,-1.8775510204081634,-1.8775510204081634,-1.8775510204081634,-1.8775510204081634,-1.8775510204081634,-1.8775510204081634,-1.8775510204081634,-1.8775510204081634,-1.8775510204081634,-1.8775510204081634,-1.8775510204081634,-1.8775510204081634,-1.8775510204081634,-1.8775510204081634,-1.8775510204081634,-1.8775510204081634,-1.8775510204081634,-1.8775510204081634,-1.8775510204081634,-1.8775510204081634,-1.8775510204081634,-1.8775510204081634,-1.8775510204081634,-1.8775510204081634,-1.8775510204081634,-1.8775510204081634,-1.8775510204081634,-1.8775510204081634,-1.8775510204081634,-1.8775510204081634,-1.8775510204081634,-1.8775510204081634,-1.8775510204081634,-1.8775510204081634,-1.8775510204081634,-1.8775510204081634,-1.8775510204081634,-1.8775510204081634,-1.8775510204081634,-1.8775510204081634,-1.8775510204081634,-1.8775510204081634,-1.8775510204081634,-1.8775510204081634,-1.8775510204081634,-1.8775510204081634,-1.8775510204081634,-1.8775510204081634,-1.8775510204081634,-1.8775510204081634,-1.8775510204081634,-1.8775510204081634,-1.8775510204081634,-1.8775510204081634,-1.8775510204081634,-1.8775510204081634,-1.8775510204081634,-1.8775510204081634,-1.8775510204081634,-1.8775510204081634,-1.8775510204081634,-1.8775510204081634,-1.8775510204081634,-1.8775510204081634,-1.8775510204081634,-1.8775510204081634,-1.8775510204081634,-1.8775510204081634,-1.8775510204081634,-1.8775510204081634,-1.8775510204081634,-1.8775510204081634,-1.8775510204081634,-1.8775510204081634,-1.8775510204081634,-1.8775510204081634,-1.8775510204081634,-1.8775510204081634,-1.8775510204081634,-1.8775510204081634,-1.8775510204081634,-1.8775510204081634,-1.8775510204081634,-1.8775510204081634,0.05102040816326531,0.061224489795918366,0.08503401360544217,0.1292517006802721,0.20748299319727892,0.2755102040816326,0.3197278911564626,0.3741496598639456,0.41496598639455784,0.445578231292517,0.4557823129251701,0.46938775510204084,0.47619047619047616,0.47959183673469385,0.48299319727891155,0.48299319727891155,0.48299319727891155,0.48299319727891155,0.48299319727891155,0.48299319727891155,0.48299319727891155,0.48639455782312924,0.4931972789115646,0.5034013605442177,0.5136054421768708,0.5238095238095238,0.5374149659863946,0.5476190476190477,0.5544217687074829,0.5612244897959183,0.564625850340136,0.5680272108843537,0.5680272108843537,0.5714285714285714,0.5714285714285714,0.5748299319727891,0.5748299319727891,0.5748299319727891,0.5748299319727891,0.5748299319727891,0.5748299319727891,0.5748299319727891,0.5748299319727891,0.5748299319727891,0.5748299319727891,0.5748299319727891,0.5748299319727891,0.5748299319727891,0.5748299319727891,0.5748299319727891,0.5748299319727891,0.5748299319727891,0.5748299319727891,0.5748299319727891,0.5748299319727891,0.5748299319727891,0.5748299319727891,0.5748299319727891,0.5748299319727891,0.5748299319727891,0.5748299319727891,0.5748299319727891,0.5748299319727891,0.5748299319727891,0.5748299319727891,0.5748299319727891,0.5748299319727891,0.5748299319727891,0.5748299319727891,0.5748299319727891,0.5748299319727891,0.5748299319727891,0.5748299319727891,0.5748299319727891,0.5748299319727891,0.5748299319727891,0.5748299319727891,0.5748299319727891,0.5748299319727891,0.5748299319727891,0.5748299319727891,0.5748299319727891,0.5748299319727891,0.5748299319727891,0.5748299319727891,0.5748299319727891,0.5748299319727891,0.5748299319727891,0.5748299319727891,0.5748299319727891,0.5748299319727891,0.5748299319727891,0.5748299319727891,0.5748299319727891,0.5748299319727891,0.5748299319727891,0.5748299319727891,0.5748299319727891,0.5748299319727891,0.5748299319727891,0.5748299319727891,0.5748299319727891,0.5748299319727891,0.5748299319727891,0.5748299319727891,0.5748299319727891,0.5748299319727891,0.5748299319727891,0.5748299319727891,0.5748299319727891,0.5748299319727891,0.5748299319727891,0.5748299319727891,0.5748299319727891,0.5748299319727891,0.5748299319727891,0.5748299319727891,0.5748299319727891,0.5748299319727891,0.5748299319727891,0.5748299319727891,0.5748299319727891,0.5748299319727891,0.5748299319727891,0.5748299319727891,0.5748299319727891,0.5748299319727891,0.5748299319727891,0.5748299319727891,0.5748299319727891,0.5748299319727891,0.5748299319727891,0.5748299319727891,0.5748299319727891,0.5748299319727891,0.5748299319727891,0.5748299319727891,0.5748299319727891,0.5748299319727891,0.5748299319727891,0.5748299319727891,0.5748299319727891,0.5748299319727891,0.5748299319727891,0.5748299319727891,0.5680272108843537,0.5612244897959183,0.5510204081632653,0.5374149659863946,0.5306122448979592,0.5272108843537415,0.5238095238095238,0.5204081632653061,0.5204081632653061,0.5204081632653061,0.5204081632653061,0.5204081632653061,0.5204081632653061,0.5272108843537415,0.5408163265306123,0.5544217687074829,0.5680272108843537,0.5816326530612245,0.6020408163265306,0.6020408163265306,0.6020408163265306,0.6020408163265306,0.6020408163265306,0.6020408163265306,0.6020408163265306,0.6020408163265306,0.6020408163265306,0.6020408163265306,0.6020408163265306,0.6020408163265306,0.6020408163265306,0.6020408163265306,0.6020408163265306,0.6020408163265306,0.6020408163265306,0.6020408163265306,0.6020408163265306,0.6020408163265306,0.6020408163265306,0.6020408163265306,0.6020408163265306,0.6020408163265306,0.6020408163265306,0.6020408163265306,0.6020408163265306,0.6020408163265306,0.6020408163265306,0.6020408163265306,0.6020408163265306,0.6020408163265306,0.6020408163265306,0.6020408163265306,0.6020408163265306,0.6020408163265306,0.6020408163265306,0.6020408163265306,0.6020408163265306,0.6020408163265306,0.6020408163265306,0.6020408163265306,0.6020408163265306,0.6020408163265306,0.6020408163265306,0.6020408163265306,0.6020408163265306,0.6020408163265306,0.6020408163265306,0.6020408163265306,0.6020408163265306,0.6020408163265306,0.6020408163265306,0.6020408163265306,0.6020408163265306,0.6020408163265306,0.6020408163265306,0.6020408163265306,0.6020408163265306,0.6020408163265306,0.6020408163265306,0.6020408163265306,0.6020408163265306,0.6020408163265306,0.6020408163265306,0.5918367346938775,0.5850340136054422,0.5748299319727891,0.5612244897959183,0.5510204081632653,0.5408163265306123,0.5272108843537415,0.5170068027210885,0.5068027210884354,0.4965986394557823,0.4897959183673469,0.48299319727891155,0.47619047619047616,0.46938775510204084,0.46258503401360546,0.46258503401360546,0.46258503401360546,0.46258503401360546,0.46938775510204084,0.4931972789115646,0.5374149659863946,0.5680272108843537,0.6054421768707483,0.6428571428571429,0.673469387755102,0.6938775510204082,0.7108843537414966,0.7244897959183674,0.7312925170068028,0.7346938775510204,0.7346938775510204,0.7380952380952381,0.7414965986394558,0.7414965986394558,0.7448979591836735,0.7448979591836735,0.7482993197278912,0.7482993197278912,0.7517006802721088,0.7585034013605442,0.7619047619047619,0.7721088435374149,0.7789115646258503,0.7925170068027211,0.8061224489795918,0.8231292517006803,0.8367346938775511,0.8469387755102041,0.8571428571428571,0.8605442176870748,0.8605442176870748,0.8537414965986394,0.8367346938775511,0.8129251700680272,0.782312925170068,0.7414965986394558,0.7040816326530612,0.6700680272108843,0.6326530612244898,0.5952380952380952,0.5544217687074829,0.5102040816326531,0.45918367346938777,0.3877551020408163,0.3401360544217687,0.29931972789115646,0.2687074829931973,0.25170068027210885,0.23129251700680273,0.21768707482993196,0.20408163265306123,0.1870748299319728,0.17687074829931973,0.1598639455782313,0.14625850340136054,0.1360544217687075,0.12585034013605442,0.11224489795918367,0.10204081632653061,0.08843537414965986,0.05442176870748299,0.034013605442176874,0.02040816326530612,0.003401360544217687,-0.006802721088435374,-0.013605442176870748,-0.017006802721088437,-0.017006802721088437,-0.017006802721088437,-0.017006802721088437,-0.017006802721088437,-0.017006802721088437,-0.017006802721088437,-0.017006802721088437,-0.017006802721088437,-0.017006802721088437,-0.017006802721088437,-0.017006802721088437,-0.017006802721088437,-0.017006802721088437,-0.017006802721088437,-0.017006802721088437,-0.017006802721088437,-0.017006802721088437,-0.017006802721088437,-0.017006802721088437,-0.017006802721088437,-0.017006802721088437,-0.017006802721088437,-0.017006802721088437,-0.017006802721088437,-0.017006802721088437,-0.017006802721088437,-0.017006802721088437,-0.017006802721088437,-0.017006802721088437,-0.017006802721088437,-0.017006802721088437,-0.017006802721088437,-0.017006802721088437,-0.017006802721088437,-0.017006802721088437,-0.017006802721088437,-0.017006802721088437,-0.017006802721088437,-0.017006802721088437,-0.017006802721088437,-0.017006802721088437,-0.017006802721088437,-0.017006802721088437,-0.017006802721088437,-0.017006802721088437,-0.017006802721088437,-0.017006802721088437,-0.017006802721088437,-0.017006802721088437,-0.013605442176870748,-0.01020408163265306,0,0.02040816326530612,0.09183673469387756,0.13945578231292516,0.24149659863945577,0.2789115646258503,0.3231292517006803,0.36394557823129253,0.4013605442176871,0.43537414965986393,0.45918367346938777,0.48299319727891155,0.5102040816326531,0.5374149659863946,0.564625850340136,0.5918367346938775,0.6122448979591837,0.6326530612244898,0.6530612244897959,0.673469387755102,0.6870748299319728,0.7040816326530612,0.7108843537414966,0.7142857142857143,0.717687074829932,0.717687074829932,0.7210884353741497,0.7244897959183674,0.7278911564625851,0.7380952380952381,0.7448979591836735,0.7551020408163265,0.7585034013605442,0.7653061224489796,0.7789115646258503,0.7891156462585034,0.8163265306122449,0.8333333333333334,0.8537414965986394,0.8775510204081632,0.891156462585034,0.9047619047619048,0.9149659863945578,0.9217687074829932,0.9285714285714286,0.935374149659864,0.9455782312925171,0.9523809523809523,0.9625850340136054,0.9693877551020408,0.9727891156462585,0.9761904761904762,0.9795918367346939,0.9795918367346939,0.9829931972789115,0.9829931972789115,0.9863945578231292,0.9863945578231292,0.9863945578231292,0.9863945578231292,0.9863945578231292,0.9863945578231292,0.9863945578231292,0.9863945578231292,0.9863945578231292,0.9863945578231292,0.9863945578231292,0.9863945578231292,0.9863945578231292,0.9863945578231292,0.9863945578231292,0.9863945578231292,0.9863945578231292,0.9863945578231292,0.9863945578231292,0.9863945578231292,0.9863945578231292,0.9863945578231292,0.9863945578231292,0.9863945578231292,0.9863945578231292,0.9863945578231292,0.9863945578231292,0.9863945578231292,0.9863945578231292,0.9863945578231292,0.9829931972789115,0.9659863945578231,0.9149659863945578,0.8537414965986394,0.7108843537414966,0.5408163265306123,0.35374149659863946,0.23809523809523808,0.11224489795918367,0.07482993197278912,0.030612244897959183,0.006802721088435374,0,0,0,0,0,0.003401360544217687,0.006802721088435374,0.01020408163265306,0.017006802721088437,0.027210884353741496,0.03741496598639456,0.04421768707482993,0.05102040816326531,0.05442176870748299,0.061224489795918366,0.06802721088435375,0.0782312925170068,0.08503401360544217,0.09183673469387756,0.09523809523809523,0.09523809523809523,0.09523809523809523,0.09863945578231292,0.09863945578231292,0.09863945578231292,0.09863945578231292,0.10204081632653061,0.10204081632653061,0.1054421768707483,0.11224489795918367,0.11564625850340136,0.12244897959183673,0.1292517006802721,0.1326530612244898,0.13945578231292516,0.14285714285714285,0.14285714285714285,0.14285714285714285,0.14285714285714285,0.14285714285714285,0.14285714285714285,0.14285714285714285,0.14285714285714285,0.14285714285714285,0.14285714285714285,0.14285714285714285,0.14285714285714285,0.14285714285714285,0.14285714285714285,0.14285714285714285,0.14285714285714285,0.14285714285714285,0.14285714285714285,0.14285714285714285,0.14285714285714285,0.14285714285714285,0.14285714285714285,0.14965986394557823,0.1564625850340136,0.17006802721088435,0.22108843537414966,0.282312925170068,0.35034013605442177,0.41836734693877553,0.48639455782312924,0.5850340136054422,0.6292517006802721,0.6870748299319728,0.7380952380952381,0.7857142857142857,0.826530612244898,0.8639455782312925,0.8877551020408163,0.9081632653061225,0.9183673469387755,0.9251700680272109,0.9285714285714286,0.9285714285714286,0.9285714285714286,0.9285714285714286,0.9285714285714286,0.9285714285714286,0.9285714285714286,0.9319727891156463,0.9421768707482994,0.9625850340136054,0.9931972789115646,1.030612244897959,1.054421768707483,1.0748299319727892,1.0850340136054422,1.0952380952380953,1.1020408163265305,1.1054421768707483,1.1054421768707483,1.1122448979591837,1.1156462585034013,1.1224489795918366,1.1258503401360545,1.1326530612244898,1.1326530612244898,1.1360544217687074,1.1360544217687074,1.1360544217687074,1.1360544217687074,1.1360544217687074,1.1360544217687074,1.1360544217687074,1.1360544217687074,1.1360544217687074,1.1360544217687074,1.1360544217687074,1.1360544217687074,1.1360544217687074,1.1360544217687074,1.1360544217687074,1.1360544217687074,1.1360544217687074,1.1360544217687074,1.1360544217687074,1.1360544217687074,1.1360544217687074,1.1360544217687074,1.1360544217687074,1.1360544217687074,1.1360544217687074,1.1360544217687074,1.1360544217687074,1.1360544217687074,1.1360544217687074,1.1360544217687074,1.1360544217687074,1.1360544217687074,1.1360544217687074,1.1360544217687074,1.1360544217687074,1.1360544217687074,1.1360544217687074,1.1360544217687074,1.1360544217687074,1.1360544217687074,1.1360544217687074,1.1360544217687074,1.1360544217687074,1.1360544217687074,1.1360544217687074,1.1360544217687074,1.1360544217687074,1.1360544217687074,1.1360544217687074,1.1360544217687074,1.1360544217687074,1.1360544217687074,1.1360544217687074,1.1360544217687074,1.1360544217687074,1.1360544217687074,1.1360544217687074,1.1360544217687074,1.1360544217687074,1.1360544217687074,1.1360544217687074,1.1360544217687074,1.1360544217687074,1.1360544217687074,1.1360544217687074,1.1360544217687074,1.1360544217687074,1.1360544217687074,1.1360544217687074,1.1360544217687074,1.1360544217687074,1.1360544217687074,1.1360544217687074,1.1360544217687074,1.1360544217687074,1.1360544217687074,1.1360544217687074,1.1360544217687074,1.1360544217687074,1.1360544217687074,1.1360544217687074,1.1360544217687074,1.1360544217687074,1.1360544217687074,1.1360544217687074,1.1360544217687074,1.1360544217687074,1.1360544217687074,1.1360544217687074,1.1360544217687074,1.1360544217687074,1.1360544217687074,1.1360544217687074,1.1360544217687074,1.1360544217687074,1.1360544217687074,1.1360544217687074,1.1360544217687074,1.1360544217687074,1.1360544217687074,1.1360544217687074,1.1360544217687074,1.1360544217687074,1.1360544217687074,1.1360544217687074,1.1360544217687074,1.1360544217687074,1.1360544217687074,1.1360544217687074,1.1360544217687074,1.1360544217687074,1.1360544217687074,1.1360544217687074,1.1360544217687074,1.1360544217687074,1.1360544217687074,1.1360544217687074,1.1360544217687074,1.1360544217687074,1.1360544217687074,1.1360544217687074,1.1360544217687074,1.1360544217687074,1.1360544217687074,1.1360544217687074,1.1360544217687074,1.1360544217687074,1.1360544217687074,1.1360544217687074,1.1360544217687074,1.1360544217687074,1.1360544217687074,1.1360544217687074],"y":[-3.5714285714285716,-3.5714285714285716,-3.5714285714285716,-3.5714285714285716,-3.5714285714285716,-3.5714285714285716,-3.5714285714285716,-3.5714285714285716,-3.5714285714285716,-3.5714285714285716,-3.5714285714285716,-3.5714285714285716,-3.5714285714285716,-3.5714285714285716,-3.5714285714285716,-3.5714285714285716,-3.5714285714285716,-3.5714285714285716,-3.5714285714285716,-3.5714285714285716,-3.5714285714285716,-3.5714285714285716,-3.5714285714285716,-3.5714285714285716,-3.5714285714285716,-3.5714285714285716,-3.5714285714285716,-3.5714285714285716,-3.5714285714285716,-3.5714285714285716,-3.5714285714285716,-3.5714285714285716,-3.5714285714285716,-3.5714285714285716,-3.5714285714285716,-3.5714285714285716,-3.5714285714285716,-3.5714285714285716,-3.5714285714285716,-3.5714285714285716,-3.5714285714285716,-3.5714285714285716,-3.5714285714285716,-3.5714285714285716,-3.5714285714285716,-3.5714285714285716,-3.5714285714285716,-3.5714285714285716,-3.5714285714285716,-3.5714285714285716,-3.5714285714285716,-3.5714285714285716,-3.5714285714285716,-3.5714285714285716,-3.5714285714285716,-3.5714285714285716,-3.5714285714285716,-3.5714285714285716,-3.5714285714285716,-3.5714285714285716,-3.5714285714285716,-3.5714285714285716,-3.5714285714285716,-3.5714285714285716,-3.5714285714285716,-3.5714285714285716,-3.5714285714285716,-3.5714285714285716,-3.5714285714285716,-3.5714285714285716,-3.5714285714285716,-3.5714285714285716,-3.5714285714285716,-3.5714285714285716,-3.5714285714285716,-3.5714285714285716,-3.5714285714285716,-3.5714285714285716,-3.5714285714285716,-3.5714285714285716,-3.5714285714285716,-3.5714285714285716,-3.5714285714285716,-3.5714285714285716,-3.5714285714285716,-3.5714285714285716,-3.5714285714285716,-3.5714285714285716,-3.5714285714285716,-3.5714285714285716,-3.5714285714285716,-3.5714285714285716,-3.5714285714285716,-3.5714285714285716,-3.5714285714285716,-3.5714285714285716,-3.5714285714285716,-3.5714285714285716,-3.5714285714285716,-3.5714285714285716,-3.5714285714285716,-3.5714285714285716,-3.5714285714285716,-3.5714285714285716,-3.5714285714285716,-3.5714285714285716,-3.5714285714285716,-3.5714285714285716,-3.5714285714285716,-3.5714285714285716,-3.5714285714285716,-3.5714285714285716,-3.5714285714285716,-3.5714285714285716,-3.5714285714285716,-3.5714285714285716,-3.5714285714285716,-3.5714285714285716,-3.5714285714285716,-3.5714285714285716,-3.5714285714285716,-3.5714285714285716,-3.5714285714285716,-3.5714285714285716,-3.5714285714285716,-3.5714285714285716,-3.5714285714285716,-3.5714285714285716,-3.5714285714285716,-3.5714285714285716,-3.5714285714285716,-3.5714285714285716,-3.5714285714285716,-3.5714285714285716,-3.5714285714285716,-3.5714285714285716,-3.5714285714285716,-3.5714285714285716,-3.5714285714285716,0.8095238095238095,0.8,0.780952380952381,0.7523809523809524,0.7142857142857143,0.6857142857142857,0.6571428571428571,0.6285714285714286,0.6,0.5619047619047619,0.5428571428571428,0.5238095238095238,0.49523809523809526,0.4666666666666667,0.4380952380952381,0.41904761904761906,0.4,0.38095238095238093,0.37142857142857144,0.3523809523809524,0.3238095238095238,0.3047619047619048,0.2761904761904762,0.2571428571428571,0.21904761904761905,0.20952380952380953,0.19047619047619047,0.18095238095238095,0.17142857142857143,0.17142857142857143,0.17142857142857143,0.17142857142857143,0.1619047619047619,0.1619047619047619,0.1619047619047619,0.1523809523809524,0.14285714285714285,0.14285714285714285,0.13333333333333333,0.13333333333333333,0.13333333333333333,0.12380952380952381,0.12380952380952381,0.11428571428571428,0.11428571428571428,0.10476190476190476,0.10476190476190476,0.10476190476190476,0.09523809523809523,0.09523809523809523,0.09523809523809523,0.09523809523809523,0.09523809523809523,0.09523809523809523,0.09523809523809523,0.09523809523809523,0.09523809523809523,0.09523809523809523,0.09523809523809523,0.09523809523809523,0.09523809523809523,0.09523809523809523,0.09523809523809523,0.09523809523809523,0.09523809523809523,0.09523809523809523,0.09523809523809523,0.09523809523809523,0.09523809523809523,0.09523809523809523,0.09523809523809523,0.09523809523809523,0.09523809523809523,0.09523809523809523,0.09523809523809523,0.09523809523809523,0.09523809523809523,0.09523809523809523,0.09523809523809523,0.09523809523809523,0.09523809523809523,0.09523809523809523,0.09523809523809523,0.09523809523809523,0.09523809523809523,0.09523809523809523,0.09523809523809523,0.09523809523809523,0.09523809523809523,0.09523809523809523,0.09523809523809523,0.09523809523809523,0.09523809523809523,0.09523809523809523,0.09523809523809523,0.09523809523809523,0.09523809523809523,0.09523809523809523,0.09523809523809523,0.09523809523809523,0.09523809523809523,0.09523809523809523,0.09523809523809523,0.09523809523809523,0.09523809523809523,0.09523809523809523,0.09523809523809523,0.09523809523809523,0.09523809523809523,0.09523809523809523,0.09523809523809523,0.09523809523809523,0.09523809523809523,0.09523809523809523,0.09523809523809523,0.09523809523809523,0.09523809523809523,0.09523809523809523,0.09523809523809523,0.09523809523809523,0.09523809523809523,0.09523809523809523,0.09523809523809523,0.09523809523809523,0.09523809523809523,0.09523809523809523,0.09523809523809523,0.09523809523809523,0.09523809523809523,0.09523809523809523,0.09523809523809523,0.09523809523809523,0.09523809523809523,0.09523809523809523,0.09523809523809523,0.09523809523809523,0.09523809523809523,0.09523809523809523,0.09523809523809523,0.09523809523809523,0.09523809523809523,0.09523809523809523,0.09523809523809523,0.09523809523809523,0.11428571428571428,0.1523809523809524,0.2,0.2571428571428571,0.3238095238095238,0.38095238095238093,0.4380952380952381,0.5047619047619047,0.580952380952381,0.6666666666666666,0.7523809523809524,0.8380952380952381,0.9238095238095239,1.0666666666666667,1.161904761904762,1.3142857142857143,1.4666666666666666,1.5809523809523809,1.6857142857142857,1.838095238095238,1.838095238095238,1.838095238095238,1.838095238095238,1.838095238095238,1.838095238095238,1.838095238095238,1.838095238095238,1.838095238095238,1.838095238095238,1.838095238095238,1.838095238095238,1.838095238095238,1.838095238095238,1.838095238095238,1.838095238095238,1.838095238095238,1.838095238095238,1.838095238095238,1.838095238095238,1.838095238095238,1.838095238095238,1.838095238095238,1.838095238095238,1.838095238095238,1.838095238095238,1.838095238095238,1.838095238095238,1.838095238095238,1.838095238095238,1.838095238095238,1.838095238095238,1.838095238095238,1.838095238095238,1.838095238095238,1.838095238095238,1.838095238095238,1.838095238095238,1.838095238095238,1.838095238095238,1.838095238095238,1.838095238095238,1.838095238095238,1.838095238095238,1.838095238095238,1.838095238095238,1.838095238095238,1.838095238095238,1.838095238095238,1.838095238095238,1.838095238095238,1.838095238095238,1.838095238095238,1.838095238095238,1.838095238095238,1.838095238095238,1.838095238095238,1.838095238095238,1.838095238095238,1.838095238095238,1.838095238095238,1.838095238095238,1.838095238095238,1.838095238095238,1.838095238095238,1.838095238095238,1.838095238095238,1.838095238095238,1.819047619047619,1.8,1.7809523809523808,1.7523809523809524,1.723809523809524,1.6952380952380952,1.6666666666666667,1.638095238095238,1.619047619047619,1.5904761904761904,1.561904761904762,1.5142857142857142,1.4857142857142858,1.457142857142857,1.4190476190476191,1.380952380952381,1.3333333333333333,1.2571428571428571,1.2095238095238094,1.1428571428571428,1.0857142857142856,1.0380952380952382,1.0095238095238095,0.9904761904761905,0.9714285714285714,0.9619047619047619,0.9523809523809523,0.9523809523809523,0.9428571428571428,0.9428571428571428,0.9428571428571428,0.9428571428571428,0.9333333333333333,0.9333333333333333,0.9333333333333333,0.9238095238095239,0.9238095238095239,0.9047619047619048,0.8952380952380953,0.8857142857142857,0.8761904761904762,0.8476190476190476,0.819047619047619,0.7904761904761904,0.7523809523809524,0.7142857142857143,0.6952380952380952,0.6761904761904762,0.6476190476190476,0.6095238095238096,0.5714285714285714,0.5333333333333333,0.49523809523809526,0.45714285714285713,0.42857142857142855,0.4095238095238095,0.38095238095238093,0.37142857142857144,0.3523809523809524,0.34285714285714286,0.3333333333333333,0.3238095238095238,0.3142857142857143,0.29523809523809524,0.2857142857142857,0.26666666666666666,0.24761904761904763,0.21904761904761905,0.2,0.18095238095238095,0.1523809523809524,0.12380952380952381,0.10476190476190476,0.09523809523809523,0.0761904761904762,0.06666666666666667,0.05714285714285714,0.047619047619047616,0.047619047619047616,0.047619047619047616,0.047619047619047616,0.047619047619047616,0.047619047619047616,0.047619047619047616,0.0380952380952381,0.02857142857142857,0.02857142857142857,0.02857142857142857,0.02857142857142857,0.02857142857142857,0.02857142857142857,0.02857142857142857,0.02857142857142857,0.02857142857142857,0.02857142857142857,0.02857142857142857,0.02857142857142857,0.02857142857142857,0.02857142857142857,0.02857142857142857,0.02857142857142857,0.02857142857142857,0.02857142857142857,0.02857142857142857,0.02857142857142857,0.02857142857142857,0.02857142857142857,0.02857142857142857,0.02857142857142857,0.02857142857142857,0.02857142857142857,0.02857142857142857,0.02857142857142857,0.02857142857142857,0.02857142857142857,0.02857142857142857,0.02857142857142857,0.02857142857142857,0.02857142857142857,0.02857142857142857,0.02857142857142857,0.02857142857142857,0.02857142857142857,0.02857142857142857,0.02857142857142857,0.02857142857142857,0.02857142857142857,0.02857142857142857,0.02857142857142857,0.02857142857142857,0.02857142857142857,0.02857142857142857,0.02857142857142857,0.02857142857142857,0.047619047619047616,0.06666666666666667,0.14285714285714285,0.38095238095238093,0.6,1,1.161904761904762,1.3238095238095238,1.438095238095238,1.5047619047619047,1.5333333333333334,1.542857142857143,1.542857142857143,1.5333333333333334,1.5047619047619047,1.4857142857142858,1.457142857142857,1.438095238095238,1.4095238095238096,1.380952380952381,1.3428571428571427,1.3238095238095238,1.2857142857142858,1.2666666666666666,1.2571428571428571,1.2476190476190476,1.2380952380952381,1.2285714285714286,1.2190476190476192,1.2190476190476192,1.2095238095238094,1.2,1.1904761904761905,1.180952380952381,1.1714285714285715,1.161904761904762,1.1523809523809523,1.1428571428571428,1.1333333333333333,1.1238095238095238,1.1238095238095238,1.1238095238095238,1.1238095238095238,1.1238095238095238,1.1238095238095238,1.1238095238095238,1.1238095238095238,1.1238095238095238,1.1238095238095238,1.1238095238095238,1.1238095238095238,1.1238095238095238,1.1238095238095238,1.1047619047619048,1.1047619047619048,1.0952380952380953,1.0857142857142856,1.0857142857142856,1.0761904761904761,1.0761904761904761,1.0666666666666667,1.0666666666666667,1.0666666666666667,1.0666666666666667,1.0666666666666667,1.0666666666666667,1.0666666666666667,1.0666666666666667,1.0666666666666667,1.0666666666666667,1.0666666666666667,1.0666666666666667,1.0666666666666667,1.0666666666666667,1.0666666666666667,1.0666666666666667,1.0666666666666667,1.0666666666666667,1.0666666666666667,1.0666666666666667,1.0666666666666667,1.0666666666666667,1.0666666666666667,1.0666666666666667,1.0666666666666667,1.0666666666666667,1.0666666666666667,1.0666666666666667,1.0666666666666667,1.0285714285714285,0.9619047619047619,0.8,0.6095238095238096,0.38095238095238093,0.23809523809523808,0.0761904761904762,0.047619047619047616,0,-0.02857142857142857,-0.0380952380952381,-0.047619047619047616,-0.05714285714285714,-0.05714285714285714,-0.06666666666666667,-0.0761904761904762,-0.08571428571428572,-0.09523809523809523,-0.11428571428571428,-0.13333333333333333,-0.1523809523809524,-0.1619047619047619,-0.17142857142857143,-0.17142857142857143,-0.17142857142857143,-0.1619047619047619,-0.14285714285714285,-0.13333333333333333,-0.11428571428571428,-0.10476190476190476,-0.10476190476190476,-0.10476190476190476,-0.10476190476190476,-0.09523809523809523,-0.09523809523809523,-0.09523809523809523,-0.09523809523809523,-0.09523809523809523,-0.09523809523809523,-0.08571428571428572,-0.0761904761904762,-0.0761904761904762,-0.06666666666666667,-0.06666666666666667,-0.05714285714285714,-0.05714285714285714,-0.05714285714285714,-0.05714285714285714,-0.05714285714285714,-0.05714285714285714,-0.05714285714285714,-0.05714285714285714,-0.05714285714285714,-0.05714285714285714,-0.05714285714285714,-0.05714285714285714,-0.05714285714285714,-0.05714285714285714,-0.05714285714285714,-0.05714285714285714,-0.05714285714285714,-0.05714285714285714,-0.05714285714285714,-0.05714285714285714,-0.05714285714285714,-0.05714285714285714,-0.05714285714285714,-0.047619047619047616,-0.02857142857142857,0,0.09523809523809523,0.21904761904761905,0.3333333333333333,0.41904761904761906,0.5047619047619047,0.5904761904761905,0.638095238095238,0.6857142857142857,0.7238095238095238,0.7619047619047619,0.780952380952381,0.8,0.8,0.8,0.8,0.8,0.7904761904761904,0.780952380952381,0.7714285714285715,0.7619047619047619,0.7523809523809524,0.7428571428571429,0.7428571428571429,0.7428571428571429,0.7333333333333333,0.7238095238095238,0.7142857142857143,0.7047619047619048,0.6857142857142857,0.6857142857142857,0.6666666666666666,0.6666666666666666,0.6666666666666666,0.6571428571428571,0.6571428571428571,0.6571428571428571,0.6571428571428571,0.6476190476190476,0.638095238095238,0.638095238095238,0.6285714285714286,0.6285714285714286,0.6285714285714286,0.6190476190476191,0.6190476190476191,0.6190476190476191,0.6095238095238096,0.6095238095238096,0.6095238095238096,0.6095238095238096,0.6095238095238096,0.6095238095238096,0.6095238095238096,0.6095238095238096,0.6095238095238096,0.6095238095238096,0.6095238095238096,0.6095238095238096,0.6095238095238096,0.6095238095238096,0.6095238095238096,0.6095238095238096,0.6095238095238096,0.6095238095238096,0.6095238095238096,0.6095238095238096,0.6095238095238096,0.6095238095238096,0.6095238095238096,0.6095238095238096,0.6095238095238096,0.6095238095238096,0.6095238095238096,0.6095238095238096,0.6095238095238096,0.6095238095238096,0.6095238095238096,0.6095238095238096,0.6095238095238096,0.6095238095238096,0.6095238095238096,0.6095238095238096,0.6095238095238096,0.6095238095238096,0.6095238095238096,0.6095238095238096,0.6095238095238096,0.6095238095238096,0.6095238095238096,0.6095238095238096,0.6095238095238096,0.6095238095238096,0.6095238095238096,0.6095238095238096,0.6095238095238096,0.6095238095238096,0.6095238095238096,0.6095238095238096,0.6095238095238096,0.6095238095238096,0.6095238095238096,0.6095238095238096,0.6095238095238096,0.6095238095238096,0.6095238095238096,0.6095238095238096,0.6095238095238096,0.6095238095238096,0.6095238095238096,0.6095238095238096,0.6095238095238096,0.6095238095238096,0.6095238095238096,0.6095238095238096,0.6095238095238096,0.6095238095238096,0.6095238095238096,0.6095238095238096,0.6095238095238096,0.6095238095238096,0.6095238095238096,0.6095238095238096,0.6095238095238096,0.6095238095238096,0.6095238095238096,0.6095238095238096,0.6095238095238096,0.6095238095238096,0.6095238095238096,0.6095238095238096,0.6095238095238096,0.6095238095238096,0.6095238095238096,0.6095238095238096,0.6095238095238096,0.6095238095238096,0.6095238095238096,0.6095238095238096,0.6095238095238096,0.6095238095238096,0.6095238095238096,0.6095238095238096,0.6095238095238096,0.6095238095238096,0.6095238095238096,0.6095238095238096,0.6095238095238096,0.6095238095238096,0.6095238095238096,0.6095238095238096,0.6095238095238096,0.6095238095238096,0.6095238095238096,0.6095238095238096,0.6095238095238096,0.6095238095238096,0.6095238095238096,0.6095238095238096,0.6095238095238096,0.6095238095238096,0.6095238095238096,0.6095238095238096,0.6095238095238096,0.6095238095238096,0.6095238095238096,0.6095238095238096,0.6095238095238096,0.6095238095238096,0.6095238095238096,0.6095238095238096,0.6095238095238096,0.6095238095238096,0.6095238095238096,0.6095238095238096]},"final_keyboard_state":["E","A","Z","B","R"],"num_clicks":5,"points":15,"cheat":false,"trial_type":"Hangman","trial_index":5,"time_elapsed":38750,"internal_node_id":"0.0-4.0","protocol_sum":"","subject_identifier":516,"subject_sum":[163,15,78,244,33,118,210,143,14,34,147,83,60,95,83,46,156,156,86,150,198,136,19,179,83,21,209,126,220,68,246,177],"subject_pair":258,"STUDY_ID":"66a3ed3c5d10d0e7d8a6b9da","PROLIFIC_PID":"667dd2e8aebd2f94fe977b31","SESSION_ID":"66a4362f7ffea2e59f43de4f","practice_instructions":1,"leaderboard_instructions":0,"bonus":0,"reveal_word":false,"self_rating":"2","confidence":"85"},{"view_history":"[{\"page_index\":0,\"viewing_time\":2053},{\"page_index\":1,\"viewing_time\":12967}]","rt":15020,"trial_type":"instructions","trial_index":6,"time_elapsed":53771,"internal_node_id":"0.0-5.0","protocol_sum":"","subject_identifier":516,"subject_sum":[163,15,78,244,33,118,210,143,14,34,147,83,60,95,83,46,156,156,86,150,198,136,19,179,83,21,209,126,220,68,246,177],"subject_pair":258,"STUDY_ID":"66a3ed3c5d10d0e7d8a6b9da","PROLIFIC_PID":"667dd2e8aebd2f94fe977b31","SESSION_ID":"66a4362f7ffea2e59f43de4f","practice_instructions":1,"leaderboard_instructions":0,"bonus":0,"reveal_word":false,"self_rating":"2","confidence":"85"},{"rt":6198,"responses":"{\"Q0\":\"...from <b>a previous session</b> that is part of the upcoming tournament.\"}","question_order":"[0]","trial_type":"survey-multi-choice","trial_index":7,"time_elapsed":59971,"internal_node_id":"0.0-6.0","protocol_sum":"","subject_identifier":516,"subject_sum":[163,15,78,244,33,118,210,143,14,34,147,83,60,95,83,46,156,156,86,150,198,136,19,179,83,21,209,126,220,68,246,177],"subject_pair":258,"correct":false,"test_part":"multichoice_leaderboard","STUDY_ID":"66a3ed3c5d10d0e7d8a6b9da","PROLIFIC_PID":"667dd2e8aebd2f94fe977b31","SESSION_ID":"66a4362f7ffea2e59f43de4f","practice_instructions":1,"leaderboard_instructions":0,"bonus":0,"reveal_word":false,"self_rating":"2","confidence":"85"},{"view_history":"[{\"page_index\":0,\"viewing_time\":1065.9999999999927}]","rt":1065.9999999999927,"trial_type":"instructions","trial_index":8,"time_elapsed":61038,"internal_node_id":"0.0-7.0-0.0","protocol_sum":"","subject_identifier":516,"subject_sum":[163,15,78,244,33,118,210,143,14,34,147,83,60,95,83,46,156,156,86,150,198,136,19,179,83,21,209,126,220,68,246,177],"subject_pair":258,"STUDY_ID":"66a3ed3c5d10d0e7d8a6b9da","PROLIFIC_PID":"667dd2e8aebd2f94fe977b31","SESSION_ID":"66a4362f7ffea2e59f43de4f","practice_instructions":1,"leaderboard_instructions":0,"bonus":0,"reveal_word":false,"self_rating":"2","confidence":"85"},{"rt":1568.0000000000218,"responses":"{\"Q0\":\"...from <b>a previous session</b> that is not part of the upcoming tournament.\"}","question_order":"[0]","trial_type":"survey-multi-choice","trial_index":9,"time_elapsed":62606,"internal_node_id":"0.0-7.0-1.0","protocol_sum":"","subject_identifier":516,"subject_sum":[163,15,78,244,33,118,210,143,14,34,147,83,60,95,83,46,156,156,86,150,198,136,19,179,83,21,209,126,220,68,246,177],"subject_pair":258,"correct":true,"test_part":"multichoice_leaderboard","STUDY_ID":"66a3ed3c5d10d0e7d8a6b9da","PROLIFIC_PID":"667dd2e8aebd2f94fe977b31","SESSION_ID":"66a4362f7ffea2e59f43de4f","practice_instructions":1,"leaderboard_instructions":0,"bonus":0,"reveal_word":false,"self_rating":"2","confidence":"85"},{"view_history":"[{\"page_index\":0,\"viewing_time\":8279}]","rt":8279,"trial_type":"instructions","trial_index":10,"time_elapsed":70886,"internal_node_id":"0.0-8.0","protocol_sum":"","subject_identifier":516,"subject_sum":[163,15,78,244,33,118,210,143,14,34,147,83,60,95,83,46,156,156,86,150,198,136,19,179,83,21,209,126,220,68,246,177],"subject_pair":258,"STUDY_ID":"66a3ed3c5d10d0e7d8a6b9da","PROLIFIC_PID":"667dd2e8aebd2f94fe977b31","SESSION_ID":"66a4362f7ffea2e59f43de4f","practice_instructions":1,"leaderboard_instructions":0,"bonus":0,"reveal_word":false,"self_rating":"2","confidence":"85"},{"rt":4135,"responses":"{\"Q0\":\"...players' leaderboard position (in terms of <b>points</b>) in an <b>upcoming tournament.</b>\"}","question_order":"[0]","trial_type":"survey-multi-choice","trial_index":11,"time_elapsed":75022,"internal_node_id":"0.0-9.0","protocol_sum":"","subject_identifier":516,"subject_sum":[163,15,78,244,33,118,210,143,14,34,147,83,60,95,83,46,156,156,86,150,198,136,19,179,83,21,209,126,220,68,246,177],"subject_pair":258,"correct":true,"test_part":"multichoice_tournament","STUDY_ID":"66a3ed3c5d10d0e7d8a6b9da","PROLIFIC_PID":"667dd2e8aebd2f94fe977b31","SESSION_ID":"66a4362f7ffea2e59f43de4f","practice_instructions":1,"leaderboard_instructions":0,"bonus":0,"reveal_word":false,"self_rating":"2","confidence":"85"},{"view_history":"[{\"page_index\":0,\"viewing_time\":5080}]","rt":5080,"trial_type":"instructions","trial_index":12,"time_elapsed":80104,"internal_node_id":"0.0-11.0","protocol_sum":"","subject_identifier":516,"subject_sum":[163,15,78,244,33,118,210,143,14,34,147,83,60,95,83,46,156,156,86,150,198,136,19,179,83,21,209,126,220,68,246,177],"subject_pair":258,"STUDY_ID":"66a3ed3c5d10d0e7d8a6b9da","PROLIFIC_PID":"667dd2e8aebd2f94fe977b31","SESSION_ID":"66a4362f7ffea2e59f43de4f","practice_instructions":1,"leaderboard_instructions":0,"bonus":0,"reveal_word":false,"self_rating":"2","confidence":"85"},{"view_history":"[{\"page_index\":0,\"viewing_time\":4216}]","rt":4216,"trial_type":"instructions","trial_index":13,"time_elapsed":84321,"internal_node_id":"0.0-12.0-0.0","protocol_sum":"","subject_identifier":516,"subject_sum":[163,15,78,244,33,118,210,143,14,34,147,83,60,95,83,46,156,156,86,150,198,136,19,179,83,21,209,126,220,68,246,177],"subject_pair":258,"STUDY_ID":"66a3ed3c5d10d0e7d8a6b9da","PROLIFIC_PID":"667dd2e8aebd2f94fe977b31","SESSION_ID":"66a4362f7ffea2e59f43de4f","practice_instructions":1,"leaderboard_instructions":0,"bonus":0,"reveal_word":false,"self_rating":"2","confidence":"85"},{"word":"HAWAII","click_log":{"letter":["","K","A","L","S","B","M","N","D","C","J","T","U","V","W","E","F","G","O","P","Q","H","I"],"t":[0,23342,24608,28891,31591,39190,44025,45975,47008,47941,49441,50425,51408,52375.00000000003,53375.00000000003,54575,56175,58674,60691,61575,62641,63641,64774.00000000003],"hit":[null,0,2,0,0,0,0,0,0,0,0,0,0,0,1,0,0,0,0,0,0,1,2],"asked":["","K","KA","KAL","KALS","KALSB","KALSBM","KALSBMN","KALSBMND","KALSBMNDC","KALSBMNDCJ","KALSBMNDCJT","KALSBMNDCJTU","KALSBMNDCJTUV","KALSBMNDCJTUVW","KALSBMNDCJTUVWE","KALSBMNDCJTUVWEF","KALSBMNDCJTUVWEFG","KALSBMNDCJTUVWEFGO","KALSBMNDCJTUVWEFGOP","KALSBMNDCJTUVWEFGOPQ","KALSBMNDCJTUVWEFGOPQH","KALSBMNDCJTUVWEFGOPQHI"],"word_state":["______","______","_A_A__","_A_A__","_A_A__","_A_A__","_A_A__","_A_A__","_A_A__","_A_A__","_A_A__","_A_A__","_A_A__","_A_A__","_AWA__","_AWA__","_AWA__","_AWA__","_AWA__","_AWA__","_AWA__","HAWA__","HAWAII"]},"hover_log":{"letter":["?","?","?","?","?","?","?","?","?","?","?","?","?","?","?","?","?","?","?","?","?","?","?","?","?","?","?","?","?","?","?","?","?","?","?","?","?","?","?","?","?","?","?","?","?","?","?","?","?","?","?","?","?","?","?","?","?","?","?","?","?","?","?","?","?","?","?","?","?","?","?","?","?","?","?","?","?","?","?","?","?","?","?","?","?","?","?","?","?","?","?","?","?","?","?","?","?","?","?","?","?","?","?","?","?","?","?","?","?","?","?","?","?","?","?","?","?","?","?","?","?","?","?","?","?","?","?","?","?","?","?","?","?","?","?","?","?","?","?","?","?","?","?","?","?","?","?","?","?","?","?","?","?","?","?","?","?","?","?","?","?","?","?","?","?","?","?","?","?","?","?","?","?","?","?","?","?","?","?","?","?","?","?","?","?","?","?","?","?","?","?","?","?","?","?","?","?","?","?","?","?","?","?","?","?","?","?","?","?","?","?","?","?","?","?","?","?","?","?","?","?","?","?","?","?","?","?","?","?","?","?","?","?","?","?","?","?","?","?","?","?","?","?","?","?","?","?","?","?","?","?","?","?","?","?","?","?","?","?","?","?","?","?","?","?","?","?","?","?","?","?","?","?","?","?","?","?","?","?","?","?","?","?","?","?","?","?","?","?","?","?","?","?","?","?","?","?","?","?","?","?","?","?","?","?","?","?","?","?","?","?","?","?","?","?","?","?","?","?","?","?","?","?","?","?","?","?","?","?","?","?","?","?","?","?","?","?","?","?","?","?","?","?","?","?","?","?","?","?","?","?","?","?","?","?","?","?","?","?","?","?","?","?","?","?","?","?","?","?","?","?","?","?","?","?","?","?","?","?","?","?","?","?","?","?","?","?","?","?","?","?","?","?","?","?","?","?","?","?","?","?","?","?","?","?","?","?","?","?","?","?","?","?","?","?","?","?","?","?","?","?","?","?","?","?","?","?","?","?","?","?","?","?","?","?","?","?","?","?","?","?","?","?","?","?","?","?","?","?","?","?","?","?","?","?","?","?","?","?","?","?","?","?","?","?","?","?","?","?","?","?","?","?","?","?","?","?","?","?","?","?","?","?","?","?","?","?","?","?","?","?","?","?","?","?","?","?","?","?","?","?","?","?","?","?","?","?","?","?","?","?","?","?","?","?","?","?","?","?","?","?","?","?","?","?","?","?","?","?","?","?","?","?","?","?","?","?","?","?","?","?","?","?","?","?","?","?","?","?","?","?","?","?","?","?","?","?","?","?","?","?","?","?","?","?","?","?","?","?","?","?","?","?","?","?","?","?","?","?","?","?","?","?","?","?","?","?","?","?","?","?","?","?","?","?","?","?","?","?","?","?","?","?","?","?","?","?","?","?","?","?","?","?","?","?","?","?","?","?","?","?","?","?","?","?","?","?","?","?","?","?","?","?","?","?","?","?","?","?","?","?","?","?","?","?","?","?","?","?","?","?","?","?","?","?","?","?","?","?","?","?","?","?","?","?","?","?","?","?","?","?","?","?","?","?","?","?","?","?","?","?","?","?","?","?","?","?","?","?","?","?","?","?","?","?","?","?","?","?","?","?","?","?","?","?","?","?","?","?","?","?","?","?","?","?","?","?","?","?","?","?","?","?","?","?","?","?","?","?","?","?","?","?","?","?","?","?","?","?","?","?","?","?","?","?","?","?","?","?","?","?","?","?","?","?","?","?","?","?","?","?","?","?","?","?","?","?","?","?","?","?","?","?","?","?","?","?","?","?","?","?","?","?","?","?","?","?","?","?","?","?","?","?","?","?","?","?","?","?","?","?","?","?","?","?","?","?","?","?","?","?","?","?","?","?","?","?","?","?","?","?","?","?","?","?","?","?","?","?","?","?","?","?","?","?","?","?","?","?","?","?","?","?","?","?","?","?","?","?","?","?","?","?","?","?","?","?","?","?","?","?","?","?","?","?","?","?","?","?","?","?","?","?","?","?","?","?","?","?","?","?","?","?","?","?","?","?","?","?","?","?","?","?","?","?","?","?","?","?","?","?","?","?","?","?","?","?","?","?","?","?","?","?","?","?","?","?","?","?","?","?","?","?","?","?","?","?","?","?","?","?","?","?","?","?","?","?","?","?","?","?","?","?","?","?","?","?","?","?","?","?","?","?","?","?","?","?","?","?","?","?","?","?","?","?","?","?","?","?","?","?","?","?","?","?","?","?","?","?","?","?","?","?","?","?","?","?","?","?","?","?","?","?","?","?","?","?","?","?","?","?","?","?","?","?","?","?","?","?","?","?","?","?","?","?","?","?","?","?","?","?","?","?","?","?","?","?","?","?","?","?","?","?","?","?","?","?","?","?","?","?","?","?","?","?","?","?","?","?","?","?","?","?","?","?","?","?","?","?","?","?","?","?","?","?","?","?","?","?","?","?","?","?","?","?","?","?","?","?","?","?","?","?","?","?","?","?","?","?","?","?","?","?","?","?","?","?","?","?","?","?","?","?","?","?","?","?","?","?","?","?","?","?","?","?","?","?","?","?","?","?","?","?","?","?","?","?","?","?","?","?","?","?","?","?","?","?","?","?","?","?","?","?","?","?","?","?","?","?","?","?","?","?","?","?","?","?","?","?","?","?","?","?","?","?","?","?","?","?","?","?","?","?","?","?","?","?","?","?","?","?","?","?","?","?","?","?","?","?","?","?","?","?","?","?","?","?","?","?","?","?","?","?","?","?","?","?","?","?","?","?","?","?","?","?","?","?","?","?","?","?","?","?","?","?","?","?","?","?","?","?","?","?","?","?","?","?","?","?","?","?","?","?","?","?","?","?","?","?","?","?","?","?","?","?","?","?","?","?","?","?","?","?","?","?","?","?","?","?","?","?","?","?","?","?","?","?","?","?","?","?","?","?","?","?","?","?","?","?","?","?","?","?","?","?","?","?","?","?","?","?","?","?","?","?","?","?","?","?","?","?","?","?","?","?","?","?","?","?","?","?","?","?","?","?","?","?","?","?","?","?","?","?","?","?","?","?","?","?","?","?","?","?","?","?","?","?","?","?","?","?","?","?","?","?","?","?","?","?","?","?","?","?","?","?","?","?","?","?","?","?","?","?","?","?","?","?","?","?","?","?","?","?","?","?","?","?","?","?","?","?","?","?","?","?","?","?","?","?","?","?","?","?","?","?","?","?","?","?","?","?","?","?","?","?","?","?","?","?","?","?","?","?","?","?","?","?","?","?","?","?","?","?","?","?","?","?","?","?","?","?","?","?","?","?","?","?","?","?","?","?","?","?","?","?","?","?","?","?","?","?","?","?","?","?","?","?","?","?","?","?","?","?","?","?","?","?","?","?","?","?","?","?","?","?","?","?","?","?","?","?","?","?","?","?","?","?","?","?","?","?","?","?","?","?","?","?","?","?","?","?","?","?","?","?","?","?","?","?","?","?","?","?","?","?","?","?","?","?","?","?","?","?","?","?","?","?","?","?","?","?","?","?","?","?","?","?","?","?","?","?","?","?","?","?","?","?","?","?","?","?","?","?","?","?","?","?","?","?","?","?","?","?","?","?","?","?","?","?","?","?","?","?","?","?","?","?","?","?","?","?","?","?","?","?","?","?","?","?","?","?","?","?","?","?","?","?","?","?","?","?","?","?","?","?","?","?","?","?","?","?","?","?","?","?","?","?","?","?","?","?","?","?","?","?","?","?","?","?","?","?","?","?","?","?","?","?","?","?","?","?","?","?","?","?","?","?","?","?","?","?","?","?","?","?","?","?","?","?","?","?","?","?","?","?","?","?","?","?","?","?","?","?","?","?","?","?","?","?","?","?","?","?","?","?","?","?","?","?","?","?","?","?","?","?","?","?","?","?","?","?","?","?","?","?","?","?","?","?","?","?","?","?","?","?","?","?","?","?","?","?","?","?","?","?","?","?","?","?","?","?","?","?","?","?","?","?","?","?","?","?","?","?","?","?","?","?","?","?","?","?","?","?","?","?","?","?","?","?","?","?","?","?","?","?","?","?","?","?","?","?","?","?","?","?","?","?","?","?","?","?","?","?","?","?","?","?","?","?","?","?","?","?","?","?","?","?","?","?","?","?","?","?","?","?","?","?","?","?","?","?","?","?","?","?","?","?","?","?","?","?","?","?","?","?","?","?","?","?","?","?","?","?","?","?","?","?","?","?","?","?","?","?","?","?","?","?","?","?","?","?","?","?","?","?","?","?","?","?","?","?","?","?","?","?","?","?","?","?","?","?","?","?","?","?","?","?","?","?","?","?","?","?","?","?","?","?","?","?","?","?","?","?","?","?","?","?","?","?","?","?","?","?","?","?","?","?","?","?","?","?","?","?","?","?","?","?","?","?","?","?","?","?","?","?","?","?","?","?","?","?","?","?","?","?","?","?","?","?","?","?","?","?","?","?","?","?","?","?","?","?","?","?","?","?","?","?","?","?","?","?","?","?","?","?","?","?","?","?","?","?","?","?","?","?","?","?","?","?","?","?","?","?","?","?","?","?","?","?","?","?","?","?","?","?","?","?","?","?","?","?","?","?","?","?","?","?","?","?","?","?","?","?","?","?","?","?","?","?","?","?","?","?","?","?","?","?","?","?","?","?","?","?","?","?","?","?","?","?","?","?","?","?","?","?","?","?","?","?","?","?","?","?","?","?","?","?","?","?","?","?","?","?","?","?","?","?","?","?","?","?","?","?","?","?","?","?","?","?","?","?","?","?","?","?","?","?","?","?","?","?","?","?","?","?","?","?","?","?","?","?","?","?","?","?","?","?","?","?","?","?","?","?","?","?","?","?","?","?","?","?","?","?","?","?","?","?","?","?","?","?","?","?","?","?","?","?","?","?","?","?","?","?","?","?","?","?","?","?","?","?","?","?","?","?","?","?","?","?","?","?","?","?","?","?","?","?","?","?","?","?","?","?","?","?","?","?","?","?","?","?","?","?","?","?","?","?","?","?","?","?","?","?","?","?","?","?","?","?","?","?","?","?","?","?","?","?","?","?","?","?","?","?","?","?","?","?","?","?","?","?","?","?","?","?","?","?","?","?","?","?","?","?","?","?","?","?","?","?","?","?","?","?","?","?","?","?","?","?","?","?","?","?","?","?","?","?","?","?","?","?","?","?","?","?","?","?","?","?","?","?","?","?","?","?","?","?","?","?","?","?","?","?","?","?","?","?","?","?","?","?","?","?","?","?","?","?","?","?","?","?","?","?","?","?","?","?","?","?","?","?","?","?","?","?","?","?","?","?","?","?","?","?","?","?","?","?","?","?","?","?","?","?","?","?","?","?","?","?","?","?","?","?","?","?","?","?","?","?","?","?","?","?","?","?","?","?","?","?","?","?","?","?","?","?","?","?","?","?","?","?","?","?","?","?","?","?","?","?","?","?","?","?","?","?","?","?","?","?","?","?","?","?","?","?","?","?","?","?","?","?","?","?","?","?","?","?","?","?","?","?","?","?","?","?","?","?","?","?","?","?","?","?","?","?","?","?","?","?","?","?","?","?","?","?","?","?","?","?","?","?","?","?","?","?","?","?","?","?","?","?","?","?","?","?","?","?","?","?","?","?","?","?","?","?","?","?","?","?","?","?","?","?","?","?","?","?","?","?","?","?","?","?","?","?","?","?","?","?","?","?","?","?","?","?","?","?","?","?","?","?","?","?","?","?","?","?","?","?","?","?","?","?","?","?","?","?","?","?","?","?","?","?","?","?","?","?","?","?","?","?","?","?","?","?","?","?","?","?","?","?","?","?","?","?","?","?","?","?","?","?","?","?","?","?","?","?","?","?","?","?","?","?","?","?","?","?","?","?","?","?","?","?","?","?","?","?","?","?","?","?","?","?","?","?","?","?","?","?","?","?","?","?","?","?","?","?","?","?","?","?","?","?","?","?","?","?","?","?","?","?","?","?","?","?","?","?","?","?","?","?","?","?","?","?","?","?","?","?","?","?","?","?","?","?","?","?","?","?","?","?","?","?","?","?","?","?","?","?","?","?","?","?","?","?","?","?","?","?","?","?","?","?","?","?","?","?","?","?","?","?","?","?","?","?","?","?","?","?","?","?","?","?","?","?","?","?","?","?","?","?","?","?","?","?","?","?","?","?","?","?","?","?","?","?","?","?","?","?","?","?","?","?","?","?","?","?","?","?","?","?","?","?","?","?","?","?","?","?","?","?","?","?","?","?","?","?","?","?","?","?","?","?","?","?","?","?","?","?","?","?","?","?","?","?","?","?","?","?","?","?","?","?","?","?","?","?","?","?","?","?","?","?","?","?","?","?","?","?","?","?","?","?","?","?","?","?","?","?","?","?","?","?","?","?","?","?","?","?","?","?","?","?","?","?","?","?","?","?","?","?","?","?","?","?","?","?","?","?","?","?","?","?","?","?","?","?","?","?","?","?","?","?","?","?","?","?","?","?","?","?","?","?","?","?","?","?","?","?","?","?","?","?","?","?","?","?","?","?","?","?","?","?","?","?","?","?","?","?","?","?","?","?","?","?","?","?","?","?","?","?","?","?","?","?","?","?","?","?","?","?","?","?","?","?","?","?","?","?","?","?","?","?","?","?","?","?","?","?","?","?","?","?","?","?","?","?","?","?","?","?","?","?","?","?","?","?","?","?","?","?","?","?","?","?","?","?","?","?","?","?","?","?","?","?","?","?","?","?","?","?","?","?","?","?","?","?","?","?","?","?","?","?","?","?","?","?","?","?","?","?","?","?","?","?","?","?","?","?","?","?","?","?","?","?","?","?","?","?","?","?","?","?","?","?","?","?","?","?","?","?","?","?","?","?","?","?","?","?","?","?","?","?","?","?","?","?","?","?","?","?","?","?","?","?","?","?","?","?","?","?","?","?","?","?","?","?","?","?","?","?","?","?","?","?","?","?","?","?","?","?","?","?","?","?","?","?","?","?","?","?","?","?","?","?","?","?","?","?","?","?","?","?","?","?","?","?","?","?","?","?","?","?","?","?","?","?","?","?","?","?","?","?","?","?","?","?","?","?","?","?","?","?","?","?","?","?","?","?","?","?","?","?","?","?","?","?","?","?","?","?","?","?","?","?","?","?","?","?","?","?","?","?","?","?","?","?","?","?","?","?","?","?","?","?","?","?","?","?","?","?","?","?","?","?","?","?","?","?","?","?","?","?","?","?","?","?","?","?","?","?","?","?","?","?","?","?","?","?","?","?","?","?","?","?","?","?","?","?","?","?","?","?","?","?","?","?","?","?","?","?","?","?","?","?","?","?","?","?","?","?","?","?","?","?","?","?","?","?","?","?","?","?","?","?","?","?","?","?","?","?","?","?","?","?","?","?","?","?","?","?","?","?","?","?","?","?","?","?","?","?","?","?","?","?","?","?","?","?","?","?","?","?","?","?","?","?","?","?","?","?","?","?","?","?","?","?","?","?","?","?","?","?","?","?","?","?","?","?","?","?","?","?","?","?","?","?","?","?","?","?","?","?","?","?","?","?","?","?","?","?","?","?","?","?","?","?","?","?","?","?","?","?","?","?","?","?","?","?","?","?","?","?","?","?","?","?","?","?","?","?","?","?","?","?","?","?","?","?","?","?","?","?","?","?","?","?","?","?","?","?","?","?","?","?","?","?","?","?","?","?","?","?","?","?","?","?","?","?","?","?","?","?","?","?","?","?","?","?","?","?","?","?","?","?","?","?","?","?","?","?","?","?","?","?","?","?","?","?","?","?","?","?","?","?","?","?","?","?","?","?","?","?","?","?","?","?","?","?","?","?","?","?","?","?","?","?","?","?","?","?","?","?","?","?","?","?","?","?","?","?","?","?","?","?","?","?","?","?","?","?","?","?","?","?","?","?","?","?","?","?","?","?","?","?","?","?","?","?","?","?","?","?","?","?","?","?","?","?","?","?","?","?","?","?","?","?","?","?","?","?","?","?","?","?","?","?","?","?","?","?","?","?","?","?","?","?","?","?","?","?","?","?","?","?","?","?","?","?","?","?","?","?","?","?","?","?","?","?","?","?","?","?","?","?","?","?","?","?","?","?","?","?","?","?","?","?","?","?","?","?","?","?","?","?","?","?","?","?","?","?","?","?","?","?","?","?","?","?","?","?","?","?","?","?","?","?","?","?","?","?","?","?","?","?","?","?","?","?","?","?","?","?","?","?","?","?","?","?","?","?","?","?","?","?","?","?","?","?","?","?","?","?","?","?","?","?","?","?","?","?","?","?","?","?","?","?","?","?","?","?","?","?","?","?","?","?","?","?","?","?","?","?","?","?","?","?","?","?","?","?","?","?","?","?","?","?","?","?","?","?","?","?","?","?","?","?","?","?","?","?","?","?","?","?","?","?","?","?","?","?","?","?","?","?","?","?","?","?","?","?","?","?","?","?","?","?","?","?","?","?","?","?","?","?","?","?","?","?","?","?","?","?","?","?","?","?","?","?","?","?","?","?","?","?","?","?","?","?","?","?","?","?","?","?","?","?","?","?","?","?","?","?","?","?","?","?","?","?","?","?","?","?","?","?","?","?","?","?","?","?","?","?","?","?","?","?","?","?","?","?","?","?","?","?","?","?","?","?","?","?","?","?","?","?","?","?","?","?","?","?","?","?","?","?","?","?","?","?","?","?","?","?","?","?","?","?","?","?","?","?","?","?","?","?","?","?","?","?","?","?","?","?","?","?","?","?","?","?","?","?","?","?","?","?","?","?","?","?","?","?","?","?","?","?","?","?","?","?","?","?","?","?","?","?","?","?","?","?","?","?","?","?","?","?","?","?","?","?","?","?","?","?","?","?","?","?","?","?","?","?","?","?","?","?","?","?","?","?","?","?","?","?","?","?","?","?","?","?","?","?","?","?","?","?","?","?","?","?","?","?","?","?","?","?","?","?","?","?","?","?","?","?","?","?","?","?","?","?","?","?","?","?","?","?","?","?","?","?","?","?","?","?","?","?","?","?","?","?","?","?","?","?","?","?","?","?","?","?","?","?","?","?","?","?","?","?","?","?","?","?","?","?","?","?","?","?","?","?","?","?","?","?","?","?","?","?","?","?","?","?","?","?","?","?","?","?","?","?","?","?","?","?","?","?","?","?","?","?","?","?","?","?","?","?","?","?","?","?","?","?","?","?","?","?","?","?","?","?","?","?","?","?","?","?","?","?","?","?","?","?","?","?","?","?","?","?","?","?","?","?","?","?","?","?","?","?","?","?","?","?","?","?","?","?","?","?","?","?","?","?","?","?","?","?","?","?","?","?","?","?","?","?","?","?","?","?","?","?","?","?","?","?","?","?","?","?","?","?","?","?","?","?","?","?","?","?","?","?","?","?","?","?","?","?","?","?","?","?","?","?","?","?","?","?","?","?","?","?","?","?","?","?","?","?","?","?","?","?","?","?","?","?","?","?","?","?","?","?","?","?","?","?","?","?","?","?","?","?","?","?","?","?","?","?","?","?","?","?","?","?","?","?","?","?","?","?","?","?","?","?","?","?","?","?","?","?","?","?","?","?","?","?","?","?","?","?","?","?","?","?","?","?","?","?","?","?","?","?","?","?","?","?","?","?","?","?","?","?","?","?","?","?","?","?","?","?","?","?","?","?","?","?","?","?","?","?","?","?","?","?","?","?","?","?","?","?","?","?","?","?","?","?","?","?","?","?","?","?","?","?","?","?","?","?","?","?","?","?","?","?","?","?","?","?","?","?","?","?","?","?","?","?","?","?","?","?","?","?","?","?","?","?","?","?","?","?","?","?","?","?","?","?","?","?","?","?","?","?","?","?","?","?","?","?","?","?","?","?","?","?","?","?","?","?","?","?","?","?","?","?","?","?","?","?","?","?","?","?","?","?","?","?","?","?","?","?","?","?","?","?","?","?","?","?","?","?","?","?","?","?","?","?","?","?","?","?","?","?","?","?","?","?","?","?","?","?","?","?","?","?","?","?","?","?","?","?","?","?","?","?","?","?","?","?","?","?","?","?","?","?","?","?","?","?","?","?","?","?","?","?","?","?","?","?","?","?","?","?","?","?","?","?","?","?","?","?","?","?","?","?","?","?","?","?","?","?","?","?","?","?","?","?","?","?","?","?","?","?","?","?","?","?","?","?","?","?","?","?","?","?","?","?","?","?","?","?","?","?","?","?","?","?","?","?","?","?","?","?","?","?","?","?","?","?","?","?","?","?","?","?","?","?","?","?","?","?","?","?","?","?","?","?","?","?","?","?","?","?","?","?","?","?","?","?","?","?","?","?","?","?","?","?","?","?","?","?","?","?","?","?","?","?","?","?","?","?","?","?","?","?","?","?","?","?","?","?","?","?","?","?","?","?","?","?","?","?","?","?","?","?","?","?","?","?","?","?","?","?","?","?","?","?","?","?","?","?","?","?","?","?","?","?","?","?","?","?","?","?","?","?","?","?","?","?","?","?","?","?","?","?","?","?","?","?","?","?","?","?","?","?","?","?","?","?","?","?","?","?","?","?","?","?","?","?","?","?","?","?","?","?","?","?","?","?","?","?","?","?","?","?","?","?","?","?","?","?","?","?","?","?","?","?","?","?","?","?","?","?","?","?","?","?","?","?","?","?","?","?","?","?","?","?","?","?","?","?","?","?","?","?","?","?","?","?","?","?","?","?","?","?","?","?","?","?","?","?","?","?","?","?","?","?","?","?","?","?","?","?","?","?","?","?","?","?","?","?","?","?","?","?","?","?","?","?","?","?","?","?","?","?","?","?","?","?","?","?","?","?","?","?","?","?","?","?","?","?","?","?","?","?","?","?","?","?","?","?","?","?","?","?","?","?","?","?","?","?","?","?","?","?","?","?","?","?","?","?","?","?","?","?","?","?","?","?","?","?","?","?","?","?","?","?","?","?","?","?","?","?","?","?","?","?","?","?","?","?","?","?","?","?","?","?","?","?","?","?","?","?","?","?","?","?","?","?","?","?","?","?","?","?","?","?","?","?","?","?","?","?","?","?","?","?","?","?","?","?","?","?","?","?","?","?","?","?","?","?","?","?","?","?","?","?","?","?","?","?","?","?","?","?","?","?","?","?","?","?","?","?","?","?","?","?","?","?","?","?","?","?","?","?","?","?","?","?","?","?","?","?","?","?","?","?","?","?","?","?","?","?","?","?","?","?","?","?","?","?","?","?","?","?","?","?","?","?","?","?","?","?","?","?","?","?","?","?","?","?","?","?","?","?","?","?","?","?","?","?","?","?","?","?","?","?","?","?","?","?","?","?","?","?","?","?","?","?","?","?","?","?","?","?","?","?","?","?","?","?","?","?","?","?","?","?","?","?","?","?","?","?","?","?","?","?","?","?","?","?","?","?","?","?","?","?","?","?","?","?","?","?","?","?","?","?","?","?","?","?","?","?","?","?","?","?","?","?","?","?","?","?","?","?","?","?","?","?","?","?","?","?","?","?","?","?","?","?","?","?","?","?","?","?","?","?","?","?","?","?","?","?","?","?","?","?","?","?","?","?","?","?","?","?","?","?","?","?","?","?","?","?","?","?","?","?","?","?","?","?","?","?","?","?","?","?","?","?","?","?","?","?","?","?","?","?","?","?","?","?","?","?","?","?","?","?","?","?","?","?","?","?","?","?","?","?","?","?","?","?","?","?","?","?","?","?","?","?","?","?","?","?","?","?","?","?","?","?","?","?","?","?","?","?","?","?","?","?","?","?","?","?","?","?","?","?","?","?","?","?","?","?","?","?","?","?","?","?","?","?","?","?","?","?","?","?","?","?","?","?","?","?","?","?","?","?","?","?","?","?","?","?","?","?","?","?","?","?","?","?","?","?","?","?","?","?","?","?","?","?","?","?","?","?","?","?","?","?","?","?","?","?","?","?","?","?","?","?","?","?","?","?","?","?","?","?","?","?","?","?","?","?","?","?","?","?","?","?","?","?","?","?","?","?","?","?","?","?","?","?","?","?","?","?","?","?","?","?","?","?","?","?","?","?","?","?","?","?","?","?","?","?","?","?","?","?","?","?","?","?","?","?","?","?","?","?","?","?","?","?","?","?","?","?","?","?","?","?","?","?","?","?","?","?","?","?","?","?","?","?","?","?","?","?","?","?","?","?","?","?","?","?","?","?","?","?","?","?","?","?","?","?","?","?","?","?","?","?","?","?","?","?","?","?","?","?","?","?","?","?","?","?","?","?","?","?","?","?","?","?","?","?","?","?","?","?","?","?","?","?","?","?","?","?","?","?","?","?","?","?","?","?","?","?","?","?","?","?","?","?","?","?","?","?","?","?","?","?","?","?","?","?","?","?","?","?","?","?","?","?","?","?","?","?","?","?","?","?","?","?","?","?","?","?","?","?","?","?","?","?","?","?","?","?","?","?","?","?","?","?","?","?","?","?","?","?","?","?","?","?","?","?","?","?","?","?","?","?","?","?","?","?","?","?","?","?","?","?","?","?","?","?","?","?","?","?","?","?","?","?","?","?","?","?","?","?","?","?","?","?","?","?","?","?","?","?","?","?","?","?","?","?","?","?","?","?","?","?","?","?","?","?","?","?","?","?","?","?","?","?","?","?","?","?","?","?","?","?","?","?","?","?","?","?","?","?","?","?","?","?","?","?","?","?","?","?","?","?","?","?","?","?","?","?","?","?","?","?","?","?","?","?","?","?","?","?","?","?","?","?","?","?","?","?","?","?","?","?","?","?","?","?","?","?","?","?","?","?","?","?","?","?","?","?","?","?","?","?","?","?","?","?","?","?","?","?","?","?","?","?","?","?","?","?","?","?","?","?","?","?","?","?","?","?","?","?","?","?","?","?","?","?","?","?","?","?","?","?","?","?","?","?","?","?","?","?","?","?","?","?","?","?","?","?","?","?","?","?","?","?","?","?","?","?","?","?","?","?","?","?","?","?","?","?","?","?","?","?","?","?","?","?","?","?","?","?","?","?","?","?","?","?","?","?","?","?","?","?","?","?","?","?","?","?","?","?","?","?","?","?","?","?","?","?","?","?","?","?","?","?","?","?","?","?","?","?","?","?","?","?","?","?","?","?","?","?","?","?","?","?","?","?","?","?","?","?","?","?","?","?","?","?","?","?","?","?","?","?","?","?","?","?","?","?","?","?","?","?","?","?","?","?","?","?","?","?","?","?","?","?","?","?","?","?","?","?","?","?","?","?","?","?","?","?","?","?","?","?","?","?","?","?","?","?","?","?","?","?","?","?","?","?","?","?","?","?","?","?","?","?","?","?","?","?","?","?","?","?","?","?","?","?","?","?","?","?","?","?","?","?","?","?","?","?","?","?","?","?","?","?","?","?","?","?","?","?","?","?","?","?","?","?","?","?","?","?","?","?","?","?","?","?","?","?","?","?","?","?","?","?","?","?","?","?","?","?","?","?","?","?","?","?","?","?","?","?","?","?","?","?","?","?","?","?","?","?","?","?","?","?","?","?","?","?","?","?","?","?","?","?","?","?","?","?","?","?","?","?","?","?","?","?","?","?","?","?","?","?","?","?","?","?","?","?","?","?","?","?","?","?","?","?","?","?","?","?","?","?","?","?","?","?","?","?","?","?","?","?","?","?","?","?","?","?","?","?","?","?","?","?","?","?","?","?","?","?","?","?","?","?","?","?","?","?","?","?","?","?","?","?","?","?","?","?","?","?","?","?","?","?","?","?","?","?","?","?","?","?","?","?","?","?","?","?","?","?","?","?","?","?","?","?","?","?","?","?","?","?","?","?","?","?","?","?","?","?","?","?","?","?","?","?","?","?","?","?","?","?","?","?","?","?","?","?","?","?","?","?","?","?","?","?","?","?","?","?","?","?","?","?","?","?","?","?","?","?","?","?","?","?","?","?","?","?","?","?","?","?","?","?","?","?","?","?","?","?","?","?","?","?","?","?","?","?","?","?","?","?","?","?","?","?","?","?","?","?","?","?","?","?","?","?","?","?","?","?","?","?","?","?","?","?","?","?","?","?","?","?","?","?","?","?","?","?","?","?","?","?","?","?","?","?","?","?","?","?","?","?","?","?","?","?","?","?","?","?","?","?","?","?","?","?","?","?","?","?","?","?","?","?","?","?","?","?","?","?","?","?","?","?","?","?","?","?","?","?","?","?","?","?","?","?","?","?","?","?","?","?","?","?","?","?","?","?","?","?","?","?","?","?","?","?","?","?","?","?","?","?","?","?","?","?","?","?","?","?","?","?","?","?","?","?","?","?","?","?","?","?","?","?","?","?","?","?","?","?","?","?","?","?","?","?","?","?","?","?","?","?","?","?","?","?","?","?","?","?","?","?","?","?","?","?","?","?","?","?","?","?","?","?","?","?","?","?","?","?","?","?","?","?","?","?","?","?","?","?","?","?","?","?","?","?","?","?","?","?","?","?","?","?","?","?","?","?","?","?","?","?","?","?","?","?","?","?","?","?","?","?","?","?","?","?","?","?","?","?","?","?","?","?","?","?","?","?","?","?","?","?","?","?","?","?","?","?","?","?","?","?","?","?","?","?","?","?","?","?","?","?","?","?","?","?","?","?","?","?","?","?","?","?","?","?","?","?","?","?","?","?","?","?","?","?","?","?","?","?","?","?","?","?","?","?","?","?","?","?","?","?","?","?","?","?","?","?","?","?","?","?","?","?","?","?","?","?","?","?","?","?","?","?","?","?","?","?","?","?","?","?","?","?","?","?","?","?","?","?","?","?","?","?","?","?","?","?","?","?","?","?","?","?","?","?","?","?","?","?","?","?","?","?","?","?","?","?","?","?","?","?","?","?","?","?","?","?","?","?","?","?","?","?","?","?","?","?","?","?","?","?","?","?","?","?","?","?","?","?","?","?","?","?","?","?","?","?","?","?","?","?","?","?","?","?","?","?","?","?","?","?","?","?","?","?","?","?","?","?","?","?","?","?","?","?","?","?","?","?","?","?","?","?","?","?","?","?","?","?","?","?","?","?","?","?","?","?","?","?","?","?","?","?","?","?","?","?","?","?","?","?","?","?","?","?","?","?","?","?","?","?","?","?","?","?","?","?","?","?","?","?","?","?","?","?","?","?","?","?","?","?","?","?","?","?","?","?","?","?","?","?","?","?","?","?","?","?","?","?","?","?","?","?","?","?","?","?","?","?","?","?","?","?","?","?","?","?","?","?","?","?","?","?","?","?","?","?","?","?","?","?","?","?","?","?","?","?","?","?","?","?","?","?","?","?","?","?","?","?","?","?","?","?","?","?","?","?","?","?","?","?","?","?","?","?","?","?","?","?","?","?","?","?","?","?","?","?","?","?","?","?","?","?","?","?","?","?","?","?","?","?","?","?","?","?","?","?","?","?","?","?","?","?","?","?","?","?","?","?","?","?","?","?","?","?","?","?","?","?","?","?","?","?","?","?","?","?","?","?","?","?","?","?","?","?","?","?","?","?","?","?","?","?","?","?","?","?","?","?","?","?","?","?","?","?","?","?","?","?","?","?","?","?","?","?","?","?","?","?","?","?","?","?","?","?","?","?","?","?","?","?","?","?","?","?","?","?","?","?","?","?","?","?","?","?","?","?","?","?","?","?","?","?","?","?","?","?","?","?","?","?","?","?","?","?","?","?","?","?","?","?","?","?","?","?","?","?","?","?","?","?","?","?","?","?","?","?","?","?","?","?","?","?","?","?","?","?","?","?","?","?","?","?","?","?","?","?","?","?","?","?","?","?","?","?","?","?","?","?","?","?","?","?","?","?","?","?","?","?","?","?","?","?","?","?","?","?","?","?","?","?","?","?","?","?","?","?","?","?","?","?","?","?","?","?","?","?","?","?","?","?","?","?","?","?","?","?","?","?","?","?","?","?","?","?","?","?","?","?","?","?","?","?","?","?","?","?","?","?","?","?","?","?","?","?","?","?","?","?","?","?","?","?","?","?","?","?","?","?","?","?","?","?","?","?","?","?","?","?","?","?","?","?","?","?","?","?","?","?","?","?","?","?","?","?","?","?","?","?","?","?","?","?","?","?","?","?","?","?","?","?","?","?","?","?","?","?","?","?","?","?","?","?","?","?","?","?","?","?","?","?","?","?","?","?","?","?","?","?","?","?","?","?","?","?","?","?","?","?","?","?","?","?","?","?","?","?","?","?","?","?","?","?","?","?","?","?","?","?","?","?","?","?","?","?","?","?","?","?","?","?","?","?","?","?","?","?","?","?","?","?","?","?","?","?","?","?","?","?","?","?","?","?","?","?","?","?","?","?","?","?","?","?","?","?","?","?","?","?","?","?","?","?","?","?","?","?","?","?","?","?","?","?","?","?","?","?","?","?","?","?","?","?","?","?","?","?","?","?","?","?","?","?","?","?","?","?","?","?","?","?","?","?","?","?","?","?","?","?","?","?","?","?","?","?","?","?","?","?","?","?","?","?","?","?","?","?","?","?","?","?","?","?","?","?","?","?","?","?","?","?","?","?","?","?","?","?","?","?","?","?","?","?","?","?","?","?","?","?","?","?","?","?","?","?","?","?","?","?","?","?","?","?","?","?","?","?","?","?","?","?","?","?","?","?","?","?","?","?","?","?","?","?","?","?","?","?","?","?","?","?","?","?","?","?","?","?","?","?","?","?","?","?","?","?","?","?","?","?","?","?","?","?","?","?","?","?","?","?","?","?","?","?","?","?","?","?","?","?","?","?","?","?","?","?","?","?","?","?","?","?","?","?","?","?","?","?","?","?","?","?","?","?","?","?","?","?","?","?","?","?","?","?","?","?","?","?","?","?","?","?","?","?","?","?","?","?","?","?","?","?","?","?","?","?","?","?","?","?","?","?","?","?","?","?","?","?","?","?","?","?","?","?","?","?","?","?","?","?","?","?","?","?","?","?","?","?","?","?","?","?","?","?","?","?","?","?","?","?","?","?","?","?","?","?","?","?","?","?","?","?","?","?","?","?","?","?","?","?","?","?","?","?","?","?","?","?","?","?","?","?","?","?","?","?","?","?","?","?","?","?","?","?","?","?","?","?","?","?","?","?","?","?","?","?","?","?","?","?","?","?","?","?","?","?","?","?","?","?","?","?","?","?","?","?","?","?","?","?","?","?","?","?","?","?","?","?","?","?","?","?","?","?","?","?","?","?","?","?","?","?","?","?","?","?","?","?","?","?","?","?","?","?","?","?","?","?","?","?","?","?","?","?","?","?","?","?","?","?","?","?","?","?","?","?","?","?","?","?","?","?","?","?","?","?","?","?","?","?","?","?","?","?","?","?","?","?","?","?","?","?","?","?","?","?","?","?","?","?","?","?","?","?","?","?","?","?","?","?","?","?","?","?","?","?","?","?","?","?","?","?","?","?","?","?","?","?","?","?","?","?","?","?","?","?","?","?","?","?","?","?","?","?","?","?","?","?","?","?","?","?","?","?","?","?","?","?","?","?","?","?","?","?","?","?","?","?","?","?","?","?","?","?","?","?","?","?","?","?","?","?","?","?","?","?","?","?","?","?","?","?","?","?","?","?","?","?","?","?","?","?","?","?","?","?","?","?","?","?","?","?","?","?","?","?","?","?","?","?","?","?","?","?","?","?","?","?","?","?","?","?","?","?","?","?","?","?","?","?","?","?","?","?","?","?","?","?","?","?","?","?","?","?","?","?","?","?","?","?","?","?","?","?","?","?","?","?","?","?","?","?","?","?","?","?","?","?","?","?","?","?","?","?","?","?","?","?","?","?","?","?","?","?","?","?","?","?","?","?","?","?","?","?","?","?","?","?","?","?","?","?","?","?","?","?","?","?","?","?","?","?","?","?","?","?","?","?","?","?","?","?","?","?","?","?","?","?","?","?","?","?","?","?","?","?","?","?","?","?","?","?","?","?","?","?","?","?","?","?","?","?","?","?","?","?","?","?","?","?","?","?","?","?","?","?","?","?","?","?","?","?","?","?","?","?","?","?","?","?","?","?","?","?","?","?","?","?","?","?","?","?","?","?","?","?","?","?","?","?","?","?","?","?","?","?","?","?","?","?","?","?","?","?","?","?","?","?","?","?","?","?","?","?","?","?","?","?","?","?","?","?","?","?","?","?","?","?","?","?","?","?","?","?","?","?","?","?","?","?","?","?","?","?","?","?","?","?","?","?","?","?","?","?","?","?","?","?","?","?","?","?","?","?","?","?","?","?","?","?","?","?","?","?","?","?","?","?","?","?","?","?","?","?","?","?","?","?","?","?","?","?","?","?","?","?","?","?","?","?","?","?","?","?","?","?","?","?","?","?","?","?","?","?","?","?","?","?","?","?","?","?","?","?","?","?","?","?","?","?","?","?","?","?","?","?","?","?","?","?","?","?","?","?","?","?","?","?","?","?","?","?","?","?","?","?","?","?","?","?","?","?","?","?","?","?","?","?","?","?","?","?","?","?","?","?","?","?","?","?","?","?","?","?","?","?","?","?","?","?","?","?","?","?","?","?","?","?","?","?","?","?","?","?","?","?","?","?","?","?","?","?","?","?","?","?","?","?","?","?","?","?","?","?","?","?","?","?","?","?","?","?","?","?","?","?","?","?","?","?","?","?","?","?","?","?","?","?","?","?","?","?","?","?","?","?","?","?","?","?","?","?","?","?","?","?","?","?","?","?","?","?","?","?","?","?","?","?","?","?","?","?","?","?","?","?","?","?","?","?","?","?","?","?","?","?","?","?","?","?","?","?","?","?","?","?","?","?","?","?","?","?","?","?","?","?","?","?","?","?","?","?","?","?","?","?","?","?","?","?","?","?","?","?","?","?","?","?","?","?","?","?","?","?","?","?","?","?","?","?","?","?","?","?","?","?","?","?","?","?","?","?","?","?","?","?","?","?","?","?","?","?","?","?","?","?","?","?","?","?","?","?","?","?","?","?","?","?","?","?","?","?","?","?","?","?","?","?","?","?","?","?","?","?","?","?","?","?","?","?","?","?","?","?","?","?","?","?","?","?","?","?","?","?","?","?","?","?","?","?","?","?","?","?","?","?","?","?","?","?","?","?","?","?","?","?","?","?","?","?","?","?","?","?","?","?","?","?","?","?","?","?","?","?","?","?","?","?","?","?","?","?","?","?","?","?","?","?","?","?","?","?","?","?","?","?","?","?","?","?","?","?","?","?","?","?","?","?","?","?","?","?","?","?","?","?","?","?","?","?","?","?","?","?","?","?","?","?","?","?","?","?","?","?","?","?","?","?","?","?","?","?","?","?","?","?","?","?","?","?","?","?","?","?","?","?","?","?","?","?","?","?","?","?","?","?","?","?","?","?","?","?","?","?","?","?","?","?","?","?","?","?","?","?","?","?","?","?","?","?","?","?","?","?","?","?","?","?","?","?","?","?","?","?","?","?","?","?","?","?","?","?","?","?","?","?","?","?","?","?","?","?","?","?","?","?","?","?","?","?","?","?","?","?","?","?","?","?","?","?","?","?","?","?","?","?","?","?","?","?","?","?","?","?","?","?","?","?","?","?","?","?","?","?","?","?","?","?","?","?","?","?","?","?","?","?","?","?","?","?","?","?","?","?","?","?","?","?","?","?","?","?","?","?","?","?","?","?","?","?","?","?","?","?","?","?","?","?","?","?","?","?","?","?","?","?","?","?","?","?","?","?","?","?","?","?","?","?","?","?","?","?","?","?","?","?","?","?","?","?","?","?","?","?","?","?","?","?","?","?","?","?","?","?","?","?","?","?","?","?","?","?","?","?","?","?","?","?","?","?","?","?","?","?","?","?","?","?","?","?","?","?","?","?","?","?","?","?","?","?","?","?","?","?","?","?","?","?","?","?","?","?","?","?","?","?","?","?","?","?","?","?","?","?","?","?","?","?","?","?","?","?","?","?","?","?","?","?","?","?","?","?","?","?","?","?","?","?","?","?","?","?","?","?","?","?","?","?","?","?","?","?","?","?","?","?","?","?","?","?","?","?","?","?","?","?","?","?","?","?","?","?","?","?","?","?","?","?","?","?","?","?","?","?","?","?","?","?","?","?","?","?","?","?","?","?","?","?","?","?","?","?","?","?","?","?","?","?","?","?","?","?","?","?","?","?","?","?","?","?","?","?","?","?","?","?","?","?","?","?","?","?","?","?","?","?","?","?","?","?","?","?","?","?","?","?","?","?","?","?","?","?","?","?","?","?","?","?","?","?","?","?","?","?","?","?","?","?","?","?","?","?","?","?","?","?","?","?","?","?","?","?","?","?","?","?","?","?","?","?","?","?","?","?","?","?","?","?","?","?","?","?","?","?","?","?","?","?","?","?","?","?","?","?","?","?","?","?","?","?","?","?","?","?","?","?","?","?","?","?","?","?","?","?","?","?","?","?","?","?","?","?","?","?","?","?","?","?","?","?","?","?","?","?","?","?","?","?","?","?","?","?","?","?","?","?","?","?","?","?","?","?","?","?","?","?","?","?","?","?","?","?","?","?","?","?","?","?","?","?","?","?","?","?","?","?","?","?","?","?","?","?","?","?","?","?","?","?","?","?","?","?","?","?","?","?","?","?","?","?","?","?","?","?","?","?","?","?","?","?","?","?","?","?","?","?","?","?","?","?","?","?","?","?","?","?","?","?","?","?","?","?","?","?","?","?","?","?","?","?","?","?","?","?","?","?","?","?","?","?","?","?","?","?","?","?","?","?","?","?","?","?","?","?","?","?","?","?","?","?","?","?","?","?","?","?","?","?","?","?","?","?","?","?","?","?","?","?","?","?","?","?","?","?","?","?","?","?","?","?","?","?","?","?","?","?","?","?","?","?","?","?","?","?","?","?","?","?","?","?","?","?","?","?","?","?","?","?","?","?","?","?","?","?","?","?","?","?","?","?","?","?","?","?","?","?","?","?","?","?","?","?","?","?","?","?","?","?","?","?","?","?","?","?","?","?","?","?","?","?","?","?","?","?","?","?","?","?","?","?","?","?","?","?","?","?","?","?","?","?","?","?","?","?","?","?","?","?","?","?","?","?","?","?","?","?","?","?","?","?","?","?","?","?","?","?","?","?","?","?","?","?","?","?","?","?","?","?","?","?","?","?","?","?","?","?","?","?","?","?","?","?","?","?","?","?","?","?","?","?","?","?","?","?","?","?","?","?","?","?","?","?","?","?","?","?","?","?","?","?","?","?","?","?","?","?","?","?","?","?","?","?","?","?","?","?","?","?","?","?","?","?","?","?","?","?","?","?","?","?","?","?","?","?","?","?","?","?","?","?","?","?","?","?","?","?","?","?","?","?","?","?","?","?","?","?","?","?","?","?","?","?","?","?","?","?","?","?","?","?","?","?","?","?","?","?","?","?","?","?","?","?","?","?","?","?","?","?","?","?","?","?","?","?","?","?","?","?","?","?","?","?","?","?","?","?","?","?","?","?","?","?","?","?","?","?","?","?","?","?","?","?","?","?","?","?","?","?","?","?","?","?","?","?","?","?","?","?","?","?","?","?","?","?","?","?","?","?","?","?","?","?","?","?","?","?","?","?","?","?","?","?","?","?","?","?","?","?","?","?","?","?","?","?","?","?","?","?","?","?","?","?","?","?","?","?","?","?","?","?","?","?","?","?","?","?","?","?","?","?","?","?","?","?","?","?","?","?","?","?","?","?","?","?","?","?","?","?","?","?","?","?","?","?","?","?","?","?","?","?","?","?","?","?","?","?","?","?","?","?","?","?","?","?","?","?","?","?","?","?","?","?","?","?","?","?","?","?","?","?","?","?","?","?","?","?","?","?","?","?","?","?","?","?","?","?","?","?","?","?","?","?","?","?","?","?","?","?","?","?","?","?","?","?","?","?","?","?","?","?","?","?","?","?","?","?","?","?","?","?","?","?","?","?","?","?","?","?","?","?","?","?","?","?","?","?","?","?","?","?","?","?","?","?","?","?","?","?","?","?","?","?","?","?","?","?","?","?","?","?","?","?","?","?","?","?","?","?","?","?","?","?","?","?","?","?","?","?","?","?","?","?","?","?","?","?","?","?","?","?","?","?","?","?","?","?","?","?","?","?","?","?","?","?","?","?","?","?","?","?","?","?","?","?","?","?","?","?","?","?","?","?","?","?","?","?","?","?","?","?","?","?","?","?","?","?","?","?","?","?","?","?","?","?","?","?","?","?","?","?","?","?","?","?","?","?","?","?","?","?","?","?","?","?","?","?","?","?","?","?","?","?","?","?","?","?","?","?","?","?","?","?","?","?","?","?","?","?","?","?","?","?","?","?","?","?","?","?","?","?","?","?","?","?","?","?","?","?","?","?","?","?","?","?","?","?","?","?","?","?","?","?","?","?","?","?","?","?","?","?","?","?","?","?","?","?","?","?","?","?","?","?","?","?","?","?","?","?","?","?","?","?","?","?","?","?","?","?","?","?","?","?","?","?","?","?","?","?","?","?","?","?","?","?","?","?","?","?","?","?","?","?","?","?","?","?","?","?","?","?","?","?","?","?","?","?","?","?","?","?","?","?","?","?","?","?","?","?","?","?","?","?","?","?","?","?","?","?","?","?","?","?","?","?","?","?","?","?","?","?","?","?","?","?","?","?","?","?","?","?","?","?","?","?","?","?","?","?","?","?","?","?","?","?","?","?","?","?","?","?","?","?","?","?","?","?","?","?","?","?","?","?","?","?","?","?","?","?","?","?","?","?","?","?","?","?","?","?","?","?","?","?","?","?","?","?","?","?","?","?","?","?","?","?","?","?","?","?","?","?","?","?","?","?","?","?","?","?","?","?","?","?","?","?","?","?","?","?","?","?","?","?","?","?","?","?","?","?","?","?","?","?","?","?","?","?","?","?","?","?","?","?","?","?","?","?","?","?","?","?","?","?","?","?","?","?","?","?","?","?","?","?","?","?","?","?","?","?","?","?","?","?","?","?","?","?","?","?","?","?","?","?","?","?","?","?","?","?","?","?","?","?","?","?","?","?","?","?","?","?","?","?","?","?","?","?","?","?","?","?","?","?","?","?","?","?","?","?","?","?","?","?","?","?","?","?","?","?","?","?","?","?","?","?","?","?","?","?","?","?","?","?","?","?","?","?","?","?","?","?","?","?","?","?","?","?","?","?","?","?","?","?","?","?","?","?","?","?","?","?","?","?","?","?","?","?","?","?","?","?","?","?","?","?","?","?","?","?","?","?","?","?","?","?","?","?","?","?","?","?","?","?","?","?","?","?","?","?","?","?","?","?","?","?","?","?","?","?","?","?","?","?","?","?","?","?","?","?","?","?","?","?","?","?","?","?","?","?","?","?","?","?","?","?","?","?","?","?","?","?","?","?","?","?","?","?","?","?","?","?","?","?","?","?","?","?","?","?","?","?","?","?","?","?","?","?","?","?","?","?","?","?","?","?","?","?","?","?","?","?","?","?","?","?","?","?","?","?","?","?","?","?","?","?","?","?","?","?","?","?","?","?","?","?","?","?","?","?","?","?","?","?","?","?","?","?","?","?","?","?","?","?","?","?","?","?","?","?","?","?","?","?","?","?","?","?","?","?","?","?","?","?","?","?","?","?","?","?","?","?","?","?","?","?","?","?","?","?","?","?","?","?","?","?","?","?","?","?","?","?","?","?","?","?","?","?","?","?","?","?","?","?","?","?","?","?","?","?","?","?","?","?","?","?","?","?","?","?","?","?","?","?","?","?","?","?","?","?","?","?","?","?","?","?","?","?","?","?","?","?","?","?","?","?","?","?","?","?","?","?","?","?","?","?","?","?","?","?","?","?","?","?","?","?","?","?","?","?","?","?","?","?","?","?","?","?","?","?","?","?","?","?","?","?","?","?","?","?","?","?","?","?","?","?","?","?","?","?","?","?","?","?","?","?","?","?","?","?","?","?","?","?","?","?","?","?","?","?","?","?","?","?","?","?","?","?","?","?","?","?","?","?","?","?","?","?","?","?","?","?","?","?","?","?","?","?","?","?","?","?","?","?","?","?","?","?","?","?","?","?","?","?","?","?","?","?","?","?","?","?","?","?","?","?","?","?","?","?","?","?","?","?","?","?","?","?","?","?","?","?","?","?","?","?","?","?","?","?","?","?","?","?","?","?","?","?","?","?","?","?","?","?","?","?","?","?","?","?","?","?","?","?","?","?","?","?","?","?","?","?","?","?","?","?","?","?","?","?","?","?","?","?","?","?","?","?","?","?","?","?","?","?","?","?","?","?","?","?","?","?","?","?","?","?","?","?","?","?","?","?","?","?","?","?","?","?","?","?","?","?","?","?","?","?","?","?","?","?","?","?","?","?","?","?","?","?","?","?","?","?","?","?","?","?","?","?","?","?","?","?","?","?","?","?","?","?","?","?","?","?","?","?","?","?","?","?","?","?","?","?","?","?","?","?","?","?","?","?","?","?","?","?","?","?","?","?","?","?","?","?","?","?","?","?","?","?","?","?","?","?","?","?","?","?","?","?","?","?","?","?","?","?","?","?","?","?","?","?","?","?","?","?","?","?","?","?","?","?","?","?","?","?","?","?","?","?","?","?","?","?","?","?","?","?","?","?","?","?","?","?","?","?","?","?","?","?","?","?","?","?","?","?","?","?","?","?","?","?","?","?","?","?","?","?","?","?","?","?","?","?","?","?","?","?","?","?","?","?","?","?","?","?","?","?","?","?","?","?","?","?","?","?","?","?","?","?","?","?","?","?","?","?","?","?","?","?","?","?","?","?","?","?","?","?","?","?","?","?","?","?","?","?","?","?","?","?","?","?","?","?","?","?","?","?","?","?","?","?","?","?","?","?","?","?","?","?","?","?","?","?","?","?","?","?","?","?","?","?","?","?","?","?","?","?","?","?","?","?","?","?","?","?","?","?","?","?","?","?","?","?","?","?","?","?","?","?","?","?","?","?","?","?","?","?","?","?","?","?","?","?","?","?","?","?","?","?","?","?","?","?","?","?","?","?","?","?","?","?","?","?","?","?","?","?","?","?","?","?","?","?","?","?","?","?","?","?","?","?","?","?","?","?","?","?","?","?","?","?","?","?","?","?","?","?","?","?","?","?","?","?","?","?","?","?","?","?","?","?","?","?","?","?","?","?","?","?","?","?","?","?","?","?","?","?","?","?","?","?","?","?","?","?","?","?","?","?","?","?","?","?","?","?","?","?","?","?","?","?","?","?","?","?","?","?","?","?","?","?","?","?","?","?","?","?","?","?","?","?","?","?","?","?","?","?","?","?","?","?","?","?","?","?","?","?","?","?","?","?","?","?","?","?","?","?","?","?","?","?","?","?","?","?","?","?","?","?","?","?","?","?","?","?","?","?","?","?","?","?","?","?","?","?","?","?","?","?","?","?","?","?","?","?","?","?","?","?","?","?","?","?","?","?","?","?","?","?","?","?","?","?","?","?","?","?","?","?","?","?","?","?","?","?","?","?","?","?","?","?","?","?","?","?","?","?","?","?","?","?","?","?","?","?","?","?","?","?","?","?","?","?","?","?","?","?","?","?","?","?","?","?","?","?","?","?","?","?","?","?","?","?","?","?","?","?","?","?","?","?","?","?","?","?","?","?","?","?","?","?","?","?","?","?","?","?","?","?","?","?","?","?","?","?","?","?","?","?","?","?","?","?","?","?","?","?","?","?","?","?","?","?","?","?","?","?","?","?","?","?","?","?","?","?","?","?","?","?","?","?","?","?","?","?","?","?","?","?","?","?","?","?","?","?","?","?","?","?","?","?","?","?","?","?","?","?","?","?","?","?","?","?","?","?","?","?","?","?","?","?","?","?","?","?","?","?","?","?","?","?","?","?","?","?","?","?","?","?","?","?","?","?","?","?","?","?","?","?","?","?","?","?","?","?","?","?","?","?","?","?","?","?","?","?","?","?","?","?","?","?","?","?","?","?","?","?","?","?","?","?","?","?","?","?","?","?","?","?","?","?","?","?","?","?","?","?","?","?","?","?","?","?","?","?","?","?","?","?","?","?","?","?","?","?","?","?","?","?","?","?","?","?","?","?","?","?","?","?","?","?","?","?","?","?","?","?","?","?","?","?","?","?","?","?","?","?","?","?","?","?","?","?","?","?","?","?","?","?","?","?","?","?","?","?","?","?","?","?","?","?","?","?","?","?","?","?","?","?","?","?","?","?","?","?","?","?","?","?","?","?","?","?","?","?","?","?","?","?","?","?","?","?","?","?","?","?","?","?","?","?","?","?","?","?","?","?","?","?","?","?","?","?","?","?","?","?","?","?","?","?","?","?","?","?","?","?","?","?","?","?","?","?","?","?","?","?","?","?","?","?","?","?","?","?","?","?","?","?","?","?","?","?","?","?","?","?","?","?","?","?","?","?","?","?","?","?","?","?","?","?","?","?","?","?","?","?","?","?","?","?","?","?","?","?","?","?","?","?","?","?","?","?","?","?","?","?","?","?","?","?","?","?","?","?","?","?","?","?","?","?","?","?","?","?","?","?","?","?","?","?","?","?","?","?","?","?","?","?","?","?","?","?","?","?","?","?","?","?","?","?","?","?","?","?","?","?","?","?","?","?","?","?","?","?","?","?","?","?","?","?","?","?","?","?","?","?","?","?","?","?","?","?","?","?","?","?","?","?","?","?","?","?","?","?","?","?","?","?","?","?","?","?","?","?","?","?","?","?","?","?","?","?","?","?","?","?","?","?","?","?","?","?","?","?","?","?","?","?","?","?","?","?","?","?","?","?","?","?","?","?","?","?","?","?","?","?","?","?","?","?","?","?","?","?","?","?","?","?","?","?","?","?","?","?","?","?","?","?","?","?","?","?","?","?","?","?","?","?","?","?","?","?","?","?","?","?","?","?","?","?","?","?","?","?","?","?","?","?","?","?","?","?","?","?","?","?","?","?","?","?","?","?","?","?","?","?","?","?","?","?","?","?","?","?","?","?","?","?","?","?","?","?","?","?","?","?","?","?","?","?","?","?","?","?","?","?","?","?","?","?","?","?","?","?","?","?","?","?","?","?","?","?","?","?","?","?","?","?","?","?","?","?","?","?","?","?","?","?","?","?","?","?","?","?","?","?","?","?","?","?","?","?","?","?","?","?","?","?","?","?","?","?","?","?","?","?","?","?","?","?","?","?","?","?","?","?","?","?","?","?","?","?","?","?","?","?","?","?","?","?","?","?","?","?","?","?","?","?","?","?","?","?","?","?","?","?","?","?","?","?","?","?","?","?","?","?","?","?","?","?","?","?","?","?","?","?","?","?","?","?","?","?","?","?","?","?","?","?","?","?","?","?","?","?","?","?","?","?","?","?","?","?","?","?","?","?","?","?","?","?","?","?","?","?","?","?","?","?","?","?","?","?","?","?","?","?","?","?","?","?","?","?","?","?","?","?","?","?","?","?","?","?","?","?","?","?","?","?","?","?","?","?","?","?","?","?","?","?","?","?","?","?","?","?","?","?","?","?","?","?","?","?","?","?","?","?","?","?","?","?","?","?","?","?","?","?","?","?","?","?","?","?","?","?","?","?","?","?","?","?","?","?","?","?","?","?","?","?","?","?","?","?","?","?","?","?","?","?","?","?","?","?","?","?","?","?","?","?","?","?","?","?","?","?","?","?","?","?","?","?","?","?","?","?","?","?","?","?","?","?","?","?","?","?","?","?","?","?","?","?","?","?","?","?","?","?","?","?","?","?","?","?","?","?","?","?","?","?","?","?","?","?","?","?","?","?","?","?","?","?","?","?","?","?","?","?","?","?","?","?","?","?","?","?","?","?","?","?","?","?","?","?","?","?","?","?","?","?","?","?","?","?","?","?","?","?","?","?","?","?","?","?","?","?","?","?","?","?","?","?","?","?","?","?","?","?","?","?","?","?","?","?","?","?","?","?","?","?","?","?","?","?","?","?","?","?","?","?","?","?","?","?","?","?","?","?","?","?","?","?","?","?","?","?","?","?","?","?","?","?","?","?","?","?","?","?","?","?","?","?","?","?","?","?","?","?","?","?","?","?","?","?","?","?","?","?","?","?","?","?","?","?","?","?","?","?","?","?","?","?","?","?","?","?","?","?","?","?","?","?","?","?","?","?","?","?","?","?","?","?","?","?","?","?","?","?","?","?","?","?","?","?","?","?","?","?","?","?","?","?","?","?","?","?","?","?","?","?","?","?","?","?","?","?","?","?","?","?","?","?","?","?","?","?","?","?","?","?","?","?","?","?","?","?","?","