[{"success":true,"trial_type":"fullscreen","trial_index":0,"time_elapsed":3399,"internal_node_id":"0.0-0.0","protocol_sum":"","subject_identifier":413,"subject_sum":[92,244,226,107,211,216,125,165,224,63,128,164,58,100,241,34,10,31,75,169,225,214,52,140,174,168,60,6,53,60,63,57],"subject_pair":206,"STUDY_ID":"66a22c0758a3d5c9d26873c6","PROLIFIC_PID":"61731c0ef27028acbfbbf972","SESSION_ID":"66a285b546e1d063dd24ef13","practice_instructions":1,"leaderboard_instructions":0,"bonus":0,"reveal_word":true,"self_rating":"1","confidence":"91"},{"view_history":"[{\"page_index\":0,\"viewing_time\":3506}]","rt":3506,"trial_type":"instructions","trial_index":1,"time_elapsed":6907,"internal_node_id":"0.0-1.0","protocol_sum":"","subject_identifier":413,"subject_sum":[92,244,226,107,211,216,125,165,224,63,128,164,58,100,241,34,10,31,75,169,225,214,52,140,174,168,60,6,53,60,63,57],"subject_pair":206,"STUDY_ID":"66a22c0758a3d5c9d26873c6","PROLIFIC_PID":"61731c0ef27028acbfbbf972","SESSION_ID":"66a285b546e1d063dd24ef13","practice_instructions":1,"leaderboard_instructions":0,"bonus":0,"reveal_word":true,"self_rating":"1","confidence":"91"},{"view_history":"[{\"page_index\":0,\"viewing_time\":110394}]","rt":110394,"trial_type":"instructions","trial_index":2,"time_elapsed":117302,"internal_node_id":"0.0-2.0-0.0","protocol_sum":"","subject_identifier":413,"subject_sum":[92,244,226,107,211,216,125,165,224,63,128,164,58,100,241,34,10,31,75,169,225,214,52,140,174,168,60,6,53,60,63,57],"subject_pair":206,"STUDY_ID":"66a22c0758a3d5c9d26873c6","PROLIFIC_PID":"61731c0ef27028acbfbbf972","SESSION_ID":"66a285b546e1d063dd24ef13","practice_instructions":1,"leaderboard_instructions":0,"bonus":0,"reveal_word":true,"self_rating":"1","confidence":"91"},{"rt":11228,"responses":"{\"Q0\":\"... reveal the word with as <b>few letter guesses</b> as possible\"}","question_order":"[0]","trial_type":"survey-multi-choice","trial_index":3,"time_elapsed":128533,"internal_node_id":"0.0-2.0-1.0","protocol_sum":"","subject_identifier":413,"subject_sum":[92,244,226,107,211,216,125,165,224,63,128,164,58,100,241,34,10,31,75,169,225,214,52,140,174,168,60,6,53,60,63,57],"subject_pair":206,"correct":true,"test_part":"multichoice_nonpretend","STUDY_ID":"66a22c0758a3d5c9d26873c6","PROLIFIC_PID":"61731c0ef27028acbfbbf972","SESSION_ID":"66a285b546e1d063dd24ef13","practice_instructions":1,"leaderboard_instructions":0,"bonus":0,"reveal_word":true,"self_rating":"1","confidence":"91"},{"view_history":"[{\"page_index\":0,\"viewing_time\":22039}]","rt":22039,"trial_type":"instructions","trial_index":4,"time_elapsed":150573,"internal_node_id":"0.0-3.0","protocol_sum":"","subject_identifier":413,"subject_sum":[92,244,226,107,211,216,125,165,224,63,128,164,58,100,241,34,10,31,75,169,225,214,52,140,174,168,60,6,53,60,63,57],"subject_pair":206,"STUDY_ID":"66a22c0758a3d5c9d26873c6","PROLIFIC_PID":"61731c0ef27028acbfbbf972","SESSION_ID":"66a285b546e1d063dd24ef13","practice_instructions":1,"leaderboard_instructions":0,"bonus":0,"reveal_word":true,"self_rating":"1","confidence":"91"},{"word":"ZEBRA","click_log":{"letter":["","H","C","Z","E","B","R","A"],"t":[0,18884,28439,34517,36862,39086,40759,42441],"hit":[null,0,0,1,1,1,1,1],"asked":["","H","HC","HCZ","HCZE","HCZEB","HCZEBR","HCZEBRA"],"word_state":["_____","_____","_____","Z____","ZE___","ZEB__","ZEBR_","ZEBRA"]},"hover_log":{"letter":["?","?","?","?","?","?","?","?","?","?","?","?","?","?","?","?","?","?","?","?","?","?","?","?","?","?","?","?","?","?","?","?","?","?","?","?","?","?","?","?","?","?","?","?","?","?","?","?","?","?","?","?","?","?","?","?","?","?","?","?","?","?","?","?","?","?","?","?","?","?","?","?","?","?","?","?","?","?","?","?","?","?","?","?","?","?","?","?","?","?","?","?","?","?","?","?","?","?","?","?","?","?","?","?","?","?","?","?","?","?","?","?","?","?","?","?","?","?","?","?","?","?","?","?","?","?","?","?","?","?","?","?","?","?","?","?","?","?","?","?","?","?","?","?","?","?","?","?","?","?","?","?","?","?","?","?","?","?","?","?","?","?","?","?","?","?","?","?","?","?","?","?","?","?","?","?","?","?","?","?","?","?","?","?","?","?","?","?","?","?","?","?","?","?","?","?","?","?","?","?","?","?","?","?","?","?","?","?","?","?","?","?","?","?","?","?","?","?","?","?","?","?","?","?","?","?","?","?","?","?","?","?","?","?","?","?","?","?","?","?","?","?","?","?","?","?","?","?","?","?","?","?","?","?","?","?","?","?","?","?","?","?","?","?","?","?","?","?","?","?","?","?","?","?","?","?","?","?","?","?","?","?","?","?","?","?","?","?","?","?","?","?","?","?","?","?","?","?","?","?","?","?","?","?","?","?","?","?","?","?","?","?","?","?","?","?","?","?","?","?","?","?","?","?","?","?","?","?","?","?","?","?","?","?","?","?","?","?","?","?","?","?","?","?","?","?","?","?","?","?","?","?","?","?","?","?","?","?","?","?","?","?","?","?","?","?","?","?","?","?","?","?","?","?","?","?","?","?","?","?","?","?","?","?","?","?","?","?","?","?","?","?","?","?","?","?","?","?","?","?","?","?","?","?","?","?","?","?","?","?","?","?","?","?","?","?","?","?","?","?","?","?","?","?","?","?","?","?","?","?","?","?","?","?","?","?","?","?","?","?","?","?","?","?","?","?","?","?","?","?","?","?","?","?","?","?","?","?","?","?","?","?","?","?","?","?","?","?","?","?","?","?","?","?","?","?","?","?","?","?","?","?","?","?","?","?","?","?","?","?","?","?","?","?","?","?","?","?","?","?","?","?","?","?","?","?","?","?","?","?","?","?","?","?","?","?","?","?","?","?","?","?","?","?","?","?","?","?","?","?","?","?","?","?","?","?","?","?","?","?","?","?","?","?","?","?","?","?","?","?","?","?","?","?","?","?","?","?","?","?","?","?","?","?","?","?","?","?","?","?","?","?","?","?","?","?","?","?","?","?","?","?","?","?","?","?","?","?","?","?","?","?","?","?","?","?","?","?","?","?","?","?","?","?","?","?","?","?","?","?","?","?","?","?","?","?","?","?","?","?","?","?","?","?","?","?","?","?","?","?","?","?","?","?","?","?","?","?","?","?","?","?","?","?","?","?","?","?","?","?","?","?","?","?","?","?","?","?","?","?","?","?","?","?","?","?","?","?","?","?","?","?","?","?","?","?","?","?","?","?","?","?","?","?","?","?","?","?","?","?","?","?","?","?","?","?","?","?","?","?","?","?","?","?","?","?","?","?","?","?","?","?","?","?","?","?","?","?","?","?","?","?","?","?","?","?","?","?","?","?","?","?","?","?","?","?","?","?","?","?","?","?","?","?","?","?","?","?","?","?","?","?","?","?","?","?","?","?","?","?","?","?","?","?","?","?","?","?","?","?","?","?","?","?","?","?","?","?","?","?","?","?","?","?","?","?","?","?","?","?","?","?","?","?","?","?","?","?","?","?","?","?","?","?","?","?","?","?","?","?","?","?","?","?","?","?","?","?","?","?","?","?","?","?","?","?","?","?","?","?","?","?","?","?","?","?","?","?","?","?","?","?","?","?","?","?","?","?","?","?","?","?","?","?","?","?","?","?","?","?","?","?","?","?","?","?","?","?","?","?","?","?","?","?","?","?","?","?","?","?","?","?","?","?","?","?","?","?","?","?","?","?","?","?","?","?","?","?","?","?","?","?","?","?","?","?","?","?","?","?","?","?","?","?","?","?","?","?","?","?","?","?","?","?","?","?","?","?","?","?","?","?","?","?","?","?","?","?","?","?","?","?","?","?","?","?","?","?","?","?","?","?","?","?","?","?","?","?","?","?","?","?","?","?","?","?","?","?","?","?","?","?","?","?","?","?","?","?","?","?","?","?","?","?","?","?","?","?","?","?","?","?","?","?","?","?","?","?","?","?","?","?","?","?","?","?","?","?","?","?","?","?","?","?","?","?","?","?","?","?","?","?","?","?","?","?","?","?","?","?","?","?","?","?","?","?","?","?","?","?","?","?","?","?","?","?","?","?","?","?","?","?","?","L","L","?","D","D","E","?","?","?","?","?","?","?","?","?","?","?","?","?","?","?","?","?","?","?","?","?","?","?","?","?","?","?","?","?","?","?","?","?","H","H","H","H","H","H","H","H","H","H","H","H","H","H","H","H","H","H","H","H","H","H","H","H","H","H","H","H","H","H","H","H","H","H","H","H","H","H","H","H","H","H","H","H","H","H","H","H","H","H","H","H","H","H","H","H","H","H","H","H","H","H","H","H","H","H","H","H","H","H","H","H","H","H","H","H","H","H","H","H","H","H","H","H","H","H","H","H","H","H","H","H","H","H","H","H","H","H","H","H","H","H","H","H","H","H","H","H","H","H","H","H","H","H","H","H","H","H","H","H","H","H","H","H","H","H","H","H","H","H","H","H","H","H","H","H","H","H","H","H","H","H","H","H","H","H","H","H","H","H","H","H","H","H","H","H","H","H","H","H","H","H","H","H","H","H","H","H","H","H","H","H","H","H","H","H","H","H","H","H","H","H","H","H","H","H","H","H","H","H","H","H","H","H","H","H","H","H","H","H","H","H","H","H","H","H","H","H","H","H","H","H","H","H","H","H","H","H","H","H","H","H","H","H","H","H","H","H","H","H","H","H","H","H","H","H","H","H","H","H","H","H","H","H","H","H","H","H","H","H","H","H","H","H","H","H","H","H","H","H","H","H","H","H","H","H","H","H","H","H","H","H","H","H","H","H","H","H","H","H","H","H","H","H","H","H","H","H","H","H","H","H","H","H","H","H","H","H","H","H","H","H","H","H","H","H","H","H","H","H","H","H","H","H","H","H","H","H","H","H","H","H","H","H","H","H","H","H","H","H","H","H","H","H","H","H","H","H","H","H","H","H","H","H","H","H","H","H","H","H","H","H","H","H","H","H","H","H","H","H","H","H","H","H","H","H","H","H","H","H","H","H","H","H","H","H","H","H","H","H","H","H","H","H","H","H","H","H","H","H","H","H","H","H","H","H","H","H","H","H","H","H","H","H","H","H","H","H","H","H","H","H","H","H","H","H","H","H","H","H","H","H","H","H","H","H","H","H","H","H","H","H","H","H","H","H","H","H","H","H","H","H","H","H","H","H","H","H","H","H","H","H","H","H","H","H","H","H","H","H","H","H","H","H","H","H","H","H","H","H","H","H","H","H","H","H","H","H","H","H","H","H","H","H","H","H","H","H","H","H","H","H","H","H","H","H","H","H","H","H","H","H","G","?","?","?","?","?","?","?","?","?","?","?","?","?","?","?","?","?","?","?","?","?","?","?","?","?","?","?","?","?","?","?","?","?","?","?","?","?","?","?","?","?","?","?","?","?","?","?","?","?","?","?","?","?","?","?","?","?","C","C","C","C","C","C","C","C","C","C","C","C","C","C","C","C","C","C","C","C","C","C","C","C","C","C","C","C","C","C","C","C","C","C","C","C","C","C","C","C","C","C","C","C","C","C","C","C","C","C","C","C","C","C","C","C","C","C","C","C","C","C","C","C","C","C","C","C","C","C","C","C","C","C","C","C","C","C","C","C","C","C","C","C","C","C","C","C","C","C","C","C","C","C","C","C","C","C","C","C","C","C","C","C","C","C","C","C","C","C","C","C","C","C","C","C","C","C","C","C","C","C","C","C","C","C","C","C","C","C","C","C","C","C","C","C","C","C","C","C","C","C","C","C","C","C","C","C","C","C","C","C","C","C","C","C","C","C","C","C","C","C","C","C","C","C","C","C","C","C","C","C","C","C","C","C","C","C","C","C","C","C","C","C","C","C","C","C","C","C","C","C","C","C","C","C","C","C","C","C","C","C","C","C","C","C","C","C","C","C","C","C","C","C","C","C","C","C","C","C","C","C","C","C","C","C","C","C","C","C","C","C","C","C","C","C","C","C","C","C","C","C","C","C","C","C","C","C","C","C","C","C","C","C","C","C","C","C","C","C","C","C","C","C","C","C","C","C","C","C","C","C","C","C","C","C","C","C","C","C","C","C","C","C","C","C","C","C","C","C","C","C","C","C","C","C","C","C","C","C","C","C","C","C","C","C","C","C","C","C","C","C","C","C","C","C","C","C","C","C","C","C","C","C","C","C","C","C","C","C","C","C","C","C","C","C","C","C","C","C","C","C","C","C","C","C","C","C","C","C","C","C","C","C","C","C","C","C","D","E","F","?","?","?","?","?","?","?","?","?","?","?","?","?","?","?","?","?","?","?","?","?","?","?","Z","Z","Z","Z","Z","Z","Z","Z","Z","Z","Z","Z","Z","Z","Z","Z","Z","Z","Z","Z","Z","Z","Z","Z","Z","Z","Z","Z","Z","Z","Z","Z","Z","Z","Z","Z","Z","Z","Z","Z","Z","Z","Z","Z","Z","Z","Z","Z","Z","Z","Z","Z","Z","Z","Z","Z","Z","Z","Z","Z","Z","Z","Z","Z","Z","Z","Z","Z","Z","Z","Z","Z","Z","Z","Z","Z","Z","Z","Z","Z","Z","Z","Z","Z","Z","Z","Z","Z","Z","Z","Z","Z","Z","Z","Z","Z","Z","Z","Z","Z","Z","Z","?","?","?","?","?","?","?","?","?","?","?","?","?","?","?","?","?","?","?","?","?","?","?","?","?","?","?","?","?","E","E","E","E","E","E","E","E","E","E","E","E","E","E","E","E","E","E","E","E","E","E","E","E","E","E","E","E","E","E","E","E","E","E","E","E","E","E","E","E","E","E","E","E","E","E","E","E","E","E","E","E","E","E","E","E","E","E","E","E","E","E","E","E","E","E","E","E","E","E","E","E","E","E","E","E","E","E","E","E","E","E","E","E","E","E","E","E","E","E","E","E","E","E","E","E","E","E","E","E","E","E","?","?","?","?","M","M","M","M","M","M","M","M","M","M","M","M","M","L","L","L","?","?","?","?","?","?","?","?","?","?","?","?","?","?","?","?","?","?","?","?","B","B","B","B","B","B","B","B","B","B","B","B","B","B","B","B","B","B","B","B","B","B","B","B","B","B","B","B","B","B","B","B","B","B","B","B","B","B","B","B","B","B","B","B","B","B","B","B","B","B","B","B","B","B","B","B","B","B","B","B","B","B","B","B","B","B","B","B","B","B","B","C","D","E","F","?","?","?","R","?","?","?","?","?","?","?","?","?","?","?","?","?","?","?","?","?","?","?","R","R","R","R","R","R","R","R","R","R","R","R","R","R","R","R","R","R","R","R","R","R","R","R","R","R","R","R","R","R","R","R","R","R","R","R","R","R","R","R","R","R","R","R","R","R","R","R","R","R","R","R","R","R","R","R","R","R","R","R","R","R","R","R","R","R","R","?","?","Q","?","P","?","O","?","?","?","?","?","?","?","?","?","?","?","K","K","K","?","?","?","?","?","?","?","?","?","?","?","?","?","A","A","A","A","A","A","A","A","A","A","A","A","A","A","A","A","A","A","A","A","A","A","A","A","A","A","A","A","A","A","A","A","A","A","A","A","A","A","A","A","A","A","A","A","A","A","A","A","A","A","A","A","A","A","A","A","A","A","A","A","A","A","A","A","A","A","A","A","A","A","A","A","A","A","A","A","A","A","A","A","A","A","A","A","A","A","A","A","A","A","A","A","A","A","A","A","A","A","A","A","A","A","A","A","A","A","A","A","A","A","A","A","A","A","A","A","A","A","A","A","A","A","A","A","A","A","A","A","A","A","A","A","A","A","A","A","A","A","A","A","A","A","A","A","A","A","A","A","A","A","A","A","A","A","A","A","A","A","A","A"],"t":[33,67,82,97,113,129,145,162,178,195,213,228,246,261,278,296,312,330,345,362,378,394,411,428,446,461,479,494,512,528,545,560,577,594,611,627,643,660,677,695,711,727,744,762,777,794,812,827,845,862,877,894,910,927,944,960,976,993,1009,1026,1043,1059,1076,1093,1109,1126,1143,1159,1176,1192,1209,1226,1243,1259,1276,1293,1309,1326,1343,1359,1376,1392,1409,1426,1443,1459,1476,1493,1509,1526,1543,1559,1576,1593,1609,1626,1642,1658,1675,1692,1709,1726,1742,1759,1776,1792,1809,1826,1842,1858,1876,1892,1909,1925,1942,1958,1976,1992,2008,2024,2041,2058,2075,2091,2108,2125,2142,2158,2175,2191,2211,2228,2245,2260,2277,2294,2311,2327,2344,2361,2377,2394,2411,2427,2445,2460,2478,2494,2511,2527,2544,2561,2577,2594,2611,2627,2644,2661,2677,2694,2710,2727,2743,2760,2776,2794,2811,2827,2841,2857,2874,2891,2907,2924,2941,2957,2974,2991,3007,3024,3041,3057,3074,3093,3107,3124,3141,3157,3174,3190,3208,3224,3240,3257,3273,3291,3307,3324,3340,3357,3374,3390,3407,3424,3441,3457,3474,3491,3507,3524,3540,3557,3574,3590,3608,3624,3641,3657,3674,3690,3707,3724,3740,3757,3773,3790,3807,3824,3840,3857,3874,3890,3906,3923,3939,3957,3973,3990,4007,4023,4039,4056,4072,4089,4107,4123,4140,4157,4172,4190,4206,4223,4239,4257,4272,4289,4306,4322,4339,4356,4373,4390,4406,4422,4440,4458,4473,4489,4506,4522,4539,4556,4572,4589,4606,4623,4639,4656,4672,4689,4706,4722,4739,4755,4772,4789,4806,4822,4839,4856,4872,4889,4906,4922,4939,4956,4972,4989,5005,5025,5038,5055,5072,5088,5105,5122,5138,5155,5172,5188,5205,5222,5238,5256,5272,5288,5304,5322,5340,5354,5371,5388,5405,5421,5438,5455,5472,5488,5505,5522,5538,5555,5573,5588,5605,5622,5638,5655,5672,5688,5704,5721,5738,5755,5772,5788,5805,5821,5838,5856,5871,5888,5905,5921,5940,5954,5970,5987,6004,6021,6038,6055,6071,6088,6105,6121,6138,6154,6171,6188,6204,6221,6237,6254,6271,6288,6305,6322,6339,6355,6372,6388,6406,6422,6438,6456,6471,6488,6505,6522,6538,6555,6572,6588,6606,6622,6638,6658,6672,6688,6705,6721,6739,6755,6771,6789,6805,6821,6838,6855,6872,6889,6906,6922,6939,6955,6971,6992,7006,7020,7036,7053,7069,7086,7103,7120,7136,7153,7170,7186,7203,7219,7237,7252,7269,7286,7302,7319,7336,7353,7369,7386,7402,7419,7436,7454,7471,7487,7505,7521,7538,7554,7571,7588,7604,7621,7638,7654,7672,7687,7705,7721,7738,7754,7771,7788,7804,7821,7837,7854,7870,7888,7904,7921,7939,7954,7972,7989,8005,8021,8038,8054,8070,8088,8104,8121,8137,8154,8170,8187,8204,8221,8238,8254,8271,8287,8304,8320,8338,8354,8371,8387,8403,8420,8437,8453,8470,8485,8501,8518,8535,8551,8570,8586,8603,8621,8636,8653,8670,8687,8703,8720,8736,8753,8770,8786,8803,8820,8836,8853,8870,8886,8903,8920,8936,8953,8970,8986,9003,9020,9037,9053,9070,9086,9103,9120,9136,9153,9169,9186,9202,9220,9236,9253,9269,9286,9302,9319,9336,9353,9370,9386,9403,9419,9436,9453,9469,9486,9502,9519,9535,9552,9569,9586,9602,9619,9636,9651,9669,9685,9703,9719,9735,9752,9769,9785,9801,9819,9835,9852,9869,9886,9902,9919,9936,9951,9969,9985,10002,10019,10035,10052,10069,10085,10101,10118,10135,10152,10166,10183,10199,10216,10232,10249,10266,10282,10299,10316,10332,10349,10366,10382,10399,10416,10434,10452,10468,10485,10501,10518,10534,10550,10568,10584,10601,10617,10635,10650,10667,10685,10701,10718,10735,10752,10768,10785,10800,10817,10835,10850,10868,10884,10901,10919,10936,10948,10966,10981,10998,11016,11031,11049,11065,11082,11098,11115,11131,11148,11165,11181,11198,11215,11231,11248,11264,11281,11298,11316,11333,11350,11367,11384,11400,11417,11433,11450,11467,11483,11500,11518,11533,11551,11567,11584,11599,11617,11633,11649,11667,11683,11702,11716,11733,11747,11765,11781,11798,11815,11831,11848,11865,11881,11897,11914,11930,11948,11964,11980,11998,12014,12031,12047,12064,12080,12097,12114,12132,12147,12164,12180,12197,12213,12230,12247,12263,12281,12297,12313,12330,12347,12364,12380,12397,12413,12430,12447,12465,12482,12498,12513,12529,12546,12564,12580,12596,12615,12630,12646,12663,12679,12696,12715,12729,12746,12763,12780,12796,12813,12830,12846,12863,12879,12896,12913,12931,12947,12963,12981,12996,13013,13030,13046,13063,13079,13097,13113,13130,13145,13163,13179,13195,13212,13229,13245,13263,13278,13295,13312,13329,13346,13362,13379,13395,13412,13428,13445,13462,13479,13496,13512,13528,13545,13562,13578,13595,13612,13629,13645,13662,13678,13697,13714,13730,13747,13763,13781,13795,13814,13829,13846,13861,13878,13896,13913,13929,13946,13964,13983,14002,14015,14029,14045,14061,14079,14095,14111,14128,14145,14161,14177,14195,14211,14228,14244,14262,14277,14294,14312,14327,14344,14361,14378,14394,14411,14428,14444,14462,14478,14495,14511,14528,14544,14561,14578,14594,14611,14627,14644,14661,14678,14694,14711,14728,14744,14761,14777,14794,14810,14828,14845,14861,14877,14894,14910,14927,14944,14961,14978,14994,15010,15028,15044,15061,15078,15093,15110,15128,15143,15160,15177,15194,15210,15227,15244,15261,15277,15294,15309,15328,15343,15360,15376,15393,15411,15426,15444,15459,15478,15493,15510,15527,15543,15560,15576,15594,15610,15627,15643,15659,15677,15692,15710,15726,15743,15759,15776,15793,15810,15828,15845,15859,15876,15893,15910,15926,15943,15959,15976,15993,16009,16026,16042,16059,16076,16093,16109,16126,16143,16159,16176,16192,16209,16226,16242,16259,16275,16292,16309,16325,16342,16359,16375,16392,16409,16426,16442,16459,16475,16492,16509,16525,16542,16558,16575,16593,16609,16624,16641,16659,16674,16693,16710,16727,16744,16760,16777,16793,16810,16824,16841,16859,16875,16893,16909,16927,16944,16959,16977,16993,17010,17026,17043,17059,17075,17093,17108,17126,17143,17159,17175,17193,17208,17226,17243,17258,17275,17292,17308,17325,17344,17359,17377,17393,17409,17424,17442,17461,17477,17493,17510,17526,17544,17559,17577,17592,17610,17626,17643,17658,17676,17693,17707,17726,17742,17758,17774,17791,17807,17825,17842,17857,17875,17891,17907,17923,17940,17958,17973,17990,18007,18026,18041,18058,18075,18091,18109,18125,18141,18159,18173,18190,18208,18225,18240,18258,18276,18290,18309,18323,18340,18358,18373,18390,18407,18425,18440,18457,18475,18490,18506,18523,18540,18556,18574,18590,18607,18623,18640,18656,18673,18690,18708,18725,18741,18757,18774,18791,18808,18824,18841,18857,18874,18892,18908,18924,18940,18959,18974,18991,19007,19024,19040,19057,19072,19090,19107,19124,19140,19156,19172,19189,19207,19224,19240,19257,19277,19289,19308,19323,19338,19357,19374,19389,19407,19423,19439,19456,19473,19491,19507,19522,19539,19556,19573,19589,19605,19622,19640,19656,19672,19689,19707,19721,19740,19756,19772,19789,19805,19822,19839,19856,19871,19888,19905,19921,19938,19954,19971,19988,20004,20021,20039,20056,20073,20088,20105,20121,20137,20154,20171,20188,20205,20221,20238,20254,20271,20287,20305,20321,20337,20354,20371,20389,20406,20421,20438,20455,20471,20488,20504,20521,20538,20554,20571,20588,20604,20621,20638,20656,20671,20688,20704,20721,20738,20754,20770,20787,20805,20822,20838,20854,20871,20887,20904,20921,20938,20954,20970,20987,21003,21021,21036,21054,21070,21087,21103,21120,21139,21154,21170,21187,21205,21220,21237,21255,21270,21287,21304,21320,21338,21354,21371,21387,21404,21422,21436,21453,21469,21487,21506,21520,21538,21553,21571,21588,21605,21621,21636,21654,21670,21688,21704,21720,21736,21754,21770,21786,21803,21819,21836,21854,21870,21886,21903,21921,21938,21953,21971,21987,22004,22019,22036,22053,22069,22086,22102,22119,22136,22153,22170,22186,22202,22219,22237,22252,22269,22285,22303,22318,22336,22353,22370,22387,22402,22418,22436,22453,22470,22486,22502,22519,22535,22552,22568,22585,22602,22620,22635,22653,22670,22685,22702,22718,22735,22753,22768,22784,22802,22819,22836,22851,22868,22885,22903,22918,22935,22953,22969,22984,23002,23019,23035,23053,23070,23086,23103,23120,23137,23153,23169,23186,23204,23218,23237,23251,23269,23285,23304,23319,23335,23352,23368,23385,23401,23420,23436,23452,23467,23485,23502,23518,23536,23552,23568,23584,23601,23617,23634,23651,23667,23684,23701,23718,23733,23750,23767,23783,23800,23818,23834,23852,23867,23883,23903,23917,23933,23950,23967,23983,24000,24017,24034,24051,24068,24084,24101,24117,24135,24151,24167,24184,24200,24217,24234,24250,24267,24284,24301,24317,24334,24351,24367,24384,24400,24417,24434,24451,24467,24484,24500,24516,24533,24549,24566,24584,24600,24616,24633,24650,24667,24683,24699,24716,24733,24750,24766,24783,24799,24817,24833,24850,24867,24883,24899,24916,24934,24950,24966,24985,24999,25016,25032,25050,25066,25084,25101,25118,25132,25150,25166,25182,25199,25216,25233,25249,25266,25282,25299,25316,25332,25349,25365,25383,25400,25415,25432,25449,25467,25483,25499,25516,25532,25549,25566,25582,25599,25615,25632,25648,25665,25682,25698,25715,25732,25750,25765,25781,25798,25815,25833,25848,25864,25881,25898,25915,25932,25949,25964,25981,25998,26015,26031,26047,26064,26081,26097,26114,26131,26148,26165,26181,26198,26215,26232,26248,26265,26282,26298,26315,26331,26348,26364,26381,26399,26414,26431,26449,26467,26482,26498,26514,26532,26547,26564,26583,26599,26614,26633,26647,26666,26680,26698,26714,26733,26747,26764,26780,26797,26813,26831,26847,26863,26881,26897,26914,26930,26947,26963,26981,26997,27014,27030,27048,27065,27081,27097,27114,27130,27147,27166,27180,27197,27214,27230,27247,27263,27280,27297,27313,27331,27347,27363,27380,27397,27413,27430,27447,27464,27480,27496,27515,27530,27546,27563,27579,27597,27616,27630,27649,27664,27681,27698,27713,27730,27747,27763,27780,27796,27813,27829,27847,27863,27880,27897,27913,27930,27947,27965,27980,27998,28013,28030,28046,28063,28079,28096,28113,28129,28146,28162,28180,28196,28212,28229,28246,28263,28283,28296,28315,28329,28346,28362,28379,28396,28412,28431,28446,28463,28480,28497,28512,28529,28546,28562,28579,28595,28615,28630,28647,28663,28680,28696,28714,28729,28746,28764,28780,28797,28812,28829,28849,28863,28879,28895,28912,28929,28945,28962,28978,28995,29011,29028,29048,29062,29079,29096,29113,29128,29145,29161,29178,29195,29211,29228,29245,29262,29278,29294,29311,29328,29347,29363,29380,29396,29412,29429,29447,29463,29479,29496,29516,29529,29546,29563,29579,29596,29612,29629,29646,29662,29679,29696,29713,29729,29746,29763,29779,29796,29812,29829,29847,29862,29880,29896,29914,29929,29945,29962,29979,29996,30012,30029,30046,30062,30079,30096,30114,30129,30145,30162,30179,30195,30212,30228,30245,30261,30278,30296,30312,30328,30346,30362,30378,30395,30412,30428,30446,30461,30480,30495,30512,30528,30545,30562,30578,30595,30611,30628,30645,30662,30678,30695,30712,30728,30744,30760,30777,30793,30810,30827,30843,30860,30877,30894,30910,30928,30943,30961,30976,30993,31012,31027,31043,31059,31080,31093,31110,31126,31142,31160,31176,31193,31209,31226,31243,31260,31276,31293,31309,31327,31343,31360,31375,31393,31409,31425,31443,31459,31476,31492,31510,31526,31542,31559,31575,31593,31608,31627,31642,31659,31676,31692,31710,31726,31742,31759,31778,31795,31812,31828,31845,31862,31878,31895,31912,31928,31944,31959,31976,31993,32009,32026,32043,32059,32076,32093,32110,32126,32143,32159,32176,32192,32210,32226,32243,32259,32276,32292,32310,32325,32342,32360,32378,32401,32408,32425,32440,32458,32474,32491,32508,32524,32541,32557,32574,32590,32608,32624,32641,32658,32674,32691,32707,32724,32741,32758,32774,32790,32807,32823,32840,32857,32876,32890,32907,32926,32941,32957,32974,32990,33007,33023,33040,33057,33073,33091,33106,33124,33140,33157,33173,33190,33207,33223,33240,33256,33273,33290,33307,33324,33340,33357,33374,33390,33407,33424,33440,33457,33475,33490,33509,33523,33542,33559,33574,33589,33606,33625,33640,33659,33673,33690,33708,33724,33740,33757,33775,33790,33806,33825,33839,33858,33874,33889,33908,33923,33939,33956,33975,33990,34005,34026,34039,34056,34074,34089,34106,34123,34140,34155,34173,34189,34205,34222,34239,34255,34273,34289,34305,34322,34341,34357,34373,34389,34406,34423,34439,34456,34472,34489,34506,34523,34540,34556,34573,34589,34605,34623,34639,34656,34673,34690,34705,34722,34739,34755,34773,34789,34806,34822,34839,34855,34871,34888,34910,34922,34939,34955,34971,34988,35005,35022,35038,35055,35071,35088,35105,35122,35138,35156,35172,35189,35205,35222,35239,35254,35272,35288,35305,35321,35338,35354,35371,35388,35405,35422,35438,35454,35473,35488,35504,35522,35538,35555,35571,35588,35607,35621,35638,35656,35671,35687,35704,35723,35737,35754,35771,35788,35806,35821,35837,35854,35873,35888,35905,35922,35938,35955,35972,35987,36004,36021,36037,36056,36073,36089,36104,36123,36139,36154,36171,36189,36203,36222,36238,36254,36271,36287,36303,36321,36338,36353,36371,36386,36404,36422,36437,36453,36472,36488,36504,36521,36537,36553,36570,36587,36603,36620,36637,36653,36670,36688,36707,36720,36737,36753,36770,36786,36804,36820,36836,36853,36870,36886,36904,36920,36937,36953,36970,36986,37004,37020,37037,37054,37070,37086,37103,37120,37136,37153,37170,37187,37203,37219,37236,37252,37269,37287,37303,37319,37336,37354,37369,37386,37403,37420,37436,37452,37469,37486,37502,37519,37536,37552,37569,37586,37603,37619,37636,37653,37669,37686,37702,37719,37735,37752,37771,37786,37802,37819,37836,37852,37872,37885,37902,37921,37937,37952,37970,37987,38003,38019,38035,38052,38071,38086,38102,38119,38137,38154,38172,38187,38204,38222,38237,38253,38271,38285,38302,38320,38337,38352,38368,38386,38402,38418,38437,38452,38470,38487,38502,38519,38536,38551,38569,38586,38602,38618,38637,38653,38668,38685,38702,38719,38734,38750,38767,38784,38801,38817,38834,38851,38868,38884,38900,38917,38934,38952,38967,38984,39003,39018,39034,39051,39068,39086,39101,39118,39134,39151,39167,39184,39201,39217,39234,39251,39267,39284,39301,39317,39335,39351,39368,39384,39401,39418,39433,39450,39467,39486,39500,39517,39533,39551,39567,39584,39600,39617,39633,39650,39669,39683,39700,39719,39733,39750,39767,39784,39801,39818,39833,39850,39868,39884,39900,39918,39932,39949,39966,39983,39999,40017,40032,40050,40070,40085,40100,40116,40133,40149,40168,40183,40200,40216,40234,40250,40266,40283,40300,40316,40333,40349,40367,40383,40400,40416,40433,40449,40466,40484,40499,40516,40533,40549,40566,40584,40601,40616,40632,40649,40665,40682,40699,40715,40732,40749,40767,40782,40800,40815,40832,40848,40866,40882,40900,40915,40934,40950,40965,40981,40998,41016,41031,41048,41065,41082,41098,41115,41132,41150,41165,41182,41200,41216,41232,41251,41265,41282,41300,41316,41333,41350,41367,41382,41398,41414,41432,41450,41468,41481,41499,41516,41531,41548,41567,41581,41598,41614,41632,41650,41666,41682,41698,41717,41732,41749,41767,41782,41797,41815,41831,41847,41865,41880,41898,41914,41931,41948,41964,41981,41998,42015,42032,42048,42065,42081,42098,42114,42130,42147,42164,42182,42196,42213,42231,42247,42266,42282,42297,42314,42330,42347,42363,42380,42397,42414,42431,42449,42464,42483,42498,42514,42530,42547,42565,42581,42598,42614,42633,42647,42665,42680,42698,42713,42731,42746,42763,42781,42796,42814,42836,42849,42863,42881,42896,42913,42930,42948,42963,42979,42997,43013,43030,43047,43062,43080,43096,43113,43130,43146,43163,43179,43196,43213,43229,43246,43262,43280,43296,43313,43329,43347,43363,43379,43396,43414,43431,43447,43462,43479,43495,43512,43528,43546,43563,43579,43596,43612,43630,43646,43664,43679,43698,43715,43731,43748,43762,43779,43795,43812,43829,43846,43863,43879,43897,43912,43929,43946,43962,43979,43995,44012,44029,44046,44064,44080,44096,44112,44129,44147,44162,44180,44196,44213,44229,44245,44263,44278,44296,44313,44330,44346,44362,44378,44395,44413,44428,44446],"hit":[null],"x":[-1.751700680272109,-1.751700680272109,-1.751700680272109,-1.751700680272109,-1.751700680272109,-1.751700680272109,-1.751700680272109,-1.751700680272109,-1.751700680272109,-1.751700680272109,-1.751700680272109,-1.751700680272109,-1.751700680272109,-1.751700680272109,-1.751700680272109,-1.751700680272109,-1.751700680272109,-1.751700680272109,-1.751700680272109,-1.751700680272109,-1.751700680272109,-1.751700680272109,-1.751700680272109,-1.751700680272109,-1.751700680272109,-1.751700680272109,-1.751700680272109,-1.751700680272109,-1.751700680272109,-1.751700680272109,-1.751700680272109,-1.751700680272109,-1.751700680272109,-1.751700680272109,-1.751700680272109,-1.751700680272109,-1.751700680272109,-1.751700680272109,-1.751700680272109,-1.751700680272109,-1.751700680272109,-1.751700680272109,-1.751700680272109,-1.751700680272109,-1.751700680272109,-1.751700680272109,-1.751700680272109,-1.751700680272109,-1.751700680272109,-1.751700680272109,-1.751700680272109,-1.751700680272109,-1.751700680272109,-1.751700680272109,-1.751700680272109,-1.751700680272109,-1.751700680272109,-1.751700680272109,-1.751700680272109,-1.751700680272109,-1.751700680272109,-1.751700680272109,-1.751700680272109,-1.751700680272109,-1.751700680272109,-1.751700680272109,-1.751700680272109,-1.751700680272109,-1.751700680272109,-1.751700680272109,-1.751700680272109,-1.751700680272109,-1.751700680272109,-1.751700680272109,-1.751700680272109,-1.751700680272109,-1.751700680272109,-1.751700680272109,-1.751700680272109,-1.751700680272109,-1.751700680272109,-1.751700680272109,-1.751700680272109,-1.751700680272109,-1.751700680272109,-1.751700680272109,-1.751700680272109,-1.751700680272109,-1.751700680272109,-1.751700680272109,-1.751700680272109,-1.751700680272109,-1.751700680272109,-1.751700680272109,-1.751700680272109,-1.751700680272109,-1.751700680272109,-1.751700680272109,-1.751700680272109,-1.751700680272109,-1.751700680272109,-1.751700680272109,-1.751700680272109,-1.751700680272109,-1.751700680272109,-1.751700680272109,-1.751700680272109,-1.751700680272109,-1.751700680272109,-1.751700680272109,-1.751700680272109,-1.751700680272109,-1.751700680272109,-1.751700680272109,-1.751700680272109,-1.751700680272109,-1.751700680272109,-1.751700680272109,-1.751700680272109,-1.751700680272109,-1.751700680272109,-1.751700680272109,-1.751700680272109,-1.751700680272109,-1.751700680272109,-1.751700680272109,-1.751700680272109,-1.751700680272109,-1.751700680272109,-1.751700680272109,-1.751700680272109,-1.751700680272109,-1.751700680272109,-1.751700680272109,-1.751700680272109,-1.751700680272109,-1.751700680272109,-1.751700680272109,-1.751700680272109,-1.751700680272109,-1.751700680272109,-1.751700680272109,-1.751700680272109,-1.751700680272109,-1.751700680272109,-1.751700680272109,-1.751700680272109,-1.751700680272109,-1.751700680272109,-1.751700680272109,-1.751700680272109,-1.751700680272109,-1.751700680272109,-1.751700680272109,-1.751700680272109,-1.751700680272109,-1.751700680272109,-1.751700680272109,-1.751700680272109,-1.751700680272109,-1.751700680272109,-1.751700680272109,-1.751700680272109,-1.751700680272109,-1.751700680272109,-1.751700680272109,-1.751700680272109,-1.751700680272109,-1.751700680272109,-1.751700680272109,-1.751700680272109,-1.751700680272109,-1.751700680272109,-1.751700680272109,-1.751700680272109,-1.751700680272109,-1.751700680272109,-1.751700680272109,-1.751700680272109,-1.751700680272109,-1.751700680272109,-1.751700680272109,-1.751700680272109,-1.751700680272109,-1.751700680272109,-1.751700680272109,-1.751700680272109,-1.751700680272109,-1.751700680272109,-1.751700680272109,-1.751700680272109,-1.751700680272109,-1.751700680272109,-1.751700680272109,-1.751700680272109,-1.751700680272109,-1.751700680272109,-1.751700680272109,-1.751700680272109,-1.751700680272109,-1.751700680272109,-1.751700680272109,-1.751700680272109,-1.751700680272109,-1.751700680272109,-1.751700680272109,-1.751700680272109,-1.751700680272109,-1.751700680272109,-1.751700680272109,-1.751700680272109,-1.751700680272109,-1.751700680272109,-1.751700680272109,-1.751700680272109,-1.751700680272109,-1.751700680272109,-1.751700680272109,-1.751700680272109,-1.751700680272109,-1.751700680272109,-1.751700680272109,-1.751700680272109,-1.751700680272109,-1.751700680272109,-1.751700680272109,-1.751700680272109,-1.751700680272109,-1.751700680272109,-1.751700680272109,-1.751700680272109,-1.751700680272109,-1.751700680272109,-1.751700680272109,-1.751700680272109,-1.751700680272109,-1.751700680272109,-1.751700680272109,-1.751700680272109,-1.751700680272109,-1.751700680272109,-1.751700680272109,-1.751700680272109,-1.751700680272109,-1.751700680272109,-1.751700680272109,-1.751700680272109,-1.751700680272109,-1.751700680272109,-1.751700680272109,-1.751700680272109,-1.751700680272109,-1.751700680272109,-1.751700680272109,-1.751700680272109,-1.751700680272109,-1.751700680272109,-1.751700680272109,-1.751700680272109,-1.751700680272109,-1.751700680272109,-1.751700680272109,-1.751700680272109,-1.751700680272109,-1.751700680272109,-1.751700680272109,-1.751700680272109,-1.751700680272109,-1.751700680272109,-1.751700680272109,-1.751700680272109,-1.751700680272109,-1.751700680272109,-1.751700680272109,-1.751700680272109,-1.751700680272109,-1.751700680272109,-1.751700680272109,-1.751700680272109,-1.751700680272109,-1.751700680272109,-1.751700680272109,-1.751700680272109,-1.751700680272109,-1.751700680272109,-1.751700680272109,-1.751700680272109,-1.751700680272109,-1.751700680272109,-1.751700680272109,-1.751700680272109,-1.751700680272109,-1.751700680272109,-1.751700680272109,-1.751700680272109,-1.751700680272109,-1.751700680272109,-1.751700680272109,-1.751700680272109,-1.751700680272109,-1.751700680272109,-1.751700680272109,-1.751700680272109,-1.751700680272109,-1.751700680272109,-1.751700680272109,-1.751700680272109,-1.751700680272109,-1.751700680272109,-1.751700680272109,-1.751700680272109,-1.751700680272109,-1.751700680272109,-1.751700680272109,-1.751700680272109,-1.751700680272109,-1.751700680272109,-1.751700680272109,-1.751700680272109,-1.751700680272109,-1.751700680272109,-1.751700680272109,-1.751700680272109,-1.751700680272109,-1.751700680272109,-1.751700680272109,-1.751700680272109,-1.751700680272109,-1.751700680272109,-1.751700680272109,-1.751700680272109,-1.751700680272109,-1.751700680272109,-1.751700680272109,-1.751700680272109,-1.751700680272109,-1.751700680272109,-1.751700680272109,-1.751700680272109,-1.751700680272109,-1.751700680272109,-1.751700680272109,-1.751700680272109,-1.751700680272109,-1.751700680272109,-1.751700680272109,-1.751700680272109,-1.751700680272109,-1.751700680272109,-1.751700680272109,-1.751700680272109,-1.751700680272109,-1.751700680272109,-1.751700680272109,-1.751700680272109,-1.751700680272109,-1.751700680272109,-1.751700680272109,-1.751700680272109,-1.751700680272109,-1.751700680272109,-1.751700680272109,-1.751700680272109,-1.751700680272109,-1.751700680272109,-1.751700680272109,-1.751700680272109,-1.751700680272109,-1.751700680272109,-1.751700680272109,-1.751700680272109,-1.751700680272109,-1.751700680272109,-1.751700680272109,-1.751700680272109,-1.751700680272109,-1.751700680272109,-1.751700680272109,-1.751700680272109,-1.751700680272109,-1.751700680272109,-1.751700680272109,-1.751700680272109,-1.751700680272109,-1.751700680272109,-1.751700680272109,-1.751700680272109,-1.751700680272109,-1.751700680272109,-1.751700680272109,-1.751700680272109,-1.751700680272109,-1.751700680272109,-1.751700680272109,-1.751700680272109,-1.751700680272109,-1.751700680272109,-1.751700680272109,-1.751700680272109,-1.751700680272109,-1.751700680272109,-1.751700680272109,-1.751700680272109,-1.751700680272109,-1.751700680272109,-1.751700680272109,-1.751700680272109,-1.751700680272109,-1.751700680272109,-1.751700680272109,-1.751700680272109,-1.751700680272109,-1.751700680272109,-1.751700680272109,-1.751700680272109,-1.751700680272109,-1.751700680272109,-1.751700680272109,-1.751700680272109,-1.751700680272109,-1.751700680272109,-1.751700680272109,-1.751700680272109,-1.751700680272109,-1.751700680272109,-1.751700680272109,-1.751700680272109,-1.751700680272109,-1.751700680272109,-1.751700680272109,-1.751700680272109,-1.751700680272109,-1.751700680272109,-1.751700680272109,-1.751700680272109,-1.751700680272109,-1.751700680272109,-1.751700680272109,-1.751700680272109,-1.751700680272109,-1.751700680272109,-1.751700680272109,-1.751700680272109,-1.751700680272109,-1.751700680272109,-1.751700680272109,-1.751700680272109,-1.751700680272109,-1.751700680272109,-1.751700680272109,-1.751700680272109,-1.751700680272109,-1.751700680272109,-1.751700680272109,-1.751700680272109,-1.751700680272109,-1.751700680272109,-1.751700680272109,-1.751700680272109,-1.751700680272109,-1.751700680272109,-1.751700680272109,-1.751700680272109,-1.751700680272109,-1.751700680272109,-1.751700680272109,-1.751700680272109,-1.751700680272109,-1.751700680272109,-1.751700680272109,-1.751700680272109,-1.751700680272109,-1.751700680272109,-1.751700680272109,-1.751700680272109,-1.751700680272109,-1.751700680272109,-1.751700680272109,-1.751700680272109,-1.751700680272109,-1.751700680272109,-1.751700680272109,-1.751700680272109,-1.751700680272109,-1.751700680272109,-1.751700680272109,-1.751700680272109,-1.751700680272109,-1.751700680272109,-1.751700680272109,-1.751700680272109,-1.751700680272109,-1.751700680272109,-1.751700680272109,-1.751700680272109,-1.751700680272109,-1.751700680272109,-1.751700680272109,-1.751700680272109,-1.751700680272109,-1.751700680272109,-1.751700680272109,-1.751700680272109,-1.751700680272109,-1.751700680272109,-1.751700680272109,-1.751700680272109,-1.751700680272109,-1.751700680272109,-1.751700680272109,-1.751700680272109,-1.751700680272109,-1.751700680272109,-1.751700680272109,-1.751700680272109,-1.751700680272109,-1.751700680272109,-1.751700680272109,-1.751700680272109,-1.751700680272109,-1.751700680272109,-1.751700680272109,-1.751700680272109,-1.751700680272109,-1.751700680272109,-1.751700680272109,-1.751700680272109,-1.751700680272109,-1.751700680272109,-1.751700680272109,-1.751700680272109,-1.751700680272109,-1.751700680272109,-1.751700680272109,-1.751700680272109,-1.751700680272109,-1.751700680272109,-1.751700680272109,-1.751700680272109,-1.751700680272109,-1.751700680272109,-1.751700680272109,-1.751700680272109,-1.751700680272109,-1.751700680272109,-1.751700680272109,-1.751700680272109,-1.751700680272109,-1.751700680272109,-1.751700680272109,-1.751700680272109,-1.751700680272109,-1.751700680272109,-1.751700680272109,-1.751700680272109,-1.751700680272109,-1.751700680272109,-1.751700680272109,-1.751700680272109,-1.751700680272109,-1.751700680272109,-1.751700680272109,-1.751700680272109,-1.751700680272109,-1.751700680272109,-1.751700680272109,-1.751700680272109,-1.751700680272109,-1.751700680272109,-1.751700680272109,-1.751700680272109,-1.751700680272109,-1.751700680272109,-1.751700680272109,-1.751700680272109,-1.751700680272109,-1.751700680272109,-1.751700680272109,-1.751700680272109,-1.751700680272109,-1.751700680272109,-1.751700680272109,-1.751700680272109,-1.751700680272109,-1.751700680272109,-1.751700680272109,-1.751700680272109,-1.751700680272109,-1.751700680272109,-1.751700680272109,-1.751700680272109,-1.751700680272109,-1.751700680272109,-1.751700680272109,-1.751700680272109,-1.751700680272109,-1.751700680272109,-1.751700680272109,-1.751700680272109,-1.751700680272109,-1.751700680272109,-1.751700680272109,-1.751700680272109,-1.751700680272109,-1.751700680272109,-1.751700680272109,-1.751700680272109,-1.751700680272109,-1.751700680272109,-1.751700680272109,-1.751700680272109,-1.751700680272109,-1.751700680272109,-1.751700680272109,-1.751700680272109,-1.751700680272109,-1.751700680272109,-1.751700680272109,-1.751700680272109,-1.751700680272109,-1.751700680272109,-1.751700680272109,-1.751700680272109,-1.751700680272109,-1.751700680272109,-1.751700680272109,-1.751700680272109,-1.751700680272109,-1.751700680272109,-1.751700680272109,-1.751700680272109,-1.751700680272109,-1.751700680272109,-1.751700680272109,-1.751700680272109,-1.751700680272109,-1.751700680272109,-1.751700680272109,-1.751700680272109,-1.751700680272109,-1.751700680272109,-1.751700680272109,-1.751700680272109,-1.751700680272109,-1.751700680272109,-1.751700680272109,-1.751700680272109,-1.751700680272109,-1.751700680272109,-1.751700680272109,-1.751700680272109,-1.751700680272109,-1.751700680272109,-1.751700680272109,-1.751700680272109,-1.751700680272109,-1.751700680272109,-1.751700680272109,-1.751700680272109,-1.751700680272109,-1.751700680272109,-1.751700680272109,-1.751700680272109,-1.751700680272109,-1.751700680272109,-1.751700680272109,-1.751700680272109,-1.751700680272109,-1.751700680272109,-1.751700680272109,-1.751700680272109,-1.751700680272109,-1.751700680272109,-1.751700680272109,-1.751700680272109,-1.751700680272109,-1.751700680272109,-1.751700680272109,-1.751700680272109,-1.751700680272109,-1.751700680272109,-1.751700680272109,-1.751700680272109,-1.751700680272109,-1.751700680272109,-1.751700680272109,-1.751700680272109,-1.751700680272109,-1.751700680272109,-1.751700680272109,-1.751700680272109,-1.751700680272109,-1.751700680272109,-1.751700680272109,-1.751700680272109,-1.751700680272109,-1.751700680272109,-1.751700680272109,-1.751700680272109,-1.751700680272109,-1.751700680272109,-1.751700680272109,-1.751700680272109,-1.751700680272109,-1.751700680272109,-1.751700680272109,-1.751700680272109,-1.751700680272109,-1.751700680272109,-1.751700680272109,-1.751700680272109,-1.751700680272109,-1.751700680272109,-1.751700680272109,-1.751700680272109,-1.751700680272109,-1.751700680272109,-1.751700680272109,-1.751700680272109,-1.751700680272109,-1.751700680272109,-1.751700680272109,-1.751700680272109,-1.751700680272109,-1.751700680272109,-1.751700680272109,-1.751700680272109,-1.751700680272109,-1.751700680272109,-1.751700680272109,-1.751700680272109,-1.751700680272109,-1.751700680272109,-1.751700680272109,-1.751700680272109,-1.751700680272109,-1.751700680272109,-1.751700680272109,-1.751700680272109,-1.751700680272109,-1.751700680272109,-1.751700680272109,-1.751700680272109,-1.751700680272109,-1.751700680272109,-1.751700680272109,-1.751700680272109,-1.751700680272109,-1.751700680272109,-1.751700680272109,-1.751700680272109,-1.751700680272109,-1.751700680272109,-1.751700680272109,-1.751700680272109,-1.751700680272109,-1.751700680272109,-1.751700680272109,-1.751700680272109,-1.751700680272109,-1.751700680272109,-1.751700680272109,-1.751700680272109,-1.751700680272109,-1.751700680272109,-1.751700680272109,-1.751700680272109,-1.751700680272109,-1.751700680272109,-1.751700680272109,-1.751700680272109,-1.751700680272109,-1.751700680272109,-1.751700680272109,-1.751700680272109,-1.751700680272109,-1.751700680272109,-1.751700680272109,-1.751700680272109,-1.751700680272109,-1.751700680272109,-1.751700680272109,-1.751700680272109,-1.751700680272109,-1.751700680272109,-1.751700680272109,-1.751700680272109,-1.751700680272109,-1.751700680272109,-1.751700680272109,-1.751700680272109,-1.751700680272109,-1.751700680272109,-1.751700680272109,-1.751700680272109,-1.751700680272109,-1.751700680272109,-1.751700680272109,-1.751700680272109,-1.751700680272109,-1.751700680272109,-1.751700680272109,-1.751700680272109,-1.751700680272109,-1.751700680272109,-1.751700680272109,-1.751700680272109,-1.751700680272109,-1.751700680272109,-1.751700680272109,-1.751700680272109,-1.751700680272109,-1.751700680272109,-1.751700680272109,-1.751700680272109,-1.751700680272109,-1.751700680272109,-1.751700680272109,-1.751700680272109,-1.751700680272109,-1.751700680272109,-1.751700680272109,-1.751700680272109,-1.751700680272109,-1.751700680272109,-1.751700680272109,-1.751700680272109,-1.751700680272109,-1.751700680272109,-1.751700680272109,-1.751700680272109,-1.751700680272109,-1.751700680272109,-1.751700680272109,-1.751700680272109,-1.751700680272109,-1.751700680272109,-1.751700680272109,-1.751700680272109,-1.751700680272109,-1.751700680272109,-1.751700680272109,-1.751700680272109,-1.751700680272109,-1.751700680272109,-1.751700680272109,-1.751700680272109,-1.751700680272109,-1.751700680272109,-1.751700680272109,-1.751700680272109,-1.751700680272109,-1.751700680272109,-1.751700680272109,-1.751700680272109,-1.751700680272109,-1.751700680272109,-1.751700680272109,-1.751700680272109,-1.751700680272109,-1.751700680272109,-1.751700680272109,-1.751700680272109,-1.751700680272109,-1.751700680272109,-1.751700680272109,-1.751700680272109,-1.751700680272109,-1.751700680272109,-1.751700680272109,-1.751700680272109,-1.751700680272109,-1.751700680272109,-1.751700680272109,-1.751700680272109,-1.751700680272109,-1.751700680272109,-1.751700680272109,-1.751700680272109,-1.751700680272109,-1.751700680272109,-1.751700680272109,-1.751700680272109,-1.751700680272109,-1.751700680272109,-1.751700680272109,-1.751700680272109,-1.751700680272109,-1.751700680272109,-1.751700680272109,-1.751700680272109,-1.751700680272109,-1.751700680272109,-1.751700680272109,-1.751700680272109,-1.751700680272109,-1.751700680272109,-1.751700680272109,-1.751700680272109,-1.751700680272109,-1.751700680272109,-1.751700680272109,-1.751700680272109,-1.751700680272109,-1.751700680272109,-1.751700680272109,-1.751700680272109,-1.751700680272109,-1.751700680272109,-1.751700680272109,-1.751700680272109,-1.751700680272109,-1.751700680272109,-1.751700680272109,-1.751700680272109,-1.751700680272109,-1.751700680272109,-1.751700680272109,-1.751700680272109,-1.751700680272109,-1.751700680272109,-1.751700680272109,-1.751700680272109,-1.751700680272109,-1.751700680272109,-1.751700680272109,-1.751700680272109,-1.751700680272109,-1.751700680272109,-1.751700680272109,-1.751700680272109,-1.751700680272109,-1.751700680272109,-1.751700680272109,-1.751700680272109,-1.751700680272109,-1.751700680272109,-1.751700680272109,-1.751700680272109,-1.751700680272109,-1.751700680272109,-1.751700680272109,-1.751700680272109,-1.751700680272109,-1.751700680272109,-1.751700680272109,-1.751700680272109,-1.751700680272109,-1.751700680272109,-1.751700680272109,-1.751700680272109,-1.751700680272109,-1.751700680272109,-1.751700680272109,-1.751700680272109,-1.751700680272109,-1.751700680272109,-1.751700680272109,-1.751700680272109,-1.751700680272109,-1.751700680272109,-1.751700680272109,-1.751700680272109,-1.751700680272109,-1.751700680272109,-1.751700680272109,-1.751700680272109,-1.751700680272109,-1.751700680272109,-1.751700680272109,-1.751700680272109,-1.751700680272109,-1.751700680272109,-1.751700680272109,-1.751700680272109,-1.751700680272109,-1.751700680272109,-1.751700680272109,-1.751700680272109,-1.751700680272109,-1.751700680272109,-1.751700680272109,-1.751700680272109,-1.751700680272109,-1.751700680272109,-1.751700680272109,-1.751700680272109,-1.751700680272109,-1.751700680272109,-1.751700680272109,-1.751700680272109,-1.751700680272109,-1.751700680272109,-1.751700680272109,-1.751700680272109,-1.751700680272109,-1.751700680272109,-1.751700680272109,-1.751700680272109,-1.751700680272109,-1.751700680272109,-1.751700680272109,-1.751700680272109,-1.751700680272109,-1.751700680272109,-1.751700680272109,-1.751700680272109,-1.751700680272109,-1.751700680272109,-1.751700680272109,-1.751700680272109,-1.751700680272109,-0.006802721088435374,-0.006802721088435374,-0.006802721088435374,-0.006802721088435374,-0.006802721088435374,-0.006802721088435374,-0.006802721088435374,-0.006802721088435374,-0.006802721088435374,-0.006802721088435374,-0.006802721088435374,-0.006802721088435374,-0.006802721088435374,-0.006802721088435374,-0.006802721088435374,-0.006802721088435374,-0.006802721088435374,-0.006802721088435374,-0.006802721088435374,-0.006802721088435374,-0.006802721088435374,-0.006802721088435374,-0.006802721088435374,-0.006802721088435374,-0.006802721088435374,-0.006802721088435374,-0.006802721088435374,-0.006802721088435374,0.006802721088435374,0.017006802721088437,0.03741496598639456,0.08163265306122448,0.1360544217687075,0.14965986394557823,0.1564625850340136,0.1598639455782313,0.16326530612244897,0.17006802721088435,0.17346938775510204,0.17687074829931973,0.19047619047619047,0.24149659863945577,0.282312925170068,0.3231292517006803,0.43197278911564624,0.47959183673469385,0.5544217687074829,0.5952380952380952,0.6462585034013606,0.7380952380952381,0.782312925170068,0.8061224489795918,0.826530612244898,0.826530612244898,0.826530612244898,0.826530612244898,0.826530612244898,0.826530612244898,0.826530612244898,0.826530612244898,0.826530612244898,0.826530612244898,0.826530612244898,0.826530612244898,0.826530612244898,0.826530612244898,0.826530612244898,0.8333333333333334,0.8435374149659864,0.8639455782312925,0.8707482993197279,0.8809523809523809,0.8877551020408163,0.8945578231292517,0.9081632653061225,0.9149659863945578,0.9251700680272109,0.9421768707482994,0.9455782312925171,0.9523809523809523,0.95578231292517,0.9659863945578231,0.9693877551020408,0.9727891156462585,0.9795918367346939,0.9829931972789115,0.9829931972789115,0.9829931972789115,0.9863945578231292,0.9863945578231292,0.9965986394557823,0.9965986394557823,1.0034013605442176,1.0136054421768708,1.0204081632653061,1.0204081632653061,1.0204081632653061,1.0204081632653061,1.0204081632653061,1.0204081632653061,1.0204081632653061,1.0204081632653061,1.0204081632653061,1.0204081632653061,1.0204081632653061,1.0204081632653061,1.0204081632653061,1.0204081632653061,1.0204081632653061,1.0204081632653061,1.0204081632653061,1.0204081632653061,1.0204081632653061,1.0204081632653061,1.0204081632653061,1.0204081632653061,1.0204081632653061,1.0204081632653061,1.0204081632653061,1.0204081632653061,1.0204081632653061,1.0204081632653061,1.0204081632653061,1.0204081632653061,1.0204081632653061,1.0204081632653061,1.0204081632653061,1.0204081632653061,1.0204081632653061,1.0204081632653061,1.0204081632653061,1.0204081632653061,1.0204081632653061,1.0204081632653061,1.0204081632653061,1.0204081632653061,1.0204081632653061,1.0204081632653061,1.0204081632653061,1.0204081632653061,1.0204081632653061,1.0204081632653061,1.0204081632653061,1.0204081632653061,1.0204081632653061,1.0204081632653061,1.0204081632653061,1.0204081632653061,1.0204081632653061,1.0204081632653061,1.0204081632653061,1.0204081632653061,1.0204081632653061,1.0204081632653061,1.0204081632653061,1.0204081632653061,1.0204081632653061,1.0204081632653061,1.0204081632653061,1.0204081632653061,1.0204081632653061,1.0204081632653061,1.0204081632653061,1.0204081632653061,1.0204081632653061,1.0204081632653061,1.0204081632653061,1.0204081632653061,1.0204081632653061,1.0204081632653061,1.0204081632653061,1.0204081632653061,1.0204081632653061,1.0204081632653061,1.0204081632653061,1.0204081632653061,1.0204081632653061,1.0204081632653061,1.0204081632653061,1.0204081632653061,1.0204081632653061,1.0204081632653061,1.0204081632653061,1.0204081632653061,1.0204081632653061,1.0204081632653061,1.0204081632653061,1.0204081632653061,1.0204081632653061,1.0204081632653061,1.0204081632653061,1.0204081632653061,1.0204081632653061,1.0204081632653061,1.0204081632653061,1.0204081632653061,1.0204081632653061,1.0204081632653061,1.0204081632653061,1.0204081632653061,1.0204081632653061,1.0204081632653061,1.0204081632653061,1.0204081632653061,1.0204081632653061,1.0204081632653061,1.0204081632653061,1.0204081632653061,1.0204081632653061,1.0204081632653061,1.0204081632653061,1.0204081632653061,1.0204081632653061,1.0204081632653061,1.0204081632653061,1.0204081632653061,1.0204081632653061,1.0204081632653061,1.0204081632653061,1.0204081632653061,1.0204081632653061,1.0204081632653061,1.0204081632653061,1.0204081632653061,1.0204081632653061,1.0204081632653061,1.0204081632653061,1.0204081632653061,1.0204081632653061,1.0204081632653061,1.0204081632653061,1.0204081632653061,1.0204081632653061,1.0204081632653061,1.0204081632653061,1.0204081632653061,1.0204081632653061,1.0204081632653061,1.0204081632653061,1.0204081632653061,1.0204081632653061,1.0204081632653061,1.0204081632653061,1.0204081632653061,1.0204081632653061,1.0204081632653061,1.0204081632653061,1.0204081632653061,1.0204081632653061,1.0204081632653061,1.0204081632653061,1.0204081632653061,1.0204081632653061,1.0204081632653061,1.0204081632653061,1.0204081632653061,1.0204081632653061,1.0204081632653061,1.0204081632653061,1.0204081632653061,1.0204081632653061,1.0204081632653061,1.0204081632653061,1.0204081632653061,1.0204081632653061,1.0204081632653061,1.0204081632653061,1.0204081632653061,1.0204081632653061,1.0204081632653061,1.0204081632653061,1.0204081632653061,1.0204081632653061,1.0204081632653061,1.0204081632653061,1.0204081632653061,1.0204081632653061,1.0204081632653061,1.0204081632653061,1.0204081632653061,1.0204081632653061,1.0204081632653061,1.0204081632653061,1.0204081632653061,1.0204081632653061,1.0204081632653061,1.0204081632653061,1.0204081632653061,1.0204081632653061,1.0204081632653061,1.0204081632653061,1.0204081632653061,1.0204081632653061,1.0204081632653061,1.0204081632653061,1.0204081632653061,1.0204081632653061,1.0204081632653061,1.0204081632653061,1.0204081632653061,1.0204081632653061,1.0204081632653061,1.0204081632653061,1.0204081632653061,1.0204081632653061,1.0204081632653061,1.0204081632653061,1.0204081632653061,1.0204081632653061,1.0204081632653061,1.0204081632653061,1.0204081632653061,1.0204081632653061,1.0204081632653061,1.0204081632653061,1.0204081632653061,1.0204081632653061,1.0204081632653061,1.0204081632653061,1.0204081632653061,1.0204081632653061,1.0204081632653061,1.0204081632653061,1.0204081632653061,1.0204081632653061,1.0204081632653061,1.0204081632653061,1.0204081632653061,1.0204081632653061,1.0204081632653061,1.0204081632653061,1.0204081632653061,1.0204081632653061,1.0204081632653061,1.0204081632653061,1.0204081632653061,1.0204081632653061,1.0204081632653061,1.0204081632653061,1.0204081632653061,1.0204081632653061,1.0204081632653061,1.0204081632653061,1.0204081632653061,1.0204081632653061,1.0204081632653061,1.0204081632653061,1.0204081632653061,1.0204081632653061,1.0204081632653061,1.0204081632653061,1.0204081632653061,1.0204081632653061,1.0204081632653061,1.0204081632653061,1.0204081632653061,1.0204081632653061,1.0204081632653061,1.0204081632653061,1.0204081632653061,1.0204081632653061,1.0204081632653061,1.0204081632653061,1.0204081632653061,1.0204081632653061,1.0204081632653061,1.0204081632653061,1.0204081632653061,1.0204081632653061,1.0204081632653061,1.0204081632653061,1.0204081632653061,1.0204081632653061,1.0204081632653061,1.0204081632653061,1.0204081632653061,1.0204081632653061,1.0204081632653061,1.0204081632653061,1.0204081632653061,1.0204081632653061,1.0204081632653061,1.0204081632653061,1.0204081632653061,1.0204081632653061,1.0204081632653061,1.0204081632653061,1.0204081632653061,1.0204081632653061,1.0204081632653061,1.0204081632653061,1.0204081632653061,1.0204081632653061,1.0204081632653061,1.0204081632653061,1.0204081632653061,1.0204081632653061,1.0204081632653061,1.0204081632653061,1.0204081632653061,1.0204081632653061,1.0204081632653061,1.0204081632653061,1.0204081632653061,1.0204081632653061,1.0204081632653061,1.0204081632653061,1.0204081632653061,1.0204081632653061,1.0204081632653061,1.0204081632653061,1.0204081632653061,1.0204081632653061,1.0204081632653061,1.0204081632653061,1.0204081632653061,1.0204081632653061,1.0204081632653061,1.0204081632653061,1.0204081632653061,1.0204081632653061,1.0204081632653061,1.0204081632653061,1.0204081632653061,1.0204081632653061,1.0204081632653061,1.0204081632653061,1.0204081632653061,1.0204081632653061,1.0204081632653061,1.0204081632653061,1.0204081632653061,1.0204081632653061,1.0204081632653061,1.0204081632653061,1.0204081632653061,1.0204081632653061,1.0204081632653061,1.0204081632653061,1.0204081632653061,1.0204081632653061,1.0204081632653061,1.0204081632653061,1.0204081632653061,1.0204081632653061,1.0204081632653061,1.0204081632653061,1.0204081632653061,1.0204081632653061,1.0204081632653061,1.0204081632653061,1.0204081632653061,1.0204081632653061,1.0204081632653061,1.0204081632653061,1.0204081632653061,1.0204081632653061,1.0204081632653061,1.0204081632653061,1.0204081632653061,1.0204081632653061,1.0204081632653061,1.0204081632653061,1.0204081632653061,1.0204081632653061,1.0204081632653061,1.0204081632653061,1.0204081632653061,1.0204081632653061,1.0204081632653061,1.0204081632653061,1.0204081632653061,1.0204081632653061,1.0204081632653061,1.0204081632653061,1.0204081632653061,1.0204081632653061,1.0204081632653061,1.0204081632653061,1.0204081632653061,1.0204081632653061,1.0204081632653061,1.0204081632653061,1.0204081632653061,1.0204081632653061,1.0204081632653061,1.0204081632653061,1.0204081632653061,1.0204081632653061,1.0204081632653061,1.0204081632653061,1.0204081632653061,1.0204081632653061,1.0204081632653061,1.0204081632653061,1.0204081632653061,1.0204081632653061,1.0204081632653061,1.0204081632653061,1.0204081632653061,1.0204081632653061,1.0204081632653061,1.0204081632653061,1.0204081632653061,1.0204081632653061,1.0204081632653061,1.0204081632653061,1.0204081632653061,1.0204081632653061,1.0204081632653061,1.0204081632653061,1.0204081632653061,1.0204081632653061,1.0204081632653061,1.0204081632653061,1.0204081632653061,1.0204081632653061,1.0204081632653061,1.0204081632653061,1.0204081632653061,1.0204081632653061,1.0204081632653061,1.0204081632653061,1.0204081632653061,1.0204081632653061,1.0204081632653061,1.0204081632653061,1.0204081632653061,1.0204081632653061,1.0204081632653061,1.0204081632653061,1.0204081632653061,1.0204081632653061,1.0204081632653061,1.0204081632653061,1.0204081632653061,1.0204081632653061,1.0204081632653061,1.0204081632653061,1.0204081632653061,1.0204081632653061,1.0204081632653061,1.0204081632653061,1.0204081632653061,1.0204081632653061,1.0204081632653061,1.0204081632653061,1.0204081632653061,1.0204081632653061,1.0204081632653061,1.0204081632653061,1.0204081632653061,1.0204081632653061,1.0204081632653061,1.0204081632653061,1.0204081632653061,1.0204081632653061,1.0204081632653061,1.0204081632653061,1.0204081632653061,1.0204081632653061,1.0204081632653061,1.0204081632653061,1.0204081632653061,1.0204081632653061,1.0204081632653061,1.0204081632653061,1.0204081632653061,1.0204081632653061,1.0204081632653061,1.0204081632653061,1.0204081632653061,1.0204081632653061,1.0204081632653061,1.0204081632653061,1.0204081632653061,1.0204081632653061,1.0204081632653061,1.0204081632653061,1.0136054421768708,0.9829931972789115,0.9455782312925171,0.8945578231292517,0.7687074829931972,0.6870748299319728,0.6224489795918368,0.5272108843537415,0.48299319727891155,0.4523809523809524,0.41836734693877553,0.3673469387755102,0.3469387755102041,0.3299319727891156,0.3299319727891156,0.3299319727891156,0.3299319727891156,0.3299319727891156,0.3299319727891156,0.3299319727891156,0.3299319727891156,0.3299319727891156,0.3299319727891156,0.3299319727891156,0.3299319727891156,0.3299319727891156,0.3299319727891156,0.3299319727891156,0.3299319727891156,0.3299319727891156,0.3299319727891156,0.3299319727891156,0.3299319727891156,0.3299319727891156,0.3299319727891156,0.3299319727891156,0.3299319727891156,0.3299319727891156,0.3299319727891156,0.3299319727891156,0.3299319727891156,0.3299319727891156,0.3299319727891156,0.3299319727891156,0.3299319727891156,0.3299319727891156,0.3299319727891156,0.3299319727891156,0.3299319727891156,0.3299319727891156,0.3299319727891156,0.3299319727891156,0.3299319727891156,0.3299319727891156,0.3299319727891156,0.3299319727891156,0.3299319727891156,0.3299319727891156,0.3299319727891156,0.3299319727891156,0.3299319727891156,0.32653061224489793,0.32653061224489793,0.32653061224489793,0.3231292517006803,0.3231292517006803,0.3197278911564626,0.3163265306122449,0.3163265306122449,0.3129251700680272,0.30952380952380953,0.30952380952380953,0.30612244897959184,0.30612244897959184,0.30272108843537415,0.30272108843537415,0.30272108843537415,0.30272108843537415,0.30272108843537415,0.30272108843537415,0.30272108843537415,0.30272108843537415,0.30272108843537415,0.30272108843537415,0.30272108843537415,0.30272108843537415,0.30272108843537415,0.30272108843537415,0.30272108843537415,0.30272108843537415,0.30272108843537415,0.30272108843537415,0.30272108843537415,0.30272108843537415,0.30272108843537415,0.30272108843537415,0.30272108843537415,0.30272108843537415,0.30272108843537415,0.30272108843537415,0.30272108843537415,0.30272108843537415,0.30272108843537415,0.30272108843537415,0.30272108843537415,0.30272108843537415,0.30272108843537415,0.30272108843537415,0.30272108843537415,0.30272108843537415,0.30272108843537415,0.30272108843537415,0.30272108843537415,0.30272108843537415,0.30272108843537415,0.30272108843537415,0.30272108843537415,0.30272108843537415,0.30272108843537415,0.30272108843537415,0.30272108843537415,0.30272108843537415,0.30272108843537415,0.30272108843537415,0.30272108843537415,0.30272108843537415,0.30272108843537415,0.30272108843537415,0.30272108843537415,0.30272108843537415,0.30272108843537415,0.30272108843537415,0.30272108843537415,0.30272108843537415,0.30272108843537415,0.30272108843537415,0.30272108843537415,0.30272108843537415,0.30272108843537415,0.30272108843537415,0.30272108843537415,0.30272108843537415,0.30272108843537415,0.30272108843537415,0.30272108843537415,0.30272108843537415,0.30272108843537415,0.30272108843537415,0.30272108843537415,0.30272108843537415,0.30272108843537415,0.30272108843537415,0.30272108843537415,0.30272108843537415,0.30272108843537415,0.30272108843537415,0.30272108843537415,0.30272108843537415,0.30272108843537415,0.30272108843537415,0.30272108843537415,0.30272108843537415,0.30272108843537415,0.30272108843537415,0.30272108843537415,0.30272108843537415,0.30272108843537415,0.30272108843537415,0.30272108843537415,0.30272108843537415,0.30272108843537415,0.30272108843537415,0.30272108843537415,0.30272108843537415,0.30272108843537415,0.30272108843537415,0.30272108843537415,0.30272108843537415,0.30272108843537415,0.30272108843537415,0.30272108843537415,0.30272108843537415,0.30272108843537415,0.30272108843537415,0.30272108843537415,0.30272108843537415,0.30272108843537415,0.30272108843537415,0.30272108843537415,0.30272108843537415,0.30272108843537415,0.30272108843537415,0.30272108843537415,0.30272108843537415,0.30272108843537415,0.30272108843537415,0.30272108843537415,0.30272108843537415,0.30272108843537415,0.30272108843537415,0.30272108843537415,0.30272108843537415,0.30272108843537415,0.30272108843537415,0.30272108843537415,0.30272108843537415,0.30272108843537415,0.30272108843537415,0.30272108843537415,0.30272108843537415,0.30272108843537415,0.30272108843537415,0.30272108843537415,0.30272108843537415,0.30272108843537415,0.30272108843537415,0.30272108843537415,0.30272108843537415,0.30272108843537415,0.30272108843537415,0.30272108843537415,0.30272108843537415,0.30272108843537415,0.30272108843537415,0.30272108843537415,0.30272108843537415,0.30272108843537415,0.30272108843537415,0.30272108843537415,0.30272108843537415,0.30272108843537415,0.30272108843537415,0.30272108843537415,0.30272108843537415,0.30272108843537415,0.30272108843537415,0.30272108843537415,0.30272108843537415,0.30272108843537415,0.30272108843537415,0.30272108843537415,0.30272108843537415,0.30272108843537415,0.30272108843537415,0.30272108843537415,0.30272108843537415,0.30272108843537415,0.30272108843537415,0.30272108843537415,0.30272108843537415,0.30272108843537415,0.30272108843537415,0.30272108843537415,0.30272108843537415,0.30272108843537415,0.30272108843537415,0.30272108843537415,0.30272108843537415,0.30272108843537415,0.30272108843537415,0.30272108843537415,0.30272108843537415,0.30272108843537415,0.30272108843537415,0.30272108843537415,0.30272108843537415,0.30272108843537415,0.30272108843537415,0.30272108843537415,0.30272108843537415,0.30272108843537415,0.30272108843537415,0.30272108843537415,0.30272108843537415,0.30272108843537415,0.30272108843537415,0.30272108843537415,0.30272108843537415,0.30272108843537415,0.30272108843537415,0.30272108843537415,0.30272108843537415,0.30272108843537415,0.30272108843537415,0.30272108843537415,0.30272108843537415,0.30272108843537415,0.30272108843537415,0.30272108843537415,0.30272108843537415,0.30272108843537415,0.30272108843537415,0.30272108843537415,0.30272108843537415,0.30272108843537415,0.30272108843537415,0.30272108843537415,0.30272108843537415,0.30272108843537415,0.30272108843537415,0.30272108843537415,0.30272108843537415,0.30272108843537415,0.30272108843537415,0.30272108843537415,0.30272108843537415,0.30272108843537415,0.30272108843537415,0.30272108843537415,0.30272108843537415,0.30272108843537415,0.30272108843537415,0.30272108843537415,0.30272108843537415,0.30272108843537415,0.30272108843537415,0.30272108843537415,0.30272108843537415,0.30272108843537415,0.30272108843537415,0.30272108843537415,0.30272108843537415,0.30272108843537415,0.30272108843537415,0.30272108843537415,0.30272108843537415,0.30272108843537415,0.30272108843537415,0.30272108843537415,0.30272108843537415,0.30272108843537415,0.30272108843537415,0.30272108843537415,0.30272108843537415,0.30272108843537415,0.30272108843537415,0.30272108843537415,0.30272108843537415,0.30272108843537415,0.30272108843537415,0.30272108843537415,0.30272108843537415,0.30272108843537415,0.30272108843537415,0.30272108843537415,0.30272108843537415,0.30272108843537415,0.30272108843537415,0.30272108843537415,0.30272108843537415,0.30272108843537415,0.30272108843537415,0.30272108843537415,0.30272108843537415,0.30272108843537415,0.30272108843537415,0.30272108843537415,0.30272108843537415,0.30272108843537415,0.30272108843537415,0.30272108843537415,0.30272108843537415,0.30272108843537415,0.30272108843537415,0.30272108843537415,0.30272108843537415,0.30272108843537415,0.30272108843537415,0.30272108843537415,0.30272108843537415,0.30272108843537415,0.30272108843537415,0.30272108843537415,0.30272108843537415,0.30272108843537415,0.30272108843537415,0.30272108843537415,0.30272108843537415,0.30272108843537415,0.30272108843537415,0.30272108843537415,0.30272108843537415,0.30272108843537415,0.30272108843537415,0.30272108843537415,0.30272108843537415,0.30272108843537415,0.30272108843537415,0.30272108843537415,0.30272108843537415,0.30272108843537415,0.30272108843537415,0.30272108843537415,0.30272108843537415,0.30272108843537415,0.30272108843537415,0.30272108843537415,0.30272108843537415,0.30272108843537415,0.30272108843537415,0.30272108843537415,0.30272108843537415,0.30272108843537415,0.30272108843537415,0.30272108843537415,0.30272108843537415,0.30272108843537415,0.30272108843537415,0.30272108843537415,0.30272108843537415,0.30272108843537415,0.30272108843537415,0.30272108843537415,0.30272108843537415,0.30272108843537415,0.30272108843537415,0.30272108843537415,0.30952380952380953,0.336734693877551,0.43537414965986393,0.5680272108843537,0.7040816326530612,0.9693877551020408,1.0680272108843538,1.1700680272108843,1.2006802721088434,1.217687074829932,1.2244897959183674,1.2244897959183674,1.227891156462585,1.227891156462585,1.227891156462585,1.2244897959183674,1.1904761904761905,1.1802721088435375,1.1734693877551021,1.1598639455782314,1.1496598639455782,1.1360544217687074,1.0918367346938775,1.0816326530612246,1.0714285714285714,1.0612244897959184,1.0578231292517006,1.0442176870748299,1.0272108843537415,1.0204081632653061,1.0204081632653061,1.0170068027210883,1.010204081632653,1.010204081632653,1.0068027210884354,1.0034013605442176,0.9965986394557823,0.9965986394557823,0.9965986394557823,0.9931972789115646,0.9931972789115646,0.9931972789115646,0.9931972789115646,0.9931972789115646,0.9931972789115646,0.9931972789115646,0.9931972789115646,0.9931972789115646,0.9931972789115646,0.9931972789115646,0.9931972789115646,0.9931972789115646,0.9931972789115646,0.9931972789115646,0.9931972789115646,0.9931972789115646,0.9931972789115646,0.9931972789115646,0.9931972789115646,0.9931972789115646,0.9931972789115646,0.9931972789115646,0.9931972789115646,0.9931972789115646,0.9931972789115646,0.9931972789115646,0.9931972789115646,0.9931972789115646,0.9931972789115646,0.9931972789115646,0.9931972789115646,0.9931972789115646,0.9931972789115646,0.9931972789115646,0.9931972789115646,0.9931972789115646,0.9931972789115646,0.9931972789115646,0.9931972789115646,0.9931972789115646,0.9931972789115646,0.9931972789115646,0.9931972789115646,0.9931972789115646,0.9931972789115646,0.9931972789115646,0.9931972789115646,0.9931972789115646,0.9931972789115646,0.9931972789115646,0.9931972789115646,0.9931972789115646,0.9931972789115646,0.9931972789115646,0.9931972789115646,0.9931972789115646,0.9931972789115646,0.9931972789115646,0.9931972789115646,0.9931972789115646,0.9931972789115646,0.9931972789115646,0.9931972789115646,0.9931972789115646,0.9931972789115646,0.9931972789115646,0.9931972789115646,0.9931972789115646,0.9931972789115646,0.9931972789115646,0.9931972789115646,0.9931972789115646,0.9931972789115646,0.9931972789115646,0.9931972789115646,0.9931972789115646,0.9931972789115646,0.9931972789115646,0.9931972789115646,0.9931972789115646,0.9931972789115646,0.9931972789115646,0.9931972789115646,0.9931972789115646,0.9931972789115646,0.9931972789115646,0.9931972789115646,0.9897959183673469,0.9829931972789115,0.95578231292517,0.8843537414965986,0.7891156462585034,0.6972789115646258,0.5068027210884354,0.4387755102040816,0.40476190476190477,0.3673469387755102,0.36054421768707484,0.35374149659863946,0.35374149659863946,0.35374149659863946,0.35374149659863946,0.35374149659863946,0.35374149659863946,0.35374149659863946,0.35374149659863946,0.35374149659863946,0.35374149659863946,0.35374149659863946,0.35374149659863946,0.35374149659863946,0.35374149659863946,0.35374149659863946,0.35374149659863946,0.35374149659863946,0.35714285714285715,0.37755102040816324,0.46938775510204084,0.5,0.5170068027210885,0.5238095238095238,0.5306122448979592,0.5340136054421769,0.5340136054421769,0.5340136054421769,0.5340136054421769,0.5340136054421769,0.5374149659863946,0.5374149659863946,0.5374149659863946,0.5374149659863946,0.5374149659863946,0.5374149659863946,0.5374149659863946,0.5374149659863946,0.5374149659863946,0.5408163265306123,0.5408163265306123,0.54421768707483,0.54421768707483,0.54421768707483,0.5476190476190477,0.5476190476190477,0.5476190476190477,0.5476190476190477,0.5476190476190477,0.5476190476190477,0.5476190476190477,0.5476190476190477,0.5476190476190477,0.5476190476190477,0.5476190476190477,0.5476190476190477,0.5476190476190477,0.5476190476190477,0.5476190476190477,0.5476190476190477,0.5476190476190477,0.5476190476190477,0.5476190476190477,0.5476190476190477,0.5476190476190477,0.5476190476190477,0.5476190476190477,0.5476190476190477,0.5476190476190477,0.5476190476190477,0.5476190476190477,0.5476190476190477,0.5476190476190477,0.5476190476190477,0.5476190476190477,0.5476190476190477,0.5476190476190477,0.5476190476190477,0.5476190476190477,0.5476190476190477,0.5476190476190477,0.5476190476190477,0.5476190476190477,0.5476190476190477,0.5476190476190477,0.5476190476190477,0.5476190476190477,0.5476190476190477,0.5476190476190477,0.5476190476190477,0.5476190476190477,0.5476190476190477,0.5476190476190477,0.5476190476190477,0.5476190476190477,0.5476190476190477,0.5476190476190477,0.5476190476190477,0.5476190476190477,0.5476190476190477,0.5476190476190477,0.5476190476190477,0.5476190476190477,0.5476190476190477,0.5476190476190477,0.5476190476190477,0.5476190476190477,0.5476190476190477,0.5476190476190477,0.5476190476190477,0.5476190476190477,0.5476190476190477,0.5476190476190477,0.5476190476190477,0.5476190476190477,0.5476190476190477,0.5476190476190477,0.5476190476190477,0.5476190476190477,0.5476190476190477,0.5476190476190477,0.5476190476190477,0.5476190476190477,0.54421768707483,0.5340136054421769,0.5136054421768708,0.5,0.48639455782312924,0.47959183673469385,0.46598639455782315,0.46598639455782315,0.45918367346938777,0.45918367346938777,0.4557823129251701,0.4557823129251701,0.4523809523809524,0.4523809523809524,0.4523809523809524,0.42857142857142855,0.4013605442176871,0.3741496598639456,0.3163265306122449,0.29591836734693877,0.2857142857142857,0.2687074829931973,0.2585034013605442,0.25170068027210885,0.23809523809523808,0.22789115646258504,0.2108843537414966,0.20748299319727892,0.20068027210884354,0.19727891156462585,0.19727891156462585,0.19727891156462585,0.19727891156462585,0.19727891156462585,0.19727891156462585,0.19727891156462585,0.19727891156462585,0.19727891156462585,0.19727891156462585,0.19387755102040816,0.19387755102040816,0.19047619047619047,0.1870748299319728,0.1836734693877551,0.1836734693877551,0.18027210884353742,0.17687074829931973,0.17346938775510204,0.16666666666666666,0.16666666666666666,0.16326530612244897,0.1598639455782313,0.1564625850340136,0.15306122448979592,0.15306122448979592,0.15306122448979592,0.15306122448979592,0.15306122448979592,0.15306122448979592,0.15306122448979592,0.15306122448979592,0.15306122448979592,0.15306122448979592,0.15306122448979592,0.15306122448979592,0.15306122448979592,0.15306122448979592,0.15306122448979592,0.15306122448979592,0.15306122448979592,0.15306122448979592,0.15306122448979592,0.15306122448979592,0.15306122448979592,0.15306122448979592,0.15306122448979592,0.15306122448979592,0.15306122448979592,0.15306122448979592,0.15306122448979592,0.15306122448979592,0.15306122448979592,0.15306122448979592,0.15306122448979592,0.15306122448979592,0.15306122448979592,0.15306122448979592,0.15306122448979592,0.15306122448979592,0.15306122448979592,0.15306122448979592,0.15306122448979592,0.15306122448979592,0.15306122448979592,0.15306122448979592,0.15306122448979592,0.15306122448979592,0.15306122448979592,0.15306122448979592,0.15306122448979592,0.15306122448979592,0.15306122448979592,0.15306122448979592,0.15306122448979592,0.15306122448979592,0.15306122448979592,0.15306122448979592,0.15306122448979592,0.15306122448979592,0.15306122448979592,0.1564625850340136,0.17687074829931973,0.2653061224489796,0.38095238095238093,0.6020408163265306,0.6972789115646258,0.8027210884353742,1.010204081632653,1.0816326530612246,1.1802721088435375,1.2074829931972788,1.2244897959183674,1.2414965986394557,1.2448979591836735,1.2448979591836735,1.248299319727891,1.248299319727891,1.248299319727891,1.248299319727891,1.248299319727891,1.248299319727891,1.251700680272109,1.251700680272109,1.251700680272109,1.251700680272109,1.251700680272109,1.251700680272109,1.248299319727891,1.2210884353741496,1.1870748299319729,1.1428571428571428,1.1326530612244898,1.1258503401360545,1.1224489795918366,1.119047619047619,1.119047619047619,1.119047619047619,1.1156462585034013,1.1156462585034013,1.1122448979591837,1.1122448979591837,1.1122448979591837,1.1122448979591837,1.1122448979591837,1.1122448979591837,1.1122448979591837,1.1122448979591837,1.1122448979591837,1.1122448979591837,1.1122448979591837,1.1122448979591837,1.1122448979591837,1.1122448979591837,1.1122448979591837,1.1122448979591837,1.1122448979591837,1.1122448979591837,1.1122448979591837,1.1122448979591837,1.1122448979591837,1.1122448979591837,1.1122448979591837,1.1122448979591837,1.1122448979591837,1.1122448979591837,1.1122448979591837,1.1122448979591837,1.1122448979591837,1.1122448979591837,1.1122448979591837,1.1122448979591837,1.1122448979591837,1.1122448979591837,1.1122448979591837,1.1122448979591837,1.1122448979591837,1.1122448979591837,1.1122448979591837,1.1122448979591837,1.1122448979591837,1.1122448979591837,1.1122448979591837,1.1122448979591837,1.1122448979591837,1.1122448979591837,1.1122448979591837,1.1122448979591837,1.1122448979591837,1.1122448979591837,1.1122448979591837,1.1122448979591837,1.1122448979591837,1.1088435374149659,1.1088435374149659,1.1054421768707483,1.098639455782313,1.0782312925170068,1.0680272108843538,1.0034013605442176,0.935374149659864,0.8435374149659864,0.7789115646258503,0.7142857142857143,0.6496598639455783,0.5408163265306123,0.41836734693877553,0.3673469387755102,0.2891156462585034,0.2619047619047619,0.24489795918367346,0.22789115646258504,0.20408163265306123,0.19047619047619047,0.1870748299319728,0.17346938775510204,0.17006802721088435,0.16326530612244897,0.1564625850340136,0.15306122448979592,0.14625850340136054,0.1360544217687075,0.1326530612244898,0.1326530612244898,0.12244897959183673,0.11904761904761904,0.11224489795918367,0.1054421768707483,0.08843537414965986,0.07482993197278912,0.06462585034013606,0.047619047619047616,0.04081632653061224,0.034013605442176874,0.034013605442176874,0.034013605442176874,0.034013605442176874,0.030612244897959183,0.030612244897959183,0.030612244897959183,0.030612244897959183,0.030612244897959183,0.030612244897959183,0.030612244897959183,0.030612244897959183,0.030612244897959183,0.030612244897959183,0.030612244897959183,0.030612244897959183,0.030612244897959183,0.030612244897959183,0.030612244897959183,0.030612244897959183,0.030612244897959183,0.030612244897959183,0.030612244897959183,0.030612244897959183,0.030612244897959183,0.030612244897959183,0.030612244897959183,0.030612244897959183,0.030612244897959183,0.030612244897959183,0.030612244897959183,0.030612244897959183,0.030612244897959183,0.030612244897959183,0.030612244897959183,0.030612244897959183,0.030612244897959183,0.030612244897959183,0.030612244897959183,0.030612244897959183,0.030612244897959183,0.030612244897959183,0.030612244897959183,0.030612244897959183,0.030612244897959183,0.030612244897959183,0.030612244897959183,0.030612244897959183,0.030612244897959183,0.030612244897959183,0.030612244897959183,0.030612244897959183,0.030612244897959183,0.030612244897959183,0.030612244897959183,0.030612244897959183,0.030612244897959183,0.030612244897959183,0.030612244897959183,0.030612244897959183,0.030612244897959183,0.030612244897959183,0.030612244897959183,0.030612244897959183,0.030612244897959183,0.030612244897959183,0.030612244897959183,0.030612244897959183,0.030612244897959183,0.030612244897959183,0.030612244897959183,0.030612244897959183,0.030612244897959183,0.030612244897959183,0.030612244897959183,0.030612244897959183,0.030612244897959183,0.030612244897959183,0.030612244897959183,0.030612244897959183,0.030612244897959183,0.030612244897959183,0.030612244897959183,0.030612244897959183,0.030612244897959183,0.030612244897959183,0.030612244897959183,0.030612244897959183,0.030612244897959183,0.030612244897959183,0.030612244897959183,0.030612244897959183,0.030612244897959183,0.030612244897959183,0.030612244897959183,0.030612244897959183,0.030612244897959183,0.030612244897959183,0.030612244897959183,0.030612244897959183,0.030612244897959183,0.030612244897959183,0.030612244897959183,0.030612244897959183,0.030612244897959183,0.030612244897959183,0.030612244897959183,0.030612244897959183,0.030612244897959183,0.030612244897959183,0.030612244897959183,0.030612244897959183,0.030612244897959183,0.030612244897959183,0.030612244897959183,0.030612244897959183,0.030612244897959183,0.030612244897959183,0.030612244897959183,0.030612244897959183,0.030612244897959183,0.030612244897959183,0.030612244897959183,0.030612244897959183,0.030612244897959183,0.030612244897959183,0.030612244897959183,0.030612244897959183,0.030612244897959183,0.030612244897959183,0.030612244897959183,0.030612244897959183,0.030612244897959183,0.030612244897959183,0.030612244897959183,0.030612244897959183,0.030612244897959183,0.030612244897959183,0.030612244897959183,0.030612244897959183,0.030612244897959183,0.030612244897959183,0.030612244897959183,0.030612244897959183,0.030612244897959183,0.030612244897959183,0.030612244897959183,0.030612244897959183,0.030612244897959183,0.030612244897959183,0.030612244897959183,0.030612244897959183,0.030612244897959183,0.030612244897959183,0.030612244897959183,0.030612244897959183,0.030612244897959183,0.030612244897959183],"y":[-3.0476190476190474,-3.0476190476190474,-3.0476190476190474,-3.0476190476190474,-3.0476190476190474,-3.0476190476190474,-3.0476190476190474,-3.0476190476190474,-3.0476190476190474,-3.0476190476190474,-3.0476190476190474,-3.0476190476190474,-3.0476190476190474,-3.0476190476190474,-3.0476190476190474,-3.0476190476190474,-3.0476190476190474,-3.0476190476190474,-3.0476190476190474,-3.0476190476190474,-3.0476190476190474,-3.0476190476190474,-3.0476190476190474,-3.0476190476190474,-3.0476190476190474,-3.0476190476190474,-3.0476190476190474,-3.0476190476190474,-3.0476190476190474,-3.0476190476190474,-3.0476190476190474,-3.0476190476190474,-3.0476190476190474,-3.0476190476190474,-3.0476190476190474,-3.0476190476190474,-3.0476190476190474,-3.0476190476190474,-3.0476190476190474,-3.0476190476190474,-3.0476190476190474,-3.0476190476190474,-3.0476190476190474,-3.0476190476190474,-3.0476190476190474,-3.0476190476190474,-3.0476190476190474,-3.0476190476190474,-3.0476190476190474,-3.0476190476190474,-3.0476190476190474,-3.0476190476190474,-3.0476190476190474,-3.0476190476190474,-3.0476190476190474,-3.0476190476190474,-3.0476190476190474,-3.0476190476190474,-3.0476190476190474,-3.0476190476190474,-3.0476190476190474,-3.0476190476190474,-3.0476190476190474,-3.0476190476190474,-3.0476190476190474,-3.0476190476190474,-3.0476190476190474,-3.0476190476190474,-3.0476190476190474,-3.0476190476190474,-3.0476190476190474,-3.0476190476190474,-3.0476190476190474,-3.0476190476190474,-3.0476190476190474,-3.0476190476190474,-3.0476190476190474,-3.0476190476190474,-3.0476190476190474,-3.0476190476190474,-3.0476190476190474,-3.0476190476190474,-3.0476190476190474,-3.0476190476190474,-3.0476190476190474,-3.0476190476190474,-3.0476190476190474,-3.0476190476190474,-3.0476190476190474,-3.0476190476190474,-3.0476190476190474,-3.0476190476190474,-3.0476190476190474,-3.0476190476190474,-3.0476190476190474,-3.0476190476190474,-3.0476190476190474,-3.0476190476190474,-3.0476190476190474,-3.0476190476190474,-3.0476190476190474,-3.0476190476190474,-3.0476190476190474,-3.0476190476190474,-3.0476190476190474,-3.0476190476190474,-3.0476190476190474,-3.0476190476190474,-3.0476190476190474,-3.0476190476190474,-3.0476190476190474,-3.0476190476190474,-3.0476190476190474,-3.0476190476190474,-3.0476190476190474,-3.0476190476190474,-3.0476190476190474,-3.0476190476190474,-3.0476190476190474,-3.0476190476190474,-3.0476190476190474,-3.0476190476190474,-3.0476190476190474,-3.0476190476190474,-3.0476190476190474,-3.0476190476190474,-3.0476190476190474,-3.0476190476190474,-3.0476190476190474,-3.0476190476190474,-3.0476190476190474,-3.0476190476190474,-3.0476190476190474,-3.0476190476190474,-3.0476190476190474,-3.0476190476190474,-3.0476190476190474,-3.0476190476190474,-3.0476190476190474,-3.0476190476190474,-3.0476190476190474,-3.0476190476190474,-3.0476190476190474,-3.0476190476190474,-3.0476190476190474,-3.0476190476190474,-3.0476190476190474,-3.0476190476190474,-3.0476190476190474,-3.0476190476190474,-3.0476190476190474,-3.0476190476190474,-3.0476190476190474,-3.0476190476190474,-3.0476190476190474,-3.0476190476190474,-3.0476190476190474,-3.0476190476190474,-3.0476190476190474,-3.0476190476190474,-3.0476190476190474,-3.0476190476190474,-3.0476190476190474,-3.0476190476190474,-3.0476190476190474,-3.0476190476190474,-3.0476190476190474,-3.0476190476190474,-3.0476190476190474,-3.0476190476190474,-3.0476190476190474,-3.0476190476190474,-3.0476190476190474,-3.0476190476190474,-3.0476190476190474,-3.0476190476190474,-3.0476190476190474,-3.0476190476190474,-3.0476190476190474,-3.0476190476190474,-3.0476190476190474,-3.0476190476190474,-3.0476190476190474,-3.0476190476190474,-3.0476190476190474,-3.0476190476190474,-3.0476190476190474,-3.0476190476190474,-3.0476190476190474,-3.0476190476190474,-3.0476190476190474,-3.0476190476190474,-3.0476190476190474,-3.0476190476190474,-3.0476190476190474,-3.0476190476190474,-3.0476190476190474,-3.0476190476190474,-3.0476190476190474,-3.0476190476190474,-3.0476190476190474,-3.0476190476190474,-3.0476190476190474,-3.0476190476190474,-3.0476190476190474,-3.0476190476190474,-3.0476190476190474,-3.0476190476190474,-3.0476190476190474,-3.0476190476190474,-3.0476190476190474,-3.0476190476190474,-3.0476190476190474,-3.0476190476190474,-3.0476190476190474,-3.0476190476190474,-3.0476190476190474,-3.0476190476190474,-3.0476190476190474,-3.0476190476190474,-3.0476190476190474,-3.0476190476190474,-3.0476190476190474,-3.0476190476190474,-3.0476190476190474,-3.0476190476190474,-3.0476190476190474,-3.0476190476190474,-3.0476190476190474,-3.0476190476190474,-3.0476190476190474,-3.0476190476190474,-3.0476190476190474,-3.0476190476190474,-3.0476190476190474,-3.0476190476190474,-3.0476190476190474,-3.0476190476190474,-3.0476190476190474,-3.0476190476190474,-3.0476190476190474,-3.0476190476190474,-3.0476190476190474,-3.0476190476190474,-3.0476190476190474,-3.0476190476190474,-3.0476190476190474,-3.0476190476190474,-3.0476190476190474,-3.0476190476190474,-3.0476190476190474,-3.0476190476190474,-3.0476190476190474,-3.0476190476190474,-3.0476190476190474,-3.0476190476190474,-3.0476190476190474,-3.0476190476190474,-3.0476190476190474,-3.0476190476190474,-3.0476190476190474,-3.0476190476190474,-3.0476190476190474,-3.0476190476190474,-3.0476190476190474,-3.0476190476190474,-3.0476190476190474,-3.0476190476190474,-3.0476190476190474,-3.0476190476190474,-3.0476190476190474,-3.0476190476190474,-3.0476190476190474,-3.0476190476190474,-3.0476190476190474,-3.0476190476190474,-3.0476190476190474,-3.0476190476190474,-3.0476190476190474,-3.0476190476190474,-3.0476190476190474,-3.0476190476190474,-3.0476190476190474,-3.0476190476190474,-3.0476190476190474,-3.0476190476190474,-3.0476190476190474,-3.0476190476190474,-3.0476190476190474,-3.0476190476190474,-3.0476190476190474,-3.0476190476190474,-3.0476190476190474,-3.0476190476190474,-3.0476190476190474,-3.0476190476190474,-3.0476190476190474,-3.0476190476190474,-3.0476190476190474,-3.0476190476190474,-3.0476190476190474,-3.0476190476190474,-3.0476190476190474,-3.0476190476190474,-3.0476190476190474,-3.0476190476190474,-3.0476190476190474,-3.0476190476190474,-3.0476190476190474,-3.0476190476190474,-3.0476190476190474,-3.0476190476190474,-3.0476190476190474,-3.0476190476190474,-3.0476190476190474,-3.0476190476190474,-3.0476190476190474,-3.0476190476190474,-3.0476190476190474,-3.0476190476190474,-3.0476190476190474,-3.0476190476190474,-3.0476190476190474,-3.0476190476190474,-3.0476190476190474,-3.0476190476190474,-3.0476190476190474,-3.0476190476190474,-3.0476190476190474,-3.0476190476190474,-3.0476190476190474,-3.0476190476190474,-3.0476190476190474,-3.0476190476190474,-3.0476190476190474,-3.0476190476190474,-3.0476190476190474,-3.0476190476190474,-3.0476190476190474,-3.0476190476190474,-3.0476190476190474,-3.0476190476190474,-3.0476190476190474,-3.0476190476190474,-3.0476190476190474,-3.0476190476190474,-3.0476190476190474,-3.0476190476190474,-3.0476190476190474,-3.0476190476190474,-3.0476190476190474,-3.0476190476190474,-3.0476190476190474,-3.0476190476190474,-3.0476190476190474,-3.0476190476190474,-3.0476190476190474,-3.0476190476190474,-3.0476190476190474,-3.0476190476190474,-3.0476190476190474,-3.0476190476190474,-3.0476190476190474,-3.0476190476190474,-3.0476190476190474,-3.0476190476190474,-3.0476190476190474,-3.0476190476190474,-3.0476190476190474,-3.0476190476190474,-3.0476190476190474,-3.0476190476190474,-3.0476190476190474,-3.0476190476190474,-3.0476190476190474,-3.0476190476190474,-3.0476190476190474,-3.0476190476190474,-3.0476190476190474,-3.0476190476190474,-3.0476190476190474,-3.0476190476190474,-3.0476190476190474,-3.0476190476190474,-3.0476190476190474,-3.0476190476190474,-3.0476190476190474,-3.0476190476190474,-3.0476190476190474,-3.0476190476190474,-3.0476190476190474,-3.0476190476190474,-3.0476190476190474,-3.0476190476190474,-3.0476190476190474,-3.0476190476190474,-3.0476190476190474,-3.0476190476190474,-3.0476190476190474,-3.0476190476190474,-3.0476190476190474,-3.0476190476190474,-3.0476190476190474,-3.0476190476190474,-3.0476190476190474,-3.0476190476190474,-3.0476190476190474,-3.0476190476190474,-3.0476190476190474,-3.0476190476190474,-3.0476190476190474,-3.0476190476190474,-3.0476190476190474,-3.0476190476190474,-3.0476190476190474,-3.0476190476190474,-3.0476190476190474,-3.0476190476190474,-3.0476190476190474,-3.0476190476190474,-3.0476190476190474,-3.0476190476190474,-3.0476190476190474,-3.0476190476190474,-3.0476190476190474,-3.0476190476190474,-3.0476190476190474,-3.0476190476190474,-3.0476190476190474,-3.0476190476190474,-3.0476190476190474,-3.0476190476190474,-3.0476190476190474,-3.0476190476190474,-3.0476190476190474,-3.0476190476190474,-3.0476190476190474,-3.0476190476190474,-3.0476190476190474,-3.0476190476190474,-3.0476190476190474,-3.0476190476190474,-3.0476190476190474,-3.0476190476190474,-3.0476190476190474,-3.0476190476190474,-3.0476190476190474,-3.0476190476190474,-3.0476190476190474,-3.0476190476190474,-3.0476190476190474,-3.0476190476190474,-3.0476190476190474,-3.0476190476190474,-3.0476190476190474,-3.0476190476190474,-3.0476190476190474,-3.0476190476190474,-3.0476190476190474,-3.0476190476190474,-3.0476190476190474,-3.0476190476190474,-3.0476190476190474,-3.0476190476190474,-3.0476190476190474,-3.0476190476190474,-3.0476190476190474,-3.0476190476190474,-3.0476190476190474,-3.0476190476190474,-3.0476190476190474,-3.0476190476190474,-3.0476190476190474,-3.0476190476190474,-3.0476190476190474,-3.0476190476190474,-3.0476190476190474,-3.0476190476190474,-3.0476190476190474,-3.0476190476190474,-3.0476190476190474,-3.0476190476190474,-3.0476190476190474,-3.0476190476190474,-3.0476190476190474,-3.0476190476190474,-3.0476190476190474,-3.0476190476190474,-3.0476190476190474,-3.0476190476190474,-3.0476190476190474,-3.0476190476190474,-3.0476190476190474,-3.0476190476190474,-3.0476190476190474,-3.0476190476190474,-3.0476190476190474,-3.0476190476190474,-3.0476190476190474,-3.0476190476190474,-3.0476190476190474,-3.0476190476190474,-3.0476190476190474,-3.0476190476190474,-3.0476190476190474,-3.0476190476190474,-3.0476190476190474,-3.0476190476190474,-3.0476190476190474,-3.0476190476190474,-3.0476190476190474,-3.0476190476190474,-3.0476190476190474,-3.0476190476190474,-3.0476190476190474,-3.0476190476190474,-3.0476190476190474,-3.0476190476190474,-3.0476190476190474,-3.0476190476190474,-3.0476190476190474,-3.0476190476190474,-3.0476190476190474,-3.0476190476190474,-3.0476190476190474,-3.0476190476190474,-3.0476190476190474,-3.0476190476190474,-3.0476190476190474,-3.0476190476190474,-3.0476190476190474,-3.0476190476190474,-3.0476190476190474,-3.0476190476190474,-3.0476190476190474,-3.0476190476190474,-3.0476190476190474,-3.0476190476190474,-3.0476190476190474,-3.0476190476190474,-3.0476190476190474,-3.0476190476190474,-3.0476190476190474,-3.0476190476190474,-3.0476190476190474,-3.0476190476190474,-3.0476190476190474,-3.0476190476190474,-3.0476190476190474,-3.0476190476190474,-3.0476190476190474,-3.0476190476190474,-3.0476190476190474,-3.0476190476190474,-3.0476190476190474,-3.0476190476190474,-3.0476190476190474,-3.0476190476190474,-3.0476190476190474,-3.0476190476190474,-3.0476190476190474,-3.0476190476190474,-3.0476190476190474,-3.0476190476190474,-3.0476190476190474,-3.0476190476190474,-3.0476190476190474,-3.0476190476190474,-3.0476190476190474,-3.0476190476190474,-3.0476190476190474,-3.0476190476190474,-3.0476190476190474,-3.0476190476190474,-3.0476190476190474,-3.0476190476190474,-3.0476190476190474,-3.0476190476190474,-3.0476190476190474,-3.0476190476190474,-3.0476190476190474,-3.0476190476190474,-3.0476190476190474,-3.0476190476190474,-3.0476190476190474,-3.0476190476190474,-3.0476190476190474,-3.0476190476190474,-3.0476190476190474,-3.0476190476190474,-3.0476190476190474,-3.0476190476190474,-3.0476190476190474,-3.0476190476190474,-3.0476190476190474,-3.0476190476190474,-3.0476190476190474,-3.0476190476190474,-3.0476190476190474,-3.0476190476190474,-3.0476190476190474,-3.0476190476190474,-3.0476190476190474,-3.0476190476190474,-3.0476190476190474,-3.0476190476190474,-3.0476190476190474,-3.0476190476190474,-3.0476190476190474,-3.0476190476190474,-3.0476190476190474,-3.0476190476190474,-3.0476190476190474,-3.0476190476190474,-3.0476190476190474,-3.0476190476190474,-3.0476190476190474,-3.0476190476190474,-3.0476190476190474,-3.0476190476190474,-3.0476190476190474,-3.0476190476190474,-3.0476190476190474,-3.0476190476190474,-3.0476190476190474,-3.0476190476190474,-3.0476190476190474,-3.0476190476190474,-3.0476190476190474,-3.0476190476190474,-3.0476190476190474,-3.0476190476190474,-3.0476190476190474,-3.0476190476190474,-3.0476190476190474,-3.0476190476190474,-3.0476190476190474,-3.0476190476190474,-3.0476190476190474,-3.0476190476190474,-3.0476190476190474,-3.0476190476190474,-3.0476190476190474,-3.0476190476190474,-3.0476190476190474,-3.0476190476190474,-3.0476190476190474,-3.0476190476190474,-3.0476190476190474,-3.0476190476190474,-3.0476190476190474,-3.0476190476190474,-3.0476190476190474,-3.0476190476190474,-3.0476190476190474,-3.0476190476190474,-3.0476190476190474,-3.0476190476190474,-3.0476190476190474,-3.0476190476190474,-3.0476190476190474,-3.0476190476190474,-3.0476190476190474,-3.0476190476190474,-3.0476190476190474,-3.0476190476190474,-3.0476190476190474,-3.0476190476190474,-3.0476190476190474,-3.0476190476190474,-3.0476190476190474,-3.0476190476190474,-3.0476190476190474,-3.0476190476190474,-3.0476190476190474,-3.0476190476190474,-3.0476190476190474,-3.0476190476190474,-3.0476190476190474,-3.0476190476190474,-3.0476190476190474,-3.0476190476190474,-3.0476190476190474,-3.0476190476190474,-3.0476190476190474,-3.0476190476190474,-3.0476190476190474,-3.0476190476190474,-3.0476190476190474,-3.0476190476190474,-3.0476190476190474,-3.0476190476190474,-3.0476190476190474,-3.0476190476190474,-3.0476190476190474,-3.0476190476190474,-3.0476190476190474,-3.0476190476190474,-3.0476190476190474,-3.0476190476190474,-3.0476190476190474,-3.0476190476190474,-3.0476190476190474,-3.0476190476190474,-3.0476190476190474,-3.0476190476190474,-3.0476190476190474,-3.0476190476190474,-3.0476190476190474,-3.0476190476190474,-3.0476190476190474,-3.0476190476190474,-3.0476190476190474,-3.0476190476190474,-3.0476190476190474,-3.0476190476190474,-3.0476190476190474,-3.0476190476190474,-3.0476190476190474,-3.0476190476190474,-3.0476190476190474,-3.0476190476190474,-3.0476190476190474,-3.0476190476190474,-3.0476190476190474,-3.0476190476190474,-3.0476190476190474,-3.0476190476190474,-3.0476190476190474,-3.0476190476190474,-3.0476190476190474,-3.0476190476190474,-3.0476190476190474,-3.0476190476190474,-3.0476190476190474,-3.0476190476190474,-3.0476190476190474,-3.0476190476190474,-3.0476190476190474,-3.0476190476190474,-3.0476190476190474,-3.0476190476190474,-3.0476190476190474,-3.0476190476190474,-3.0476190476190474,-3.0476190476190474,-3.0476190476190474,-3.0476190476190474,-3.0476190476190474,-3.0476190476190474,-3.0476190476190474,-3.0476190476190474,-3.0476190476190474,-3.0476190476190474,-3.0476190476190474,-3.0476190476190474,-3.0476190476190474,-3.0476190476190474,-3.0476190476190474,-3.0476190476190474,-3.0476190476190474,-3.0476190476190474,-3.0476190476190474,-3.0476190476190474,-3.0476190476190474,-3.0476190476190474,-3.0476190476190474,-3.0476190476190474,-3.0476190476190474,-3.0476190476190474,-3.0476190476190474,-3.0476190476190474,-3.0476190476190474,-3.0476190476190474,-3.0476190476190474,-3.0476190476190474,-3.0476190476190474,-3.0476190476190474,-3.0476190476190474,-3.0476190476190474,-3.0476190476190474,-3.0476190476190474,-3.0476190476190474,-3.0476190476190474,-3.0476190476190474,-3.0476190476190474,-3.0476190476190474,-3.0476190476190474,-3.0476190476190474,-3.0476190476190474,-3.0476190476190474,-3.0476190476190474,-3.0476190476190474,-3.0476190476190474,-3.0476190476190474,-3.0476190476190474,-3.0476190476190474,-3.0476190476190474,-3.0476190476190474,-3.0476190476190474,-3.0476190476190474,-3.0476190476190474,-3.0476190476190474,-3.0476190476190474,-3.0476190476190474,-3.0476190476190474,-3.0476190476190474,-3.0476190476190474,-3.0476190476190474,-3.0476190476190474,-3.0476190476190474,-3.0476190476190474,-3.0476190476190474,-3.0476190476190474,-3.0476190476190474,-3.0476190476190474,-3.0476190476190474,-3.0476190476190474,-3.0476190476190474,-3.0476190476190474,-3.0476190476190474,-3.0476190476190474,-3.0476190476190474,-3.0476190476190474,-3.0476190476190474,-3.0476190476190474,-3.0476190476190474,-3.0476190476190474,-3.0476190476190474,-3.0476190476190474,-3.0476190476190474,-3.0476190476190474,-3.0476190476190474,-3.0476190476190474,-3.0476190476190474,-3.0476190476190474,-3.0476190476190474,-3.0476190476190474,-3.0476190476190474,-3.0476190476190474,-3.0476190476190474,-3.0476190476190474,-3.0476190476190474,-3.0476190476190474,-3.0476190476190474,-3.0476190476190474,-3.0476190476190474,-3.0476190476190474,-3.0476190476190474,-3.0476190476190474,-3.0476190476190474,-3.0476190476190474,-3.0476190476190474,-3.0476190476190474,-3.0476190476190474,-3.0476190476190474,-3.0476190476190474,-3.0476190476190474,-3.0476190476190474,-3.0476190476190474,-3.0476190476190474,-3.0476190476190474,-3.0476190476190474,-3.0476190476190474,-3.0476190476190474,-3.0476190476190474,-3.0476190476190474,-3.0476190476190474,-3.0476190476190474,-3.0476190476190474,-3.0476190476190474,-3.0476190476190474,-3.0476190476190474,-3.0476190476190474,-3.0476190476190474,-3.0476190476190474,-3.0476190476190474,-3.0476190476190474,-3.0476190476190474,-3.0476190476190474,-3.0476190476190474,-3.0476190476190474,-3.0476190476190474,-3.0476190476190474,-3.0476190476190474,-3.0476190476190474,-3.0476190476190474,-3.0476190476190474,-3.0476190476190474,-3.0476190476190474,-3.0476190476190474,-3.0476190476190474,-3.0476190476190474,-3.0476190476190474,-3.0476190476190474,-3.0476190476190474,-3.0476190476190474,-3.0476190476190474,-3.0476190476190474,-3.0476190476190474,-3.0476190476190474,-3.0476190476190474,-3.0476190476190474,-3.0476190476190474,-3.0476190476190474,-3.0476190476190474,-3.0476190476190474,-3.0476190476190474,-3.0476190476190474,-3.0476190476190474,-3.0476190476190474,-3.0476190476190474,-3.0476190476190474,-3.0476190476190474,-3.0476190476190474,-3.0476190476190474,-3.0476190476190474,-3.0476190476190474,-3.0476190476190474,-3.0476190476190474,-3.0476190476190474,-3.0476190476190474,-3.0476190476190474,-3.0476190476190474,-3.0476190476190474,-3.0476190476190474,-3.0476190476190474,-3.0476190476190474,-3.0476190476190474,-3.0476190476190474,-3.0476190476190474,-3.0476190476190474,-3.0476190476190474,-3.0476190476190474,-3.0476190476190474,-3.0476190476190474,-3.0476190476190474,-3.0476190476190474,-3.0476190476190474,-3.0476190476190474,-3.0476190476190474,-3.0476190476190474,-3.0476190476190474,-3.0476190476190474,-3.0476190476190474,-3.0476190476190474,-3.0476190476190474,-3.0476190476190474,-3.0476190476190474,-3.0476190476190474,-3.0476190476190474,-3.0476190476190474,-3.0476190476190474,-3.04761