[{"success":true,"trial_type":"fullscreen","trial_index":0,"time_elapsed":5599,"internal_node_id":"0.0-0.0","protocol_sum":"","subject_identifier":404,"subject_sum":[193,126,218,174,134,228,1,106,88,62,9,133,130,246,219,243,236,202,222,142,248,55,71,223,155,166,23,222,217,211,19,9],"subject_pair":202,"STUDY_ID":"66a22c0758a3d5c9d26873c6","PROLIFIC_PID":"661f4cfbeabfb4f58a8ecb4c","SESSION_ID":"66a263c201885d12dd512076","practice_instructions":1,"leaderboard_instructions":0,"bonus":0,"reveal_word":false,"self_rating":"2","confidence":"35"},{"view_history":"[{\"page_index\":0,\"viewing_time\":6693.300000190735}]","rt":6693.5,"trial_type":"instructions","trial_index":1,"time_elapsed":12293,"internal_node_id":"0.0-1.0","protocol_sum":"","subject_identifier":404,"subject_sum":[193,126,218,174,134,228,1,106,88,62,9,133,130,246,219,243,236,202,222,142,248,55,71,223,155,166,23,222,217,211,19,9],"subject_pair":202,"STUDY_ID":"66a22c0758a3d5c9d26873c6","PROLIFIC_PID":"661f4cfbeabfb4f58a8ecb4c","SESSION_ID":"66a263c201885d12dd512076","practice_instructions":1,"leaderboard_instructions":0,"bonus":0,"reveal_word":false,"self_rating":"2","confidence":"35"},{"view_history":"[{\"page_index\":0,\"viewing_time\":38726.39999985695}]","rt":38726.5,"trial_type":"instructions","trial_index":2,"time_elapsed":51021,"internal_node_id":"0.0-2.0-0.0","protocol_sum":"","subject_identifier":404,"subject_sum":[193,126,218,174,134,228,1,106,88,62,9,133,130,246,219,243,236,202,222,142,248,55,71,223,155,166,23,222,217,211,19,9],"subject_pair":202,"STUDY_ID":"66a22c0758a3d5c9d26873c6","PROLIFIC_PID":"661f4cfbeabfb4f58a8ecb4c","SESSION_ID":"66a263c201885d12dd512076","practice_instructions":1,"leaderboard_instructions":0,"bonus":0,"reveal_word":false,"self_rating":"2","confidence":"35"},{"rt":19300.200000047684,"responses":"{\"Q0\":\"... reveal the word with as <b>few letter guesses</b> as possible\"}","question_order":"[0]","trial_type":"survey-multi-choice","trial_index":3,"time_elapsed":70323,"internal_node_id":"0.0-2.0-1.0","protocol_sum":"","subject_identifier":404,"subject_sum":[193,126,218,174,134,228,1,106,88,62,9,133,130,246,219,243,236,202,222,142,248,55,71,223,155,166,23,222,217,211,19,9],"subject_pair":202,"correct":true,"test_part":"multichoice_nonpretend","STUDY_ID":"66a22c0758a3d5c9d26873c6","PROLIFIC_PID":"661f4cfbeabfb4f58a8ecb4c","SESSION_ID":"66a263c201885d12dd512076","practice_instructions":1,"leaderboard_instructions":0,"bonus":0,"reveal_word":false,"self_rating":"2","confidence":"35"},{"view_history":"[{\"page_index\":0,\"viewing_time\":1846.3000001907349}]","rt":1846.4000000953674,"trial_type":"instructions","trial_index":4,"time_elapsed":72170,"internal_node_id":"0.0-3.0","protocol_sum":"","subject_identifier":404,"subject_sum":[193,126,218,174,134,228,1,106,88,62,9,133,130,246,219,243,236,202,222,142,248,55,71,223,155,166,23,222,217,211,19,9],"subject_pair":202,"STUDY_ID":"66a22c0758a3d5c9d26873c6","PROLIFIC_PID":"661f4cfbeabfb4f58a8ecb4c","SESSION_ID":"66a263c201885d12dd512076","practice_instructions":1,"leaderboard_instructions":0,"bonus":0,"reveal_word":false,"self_rating":"2","confidence":"35"},{"word":"ZEBRA","click_log":{"letter":["","T","A","E","R","Z","B"],"t":[0,7925.299999952316,11971.899999856949,16647.39999985695,22989.199999809265,31123.699999809265,32737.699999809265],"hit":[null,0,1,1,1,1,1],"asked":["","T","TA","TAE","TAER","TAERZ","TAERZB"],"word_state":["_____","_____","____A","_E__A","_E_RA","ZE_RA","ZEBRA"]},"hover_log":{"letter":["?","?","?","K","V","?","?","?","?","?","?","?","?","?","?","?","?","?","?","?","?","?","?","?","?","?","?","?","?","?","?","?","?","?","?","?","?","?","S","?","?","?","?","?","?","?","?","?","?","?","?","?","?","?","?","?","?","?","?","?","?","?","?","?","?","?","?","?","?","?","?","?","?","?","?","?","?","?","?","?","?","?","?","?","?","?","?","?","?","?","?","?","?","?","?","?","?","?","?","?","?","?","?","?","?","?","?","?","?","?","?","?","?","?","?","?","?","?","?","?","?","?","?","?","?","?","?","?","?","?","?","?","?","?","?","?","?","?","?","?","?","?","?","?","?","?","?","?","?","?","?","?","?","?","?","?","?","?","?","?","?","?","?","?","?","?","?","?","?","?","?","?","?","?","?","?","?","?","?","?","?","?","?","?","?","?","?","?","?","?","?","?","?","?","?","?","?","?","?","?","?","?","?","?","C","C","?","?","?","?","?","?","?","?","?","?","?","?","?","?","?","?","?","?","?","?","?","?","?","?","?","?","?","?","?","?","?","?","?","A","A","A","A","A","A","A","A","A","A","A","A","A","A","A","A","A","A","A","A","A","A","A","A","?","?","?","?","?","?","?","?","?","?","?","?","?","?","?","?","?","?","?","?","?","?","?","?","?","?","?","?","?","?","?","?","?","?","?","?","?","?","?","?","?","?","?","?","?","?","?","?","?","?","?","?","?","?","?","?","?","?","?","?","?","?","?","?","?","?","?","?","?","?","?","?","?","?","?","?","?","?","M","N","N","N","N","N","N","?","Q","?","?","?","?","?","?","?","?","R","?","?","?","?","R","R","R","R","Q","Q","?","?","?","P","P","?","?","?","?","?","?","?","?","?","?","?","M","M","?","?","?","?","Y","Y","Y","Y","Y","?","?","?","?","?","?","?","?","?","?","?","?","?","?","?","?","W","V","V","?","U","U","U","U","U","U","U","U","U","U","U","U","U","?","?","?","?","?","?","?","T","T","T","T","T","T","T","T","T","T","T","T","T","T","T","T","T","T","T","T","T","T","T","T","T","T","T","T","T","T","T","T","T","T","T","T","T","T","T","T","T","T","T","T","T","T","T","T","T","T","T","T","T","T","T","T","T","T","T","T","T","T","T","T","T","T","T","T","T","T","T","T","T","T","T","T","T","T","T","T","T","T","T","T","T","T","T","T","T","T","T","T","T","T","T","T","T","T","T","T","T","T","T","T","T","T","T","T","T","T","T","T","?","?","K","K","K","K","?","?","?","K","?","?","?","?","?","?","?","?","?","?","?","?","?","?","?","?","?","?","?","?","?","?","?","?","?","?","?","?","?","?","T","?","?","?","?","?","?","U","U","?","L","L","?","M","N","O","?","?","?","?","?","?","?","?","?","?","R","?","?","?","?","?","?","?","?","I","I","I","I","I","I","I","I","I","I","I","I","I","I","I","I","I","I","I","I","I","I","I","I","I","?","H","?","?","E","E","E","E","E","E","E","E","?","D","D","D","?","?","B","?","?","?","?","?","?","?","?","?","?","?","?","?","?","?","?","?","?","?","?","A","A","A","A","A","A","A","A","A","A","A","A","A","A","A","A","A","A","A","A","A","A","A","A","A","A","A","A","A","A","A","A","A","A","A","A","A","A","A","A","A","A","A","A","A","A","A","A","A","A","A","A","A","A","A","A","A","A","A","A","A","A","A","A","A","A","A","A","A","A","A","A","A","A","A","A","A","A","A","A","A","A","A","A","A","A","A","A","A","A","A","A","A","A","A","A","A","A","A","A","A","A","A","A","A","A","A","A","A","A","A","A","A","A","A","A","A","A","A","A","A","A","A","A","A","A","A","A","A","A","A","A","A","A","A","A","A","A","A","A","A","A","A","A","A","A","A","A","A","A","A","A","A","A","A","A","A","A","A","A","A","A","A","A","A","A","A","A","A","A","A","A","A","A","A","A","?","?","?","M","?","N","N","N","N","N","N","N","N","N","N","N","N","N","N","N","?","?","?","?","?","?","?","?","?","?","?","?","?","?","?","?","?","?","?","?","?","?","?","?","?","?","?","?","M","?","?","?","C","C","?","?","?","C","C","C","C","C","C","C","?","?","?","?","?","?","?","?","?","?","?","?","?","?","L","L","L","L","L","L","L","?","?","?","?","?","?","?","?","?","?","?","?","?","E","E","E","E","E","E","E","E","E","E","E","E","E","E","E","E","E","E","E","E","E","E","E","E","E","E","E","E","E","E","E","E","E","E","E","E","E","E","E","E","E","E","E","E","E","E","E","E","E","E","E","E","E","E","E","E","E","E","E","E","E","E","E","E","E","E","E","E","E","E","E","E","E","E","E","E","E","E","E","E","E","E","E","E","E","E","E","E","E","E","E","E","E","E","E","E","E","E","E","E","E","E","E","E","E","E","E","E","E","E","E","E","E","E","E","E","E","E","E","E","E","E","E","E","E","E","E","E","E","E","E","E","E","E","E","E","E","E","E","E","E","E","E","E","E","E","E","E","E","E","E","E","E","E","E","E","E","E","E","E","E","E","E","E","E","E","E","E","E","E","E","E","E","E","E","E","E","E","E","E","E","E","E","E","E","E","E","E","E","E","E","E","E","E","E","E","E","E","E","E","E","E","E","E","E","E","E","E","E","E","E","E","E","E","E","E","E","E","E","E","E","E","E","E","E","E","E","E","E","E","E","E","E","E","E","E","E","E","E","E","E","E","E","E","E","E","E","E","E","E","E","E","E","E","E","E","E","E","E","E","E","E","E","E","E","E","E","E","E","E","E","E","E","E","E","E","E","E","E","E","E","E","E","E","E","E","E","E","E","E","E","E","E","E","E","E","E","E","E","E","E","E","E","E","E","E","E","E","E","E","E","E","E","E","E","E","E","E","E","E","E","E","E","E","?","O","O","O","O","O","O","O","O","O","O","O","O","O","O","O","O","O","O","O","?","?","?","?","?","?","?","?","?","?","?","?","?","?","X","X","X","X","?","W","?","?","V","V","V","V","V","?","?","?","?","?","?","?","?","?","?","?","?","?","?","?","?","?","?","?","?","?","?","?","R","R","R","R","R","R","R","R","R","R","R","R","R","R","R","R","R","R","R","R","R","R","R","R","R","R","R","R","R","R","R","R","R","R","R","R","R","R","R","R","R","R","R","R","R","R","R","R","R","R","R","R","R","R","R","R","R","R","R","R","R","R","R","R","R","R","R","R","R","R","R","R","R","R","R","R","R","R","R","R","R","R","R","R","R","R","R","R","R","R","R","R","R","R","R","R","R","R","R","R","R","R","R","R","R","R","R","R","R","R","R","R","R","R","R","R","R","R","R","R","R","R","R","R","R","R","R","R","R","R","R","R","R","R","R","R","R","R","R","R","R","R","R","R","R","R","R","R","R","R","R","R","R","R","R","R","R","R","R","R","R","R","R","R","R","R","R","R","R","R","R","R","R","R","R","R","R","R","R","R","R","R","R","R","R","R","R","R","R","R","R","R","R","R","R","R","R","R","R","R","R","R","R","R","R","R","R","R","R","R","R","R","R","R","R","R","R","R","R","R","R","R","R","R","R","R","R","R","R","R","R","R","R","R","R","R","R","R","R","R","R","R","R","R","R","R","R","R","R","R","R","R","R","R","R","R","R","R","R","R","R","R","R","R","R","R","R","R","R","R","R","R","R","R","R","R","R","R","R","R","R","R","R","R","R","R","R","R","R","R","R","R","R","R","R","R","R","R","R","R","R","R","R","R","R","R","R","R","R","R","R","R","R","R","R","R","R","R","R","R","R","R","R","R","R","R","R","R","R","R","R","R","R","R","R","R","R","R","R","R","R","R","R","R","R","R","R","R","R","R","R","R","R","R","R","R","R","R","R","R","R","R","R","R","R","R","?","?","?","?","?","?","?","?","?","?","?","?","?","?","?","?","?","?","?","?","?","?","?","?","?","?","?","?","?","?","?","?","?","?","?","?","?","?","?","?","?","?","?","?","?","Q","?","O","N","?","W","?","?","?","?","?","?","?","?","?","?","V","V","V","V","V","V","V","V","V","V","V","V","?","W","?","X","X","X","X","X","X","?","?","Y","Y","Y","Y","Y","Y","?","?","?","?","?","?","?","?","Z","Z","Z","Z","Z","Z","Z","Z","Z","Z","Z","Z","Z","Z","Z","Z","Z","Z","Z","Z","Z","Z","Z","Z","Z","Z","Z","Z","Z","Z","Z","Z","Z","Z","Z","Z","Z","Z","Z","Z","Z","Z","Z","Z","Z","Z","Z","Z","Z","Z","Z","Z","Z","Z","Z","Z","Z","Z","Z","Z","Z","Z","Z","Z","Z","Z","Z","Z","Z","Z","Z","Z","Z","?","N","C","?","?","?","?","?","?","?","?","?","A","A","A","?","?","?","?","?","B","?","N","?","?","?","N","N","N","N","N","?","?","D","D","?","C","C","?","?","?","?","?","?","?","?","?","?","B","B","B","B","B","B","B","B","B","B","B","B","B","B","B","B","B","B","B","B","B","B","B","B","B","B","B","B","B","B","B","B","B","B","B","B","B","B","B","B","B","B","B","B","B","B","B","B","B","B","B","B","B","B","B","B","B","B","B","B","B","B","B","B","B","B","B","?","?","L","?","?","?","?","V","V","?","?","?","?","?","?","?","?","?","?","?","?","?","?","?","?","?","?","?","?","?","?","?","?","?","?","?","?","?","?","?","?","?","?","?","?","?","?","?","?","?","?","?","?","?","?","?","?","?","?","?","?","?","?","?","?","?","?","?","?","?","?","?","?","?","?","?","?"],"t":[38,47,63,80,97,114,131,147,163,181,197,214,231,247,264,280,298,313,330,346,363,381,397,414,430,446,464,480,496,513,529,546,563,579,596,613,630,647,663,679,696,713,730,747,764,779,796,812,829,847,863,880,896,913,930,946,963,980,996,1013,1029,1047,1063,1079,1096,1113,1130,1147,1163,1179,1196,1213,1229,1247,1263,1280,1296,1313,1329,1346,1363,1379,1396,1413,1429,1446,1464,1480,1496,1513,1530,1546,1564,1580,1596,1613,1630,1647,1663,1679,1696,1713,1729,1747,1764,1779,1796,1813,1829,1847,1863,1879,1896,1912,1929,1946,1962,1979,1996,2013,2029,2046,2063,2079,2096,2113,2130,2146,2163,2179,2197,2213,2230,2247,2262,2280,2296,2313,2329,2346,2363,2380,2397,2413,2429,2446,2463,2480,2497,2514,2529,2546,2562,2580,2597,2614,2629,2646,2663,2679,2696,2713,2729,2746,2763,2780,2795,2813,2829,2846,2863,2880,2896,2913,2930,2946,2963,2979,2996,3013,3029,3045,3062,3079,3096,3113,3130,3147,3163,3179,3196,3213,3230,3246,3263,3279,3297,3313,3329,3346,3362,3379,3396,3413,3430,3446,3463,3480,3496,3512,3530,3546,3563,3579,3596,3612,3629,3646,3662,3680,3696,3713,3729,3746,3763,3779,3796,3813,3829,3847,3863,3879,3896,3913,3929,3946,3963,3979,3996,4013,4030,4046,4063,4080,4096,4113,4130,4146,4162,4180,4196,4213,4229,4247,4263,4280,4297,4313,4330,4346,4363,4380,4396,4413,4430,4447,4463,4479,4496,4513,4530,4546,4563,4579,4596,4613,4630,4647,4662,4680,4696,4713,4730,4746,4763,4779,4796,4812,4830,4845,4863,4879,4898,4913,4929,4946,4962,4980,4996,5013,5030,5047,5064,5079,5096,5113,5129,5146,5162,5180,5196,5213,5229,5246,5263,5279,5296,5313,5329,5346,5363,5379,5397,5413,5430,5447,5462,5480,5496,5513,5530,5546,5563,5579,5596,5613,5630,5646,5663,5680,5696,5713,5731,5746,5763,5780,5796,5813,5830,5847,5863,5879,5896,5913,5929,5947,5963,5980,5997,6013,6030,6046,6063,6079,6097,6113,6130,6146,6163,6180,6196,6213,6229,6246,6263,6280,6296,6313,6330,6346,6363,6379,6396,6413,6429,6446,6463,6480,6496,6513,6529,6546,6563,6579,6596,6613,6629,6646,6663,6679,6696,6713,6730,6746,6762,6780,6795,6813,6829,6846,6863,6880,6897,6912,6929,6946,6963,6979,6996,7013,7029,7047,7063,7080,7096,7112,7130,7146,7163,7179,7196,7213,7229,7246,7263,7279,7296,7313,7330,7346,7363,7379,7397,7414,7429,7446,7463,7479,7496,7513,7530,7546,7563,7580,7596,7613,7629,7646,7663,7679,7696,7712,7729,7746,7763,7780,7796,7812,7830,7847,7863,7880,7897,7914,7930,7947,7964,7979,7997,8013,8029,8046,8063,8080,8097,8113,8129,8147,8163,8180,8196,8213,8230,8246,8263,8279,8296,8313,8330,8346,8363,8380,8397,8413,8430,8446,8463,8480,8496,8513,8530,8546,8563,8580,8596,8613,8629,8647,8663,8679,8696,8713,8730,8746,8764,8779,8796,8813,8830,8846,8863,8880,8896,8913,8930,8946,8963,8979,8996,9013,9030,9047,9063,9080,9096,9113,9130,9146,9163,9179,9196,9213,9230,9246,9263,9280,9297,9313,9330,9347,9363,9379,9396,9413,9430,9446,9463,9480,9497,9514,9530,9546,9563,9580,9596,9613,9629,9646,9662,9680,9696,9713,9729,9746,9762,9780,9796,9813,9830,9846,9863,9880,9896,9913,9930,9947,9963,9980,9997,10014,10030,10047,10063,10079,10096,10114,10129,10146,10163,10179,10196,10213,10229,10247,10263,10280,10297,10314,10330,10347,10363,10380,10397,10413,10429,10446,10463,10480,10496,10513,10529,10546,10564,10580,10596,10613,10630,10646,10663,10680,10696,10713,10729,10746,10763,10780,10796,10813,10830,10847,10863,10879,10896,10913,10930,10946,10963,10980,10996,11013,11030,11047,11063,11080,11096,11113,11130,11147,11164,11180,11196,11213,11230,11246,11263,11279,11296,11313,11329,11346,11364,11380,11396,11413,11430,11446,11463,11480,11497,11513,11529,11546,11562,11580,11596,11614,11630,11647,11663,11680,11696,11713,11730,11746,11763,11780,11797,11813,11830,11846,11863,11880,11896,11913,11930,11946,11963,11982,11997,12013,12030,12046,12064,12080,12096,12114,12129,12147,12163,12180,12196,12213,12230,12246,12264,12280,12297,12313,12329,12346,12363,12380,12396,12413,12429,12446,12463,12480,12497,12513,12530,12547,12564,12580,12597,12613,12630,12646,12663,12680,12697,12713,12730,12747,12764,12780,12797,12813,12830,12846,12863,12880,12896,12913,12929,12947,12963,12980,12997,13014,13030,13046,13063,13080,13097,13113,13130,13147,13163,13180,13196,13213,13230,13247,13263,13280,13297,13313,13330,13347,13363,13380,13396,13413,13430,13446,13463,13480,13496,13513,13530,13547,13563,13580,13597,13614,13630,13646,13663,13680,13696,13713,13729,13747,13763,13780,13797,13813,13830,13847,13863,13880,13897,13913,13930,13946,13964,13980,13996,14014,14030,14047,14064,14080,14097,14113,14130,14147,14163,14180,14197,14213,14230,14247,14263,14280,14297,14314,14330,14347,14363,14380,14397,14413,14430,14446,14463,14480,14496,14514,14530,14547,14563,14580,14597,14614,14630,14647,14664,14680,14697,14713,14730,14747,14763,14780,14797,14813,14830,14847,14863,14880,14896,14913,14930,14946,14963,14980,14997,15013,15030,15046,15063,15080,15096,15113,15130,15147,15164,15180,15196,15213,15230,15247,15264,15280,15296,15313,15330,15346,15363,15380,15397,15414,15430,15447,15464,15480,15497,15513,15530,15546,15563,15579,15596,15613,15631,15647,15664,15680,15696,15713,15730,15747,15763,15780,15796,15814,15831,15846,15863,15879,15896,15913,15930,15947,15963,15980,15996,16013,16030,16046,16063,16079,16096,16113,16130,16147,16163,16180,16197,16213,16230,16247,16264,16280,16296,16313,16330,16347,16364,16379,16396,16414,16430,16447,16463,16480,16497,16513,16530,16547,16563,16580,16597,16614,16630,16647,16663,16680,16697,16714,16730,16747,16763,16780,16796,16813,16830,16846,16864,16880,16897,16913,16930,16946,16963,16980,16996,17014,17030,17047,17063,17080,17096,17113,17130,17147,17164,17180,17196,17214,17230,17247,17263,17280,17296,17314,17330,17347,17364,17380,17397,17413,17429,17447,17463,17480,17496,17513,17529,17547,17563,17580,17597,17613,17630,17647,17663,17680,17696,17714,17730,17746,17763,17780,17797,17814,17830,17847,17864,17880,17897,17913,17930,17946,17963,17980,17997,18013,18030,18047,18064,18080,18096,18113,18130,18146,18163,18180,18197,18214,18230,18247,18263,18280,18297,18314,18330,18347,18363,18380,18396,18413,18430,18447,18463,18480,18497,18513,18530,18546,18563,18580,18596,18613,18630,18646,18663,18680,18697,18714,18730,18747,18763,18780,18796,18813,18830,18846,18864,18880,18897,18914,18930,18946,18963,18980,18997,19014,19030,19046,19063,19079,19097,19113,19130,19147,19163,19180,19197,19213,19231,19247,19264,19280,19297,19314,19330,19347,19363,19380,19397,19413,19430,19447,19463,19479,19497,19513,19530,19547,19563,19580,19597,19613,19629,19647,19663,19680,19697,19714,19730,19747,19764,19780,19797,19813,19830,19847,19863,19880,19896,19914,19930,19947,19964,19980,19997,20013,20030,20047,20063,20079,20096,20113,20129,20147,20163,20179,20196,20213,20230,20246,20263,20279,20296,20313,20330,20347,20363,20380,20397,20413,20430,20447,20464,20479,20496,20514,20530,20546,20564,20580,20596,20613,20630,20647,20663,20680,20697,20713,20730,20747,20763,20780,20797,20814,20830,20847,20864,20880,20897,20914,20929,20946,20963,20980,20996,21013,21030,21047,21063,21080,21096,21114,21130,21146,21164,21180,21196,21213,21230,21247,21263,21280,21297,21313,21330,21347,21363,21381,21396,21414,21430,21447,21464,21480,21496,21514,21530,21547,21564,21580,21597,21613,21630,21647,21664,21681,21697,21714,21730,21747,21763,21780,21797,21813,21830,21846,21863,21880,21897,21914,21929,21947,21964,21980,21996,22013,22030,22047,22064,22080,22096,22113,22130,22147,22164,22180,22197,22214,22230,22247,22263,22280,22296,22313,22330,22347,22363,22380,22397,22413,22430,22447,22463,22480,22497,22514,22530,22547,22564,22580,22597,22614,22630,22647,22663,22680,22697,22713,22730,22747,22763,22780,22797,22814,22830,22847,22864,22880,22897,22913,22930,22947,22963,22980,22997,23013,23030,23047,23064,23080,23096,23113,23130,23147,23164,23180,23197,23213,23230,23247,23264,23280,23297,23313,23330,23347,23364,23380,23397,23414,23430,23447,23463,23480,23497,23513,23530,23547,23563,23580,23597,23613,23630,23647,23664,23680,23697,23713,23730,23747,23763,23780,23797,23814,23831,23847,23863,23880,23897,23913,23931,23946,23964,23980,23997,24014,24030,24047,24064,24080,24096,24114,24130,24147,24163,24180,24198,24214,24230,24247,24264,24281,24296,24313,24330,24347,24363,24380,24397,24414,24431,24447,24464,24480,24497,24513,24530,24547,24564,24580,24597,24614,24630,24646,24663,24680,24697,24713,24731,24747,24763,24781,24796,24813,24830,24847,24864,24881,24897,24915,24930,24947,24964,24980,24997,25013,25031,25046,25063,25080,25097,25113,25130,25147,25164,25180,25197,25213,25230,25247,25263,25280,25297,25313,25330,25347,25363,25381,25397,25414,25430,25447,25464,25480,25497,25514,25530,25546,25564,25580,25597,25613,25630,25647,25663,25680,25696,25714,25730,25747,25764,25781,25797,25814,25830,25847,25863,25880,25896,25914,25931,25947,25964,25980,25996,26014,26030,26047,26064,26080,26097,26114,26130,26147,26163,26180,26196,26214,26230,26246,26263,26280,26297,26313,26330,26347,26364,26380,26397,26413,26430,26446,26463,26480,26497,26514,26530,26547,26563,26581,26597,26613,26630,26647,26664,26680,26697,26713,26731,26747,26764,26781,26797,26813,26830,26847,26863,26881,26897,26913,26930,26947,26964,26980,26997,27014,27031,27047,27063,27081,27097,27114,27130,27147,27163,27180,27197,27213,27230,27247,27263,27281,27297,27313,27330,27347,27364,27380,27397,27414,27431,27447,27464,27480,27497,27514,27531,27547,27563,27580,27597,27614,27631,27647,27663,27680,27697,27713,27730,27747,27764,27780,27797,27813,27830,27847,27864,27880,27897,27914,27930,27947,27964,27980,27998,28013,28030,28047,28064,28080,28097,28113,28130,28147,28164,28180,28197,28213,28230,28246,28264,28280,28297,28313,28330,28347,28364,28380,28398,28414,28430,28447,28463,28481,28498,28513,28531,28547,28564,28580,28597,28613,28630,28647,28663,28680,28697,28714,28730,28747,28764,28780,28797,28813,28831,28847,28864,28881,28897,28914,28930,28947,28964,28981,28997,29014,29031,29047,29064,29081,29097,29114,29130,29147,29163,29181,29197,29214,29230,29247,29263,29281,29297,29314,29330,29347,29363,29380,29397,29414,29430,29447,29463,29480,29497,29513,29530,29548,29564,29581,29597,29613,29630,29647,29663,29680,29697,29714,29730,29747,29763,29780,29797,29814,29830,29847,29863,29881,29896,29914,29930,29947,29963,29980,29997,30013,30031,30047,30064,30080,30098,30113,30131,30147,30164,30180,30197,30214,30231,30247,30263,30281,30297,30314,30330,30347,30364,30380,30397,30414,30431,30447,30464,30480,30497,30514,30530,30547,30564,30580,30597,30613,30630,30648,30664,30680,30697,30713,30731,30747,30764,30780,30797,30814,30830,30846,30864,30880,30897,30913,30930,30947,30964,30980,30997,31014,31030,31048,31064,31080,31097,31114,31130,31147,31164,31180,31197,31213,31231,31247,31263,31281,31298,31313,31331,31347,31364,31380,31397,31414,31431,31447,31463,31480,31497,31514,31531,31547,31564,31580,31598,31614,31630,31648,31664,31681,31697,31714,31730,31747,31764,31780,31797,31814,31830,31848,31863,31881,31897,31914,31930,31947,31964,31981,31997,32013,32030,32047,32064,32080,32097,32114,32130,32147,32163,32181,32198,32213,32230,32247,32263,32281,32297,32313,32330,32348,32364,32380,32396,32414,32431,32447,32464,32480,32497,32513,32530,32548,32564,32581,32597,32614,32631,32648,32664,32681,32697,32713,32730,32747,32763,32780,32797,32814,32830,32847,32864,32880,32897,32914,32930,32948,32964,32980,32997,33014,33030,33047,33064,33081,33097,33114,33130,33147,33164,33181,33197,33213,33231,33247,33264,33281,33297,33314,33330,33347,33364,33381,33397,33414,33431,33448,33464,33481,33498,33514,33531,33548,33564,33581,33597,33614,33631,33647,33664,33681,33697,33713,33730,33747,33764,33781,33797,33814,33830,33847,33864,33880,33897,33914,33931,33948,33963,33980,33997,34014,34030,34049,34063,34080,34097,34114,34130,34147,34164,34181,34197,34213,34231,34247,34264,34281,34297,34313,34330,34347,34364,34380,34397,34414,34430,34447,34464,34481,34497,34513,34530,34548,34563,34581,34598,34614,34631,34648,34664,34681,34697,34714,34731,34748],"hit":[null],"x":[0.027210884353741496,0.034013605442176874,0.08163265306122448,0.1870748299319728,0.42857142857142855,0.7346938775510204,0.7517006802721088,0.7551020408163265,0.7551020408163265,0.7551020408163265,0.7551020408163265,0.7551020408163265,0.7551020408163265,0.7551020408163265,0.7551020408163265,0.7551020408163265,0.7551020408163265,0.7551020408163265,0.7551020408163265,0.7551020408163265,0.7551020408163265,0.7551020408163265,0.7551020408163265,0.7551020408163265,0.7551020408163265,0.7551020408163265,0.7551020408163265,0.7551020408163265,0.7551020408163265,0.7551020408163265,0.7551020408163265,0.7551020408163265,0.7551020408163265,0.7551020408163265,0.7551020408163265,0.7551020408163265,0.7551020408163265,0.7482993197278912,0.01020408163265306,-0.7006802721088435,-1.3741496598639455,-1.8129251700680271,-1.9829931972789117,-2.0408163265306123,-2.0408163265306123,-2.0408163265306123,-2.0374149659863945,-2.0374149659863945,-2.0408163265306123,-2.0408163265306123,-2.0408163265306123,-2.0408163265306123,-2.0408163265306123,-2.0408163265306123,-2.0408163265306123,-2.0408163265306123,-2.0408163265306123,-2.0408163265306123,-2.0408163265306123,-2.0340136054421767,-2.0272108843537415,-2.0272108843537415,-2.0272108843537415,-2.0272108843537415,-1.9251700680272108,-1.6156462585034013,-1.098639455782313,-0.3979591836734694,0.35714285714285715,0.9047619047619048,1.1870748299319729,1.1870748299319729,1.183673469387755,1.1700680272108843,1.1598639455782314,1.1428571428571428,1.08843537414966,1.0816326530612246,1.08843537414966,1.1428571428571428,1.2891156462585034,1.380952380952381,1.3979591836734695,1.3911564625850341,1.3843537414965987,1.3775510204081634,1.3775510204081634,1.3673469387755102,1.3197278911564625,1.08843537414966,0.8367346938775511,0.608843537414966,0.5034013605442177,0.4897959183673469,0.5,0.5544217687074829,0.5918367346938775,0.6292517006802721,0.6836734693877551,0.8129251700680272,1.0034013605442176,1.5170068027210883,1.8877551020408163,2.0136054421768708,2.0238095238095237,2.0238095238095237,2.010204081632653,2,1.9931972789115646,1.9863945578231292,1.9727891156462585,1.9183673469387754,1.7959183673469388,1.748299319727891,1.7448979591836735,1.7448979591836735,1.7448979591836735,1.7448979591836735,1.7448979591836735,1.7414965986394557,1.7551020408163265,1.8095238095238095,1.8911564625850341,1.935374149659864,1.945578231292517,1.945578231292517,1.945578231292517,1.945578231292517,1.945578231292517,1.945578231292517,1.945578231292517,1.945578231292517,1.945578231292517,1.945578231292517,1.945578231292517,1.945578231292517,1.935374149659864,1.8503401360544218,1.8061224489795917,1.7210884353741496,1.5476190476190477,1.217687074829932,0.9149659863945578,0.8197278911564626,0.7891156462585034,0.7891156462585034,0.7891156462585034,0.7891156462585034,0.7891156462585034,0.782312925170068,0.7891156462585034,0.8027210884353742,0.7891156462585034,0.7346938775510204,0.6768707482993197,0.6190476190476191,0.5714285714285714,0.5612244897959183,0.54421768707483,0.5034013605442177,0.4489795918367347,0.3945578231292517,0.36394557823129253,0.35714285714285715,0.35714285714285715,0.35714285714285715,0.35714285714285715,0.35714285714285715,0.35374149659863946,0.35374149659863946,0.35374149659863946,0.35374149659863946,0.35374149659863946,0.35034013605442177,0.35034013605442177,0.35034013605442177,0.35374149659863946,0.35374149659863946,0.35374149659863946,0.35374149659863946,0.35374149659863946,0.35374149659863946,0.35374149659863946,0.35374149659863946,0.35714285714285715,0.36054421768707484,0.36054421768707484,0.36054421768707484,0.36054421768707484,0.36054421768707484,0.36054421768707484,0.36054421768707484,0.36054421768707484,0.36054421768707484,0.36054421768707484,0.35374149659863946,0.35374149659863946,0.35714285714285715,0.36054421768707484,0.35714285714285715,0.3469387755102041,0.3299319727891156,0.32653061224489793,0.3231292517006803,0.30952380952380953,0.272108843537415,0.19047619047619047,0.1360544217687075,0.0782312925170068,0.034013605442176874,0.013605442176870748,0.013605442176870748,0.013605442176870748,0.017006802721088437,0.027210884353741496,0.027210884353741496,0.027210884353741496,0.027210884353741496,0.027210884353741496,0.027210884353741496,0.027210884353741496,0.027210884353741496,0.027210884353741496,0.027210884353741496,0.027210884353741496,0.027210884353741496,0.027210884353741496,0.027210884353741496,0.027210884353741496,0.027210884353741496,0.027210884353741496,0.027210884353741496,0.027210884353741496,0.027210884353741496,0.027210884353741496,0.027210884353741496,0.027210884353741496,0.027210884353741496,0.027210884353741496,0.02040816326530612,0.013605442176870748,0.01020408163265306,0.01020408163265306,0.01020408163265306,0.006802721088435374,0,0,-0.003401360544217687,-0.003401360544217687,-0.006802721088435374,-0.006802721088435374,-0.006802721088435374,-0.006802721088435374,-0.006802721088435374,-0.006802721088435374,-0.006802721088435374,-0.006802721088435374,-0.006802721088435374,-0.006802721088435374,-0.006802721088435374,-0.006802721088435374,-0.01020408163265306,-0.02040816326530612,-0.034013605442176874,-0.04421768707482993,-0.05442176870748299,-0.061224489795918366,-0.061224489795918366,-0.061224489795918366,-0.061224489795918366,-0.061224489795918366,-0.061224489795918366,-0.061224489795918366,-0.061224489795918366,-0.061224489795918366,-0.061224489795918366,-0.061224489795918366,-0.061224489795918366,-0.061224489795918366,-0.061224489795918366,-0.061224489795918366,-0.061224489795918366,-0.061224489795918366,-0.061224489795918366,-0.061224489795918366,-0.061224489795918366,-0.061224489795918366,-0.061224489795918366,-0.061224489795918366,-0.061224489795918366,-0.061224489795918366,-0.061224489795918366,-0.061224489795918366,-0.061224489795918366,-0.061224489795918366,-0.061224489795918366,-0.061224489795918366,-0.061224489795918366,-0.061224489795918366,-0.061224489795918366,-0.061224489795918366,-0.061224489795918366,-0.061224489795918366,-0.061224489795918366,-0.061224489795918366,-0.061224489795918366,-0.061224489795918366,-0.061224489795918366,-0.061224489795918366,-0.061224489795918366,-0.061224489795918366,-0.061224489795918366,-0.061224489795918366,-0.061224489795918366,-0.061224489795918366,-0.061224489795918366,-0.061224489795918366,-0.061224489795918366,-0.061224489795918366,-0.061224489795918366,-0.061224489795918366,-0.061224489795918366,-0.061224489795918366,-0.061224489795918366,-0.061224489795918366,-0.061224489795918366,-0.061224489795918366,-0.061224489795918366,-0.061224489795918366,-0.061224489795918366,-0.061224489795918366,-0.061224489795918366,-0.061224489795918366,-0.061224489795918366,-0.061224489795918366,-0.05782312925170068,-0.05442176870748299,-0.05102040816326531,-0.034013605442176874,0.08163265306122448,0.23129251700680273,0.40476190476190477,0.5306122448979592,0.5782312925170068,0.5816326530612245,0.5816326530612245,0.5850340136054422,0.6258503401360545,0.782312925170068,1,1.129251700680272,1.1564625850340136,1.1564625850340136,1.1564625850340136,1.1564625850340136,1.1564625850340136,1.1598639455782314,1.1700680272108843,1.1972789115646258,1.2108843537414966,1.2108843537414966,1.1972789115646258,1.183673469387755,1.1700680272108843,1.1598639455782314,1.1496598639455782,1.1224489795918366,1.0510204081632653,0.9795918367346939,0.9217687074829932,0.8843537414965986,0.8843537414965986,0.8775510204081632,0.8401360544217688,0.6530612244897959,0.5034013605442177,0.4217687074829932,0.3741496598639456,0.3673469387755102,0.3673469387755102,0.3673469387755102,0.3673469387755102,0.3673469387755102,0.3673469387755102,0.391156462585034,0.42517006802721086,0.47278911564625853,0.5272108843537415,0.5884353741496599,0.717687074829932,0.7891156462585034,0.8333333333333334,0.8401360544217688,0.8401360544217688,0.8367346938775511,0.8299319727891157,0.8163265306122449,0.8027210884353742,0.7891156462585034,0.7789115646258503,0.7653061224489796,0.7517006802721088,0.7414965986394558,0.7278911564625851,0.7244897959183674,0.7244897959183674,0.7244897959183674,0.7244897959183674,0.7210884353741497,0.7210884353741497,0.6836734693877551,0.6156462585034014,0.5510204081632653,0.45918367346938777,0.4013605442176871,0.35034013605442177,0.32653061224489793,0.3163265306122449,0.3163265306122449,0.3163265306122449,0.3129251700680272,0.30952380952380953,0.30952380952380953,0.30952380952380953,0.30952380952380953,0.30952380952380953,0.30612244897959184,0.29931972789115646,0.272108843537415,0.22789115646258504,0.20408163265306123,0.19727891156462585,0.19727891156462585,0.19727891156462585,0.19727891156462585,0.19387755102040816,0.19047619047619047,0.18027210884353742,0.17687074829931973,0.17687074829931973,0.17687074829931973,0.17687074829931973,0.1598639455782313,0.14965986394557823,0.13945578231292516,0.12244897959183673,0.11224489795918367,0.11224489795918367,0.11224489795918367,0.11904761904761904,0.12244897959183673,0.12244897959183673,0.12244897959183673,0.12244897959183673,0.12244897959183673,0.12244897959183673,0.12244897959183673,0.12244897959183673,0.12244897959183673,0.12244897959183673,0.12244897959183673,0.12244897959183673,0.12244897959183673,0.12244897959183673,0.12244897959183673,0.12244897959183673,0.12244897959183673,0.12244897959183673,0.12244897959183673,0.12244897959183673,0.12244897959183673,0.12244897959183673,0.12244897959183673,0.12244897959183673,0.12244897959183673,0.12244897959183673,0.12244897959183673,0.12244897959183673,0.12244897959183673,0.12244897959183673,0.12244897959183673,0.12244897959183673,0.12244897959183673,0.12244897959183673,0.12244897959183673,0.12244897959183673,0.12244897959183673,0.12244897959183673,0.12244897959183673,0.12244897959183673,0.12244897959183673,0.12244897959183673,0.12244897959183673,0.12244897959183673,0.12244897959183673,0.12244897959183673,0.12244897959183673,0.12244897959183673,0.12244897959183673,0.12244897959183673,0.12244897959183673,0.12244897959183673,0.12244897959183673,0.12244897959183673,0.12244897959183673,0.12244897959183673,0.12244897959183673,0.12244897959183673,0.12244897959183673,0.12244897959183673,0.12244897959183673,0.12244897959183673,0.12244897959183673,0.12244897959183673,0.12244897959183673,0.12244897959183673,0.12244897959183673,0.12244897959183673,0.12244897959183673,0.12244897959183673,0.12244897959183673,0.12244897959183673,0.12244897959183673,0.12585034013605442,0.1326530612244898,0.14285714285714285,0.14965986394557823,0.14965986394557823,0.14965986394557823,0.14965986394557823,0.14965986394557823,0.14965986394557823,0.14965986394557823,0.15306122448979592,0.15306122448979592,0.15306122448979592,0.15306122448979592,0.15306122448979592,0.15306122448979592,0.15306122448979592,0.15306122448979592,0.15306122448979592,0.15306122448979592,0.15306122448979592,0.15306122448979592,0.15306122448979592,0.14965986394557823,0.14965986394557823,0.14965986394557823,0.1564625850340136,0.16326530612244897,0.18027210884353742,0.19047619047619047,0.19387755102040816,0.19387755102040816,0.19387755102040816,0.19387755102040816,0.19387755102040816,0.20408163265306123,0.20408163265306123,0.20408163265306123,0.20748299319727892,0.2108843537414966,0.2108843537414966,0.2108843537414966,0.2108843537414966,0.2108843537414966,0.2108843537414966,0.2108843537414966,0.2108843537414966,0.21428571428571427,0.21428571428571427,0.21428571428571427,0.21428571428571427,0.2108843537414966,0.20408163265306123,0.20408163265306123,0.20408163265306123,0.20408163265306123,0.20408163265306123,0.20408163265306123,0.20408163265306123,0.20408163265306123,0.20408163265306123,0.20408163265306123,0.19047619047619047,0.18027210884353742,0.17006802721088435,0.16666666666666666,0.21768707482993196,0.25510204081632654,0.282312925170068,0.2891156462585034,0.2891156462585034,0.2755102040816326,0.2619047619047619,0.24489795918367346,0.24489795918367346,0.25170068027210885,0.2857142857142857,0.3469387755102041,0.43537414965986393,0.5680272108843537,0.7108843537414966,0.8979591836734694,1.08843537414966,1.2448979591836735,1.3265306122448979,1.3401360544217686,1.3401360544217686,1.3401360544217686,1.336734693877551,1.2925170068027212,1.2414965986394557,1.183673469387755,1.1394557823129252,1.1020408163265305,1.0816326530612246,1.0714285714285714,1.0680272108843538,1.0680272108843538,1.0680272108843538,1.0748299319727892,1.0850340136054422,1.08843537414966,1.08843537414966,1.08843537414966,1.08843537414966,1.098639455782313,1.1156462585034013,1.1428571428571428,1.1428571428571428,1.1428571428571428,1.1428571428571428,1.129251700680272,1.1258503401360545,1.1258503401360545,1.1258503401360545,1.1258503401360545,1.1258503401360545,1.1258503401360545,1.119047619047619,1.1156462585034013,1.1156462585034013,1.1156462585034013,1.1156462585034013,1.1122448979591837,1.1122448979591837,1.0850340136054422,0.9727891156462585,0.7925170068027211,0.6530612244897959,0.54421768707483,0.54421768707483,0.54421768707483,0.54421768707483,0.54421768707483,0.54421768707483,0.5408163265306123,0.5238095238095238,0.4897959183673469,0.45918367346938777,0.445578231292517,0.41496598639455784,0.35034013605442177,0.20408163265306123,0.1054421768707483,0.034013605442176874,0.003401360544217687,0.003401360544217687,0.003401360544217687,0.01020408163265306,0.01020408163265306,0.01020408163265306,0.01020408163265306,0.01020408163265306,0.01020408163265306,0.013605442176870748,0.023809523809523808,0.030612244897959183,0.04421768707482993,0.05442176870748299,0.05782312925170068,0.061224489795918366,0.06462585034013606,0.06462585034013606,0.06462585034013606,0.05442176870748299,0.04421768707482993,0.034013605442176874,0.034013605442176874,0.034013605442176874,0.027210884353741496,0.02040816326530612,0.013605442176870748,0.013605442176870748,0.013605442176870748,0.013605442176870748,0.013605442176870748,0.013605442176870748,0.013605442176870748,0.013605442176870748,0.003401360544217687,0,0,0,-0.01020408163265306,-0.01020408163265306,-0.01020408163265306,-0.01020408163265306,-0.01020408163265306,-0.01020408163265306,-0.01020408163265306,-0.01020408163265306,-0.01020408163265306,-0.01020408163265306,-0.01020408163265306,-0.01020408163265306,-0.01020408163265306,-0.01020408163265306,-0.01020408163265306,-0.01020408163265306,-0.01020408163265306,-0.01020408163265306,-0.01020408163265306,-0.01020408163265306,-0.01020408163265306,-0.013605442176870748,-0.013605442176870748,-0.013605442176870748,-0.013605442176870748,-0.013605442176870748,-0.013605442176870748,-0.013605442176870748,-0.013605442176870748,-0.013605442176870748,-0.013605442176870748,-0.013605442176870748,-0.013605442176870748,-0.013605442176870748,-0.013605442176870748,-0.013605442176870748,-0.013605442176870748,-0.013605442176870748,-0.013605442176870748,-0.013605442176870748,-0.013605442176870748,-0.013605442176870748,-0.013605442176870748,-0.013605442176870748,-0.013605442176870748,-0.013605442176870748,-0.013605442176870748,-0.013605442176870748,-0.013605442176870748,-0.013605442176870748,-0.013605442176870748,-0.013605442176870748,-0.013605442176870748,-0.013605442176870748,-0.013605442176870748,-0.013605442176870748,-0.013605442176870748,-0.013605442176870748,-0.013605442176870748,-0.013605442176870748,-0.013605442176870748,-0.013605442176870748,-0.013605442176870748,-0.013605442176870748,-0.013605442176870748,-0.013605442176870748,-0.013605442176870748,-0.013605442176870748,-0.013605442176870748,-0.013605442176870748,-0.013605442176870748,-0.013605442176870748,-0.013605442176870748,-0.013605442176870748,-0.013605442176870748,-0.013605442176870748,-0.013605442176870748,-0.013605442176870748,-0.013605442176870748,-0.013605442176870748,-0.013605442176870748,-0.013605442176870748,-0.013605442176870748,-0.013605442176870748,-0.013605442176870748,-0.013605442176870748,-0.013605442176870748,-0.013605442176870748,-0.013605442176870748,-0.013605442176870748,-0.013605442176870748,-0.013605442176870748,-0.013605442176870748,-0.013605442176870748,-0.013605442176870748,-0.013605442176870748,-0.013605442176870748,-0.013605442176870748,-0.013605442176870748,-0.013605442176870748,-0.013605442176870748,-0.013605442176870748,-0.013605442176870748,-0.013605442176870748,-0.013605442176870748,-0.013605442176870748,-0.013605442176870748,-0.013605442176870748,-0.013605442176870748,-0.013605442176870748,-0.013605442176870748,-0.013605442176870748,-0.013605442176870748,-0.013605442176870748,-0.013605442176870748,-0.013605442176870748,-0.013605442176870748,-0.013605442176870748,-0.013605442176870748,-0.013605442176870748,-0.013605442176870748,-0.013605442176870748,-0.013605442176870748,-0.013605442176870748,-0.013605442176870748,-0.013605442176870748,-0.013605442176870748,-0.013605442176870748,-0.013605442176870748,-0.013605442176870748,-0.013605442176870748,-0.013605442176870748,-0.013605442176870748,-0.013605442176870748,-0.013605442176870748,-0.013605442176870748,-0.013605442176870748,-0.013605442176870748,-0.013605442176870748,-0.013605442176870748,-0.013605442176870748,-0.013605442176870748,-0.013605442176870748,-0.013605442176870748,-0.013605442176870748,-0.013605442176870748,-0.013605442176870748,-0.013605442176870748,-0.013605442176870748,-0.013605442176870748,-0.013605442176870748,-0.013605442176870748,-0.013605442176870748,-0.013605442176870748,-0.013605442176870748,-0.01020408163265306,0.034013605442176874,0.09183673469387756,0.1598639455782313,0.2687074829931973,0.3741496598639456,0.4965986394557823,0.5578231292517006,0.564625850340136,0.564625850340136,0.564625850340136,0.564625850340136,0.5544217687074829,0.5408163265306123,0.5340136054421769,0.5340136054421769,0.5340136054421769,0.5340136054421769,0.5340136054421769,0.5340136054421769,0.5340136054421769,0.5272108843537415,0.5238095238095238,0.5238095238095238,0.5170068027210885,0.5068027210884354,0.5,0.5,0.5,0.5,0.5,0.5,0.5,0.5,0.5,0.5,0.5,0.5,0.5,0.5,0.5,0.5,0.5,0.4897959183673469,0.4897959183673469,0.4897959183673469,0.4897959183673469,0.4897959183673469,0.4897959183673469,0.47959183673469385,0.43537414965986393,0.4013605442176871,0.38095238095238093,0.35714285714285715,0.3401360544217687,0.30952380952380953,0.29931972789115646,0.29931972789115646,0.29931972789115646,0.29931972789115646,0.30612244897959184,0.3129251700680272,0.3163265306122449,0.3163265306122449,0.3197278911564626,0.32653061224489793,0.3435374149659864,0.36054421768707484,0.3673469387755102,0.3741496598639456,0.3741496598639456,0.3741496598639456,0.3707482993197279,0.3673469387755102,0.3673469387755102,0.3673469387755102,0.36054421768707484,0.35374149659863946,0.3401360544217687,0.3231292517006803,0.3197278911564626,0.3163265306122449,0.3163265306122449,0.3163265306122449,0.3163265306122449,0.3163265306122449,0.3163265306122449,0.36394557823129253,0.46938775510204084,0.5170068027210885,0.5476190476190477,0.5544217687074829,0.5544217687074829,0.5544217687074829,0.5544217687074829,0.5782312925170068,0.6326530612244898,0.6564625850340136,0.6564625850340136,0.6326530612244898,0.6054421768707483,0.5986394557823129,0.5986394557823129,0.5986394557823129,0.5986394557823129,0.5986394557823129,0.5986394557823129,0.5986394557823129,0.5986394557823129,0.5986394557823129,0.5986394557823129,0.5986394557823129,0.5986394557823129,0.5986394557823129,0.5986394557823129,0.5986394557823129,0.5918367346938775,0.5850340136054422,0.5782312925170068,0.5782312925170068,0.5782312925170068,0.5782312925170068,0.5782312925170068,0.5782312925170068,0.5782312925170068,0.5782312925170068,0.5782312925170068,0.5782312925170068,0.5782312925170068,0.5782312925170068,0.5782312925170068,0.5782312925170068,0.5782312925170068,0.5782312925170068,0.5782312925170068,0.5782312925170068,0.5782312925170068,0.5782312925170068,0.5782312925170068,0.5782312925170068,0.5782312925170068,0.5748299319727891,0.5748299319727891,0.5748299319727891,0.5748299319727891,0.5748299319727891,0.5748299319727891,0.5748299319727891,0.5714285714285714,0.5714285714285714,0.5714285714285714,0.5714285714285714,0.5714285714285714,0.5714285714285714,0.5714285714285714,0.5714285714285714,0.5714285714285714,0.5714285714285714,0.5714285714285714,0.5714285714285714,0.5714285714285714,0.5714285714285714,0.5714285714285714,0.5714285714285714,0.5714285714285714,0.5714285714285714,0.5714285714285714,0.5714285714285714,0.5714285714285714,0.5714285714285714,0.5714285714285714,0.5714285714285714,0.5714285714285714,0.5714285714285714,0.5714285714285714,0.5714285714285714,0.5714285714285714,0.5714285714285714,0.5714285714285714,0.5714285714285714,0.5714285714285714,0.5714285714285714,0.5714285714285714,0.5714285714285714,0.5714285714285714,0.5714285714285714,0.5714285714285714,0.5714285714285714,0.5714285714285714,0.5714285714285714,0.5714285714285714,0.5714285714285714,0.5714285714285714,0.5714285714285714,0.5714285714285714,0.5714285714285714,0.5714285714285714,0.5714285714285714,0.5714285714285714,0.5714285714285714,0.5714285714285714,0.5714285714285714,0.5714285714285714,0.5714285714285714,0.5714285714285714,0.5714285714285714,0.5714285714285714,0.5714285714285714,0.5714285714285714,0.5714285714285714,0.5714285714285714,0.5714285714285714,0.5714285714285714,0.5714285714285714,0.5714285714285714,0.5714285714285714,0.5714285714285714,0.5714285714285714,0.5714285714285714,0.5714285714285714,0.5714285714285714,0.5714285714285714,0.5714285714285714,0.5714285714285714,0.5714285714285714,0.5714285714285714,0.5714285714285714,0.5714285714285714,0.5714285714285714,0.5714285714285714,0.5714285714285714,0.5714285714285714,0.5714285714285714,0.5714285714285714,0.5714285714285714,0.5714285714285714,0.5714285714285714,0.5714285714285714,0.5714285714285714,0.5714285714285714,0.5714285714285714,0.5714285714285714,0.5714285714285714,0.5714285714285714,0.5714285714285714,0.5714285714285714,0.5714285714285714,0.5714285714285714,0.5714285714285714,0.5714285714285714,0.5714285714285714,0.5714285714285714,0.5714285714285714,0.5714285714285714,0.5714285714285714,0.5714285714285714,0.5714285714285714,0.5714285714285714,0.5714285714285714,0.5714285714285714,0.5714285714285714,0.5714285714285714,0.5714285714285714,0.5714285714285714,0.5714285714285714,0.5714285714285714,0.5714285714285714,0.5714285714285714,0.5714285714285714,0.5714285714285714,0.5714285714285714,0.5714285714285714,0.5714285714285714,0.5714285714285714,0.5714285714285714,0.5714285714285714,0.5714285714285714,0.5714285714285714,0.5714285714285714,0.5714285714285714,0.5714285714285714,0.5714285714285714,0.5714285714285714,0.5714285714285714,0.5714285714285714,0.5714285714285714,0.5714285714285714,0.5714285714285714,0.5714285714285714,0.5714285714285714,0.5714285714285714,0.5714285714285714,0.5714285714285714,0.5714285714285714,0.5714285714285714,0.5714285714285714,0.5714285714285714,0.5714285714285714,0.5714285714285714,0.5714285714285714,0.5714285714285714,0.5714285714285714,0.5714285714285714,0.5714285714285714,0.5714285714285714,0.5714285714285714,0.5714285714285714,0.5714285714285714,0.5714285714285714,0.5714285714285714,0.5714285714285714,0.5714285714285714,0.5714285714285714,0.5714285714285714,0.5714285714285714,0.5714285714285714,0.5714285714285714,0.5714285714285714,0.5714285714285714,0.5714285714285714,0.5714285714285714,0.5714285714285714,0.5714285714285714,0.5714285714285714,0.5714285714285714,0.5714285714285714,0.5714285714285714,0.5714285714285714,0.5714285714285714,0.5714285714285714,0.5714285714285714,0.5714285714285714,0.5714285714285714,0.5714285714285714,0.5714285714285714,0.5714285714285714,0.5714285714285714,0.5714285714285714,0.5714285714285714,0.5714285714285714,0.5714285714285714,0.5714285714285714,0.5714285714285714,0.5714285714285714,0.5714285714285714,0.5714285714285714,0.5714285714285714,0.5714285714285714,0.5714285714285714,0.5714285714285714,0.5714285714285714,0.5714285714285714,0.5714285714285714,0.5714285714285714,0.5714285714285714,0.5714285714285714,0.5714285714285714,0.5714285714285714,0.5714285714285714,0.5714285714285714,0.5714285714285714,0.5714285714285714,0.5714285714285714,0.5714285714285714,0.5714285714285714,0.5714285714285714,0.5714285714285714,0.5714285714285714,0.5714285714285714,0.5714285714285714,0.5714285714285714,0.5714285714285714,0.5714285714285714,0.5714285714285714,0.5714285714285714,0.5714285714285714,0.5714285714285714,0.5714285714285714,0.5714285714285714,0.5714285714285714,0.5714285714285714,0.5714285714285714,0.5714285714285714,0.5714285714285714,0.5714285714285714,0.5714285714285714,0.5714285714285714,0.5714285714285714,0.5714285714285714,0.5714285714285714,0.5714285714285714,0.5714285714285714,0.5714285714285714,0.5714285714285714,0.5714285714285714,0.5714285714285714,0.5680272108843537,0.5680272108843537,0.5680272108843537,0.5680272108843537,0.5680272108843537,0.5680272108843537,0.5680272108843537,0.5680272108843537,0.5680272108843537,0.5680272108843537,0.5680272108843537,0.5680272108843537,0.564625850340136,0.5612244897959183,0.5578231292517006,0.5544217687074829,0.54421768707483,0.5374149659863946,0.5306122448979592,0.5306122448979592,0.5306122448979592,0.5306122448979592,0.5306122448979592,0.5306122448979592,0.5306122448979592,0.5374149659863946,0.5476190476190477,0.5578231292517006,0.6258503401360545,0.7108843537414966,0.7619047619047619,0.7619047619047619,0.7653061224489796,0.7653061224489796,0.7653061224489796,0.7619047619047619,0.7551020408163265,0.7482993197278912,0.7482993197278912,0.7482993197278912,0.7482993197278912,0.7482993197278912,0.7482993197278912,0.7551020408163265,0.7551020408163265,0.7551020408163265,0.7551020408163265,0.7551020408163265,0.7585034013605442,0.7687074829931972,0.7789115646258503,0.7891156462585034,0.7891156462585034,0.7925170068027211,0.7925170068027211,0.7925170068027211,0.7925170068027211,0.7891156462585034,0.7857142857142857,0.782312925170068,0.7755102040816326,0.7687074829931972,0.7551020408163265,0.7346938775510204,0.7142857142857143,0.6802721088435374,0.6428571428571429,0.5850340136054422,0.5102040816326531,0.4897959183673469,0.48639455782312924,0.48639455782312924,0.47619047619047616,0.4489795918367347,0.4217687074829932,0.41156462585034015,0.41156462585034015,0.41496598639455784,0.46258503401360546,0.5476190476190477,0.7074829931972789,0.8741496598639455,1.0408163265306123,1.2312925170068028,1.2448979591836735,1.2448979591836735,1.2380952380952381,1.2380952380952381,1.2380952380952381,1.2312925170068028,1.2244897959183674,1.2108843537414966,1.2006802721088434,1.1972789115646258,1.1972789115646258,1.1938775510204083,1.183673469387755,1.1598639455782314,1.1428571428571428,1.129251700680272,1.129251700680272,1.129251700680272,1.129251700680272,1.129251700680272,1.129251700680272,1.129251700680272,1.129251700680272,1.129251700680272,1.129251700680272,1.129251700680272,1.129251700680272,1.129251700680272,1.129251700680272,1.129251700680272,1.129251700680272,1.129251700680272,1.129251700680272,1.129251700680272,1.129251700680272,1.129251700680272,1.129251700680272,1.129251700680272,1.129251700680272,1.129251700680272,1.129251700680272,1.129251700680272,1.129251700680272,1.129251700680272,1.129251700680272,1.129251700680272,1.129251700680272,1.129251700680272,1.129251700680272,1.129251700680272,1.129251700680272,1.129251700680272,1.129251700680272,1.129251700680272,1.129251700680272,1.129251700680272,1.129251700680272,1.129251700680272,1.129251700680272,1.129251700680272,1.129251700680272,1.129251700680272,1.129251700680272,1.129251700680272,1.129251700680272,1.129251700680272,1.129251700680272,1.129251700680272,1.129251700680272,1.129251700680272,1.129251700680272,1.129251700680272,1.129251700680272,1.129251700680272,1.129251700680272,1.129251700680272,1.129251700680272,1.129251700680272,1.129251700680272,1.129251700680272,1.129251700680272,1.129251700680272,1.129251700680272,1.129251700680272,1.129251700680272,1.129251700680272,1.129251700680272,1.129251700680272,1.129251700680272,1.129251700680272,1.129251700680272,1.129251700680272,1.129251700680272,1.129251700680272,1.129251700680272,1.129251700680272,1.129251700680272,1.129251700680272,1.129251700680272,1.129251700680272,1.129251700680272,1.1258503401360545,1.1258503401360545,1.119047619047619,1.1156462585034013,1.1088435374149659,1.1088435374149659,1.1088435374149659,1.1088435374149659,1.1088435374149659,1.1088435374149659,1.1088435374149659,1.1088435374149659,1.1088435374149659,1.1088435374149659,1.1088435374149659,1.1088435374149659,1.1088435374149659,1.1088435374149659,1.1088435374149659,1.1088435374149659,1.1088435374149659,1.1088435374149659,1.1088435374149659,1.1088435374149659,1.1088435374149659,1.1088435374149659,1.1088435374149659,1.1088435374149659,1.1088435374149659,1.1088435374149659,1.1088435374149659,1.1088435374149659,1.1088435374149659,1.1088435374149659,1.1088435374149659,1.1088435374149659,1.1088435374149659,1.1088435374149659,1.1088435374149659,1.1088435374149659,1.1088435374149659,1.1088435374149659,1.1088435374149659,1.1088435374149659,1.1088435374149659,1.1088435374149659,1.1088435374149659,1.1088435374149659,1.1088435374149659,1.1088435374149659,1.1088435374149659,1.1088435374149659,1.1088435374149659,1.1088435374149659,1.1088435374149659,1.1088435374149659,1.1088435374149659,1.1088435374149659,1.1088435374149659,1.1088435374149659,1.1088435374149659,1.1088435374149659,1.1088435374149659,1.1088435374149659,1.1088435374149659,1.1088435374149659,1.1088435374149659,1.1088435374149659,1.1088435374149659,1.1088435374149659,1.1088435374149659,1.1088435374149659,1.1088435374149659,1.1088435374149659,1.1088435374149659,1.1088435374149659,1.1088435374149659,1.1088435374149659,1.1088435374149659,1.1088435374149659,1.1088435374149659,1.1088435374149659,1.1088435374149659,1.1088435374149659,1.1088435374149659,1.1088435374149659,1.1088435374149659,1.1088435374149659,1.1088435374149659,1.1088435374149659,1.1088435374149659,1.1088435374149659,1.1088435374149659,1.1088435374149659,1.1088435374149659,1.1088435374149659,1.1088435374149659,1.1088435374149659,1.1088435374149659,1.1088435374149659,1.1088435374149659,1.1088435374149659,1.1088435374149659,1.1088435374149659,1.1088435374149659,1.1088435374149659,1.1088435374149659,1.1088435374149659,1.1088435374149659,1.1088435374149659,1.1088435374149659,1.1088435374149659,1.1088435374149659,1.1088435374149659,1.1088435374149659,1.1088435374149659,1.1088435374149659,1.1088435374149659,1.1088435374149659,1.1088435374149659,1.1088435374149659,1.1088435374149659,1.1088435374149659,1.1088435374149659,1.1088435374149659,1.1088435374149659,1.1088435374149659,1.1088435374149659,1.1088435374149659,1.1088435374149659,1.1088435374149659,1.1088435374149659,1.1088435374149659,1.1088435374149659,1.1088435374149659,1.1088435374149659,1.1088435374149659,1.1088435374149659,1.1088435374149659,1.1088435374149659,1.1088435374149659,1.1088435374149659,1.1088435374149659,1.1088435374149659,1.1088435374149659,1.1088435374149659,1.1088435374149659,1.1088435374149659,1.1088435374149659,1.1088435374149659,1.1088435374149659,1.1088435374149659,1.1088435374149659,1.1088435374149659,1.1088435374149659,1.1088435374149659,1.1088435374149659,1.1088435374149659,1.1088435374149659,1.1088435374149659,1.1088435374149659,1.1088435374149659,1.1088435374149659,1.1088435374149659,1.1088435374149659,1.1088435374149659,1.1088435374149659,1.1088435374149659,1.1088435374149659,1.1088435374149659,1.1088435374149659,1.1088435374149659,1.1088435374149659,1.1088435374149659,1.1088435374149659,1.1088435374149659,1.1088435374149659,1.1088435374149659,1.1088435374149659,1.1088435374149659,1.1088435374149659,1.1088435374149659,1.1088435374149659,1.1088435374149659,1.1088435374149659,1.1088435374149659,1.1088435374149659,1.1088435374149659,1.1088435374149659,1.1088435374149659,1.1088435374149659,1.1088435374149659,1.1088435374149659,1.1088435374149659,1.1088435374149659,1.1088435374149659,1.1088435374149659,1.1088435374149659,1.1088435374149659,1.1088435374149659,1.1088435374149659,1.1088435374149659,1.1088435374149659,1.1088435374149659,1.1088435374149659,1.1088435374149659,1.1088435374149659,1.1088435374149659,1.1088435374149659,1.1088435374149659,1.1088435374149659,1.1088435374149659,1.1088435374149659,1.1088435374149659,1.1088435374149659,1.1088435374149659,1.1088435374149659,1.1088435374149659,1.1088435374149659,1.1088435374149659,1.1054421768707483,1.1020408163265305,1.1020408163265305,1.0952380952380953,1.0952380952380953,1.0952380952380953,1.0952380952380953,1.0952380952380953,1.0952380952380953,1.0952380952380953,1.0952380952380953,1.0952380952380953,1.0952380952380953,1.0952380952380953,1.0952380952380953,1.0952380952380953,1.0952380952380953,1.0952380952380953,1.0952380952380953,1.0952380952380953,1.0952380952380953,1.0952380952380953,1.0952380952380953,1.0952380952380953,1.0952380952380953,1.0952380952380953,1.0952380952380953,1.0952380952380953,1.0952380952380953,1.0952380952380953,1.0952380952380953,1.0952380952380953,1.0952380952380953,1.0952380952380953,1.0952380952380953,1.0952380952380953,1.0952380952380953,1.0952380952380953,1.0952380952380953,1.0952380952380953,1.0952380952380953,1.0952380952380953,1.0952380952380953,1.0952380952380953,1.0952380952380953,1.0952380952380953,1.0952380952380953,1.0952380952380953,1.0952380952380953,1.0952380952380953,1.0952380952380953,1.0952380952380953,1.0952380952380953,1.0952380952380953,1.0952380952380953,1.0952380952380953,1.0952380952380953,1.0952380952380953,1.0952380952380953,1.08843537414966,1.064625850340136,1.0612244897959184,1.0612244897959184,1.0612244897959184,1.0612244897959184,1.0612244897959184,1.0612244897959184,1.0612244897959184,1.0612244897959184,1.0612244897959184,1.0612244897959184,1.0612244897959184,1.0612244897959184,1.0612244897959184,1.0612244897959184,1.0612244897959184,1.0612244897959184,1.0612244897959184,1.0612244897959184,1.0612244897959184,1.0612244897959184,1.0612244897959184,1.0612244897959184,1.0612244897959184,1.0612244897959184,1.0612244897959184,1.0612244897959184,1.0612244897959184,1.0612244897959184,1.0612244897959184,1.0612244897959184,1.0612244897959184,1.0612244897959184,1.0612244897959184,1.0612244897959184,1.0612244897959184,1.0612244897959184,1.0612244897959184,1.0612244897959184,1.0612244897959184,1.0612244897959184,1.0612244897959184,1.0612244897959184,1.0612244897959184,1.0238095238095237,0.8979591836734694,0.6666666666666666,0.6054421768707483,0.5578231292517006,0.5306122448979592,0.5170068027210885,0.5102040816326531,0.5102040816326531,0.5102040816326531,0.5034013605442177,0.4965986394557823,0.4931972789115646,0.4931972789115646,0.4897959183673469,0.47959183673469385,0.47278911564625853,0.4557823129251701,0.4489795918367347,0.4489795918367347,0.4489795918367347,0.4489795918367347,0.4489795918367347,0.4387755102040816,0.41496598639455784,0.4013605442176871,0.4013605442176871,0.4217687074829932,0.46938775510204084,0.5476190476190477,0.673469387755102,0.7142857142857143,0.7142857142857143,0.7142857142857143,0.7142857142857143,0.7142857142857143,0.717687074829932,0.7619047619047619,0.8231292517006803,0.8673469387755102,0.8673469387755102,0.8605442176870748,0.8537414965986394,0.8503401360544217,0.8605442176870748,0.8707482993197279,0.8775510204081632,0.8775510204081632,0.8775510204081632,0.8775510204081632,0.8775510204081632,0.8843537414965986,0.9115646258503401,0.9523809523809523,0.9829931972789115,1,1,0.9931972789115646,0.9931972789115646,1.0034013605442176,1.0136054421768708,1.0204081632653061,1.0204081632653061,1.0204081632653061,1.0204081632653061,1.0204081632653061,1.0204081632653061,1.0204081632653061,1.0204081632653061,1.0204081632653061,1.0204081632653061,1.0170068027210883,1.0136054421768708,1.0136054421768708,1.0136054421768708,1.0136054421768708,1.0136054421768708,1.0136054421768708,1.0136054421768708,1.0068027210884354,1.0068027210884354,1.0068027210884354,1.0068027210884354,1.0068027210884354,1.0068027210884354,1.0068027210884354,1.0068027210884354,1.0068027210884354,1.0068027210884354,1.0068027210884354,1.0068027210884354,1.0068027210884354,1.0068027210884354,1.0068027210884354,1.0068027210884354,1.0068027210884354,1.0068027210884354,1.0068027210884354,1.0068027210884354,1.0068027210884354,1.0068027210884354,1.0068027210884354,1.0068027210884354,1.0068027210884354,1.0068027210884354,1.0068027210884354,1.0068027210884354,1.0068027210884354,1.0068027210884354,1.0068027210884354,1.0068027210884354,1.0068027210884354,1.0068027210884354,1.0068027210884354,1.0068027210884354,1.0068027210884354,1.0068027210884354,1.0068027210884354,1.0068027210884354,1.0068027210884354,0.9965986394557823,0.9965986394557823,0.9965986394557823,0.9965986394557823,0.9965986394557823,0.9693877551020408,0.8503401360544217,0.5884353741496599,0.24829931972789115,-0.047619047619047616,-0.17006802721088435,-0.17006802721088435,-0.17006802721088435,-0.17006802721088435,-0.16326530612244897,-0.1360544217687075,-0.0782312925170068,-0.05102040816326531,-0.027210884353741496,-0.017006802721088437,-0.01020408163265306,0,-0.01020408163265306,-0.013605442176870748,-0.013605442176870748,0.017006802721088437,0.19047619047619047,0.3945578231292517,0.564625850340136,0.6428571428571429,0.6428571428571429,0.6360544217687075,0.6122448979591837,0.6122448979591837,0.6122448979591837,0.6122448979591837,0.5680272108843537,0.4897959183673469,0.42857142857142855,0.4013605442176871,0.38095238095238093,0.35374149659863946,0.29931972789115646,0.25510204081632654,0.22789115646258504,0.22108843537414966,0.22108843537414966,0.22108843537414966,0.22108843537414966,0.22108843537414966,0.22108843537414966,0.21768707482993196,0.21768707482993196,0.20748299319727892,0.19387755102040816,0.1564625850340136,0.12585034013605442,0.12244897959183673,0.12244897959183673,0.12244897959183673,0.12244897959183673,0.12244897959183673,0.12244897959183673,0.12244897959183673,0.12244897959183673,0.12244897959183673,0.12244897959183673,0.12244897959183673,0.12244897959183673,0.12244897959183673,0.12244897959183673,0.12244897959183673,0.12244897959183673,0.12244897959183673,0.12244897959183673,0.12244897959183673,0.12244897959183673,0.12244897959183673,0.12244897959183673,0.12244897959183673,0.12244897959183673,0.12244897959183673,0.12244897959183673,0.12244897959183673,0.12244897959183673,0.12244897959183673,0.12244897959183673,0.12244897959183673,0.12244897959183673,0.12244897959183673,0.12244897959183673,0.12244897959183673,0.12244897959183673,0.12244897959183673,0.12244897959183673,0.12244897959183673,0.12244897959183673,0.12244897959183673,0.12244897959183673,0.12244897959183673,0.12244897959183673,0.12244897959183673,0.12244897959183673,0.12244897959183673,0.12244897959183673,0.12244897959183673,0.1360544217687075,0.14285714285714285,0.14965986394557823,0.1564625850340136,0.1564625850340136,0.1598639455782313,0.17006802721088435,0.17687074829931973,0.17687074829931973,0.17687074829931973,0.17687074829931973,0.17687074829931973,0.17687074829931973,0.17687074829931973,0.17687074829931973,0.19387755102040816,0.21768707482993196,0.2619047619047619,0.30952380952380953,0.3231292517006803,0.3333333333333333,0.3435374149659864,0.38095238095238093,0.4557823129251701,0.5714285714285714,0.8197278911564626,0.9421768707482994,1.0068027210884354,1.0442176870748299,1.0442176870748299,1.0442176870748299,1.0442176870748299,1.0442176870748299,1.0442176870748299,1.0442176870748299,1.0442176870748299,1.0442176870748299,1.0442176870748299,1.0442176870748299,1.0442176870748299,1.0442176870748299,1.0442176870748299,1.0442176870748299,1.0442176870748299,1.0442176870748299,1.0442176870748299,1.0442176870748299,1.0748299319727892,1.119047619047619,1.1972789115646258,1.3061224489795917,1.4149659863945578,1.5170068027210883,1.5510204081632653,1.554421768707483,1.554421768707483,1.554421768707483,1.5612244897959184,1.564625850340136,1.564625850340136,1.564625850340136,1.564625850340136,1.564625850340136,1.564625850340136,1.564625850340136,1.564625850340136,1.564625850340136,1.564625850340136,1.564625850340136,1.564625850340136,1.564625850340136,1.564625850340136,1.5612244897959184,1.554421768707483,1.554421768707483,1.554421768707483,1.554421768707483,1.554421768707483,1.554421768707483,1.554421768707483,1.554421768707483,1.5578231292517006,1.5578231292517006,1.5578231292517006,1.5578231292517006,1.5578231292517006,1.5578231292517006,1.5578231292517006,1.5578231292517006,1.5578231292517006,1.5578231292517006,1.5578231292517006],"y":[0.32857142857142857,0.3380952380952381,0.319047619047619,0.4142857142857143,0.9095238095238095,1.6333333333333333,1.6714285714285715,1.680952380952381,1.680952380952381,1.680952380952381,1.680952380952381,1.680952380952381,1.680952380952381,1.680952380952381,1.680952380952381,1.680952380952381,1.680952380952381,1.680952380952381,1.680952380952381,1.680952380952381,1.680952380952381,1.680952380952381,1.680952380952381,1.680952380952381,1.680952380952381,1.680952380952381,1.680952380952381,1.680952380952381,1.680952380952381,1.680952380952381,1.680952380952381,1.680952380952381,1.680952380952381,1.680952380952381,1.680952380952381,1.680952380952381,1.680952380952381,1.680952380952381,1.1285714285714286,0.4142857142857143,-0.2619047619047619,-1.3,-2.5952380952380953,-3.4047619047619047,-3.7285714285714286,-3.8047619047619046,-3.8333333333333335,-3.8523809523809525,-3.9285714285714284,-4.071428571428571,-4.195238095238095,-4.233333333333333,-4.233333333333333,-4.233333333333333,-4.223809523809524,-4.214285714285714,-4.214285714285714,-4.204761904761905,-4.204761904761905,-4.195238095238095,-4.185714285714286,-4.185714285714286,-4.185714285714286,-4.185714285714286,-4.080952380952381,-3.738095238095238,-3.242857142857143,-2.566666666666667,-1.8238095238095238,-1.2142857142857142,-1.0333333333333334,-1.042857142857143,-1.0714285714285714,-1.0904761904761904,-1.119047619047619,-1.1476190476190475,-1.2047619047619047,-1.1952380952380952,-1.138095238095238,-0.9476190476190476,-0.6142857142857143,-0.38571428571428573,-0.319047619047619,-0.22380952380952382,-0.21428571428571427,-0.22380952380952382,-0.2714285714285714,-0.4142857142857143,-0.6714285714285714,-1.3857142857142857,-1.8714285714285714,-2.2714285714285714,-2.4047619047619047,-2.433333333333333,-2.433333333333333,-2.3857142857142857,-2.3380952380952382,-2.2904761904761903,-2.176190476190476,-1.9857142857142858,-1.8047619047619048,-1.3952380952380952,-1.0714285714285714,-0.9095238095238095,-0.8904761904761904,-0.8904761904761904,-0.8428571428571429,-0.7761904761904762,-0.7380952380952381,-0.7095238095238096,-0.6904761904761905,-0.6619047619047619,-0.6523809523809524,-0.5857142857142857,-0.5761904761904761,-0.5761904761904761,-0.5857142857142857,-0.6142857142857143,-0.6904761904761905,-0.7761904761904762,-0.8047619047619048,-0.8333333333333334,-0.7952380952380952,-0.7857142857142857,-0.7857142857142857,-0.7952380952380952,-0.8047619047619048,-0.8047619047619048,-0.8047619047619048,-0.8047619047619048,-0.8047619047619048,-0.8047619047619048,-0.8047619047619048,-0.8047619047619048,-0.8047619047619048,-0.8047619047619048,-0.8047619047619048,-0.861904761904762,-0.919047619047619,-1.042857142857143,-1.2714285714285714,-1.6333333333333333,-1.8428571428571427,-1.8714285714285714,-1.8523809523809525,-1.8523809523809525,-1.8523809523809525,-1.8523809523809525,-1.8428571428571427,-1.776190476190476,-1.4142857142857144,-1.119047619047619,-0.861904761904762,-0.6523809523809524,-0.5,-0.4238095238095238,-0.38571428571428573,-0.38571428571428573,-0.38571428571428573,-0.4238095238095238,-0.46190476190476193,-0.5095238095238095,-0.5571428571428572,-0.5761904761904761,-0.5761904761904761,-0.5761904761904761,-0.5761904761904761,-0.5761904761904761,-0.5761904761904761,-0.5857142857142857,-0.5952380952380952,-0.6047619047619047,-0.6142857142857143,-0.6142857142857143,-0.6142857142857143,-0.6142857142857143,-0.6142857142857143,-0.6142857142857143,-0.6142857142857143,-0.6142857142857143,-0.6142857142857143,-0.6142857142857143,-0.6142857142857143,-0.5952380952380952,-0.5857142857142857,-0.5857142857142857,-0.5761904761904761,-0.5761904761904761,-0.5761904761904761,-0.5761904761904761,-0.5761904761904761,-0.5761904761904761,-0.5761904761904761,-0.5761904761904761,-0.5761904761904761,-0.5476190476190477,-0.48095238095238096,-0.35714285714285715,-0.24285714285714285,-0.18571428571428572,-0.1380952380952381,-0.1380952380952381,-0.1380952380952381,-0.1380952380952381,-0.1380952380952381,-0.15714285714285714,-0.20476190476190476,-0.2523809523809524,-0.30952380952380953,-0.3476190476190476,-0.3761904761904762,-0.3761904761904762,-0.36666666666666664,-0.3476190476190476,-0.2714285714285714,-0.22380952380952382,-0.19523809523809524,-0.18571428571428572,-0.18571428571428572,-0.18571428571428572,-0.18571428571428572,-0.18571428571428572,-0.16666666666666666,-0.15714285714285714,-0.15714285714285714,-0.15714285714285714,-0.15714285714285714,-0.15714285714285714,-0.15714285714285714,-0.15714285714285714,-0.15714285714285714,-0.15714285714285714,-0.15714285714285714,-0.15714285714285714,-0.15714285714285714,-0.16666666666666666,-0.16666666666666666,-0.16666666666666666,-0.15714285714285714,-0.11904761904761904,-0.1,-0.08095238095238096,-0.08095238095238096,-0.08095238095238096,-0.08095238095238096,-0.07142857142857142,-0.04285714285714286,-0.014285714285714285,-0.014285714285714285,-0.004761904761904762,-0.004761904761904762,-0.004761904761904762,-0.004761904761904762,-0.004761904761904762,-0.004761904761904762,-0.004761904761904762,-0.004761904761904762,-0.004761904761904762,-0.004761904761904762,-0.004761904761904762,-0.014285714285714285,-0.04285714285714286,-0.11904761904761904,-0.20476190476190476,-0.28095238095238095,-0.3380952380952381,-0.3476190476190476,-0.3476190476190476,-0.3476190476190476,-0.3476190476190476,-0.3476190476190476,-0.3476190476190476,-0.3476190476190476,-0.3476190476190476,-0.3476190476190476,-0.3476190476190476,-0.3476190476190476,-0.3476190476190476,-0.3476190476190476,-0.3476190476190476,-0.3476190476190476,-0.3476190476190476,-0.3476190476190476,-0.3476190476190476,-0.3476190476190476,-0.3476190476190476,-0.3476190476190476,-0.3476190476190476,-0.3476190476190476,-0.3476190476190476,-0.3476190476190476,-0.3476190476190476,-0.3476190476190476,-0.3476190476190476,-0.3476190476190476,-0.3476190476190476,-0.3476190476190476,-0.3476190476190476,-0.3476190476190476,-0.3476190476190476,-0.3476190476190476,-0.3476190476190476,-0.3476190476190476,-0.3476190476190476,-0.3476190476190476,-0.3476190476190476,-0.3476190476190476,-0.3476190476190476,-0.3476190476190476,-0.3476190476190476,-0.3476190476190476,-0.3476190476190476,-0.3476190476190476,-0.3476190476190476,-0.3476190476190476,-0.3476190476190476,-0.3476190476190476,-0.3476190476190476,-0.3476190476190476,-0.3476190476190476,-0.3476190476190476,-0.3476190476190476,-0.3476190476190476,-0.3476190476190476,-0.3476190476190476,-0.3476190476190476,-0.3476190476190476,-0.3476190476190476,-0.3476190476190476,-0.3476190476190476,-0.3476190476190476,-0.3476190476190476,-0.3476190476190476,-0.3476190476190476,-0.32857142857142857,-0.3,-0.2714285714285714,-0.2523809523809524,-0.20476190476190476,-0.004761904761904762,0.18571428571428572,0.36666666666666664,0.46190476190476193,0.48095238095238096,0.48095238095238096,0.4714285714285714,0.4714285714285714,0.4523809523809524,0.5095238095238095,0.6428571428571429,0.7095238095238096,0.7380952380952381,0.7571428571428571,0.7761904761904762,0.7761904761904762,0.7857142857142857,0.7476190476190476,0.6523809523809524,0.5380952380952381,0.4238095238095238,0.35714285714285715,0.3380952380952381,0.3476190476190476,0.3761904761904762,0.4142857142857143,0.44285714285714284,0.4714285714285714,0.5476190476190477,0.6047619047619047,0.6428571428571429,0.6523809523809524,0.6523809523809524,0.6523809523809524,0.5761904761904761,0.3476190476190476,0.20476190476190476,0.1761904761904762,0.1761904761904762,0.1761904761904762,0.1761904761904762,0.1761904761904762,0.1761904761904762,0.1761904761904762,0.1761904761904762,0.2714285714285714,0.40476190476190477,0.5190476190476191,0.6428571428571429,0.7476190476190476,0.8333333333333334,0.8714285714285714,0.8904761904761904,0.9,0.9,0.8904761904761904,0.8809523809523809,0.8714285714285714,0.8714285714285714,0.9095238095238095,0.9952380952380953,1.0904761904761904,1.1857142857142857,1.2428571428571429,1.2904761904761906,1.319047619047619,1.3285714285714285,1.3285714285714285,1.3285714285714285,1.3285714285714285,1.3285714285714285,1.2714285714285714,1.1761904761904762,1.1,1.0333333333333334,1.0238095238095237,1.0333333333333334,1.061904761904762,1.061904761904762,1.061904761904762,1.061904761904762,1.061904761904762,1.0523809523809524,1.0523809523809524,1.0523809523809524,1.0333333333333334,1.0238095238095237,1.0142857142857142,0.9952380952380953,0.9952380952380953,1.042857142857143,1.0714285714285714,1.0904761904761904,1.0904761904761904,1.0904761904761904,1.0904761904761904,1.0904761904761904,1.0809523809523809,1.061904761904762,1.061904761904762,1.061904761904762,1.061904761904762,1.061904761904762,1.0333333333333334,1.0047619047619047,0.9857142857142858,0.9285714285714286,0.9095238095238095,0.9095238095238095,0.9095238095238095,0.919047619047619,0.9285714285714286,0.9285714285714286,0.9285714285714286,0.9285714285714286,0.9285714285714286,0.9285714285714286,0.9285714285714286,0.9285714285714286,0.9285714285714286,0.9285714285714286,0.9285714285714286,0.9285714285714286,0.9285714285714286,0.9285714285714286,0.9285714285714286,0.9285714285714286,0.9285714285714286,0.919047619047619,0.919047619047619,0.9095238095238095,0.9095238095238095,0.9095238095238095,0.9095238095238095,0.919047619047619,0.919047619047619,0.9285714285714286,0.9285714285714286,0.9285714285714286,0.9285714285714286,0.919047619047619,0.919047619047619,0.919047619047619,0.919047619047619,0.919047619047619,0.919047619047619,0.919047619047619,0.919047619047619,0.919047619047619,0.919047619047619,0.919047619047619,0.919047619047619,0.919047619047619,0.9095238095238095,0.9095238095238095,0.9095238095238095,0.9095238095238095,0.9095238095238095,0.9095238095238095,0.9095238095238095,0.9095238095238095,0.9095238095238095,0.9095238095238095,0.9095238095238095,0.9095238095238095,0.9095238095238095,0.9095238095238095,0.9095238095238095,0.9095238095238095,0.9095238095238095,0.9095238095238095,0.9095238095238095,0.9095238095238095,0.919047619047619,0.919047619047619,0.919047619047619,0.919047619047619,0.919047619047619,0.919047619047619,0.919047619047619,0.919047619047619,0.9285714285714286,0.9285714285714286,0.9285714285714286,0.9380952380952381,0.9476190476190476,0.9761904761904762,0.9857142857142858,0.9857142857142858,0.9857142857142858,0.9857142857142858,0.9857142857142858,0.9857142857142858,0.9857142857142858,0.9857142857142858,0.9857142857142858,0.9857142857142858,0.9857142857142858,0.9857142857142858,0.9857142857142858,0.9857142857142858,0.9857142857142858,0.9857142857142858,0.9857142857142858,0.9857142857142858,0.9857142857142858,0.9761904761904762,0.9285714285714286,0.8523809523809524,0.7952380952380952,0.7095238095238096,0.6428571428571429,0.5285714285714286,0.4523809523809524,0.4142857142857143,0.3952380952380952,0.3952380952380952,0.3952380952380952,0.4238095238095238,0.46190476190476193,0.5,0.5285714285714286,0.5571428571428572,0.5952380952380952,0.6142857142857143,0.6333333333333333,0.6333333333333333,0.6333333333333333,0.6333333333333333,0.6333333333333333,0.6333333333333333,0.6428571428571429,0.680952380952381,0.719047619047619,0.7476190476190476,0.7666666666666667,0.8047619047619048,0.8047619047619048,0.8047619047619048,0.8047619047619048,0.8047619047619048,0.8047619047619048,0.8047619047619048,0.8047619047619048,0.8047619047619048,0.7952380952380952,0.7857142857142857,0.7857142857142857,0.8333333333333334,0.9761904761904762,1.2714285714285714,1.4047619047619047,1.4523809523809523,1.4428571428571428,1.3952380952380952,1.2714285714285714,1.119047619047619,0.8904761904761904,0.7380952380952381,0.5952380952380952,0.48095238095238096,0.3761904761904762,0.3380952380952381,0.35714285714285715,0.46190476190476193,0.7,0.9571428571428572,1.1285714285714286,1.2333333333333334,1.2523809523809524,1.2523809523809524,1.2523809523809524,1.2142857142857142,0.9666666666666667,0.719047619047619,0.46190476190476193,0.3,0.18571428571428572,0.10952380952380952,0.08095238095238096,0.08095238095238096,0.08095238095238096,0.08095238095238096,0.06190476190476191,0.03333333333333333,0.023809523809523808,0.023809523809523808,0.023809523809523808,0.023809523809523808,0.014285714285714285,-0.014285714285714285,-0.04285714285714286,-0.08095238095238096,-0.09047619047619047,-0.10952380952380952,-0.11904761904761904,-0.11904761904761904,-0.11904761904761904,-0.11904761904761904,-0.11904761904761904,-0.11904761904761904,-0.11904761904761904,-0.12857142857142856,-0.12857142857142856,-0.11904761904761904,-0.11904761904761904,-0.11904761904761904,-0.11904761904761904,-0.11904761904761904,-0.11904761904761904,-0.11904761904761904,-0.1,-0.04285714285714286,0.004761904761904762,0.014285714285714285,0.014285714285714285,0.014285714285714285,0.014285714285714285,0.014285714285714285,0.014285714285714285,0.014285714285714285,-0.004761904761904762,-0.03333333333333333,-0.04285714285714286,-0.06190476190476191,-0.08095238095238096,-0.09047619047619047,-0.11904761904761904,-0.1761904761904762,-0.20476190476190476,-0.20476190476190476,-0.23333333333333334,-0.2619047619047619,-0.28095238095238095,-0.2904761904761905,-0.2904761904761905,-0.2904761904761905,-0.2904761904761905,-0.28095238095238095,-0.2714285714285714,-0.24285714285714285,-0.21428571428571427,-0.19523809523809524,-0.15714285714285714,-0.12857142857142856,-0.1,-0.08095238095238096,-0.07142857142857142,-0.04285714285714286,-0.014285714285714285,0.023809523809523808,0.023809523809523808,0.023809523809523808,0.014285714285714285,-0.004761904761904762,-0.004761904761904762,-0.004761904761904762,-0.004761904761904762,-0.004761904761904762,-0.004761904761904762,-0.004761904761904762,-0.004761904761904762,-0.004761904761904762,-0.023809523809523808,-0.023809523809523808,-0.023809523809523808,-0.03333333333333333,-0.04285714285714286,-0.04285714285714286,-0.04285714285714286,-0.04285714285714286,-0.04285714285714286,-0.04285714285714286,-0.05238095238095238,-0.05238095238095238,-0.05238095238095238,-0.05238095238095238,-0.03333333333333333,-0.023809523809523808,-0.023809523809523808,-0.023809523809523808,-0.03333333333333333,-0.03333333333333333,-0.04285714285714286,-0.04285714285714286,-0.04285714285714286,-0.04285714285714286,-0.04285714285714286,-0.04285714285714286,-0.04285714285714286,-0.04285714285714286,-0.04285714285714286,-0.04285714285714286,-0.04285714285714286,-0.04285714285714286,-0.04285714285714286,-0.04285714285714286,-0.04285714285714286,-0.04285714285714286,-0.04285714285714286,-0.04285714285714286,-0.04285714285714286,-0.04285714285714286,-0.04285714285714286,-0.04285714285714286,-0.04285714285714286,-0.04285714285714286,-0.04285714285714286,-0.04285714285714286,-0.04285714285714286,-0.04285714285714286,-0.04285714285714286,-0.04285714285714286,-0.04285714285714286,-0.04285714285714286,-0.04285714285714286,-0.04285714285714286,-0.04285714285714286,-0.04285714285714286,-0.04285714285714286,-0.04285714285714286,-0.04285714285714286,-0.04285714285714286,-0.04285714285714286,-0.04285714285714286,-0.04285714285714286,-0.04285714285714286,-0.04285714285714286,-0.04285714285714286,-0.04285714285714286,-0.04285714285714286,-0.04285714285714286,-0.04285714285714286,-0.04285714285714286,-0.04285714285714286,-0.04285714285714286,-0.04285714285714286,-0.04285714285714286,-0.04285714285714286,-0.04285714285714286,-0.04285714285714286,-0.04285714285714286,-0.04285714285714286,-0.04285714285714286,-0.04285714285714286,-0.04285714285714286,-0.04285714285714286,-0.04285714285714286,-0.04285714285714286,-0.04285714285714286,-0.04285714285714286,-0.04285714285714286,-0.04285714285714286,-0.04285714285714286,-0.04285714285714286,-0.04285714285714286,-0.04285714285714286,-0.04285714285714286,-0.04285714285714286,-0.04285714285714286,-0.04285714285714286,-0.04285714285714286,-0.04285714285714286,-0.04285714285714286,-0.04285714285714286,-0.04285714285714286,-0.04285714285714286,-0.04285714285714286,-0.04285714285714286,-0.04285714285714286,-0.04285714285714286,-0.04285714285714286,-0.04285714285714286,-0.04285714285714286,-0.04285714285714286,-0.04285714285714286,-0.04285714285714286,-0.04285714285714286,-0.04285714285714286,-0.04285714285714286,-0.04285714285714286,-0.04285714285714286,-0.04285714285714286,-0.04285714285714286,-0.04285714285714286,-0.04285714285714286,-0.04285714285714286,-0.04285714285714286,-0.04285714285714286,-0.04285714285714286,-0.04285714285714286,-0.04285714285714286,-0.04285714285714286,-0.04285714285714286,-0.04285714285714286,-0.04285714285714286,-0.04285714285714286,-0.04285714285714286,-0.04285714285714286,-0.04285714285714286,-0.04285714285714286,-0.04285714285714286,-0.04285714285714286,-0.04285714285714286,-0.04285714285714286,-0.04285714285714286,-0.04285714285714286,-0.04285714285714286,-0.04285714285714286,-0.04285714285714286,-0.04285714285714286,-0.04285714285714286,-0.04285714285714286,-0.04285714285714286,-0.04285714285714286,-0.04285714285714286,-0.04285714285714286,-0.04285714285714286,-0.04285714285714286,-0.04285714285714286,-0.04285714285714286,-0.04285714285714286,-0.04285714285714286,0.023809523809523808,0.09047619047619047,0.18571428571428572,0.3380952380952381,0.48095238095238096,0.5952380952380952,0.6428571428571429,0.6428571428571429,0.6428571428571429,0.6428571428571429,0.6428571428571429,0.6333333333333333,0.6238095238095238,0.6238095238095238,0.6238095238095238,0.6238095238095238,0.6238095238095238,0.6238095238095238,0.6238095238095238,0.6238095238095238,0.6047619047619047,0.6047619047619047,0.6047619047619047,0.5857142857142857,0.5666666666666667,0.5476190476190477,0.5476190476190477,0.5476190476190477,0.5476190476190477,0.5476190476190477,0.5476190476190477,0.5476190476190477,0.5476190476190477,0.5476190476190477,0.5476190476190477,0.5666666666666667,0.5666666666666667,0.5666666666666667,0.5666666666666667,0.5666666666666667,0.5666666666666667,0.5761904761904761,0.6047619047619047,0.6047619047619047,0.6142857142857143,0.6142857142857143,0.6142857142857143,0.6142857142857143,0.5952380952380952,0.46190476190476193,0.3380952380952381,0.23333333333333334,0.11904761904761904,0.004761904761904762,-0.14761904761904762,-0.1761904761904762,-0.1761904761904762,-0.1761904761904762,-0.15714285714285714,-0.1380952380952381,-0.1,-0.06190476190476191,-0.023809523809523808,0.023809523809523808,0.08095238095238096,0.18571428571428572,0.22380952380952382,0.23333333333333334,0.23333333333333334,0.23333333333333334,0.23333333333333334,0.23333333333333334,0.24285714285714285,0.2714285714285714,0.28095238095238095,0.3,0.319047619047619,0.3380952380952381,0.36666666666666664,0.3761904761904762,0.38571428571428573,0.38571428571428573,0.38571428571428573,0.38571428571428573,0.38571428571428573,0.38571428571428573,0.35714285714285715,0.32857142857142857,0.32857142857142857,0.32857142857142857,0.32857142857142857,0.319047619047619,0.319047619047619,0.319047619047619,0.2904761904761905,0.2523809523809524,0.20476190476190476,0.18571428571428572,0.14761904761904762,0.09047619047619047,0.07142857142857142,0.07142857142857142,0.07142857142857142,0.07142857142857142,0.07142857142857142,0.07142857142857142,0.05238095238095238,0.04285714285714286,0.04285714285714286,0.04285714285714286,0.04285714285714286,0.04285714285714286,0.04285714285714286,0.04285714285714286,0.04285714285714286,0.023809523809523808,-0.004761904761904762,-0.023809523809523808,-0.023809523809523808,-0.023809523809523808,-0.023809523809523808,-0.023809523809523808,-0.023809523809523808,-0.023809523809523808,-0.023809523809523808,-0.023809523809523808,-0.023809523809523808,-0.023809523809523808,-0.023809523809523808,-0.023809523809523808,-0.023809523809523808,-0.023809523809523808,-0.023809523809523808,-0.023809523809523808,-0.004761904761904762,0.004761904761904762,0.004761904761904762,0.004761904761904762,-0.004761904761904762,-0.004761904761904762,-0.014285714285714285,-0.014285714285714285,-0.023809523809523808,-0.023809523809523808,-0.023809523809523808,-0.023809523809523808,-0.023809523809523808,-0.023809523809523808,-0.023809523809523808,-0.023809523809523808,-0.023809523809523808,-0.023809523809523808,-0.023809523809523808,-0.023809523809523808,-0.023809523809523808,-0.023809523809523808,-0.023809523809523808,-0.023809523809523808,-0.023809523809523808,-0.023809523809523808,-0.023809523809523808,-0.023809523809523808,-0.023809523809523808,-0.023809523809523808,-0.023809523809523808,-0.023809523809523808,-0.023809523809523808,-0.023809523809523808,-0.023809523809523808,-0.023809523809523808,-0.023809523809523808,-0.023809523809523808,-0.023809523809523808,-0.023809523809523808,-0.023809523809523808,-0.023809523809523808,-0.023809523809523808,-0.023809523809523808,-0.023809523809523808,-0.023809523809523808,-0.023809523809523808,-0.023809523809523808,-0.023809523809523808,-0.023809523809523808,-0.023809523809523808,-0.023809523809523808,-0.023809523809523808,-0.023809523809523808,-0.023809523809523808,-0.023809523809523808,-0.023809523809523808,-0.023809523809523808,-0.023809523809523808,-0.023809523809523808,-0.023809523809523808,-0.023809523809523808,-0.023809523809523808,-0.023809523809523808,-0.023809523809523808,-0.023809523809523808,-0.023809523809523808,-0.023809523809523808,-0.023809523809523808,-0.023809523809523808,-0.023809523809523808,-0.023809523809523808,-0.023809523809523808,-0.023809523809523808,-0.023809523809523808,-0.023809523809523808,-0.023809523809523808,-0.023809523809523808,-0.023809523809523808,-0.023809523809523808,-0.023809523809523808,-0.023809523809523808,-0.023809523809523808,-0.023809523809523808,-0.023809523809523808,-0.023809523809523808,-0.023809523809523808,-0.023809523809523808,-0.023809523809523808,-0.023809523809523808,-0.023809523809523808,-0.023809523809523808,-0.023809523809523808,-0.023809523809523808,-0.023809523809523808,-0.023809523809523808,-0.023809523809523808,-0.023809523809523808,-0.023809523809523808,-0.023809523809523808,-0.023809523809523808,-0.023809523809523808,-0.023809523809523808,-0.023809523809523808,-0.023809523809523808,-0.023809523809523808,-0.023809523809523808,-0.023809523809523808,-0.023809523809523808,-0.023809523809523808,-0.023809523809523808,-0.023809523809523808,-0.023809523809523808,-0.023809523809523808,-0.023809523809523808,-0.023809523809523808,-0.023809523809523808,-0.023809523809523808,-0.023809523809523808,-0.023809523809523808,-0.023809523809523808,-0.023809523809523808,-0.023809523809523808,-0.023809523809523808,-0.023809523809523808,-0.023809523809523808,-0.023809523809523808,-0.023809523809523808,-0.023809523809523808,-0.023809523809523808,-0.023809523809523808,-0.023809523809523808,-0.023809523809523808,-0.023809523809523808,-0.023809523809523808,-0.023809523809523808,-0.023809523809523808,-0.023809523809523808,-0.023809523809523808,-0.023809523809523808,-0.023809523809523808,-0.023809523809523808,-0.023809523809523808,-0.023809523809523808,-0.023809523809523808,-0.023809523809523808,-0.023809523809523808,-0.023809523809523808,-0.023809523809523808,-0.023809523809523808,-0.023809523809523808,-0.023809523809523808,-0.023809523809523808,-0.023809523809523808,-0.023809523809523808,-0.023809523809523808,-0.023809523809523808,-0.023809523809523808,-0.023809523809523808,-0.023809523809523808,-0.023809523809523808,-0.023809523809523808,-0.023809523809523808,-0.023809523809523808,-0.023809523809523808,-0.023809523809523808,-0.023809523809523808,-0.023809523809523808,-0.023809523809523808,-0.023809523809523808,-0.023809523809523808,-0.023809523809523808,-0.023809523809523808,-0.023809523809523808,-0.023809523809523808,-0.023809523809523808,-0.023809523809523808,-0.023809523809523808,-0.023809523809523808,-0.023809523809523808,-0.023809523809523808,-0.023809523809523808,-0.023809523809523808,-0.023809523809523808,-0.023809523809523808,-0.023809523809523808,-0.023809523809523808,-0.023809523809523808,-0.023809523809523808,-0.023809523809523808,-0.023809523809523808,-0.023809523809523808,-0.023809523809523808,-0.023809523809523808,-0.023809523809523808,-0.023809523809523808,-0.023809523809523808,-0.023809523809523808,-0.023809523809523808,-0.023809523809523808,-0.023809523809523808,-0.023809523809523808,-0.023809523809523808,-0.023809523809523808,-0.023809523809523808,-0.023809523809523808,-0.023809523809523808,-0.023809523809523808,-0.023809523809523808,-0.023809523809523808,-0.023809523809523808,-0.023809523809523808,-0.023809523809523808,-0.023809523809523808,-0.023809523809523808,-0.023809523809523808,-0.023809523809523808,-0.023809523809523808,-0.023809523809523808,-0.023809523809523808,-0.023809523809523808,-0.023809523809523808,-0.023809523809523808,-0.023809523809523808,-0.023809523809523808,-0.023809523809523808,-0.023809523809523808,-0.023809523809523808,-0.023809523809523808,-0.023809523809523808,-0.023809523809523808,-0.023809523809523808,-0.023809523809523808,-0.023809523809523808,-0.023809523809523808,-0.023809523809523808,-0.023809523809523808,-0.023809523809523808,-0.023809523809523808,-0.023809523809523808,-0.023809523809523808,-0.023809523809523808,-0.023809523809523808,-0.023809523809523808,-0.023809523809523808,-0.023809523809523808,-0.023809523809523808,-0.023809523809523808,-0.023809523809523808,-0.023809523809523808,-0.023809523809523808,-0.023809523809523808,-0.023809523809523808,-0.023809523809523808,-0.023809523809523808,-0.023809523809523808,-0.023809523809523808,-0.023809523809523808,-0.023809523809523808,-0.023809523809523808,-0.023809523809523808,-0.023809523809523808,-0.023809523809523808,-0.023809523809523808,-0.023809523809523808,-0.023809523809523808,-0.023809523809523808,-0.023809523809523808,-0.023809523809523808,-0.023809523809523808,-0.023809523809523808,-0.023809523809523808,-0.023809523809523808,-0.023809523809523808,-0.023809523809523808,-0.014285714285714285,-0.004761904761904762,-0.004761904761904762,-0.004761904761904762,-0.004761904761904762,-0.004761904761904762,-0.004761904761904762,0.004761904761904762,0.004761904761904762,0.023809523809523808,0.03333333333333333,0.04285714285714286,0.07142857142857142,0.1,0.21428571428571427,0.3380952380952381,0.40476190476190477,0.40476190476190477,0.4142857142857143,0.4238095238095238,0.44285714285714284,0.4523809523809524,0.46190476190476193,0.48095238095238096,0.49047619047619045,0.5190476190476191,0.5380952380952381,0.5666666666666667,0.5761904761904761,0.5857142857142857,0.5857142857142857,0.5857142857142857,0.5857142857142857,0.5952380952380952,0.6142857142857143,0.6619047619047619,0.7285714285714285,0.7666666666666667,0.7952380952380952,0.8333333333333334,0.8523809523809524,0.8714285714285714,0.8809523809523809,0.8904761904761904,0.8904761904761904,0.8904761904761904,0.8904761904761904,0.8904761904761904,0.9095238095238095,0.9380952380952381,0.9571428571428572,0.9857142857142858,0.9952380952380953,0.9952380952380953,1.0047619047619047,1.0047619047619047,1.0047619047619047,1.0047619047619047,0.9857142857142858,0.9,0.8428571428571429,0.8142857142857143,0.8047619047619048,0.7666666666666667,0.7285714285714285,0.719047619047619,0.7,0.719047619047619,0.7571428571428571,0.7952380952380952,0.7952380952380952,0.7857142857142857,0.7761904761904762,0.7761904761904762,0.7857142857142857,0.7952380952380952,0.7952380952380952,0.7952380952380952,0.7952380952380952,0.8047619047619048,0.8047619047619048,0.8047619047619048,0.7761904761904762,0.6714285714285714,0.5571428571428572,0.4523809523809524,0.4523809523809524,0.4523809523809524,0.4523809523809524,0.4523809523809524,0.4523809523809524,0.4523809523809524,0.4523809523809524,0.4523809523809524,0.4523809523809524,0.44285714285714284,0.43333333333333335,0.43333333333333335,0.43333333333333335,0.43333333333333335,0.43333333333333335,0.43333333333333335,0.43333333333333335,0.43333333333333335,0.43333333333333335,0.43333333333333335,0.43333333333333335,0.43333333333333335,0.43333333333333335,0.43333333333333335,0.43333333333333335,0.43333333333333335,0.43333333333333335,0.43333333333333335,0.43333333333333335,0.43333333333333335,0.43333333333333335,0.43333333333333335,0.43333333333333335,0.43333333333333335,0.43333333333333335,0.43333333333333335,0.43333333333333335,0.43333333333333335,0.43333333333333335,0.43333333333333335,0.43333333333333335,0.43333333333333335,0.43333333333333335,0.43333333333333335,0.43333333333333335,0.43333333333333335,0.43333333333333335,0.43333333333333335,0.43333333333333335,0.43333333333333335,0.43333333333333335,0.43333333333333335,0.43333333333333335,0.43333333333333335,0.43333333333333335,0.43333333333333335,0.43333333333333335,0.43333333333333335,0.43333333333333335,0.43333333333333335,0.43333333333333335,0.43333333333333335,0.43333333333333335,0.43333333333333335,0.43333333333333335,0.43333333333333335,0.43333333333333335,0.43333333333333335,0.43333333333333335,0.43333333333333335,0.43333333333333335,0.43333333333333335,0.43333333333333335,0.43333333333333335,0.43333333333333335,0.43333333333333335,0.43333333333333335,0.43333333333333335,0.43333333333333335,0.43333333333333335,0.43333333333333335,0.43333333333333335,0.43333333333333335,0.43333333333333335,0.43333333333333335,0.43333333333333335,0.43333333333333335,0.43333333333333335,0.43333333333333335,0.43333333333333335,0.43333333333333335,0.43333333333333335,0.43333333333333335,0.43333333333333335,0.43333333333333335,0.43333333333333335,0.43333333333333335,0.43333333333333335,0.43333333333333335,0.43333333333333335,0.43333333333333335,0.43333333333333335,0.43333333333333335,0.43333333333333335,0.43333333333333335,0.44285714285714284,0.44285714285714284,0.44285714285714284,0.44285714285714284,0.44285714285714284,0.44285714285714284,0.44285714285714284,0.44285714285714284,0.44285714285714284,0.44285714285714284,0.44285714285714284,0.44285714285714284,0.44285714285714284,0.44285714285714284,0.44285714285714284,0.44285714285714284,0.44285714285714284,0.44285714285714284,0.44285714285714284,0.44285714285714284,0.44285714285714284,0.44285714285714284,0.44285714285714284,0.44285714285714284,0.44285714285714284,0.44285714285714284,0.44285714285714284,0.44285714285714284,0.44285714285714284,0.44285714285714284,0.44285714285714284,0.44285714285714284,0.44285714285714284,0.44285714285714284,0.44285714285714284,0.44285714285714284,0.44285714285714284,0.44285714285714284,0.44285714285714284,0.44285714285714284,0.44285714285714284,0.44285714285714284,0.44285714285714284,0.44285714285714284,0.44285714285714284,0.44285714285714284,0.44285714285714284,0.44285714285714284,0.44285714285714284,0.44285714285714284,0.44285714285714284,0.44285714285714284,0.44285714285714284,0.44285714285714284,0.44285714285714284,0.44285714285714284,0.44285714285714284,0.44285714285714284,0.44285714285714284,0.44285714285714284,0.44285714285714284,0.44285714285714284,0.44285714285714284,0.44285714285714284,0.44285714285714284,0.44285714285714284,0.44285714285714284,0.44285714285714284,0.44285714285714284,0.44285714285714284,0.44285714285714284,0.44285714285714284,0.44285714285714284,0.44285714285714284,0.44285714285714284,0.44285714285714284,0.44285714285714284,0.44285714285714284,0.44285714285714284,0.44285714285714284,0.44285714285714284,0.44285714285714284,0.44285714285714284,0.44285714285714284,0.44285714285714284,0.44285714285714284,0.44285714285714284,0.44285714285714284,0.44285714285714284,0.44285714285714284,0.44285714285714284,0.44285714285714284,0.44285714285714284,0.44285714285714284,0.44285714285714284,0.44285714285714284,0.44285714285714284,0.44285714285714284,0.44285714285714284,0.44285714285714284,0.44285714285714284,0.44285714285714284,0.44285714285714284,0.44285714285714284,0.44285714285714284,0.44285714285714284,0.44285714285714284,0.44285714285714284,0.44285714285714284,0.44285714285714284,0.44285714285714284,0.44285714285714284,0.44285714285714284,0.44285714285714284,0.44285714285714284,0.44285714285714284,0.44285714285714284,0.44285714285714284,0.44285714285714284,0.44285714285714284,0.44285714285714284,0.44285714285714284,0.44285714285714284,0.44285714285714284,0.44285714285714284,0.44285714285714284,0.44285714285714284,0.44285714285714284,0.44285714285714284,0.44285714285714284,0.44285714285714284,0.44285714285714284,0.44285714285714284,0.44285714285714284,0.44285714285714284,0.44285714285714284,0.44285714285714284,0.44285714285714284,0.44285714285714284,0.44285714285714284,0.44285714285714284,0.44285714285714284,0.44285714285714284,0.44285714285714284,0.44285714285714284,0.44285714285714284,0.44285714285714284,0.44285714285714284,0.44285714285714284,0.44285714285714284,0.44285714285714284,0.44285714285714284,0.44285714285714284,0.44285714285714284,0.44285714285714284,0.44285714285714284,0.44285714285714284,0.44285714285714284,0.44285714285714284,0.44285714285714284,0.44285714285714284,0.44285714285714284,0.44285714285714284,0.44285714285714284,0.44285714285714284,0.44285714285714284,0.44285714285714284,0.44285714285714284,0.44285714285714284,0.44285714285714284,0.44285714285714284,0.44285714285714284,0.44285714285714284,0.44285714285714284,0.44285714285714284,0.44285714285714284,0.44285714285714284,0.44285714285714284,0.44285714285714284,0.44285714285714284,0.44285714285714284,0.44285714285714284,0.44285714285714284,0.44285714285714284,0.44285714285714284,0.44285714285714284,0.44285714285714284,0.44285714285714284,0.44285714285714284,0.44285714285714284,0.44285714285714284,0.44285714285714284,0.44285714285714284,0.44285714285714284,0.44285714285714284,0.44285714285714284,0.44285714285714284,0.44285714285714284,0.44285714285714284,0.44285714285714284,0.44285714285714284,0.46190476190476193,0.4714285714285714,0.49047619047619045,0.49047619047619045,0.49047619047619045,0.49047619047619045,0.49047619047619045,0.49047619047619045,0.49047619047619045,0.49047619047619045,0.49047619047619045,0.49047619047619045,0.49047619047619045,0.49047619047619045,0.49047619047619045,0.49047619047619045,0.49047619047619045,0.49047619047619045,0.49047619047619045,0.49047619047619045,0.49047619047619045,0.49047619047619045,0.49047619047619045,0.49047619047619045,0.49047619047619045,0.49047619047619045,0.49047619047619045,0.49047619047619045,0.49047619047619045,0.49047619047619045,0.49047619047619045,0.49047619047619045,0.49047619047619045,0.49047619047619045,0.48095238095238096,0.46190476190476193,0.44285714285714284,0.44285714285714284,0.44285714285714284,0.44285714285714284,0.44285714285714284,0.44285714285714284,0.43333333333333335,0.43333333333333335,0.43333333333333335,0.43333333333333335,0.43333333333333335,0.43333333333333335,0.43333333333333335,0.43333333333333335,0.43333333333333335,0.43333333333333335,0.43333333333333335,0.43333333333333335,0.43333333333333335,0.43333333333333335,0.43333333333333335,0.43333333333333335,0.4142857142857143,0.40476190476190477,0.40476190476190477,0.40476190476190477,0.40476190476190477,0.40476190476190477,0.40476190476190477,0.40476190476190477,0.40476190476190477,0.40476190476190477,0.40476190476190477,0.40476190476190477,0.40476190476190477,0.40476190476190477,0.40476190476190477,0.40476190476190477,0.40476190476190477,0.40476190476190477,0.40476190476190477,0.40476190476190477,0.40476190476190477,0.40476190476190477,0.40476190476190477,0.40476190476190477,0.40476190476190477,0.40476190476190477,0.40476190476190477,0.40476190476190477,0.40476190476190477,0.40476190476190477,0.40476190476190477,0.40476190476190477,0.40476190476190477,0.40476190476190477,0.40476190476190477,0.40476190476190477,0.40476190476190477,0.40476190476190477,0.40476190476190477,0.40476190476190477,0.40476190476190477,0.40476190476190477,0.40476190476190477,0.40476190476190477,0.40476190476190477,0.38571428571428573,0.3476190476190476,0.46190476190476193,0.6238095238095238,0.7952380952380952,0.9571428571428572,1.0809523809523809,1.138095238095238,1.138095238095238,1.138095238095238,1.138095238095238,1.138095238095238,1.138095238095238,1.138095238095238,1.1285714285714286,1.1,1.0714285714285714,1.0238095238095237,1.0238095238095237,1.0238095238095237,1.0238095238095237,1.0333333333333334,1.0523809523809524,1.061904761904762,1.0809523809523809,1.1,1.119047619047619,1.138095238095238,1.1476190476190475,1.138095238095238,1.1285714285714286,1.1,1.0904761904761904,1.0904761904761904,1.0904761904761904,1.0904761904761904,