success,trial_type,trial_index,time_elapsed,internal_node_id,protocol_sum,subject_identifier,subject_sum,subject_pair,STUDY_ID,PROLIFIC_PID,SESSION_ID,practice_instructions,leaderboard_instructions,bonus,reveal_word,self_rating,confidence,view_history,rt,responses,question_order,correct,test_part,word,click_log,final_keyboard_state,num_clicks,points,cheat,response,position_RT,position,player,i_game,true_position,distance,last_word,stimulus,confidence_slider_self_response
1.0,fullscreen,0,3157,0.0-0.0,,107,"[40, 88, 220, 209, 5, 125, 62, 174, 127, 125, 95, 120, 33, 103, 226, 75, 97, 21, 60, 1, 85, 20, 80, 166, 40, 206, 231, 34, 80, 159, 101, 41]",53,669a702db1122fc5150a13ce,65a4333efc75f965e7fc0cb5,669a8fa0dcf74dbfa31e26e7,1,1,0,True,5,61,,,,,,,,,,,,,,,,,,,,,,
,instructions,1,12975,0.0-1.0,,107,"[40, 88, 220, 209, 5, 125, 62, 174, 127, 125, 95, 120, 33, 103, 226, 75, 97, 21, 60, 1, 85, 20, 80, 166, 40, 206, 231, 34, 80, 159, 101, 41]",53,669a702db1122fc5150a13ce,65a4333efc75f965e7fc0cb5,669a8fa0dcf74dbfa31e26e7,1,1,0,True,5,61,"[{""page_index"":0,""viewing_time"":9817.89999999851}]",9818.19999999553,,,,,,,,,,,,,,,,,,,,
,instructions,2,21558,0.0-2.0-0.0,,107,"[40, 88, 220, 209, 5, 125, 62, 174, 127, 125, 95, 120, 33, 103, 226, 75, 97, 21, 60, 1, 85, 20, 80, 166, 40, 206, 231, 34, 80, 159, 101, 41]",53,669a702db1122fc5150a13ce,65a4333efc75f965e7fc0cb5,669a8fa0dcf74dbfa31e26e7,1,1,0,True,5,61,"[{""page_index"":0,""viewing_time"":8581.70000000298}]",8581.90000000596,,,,,,,,,,,,,,,,,,,,
,survey-multi-choice,3,28777,0.0-2.0-1.0,,107,"[40, 88, 220, 209, 5, 125, 62, 174, 127, 125, 95, 120, 33, 103, 226, 75, 97, 21, 60, 1, 85, 20, 80, 166, 40, 206, 231, 34, 80, 159, 101, 41]",53,669a702db1122fc5150a13ce,65a4333efc75f965e7fc0cb5,669a8fa0dcf74dbfa31e26e7,1,1,0,True,5,61,,7217.60000000149,"{""Q0"":""... reveal the word with as <b>few letter guesses</b> as possible""}",[0],1.0,multichoice_nonpretend,,,,,,,,,,,,,,,,
,instructions,4,29606,0.0-3.0,,107,"[40, 88, 220, 209, 5, 125, 62, 174, 127, 125, 95, 120, 33, 103, 226, 75, 97, 21, 60, 1, 85, 20, 80, 166, 40, 206, 231, 34, 80, 159, 101, 41]",53,669a702db1122fc5150a13ce,65a4333efc75f965e7fc0cb5,669a8fa0dcf74dbfa31e26e7,1,1,0,True,5,61,"[{""page_index"":0,""viewing_time"":829.1000000014901}]",829.3999999985099,,,,,,,,,,,,,,,,,,,,
,Hangman,5,72825,0.0-4.0,,107,"[40, 88, 220, 209, 5, 125, 62, 174, 127, 125, 95, 120, 33, 103, 226, 75, 97, 21, 60, 1, 85, 20, 80, 166, 40, 206, 231, 34, 80, 159, 101, 41]",53,669a702db1122fc5150a13ce,65a4333efc75f965e7fc0cb5,669a8fa0dcf74dbfa31e26e7,1,1,0,True,5,61,,,,,,,ZEBRA,"{'letter': ['', 'A', 'E', 'F', 'H', 'R', 'N', 'M', 'L', 'K', 'Z', 'B'], 't': [0, 2955.10000000149, 6045.60000000149, 10039.39999999851, 25502.39999999851, 26324.5, 32987, 34224.89999999851, 36319.20000000298, 36860.89999999851, 40627.39999999851, 41207.5], 'hit': [None, 1, 1, 0, 0, 1, 0, 0, 0, 0, 1, 1], 'asked': ['', 'A', 'AE', 'AEF', 'AEFH', 'AEFHR', 'AEFHRN', 'AEFHRNM', 'AEFHRNML', 'AEFHRNMLK', 'AEFHRNMLKZ', 'AEFHRNMLKZB'], 'word_state': ['_____', '____A', '_E__A', '_E__A', '_E__A', '_E_RA', '_E_RA', '_E_RA', '_E_RA', '_E_RA', 'ZE_RA', 'ZEBRA']}","['A', 'E', 'F', 'H', 'R', 'N', 'M', 'L', 'K', 'Z', 'B']",11.0,9.0,0.0,,,,,,,,,,
,instructions,6,89262,0.0-5.0,,107,"[40, 88, 220, 209, 5, 125, 62, 174, 127, 125, 95, 120, 33, 103, 226, 75, 97, 21, 60, 1, 85, 20, 80, 166, 40, 206, 231, 34, 80, 159, 101, 41]",53,669a702db1122fc5150a13ce,65a4333efc75f965e7fc0cb5,669a8fa0dcf74dbfa31e26e7,1,1,0,True,5,61,"[{""page_index"":0,""viewing_time"":3678.5999999940395},{""page_index"":1,""viewing_time"":12756.80000000447}]",16436.0,,,,,,,,,,,,,,,,,,,,
,survey-multi-choice,7,97791,0.0-6.0,,107,"[40, 88, 220, 209, 5, 125, 62, 174, 127, 125, 95, 120, 33, 103, 226, 75, 97, 21, 60, 1, 85, 20, 80, 166, 40, 206, 231, 34, 80, 159, 101, 41]",53,669a702db1122fc5150a13ce,65a4333efc75f965e7fc0cb5,669a8fa0dcf74dbfa31e26e7,1,1,0,True,5,61,,8528.40000000596,"{""Q0"":""...from <b>a previous session</b> that is not part of the upcoming tournament.""}",[0],1.0,multichoice_leaderboard,,,,,,,,,,,,,,,,
,instructions,8,105149,0.0-8.0,,107,"[40, 88, 220, 209, 5, 125, 62, 174, 127, 125, 95, 120, 33, 103, 226, 75, 97, 21, 60, 1, 85, 20, 80, 166, 40, 206, 231, 34, 80, 159, 101, 41]",53,669a702db1122fc5150a13ce,65a4333efc75f965e7fc0cb5,669a8fa0dcf74dbfa31e26e7,1,1,0,True,5,61,"[{""page_index"":0,""viewing_time"":7356.5}]",7356.80000000447,,,,,,,,,,,,,,,,,,,,
,survey-multi-choice,9,112507,0.0-9.0,,107,"[40, 88, 220, 209, 5, 125, 62, 174, 127, 125, 95, 120, 33, 103, 226, 75, 97, 21, 60, 1, 85, 20, 80, 166, 40, 206, 231, 34, 80, 159, 101, 41]",53,669a702db1122fc5150a13ce,65a4333efc75f965e7fc0cb5,669a8fa0dcf74dbfa31e26e7,1,1,0,True,5,61,,7357.89999999851,"{""Q0"":""...how well players did (in terms of <b>points</b>) in <b>previous games.</b>""}",[0],0.0,multichoice_tournament,,,,,,,,,,,,,,,,
,instructions,10,115648,0.0-10.0-0.0,,107,"[40, 88, 220, 209, 5, 125, 62, 174, 127, 125, 95, 120, 33, 103, 226, 75, 97, 21, 60, 1, 85, 20, 80, 166, 40, 206, 231, 34, 80, 159, 101, 41]",53,669a702db1122fc5150a13ce,65a4333efc75f965e7fc0cb5,669a8fa0dcf74dbfa31e26e7,1,1,0,True,5,61,"[{""page_index"":0,""viewing_time"":3140.10000000149}]",3140.3000000044703,,,,,,,,,,,,,,,,,,,,
,survey-multi-choice,11,120425,0.0-10.0-1.0,,107,"[40, 88, 220, 209, 5, 125, 62, 174, 127, 125, 95, 120, 33, 103, 226, 75, 97, 21, 60, 1, 85, 20, 80, 166, 40, 206, 231, 34, 80, 159, 101, 41]",53,669a702db1122fc5150a13ce,65a4333efc75f965e7fc0cb5,669a8fa0dcf74dbfa31e26e7,1,1,0,True,5,61,,4775.89999999851,"{""Q0"":""...players' leaderboard position (in terms of <b>points</b>) in an <b>upcoming tournament.</b>""}",[0],1.0,multichoice_tournament,,,,,,,,,,,,,,,,
,instructions,12,128270,0.0-11.0,,107,"[40, 88, 220, 209, 5, 125, 62, 174, 127, 125, 95, 120, 33, 103, 226, 75, 97, 21, 60, 1, 85, 20, 80, 166, 40, 206, 231, 34, 80, 159, 101, 41]",53,669a702db1122fc5150a13ce,65a4333efc75f965e7fc0cb5,669a8fa0dcf74dbfa31e26e7,1,1,0,True,5,61,"[{""page_index"":0,""viewing_time"":7844.89999999851}]",7845.20000000298,,,,,,,,,,,,,,,,,,,,
,instructions,13,141956,0.0-12.0-0.0,,107,"[40, 88, 220, 209, 5, 125, 62, 174, 127, 125, 95, 120, 33, 103, 226, 75, 97, 21, 60, 1, 85, 20, 80, 166, 40, 206, 231, 34, 80, 159, 101, 41]",53,669a702db1122fc5150a13ce,65a4333efc75f965e7fc0cb5,669a8fa0dcf74dbfa31e26e7,1,1,0,True,5,61,"[{""page_index"":0,""viewing_time"":13684.60000000149}]",13684.79999999702,,,,,,,,,,,,,,,,,,,,
,type-this,14,149500,0.0-12.0-1.0,,107,"[40, 88, 220, 209, 5, 125, 62, 174, 127, 125, 95, 120, 33, 103, 226, 75, 97, 21, 60, 1, 85, 20, 80, 166, 40, 206, 231, 34, 80, 159, 101, 41]",53,669a702db1122fc5150a13ce,65a4333efc75f965e7fc0cb5,669a8fa0dcf74dbfa31e26e7,1,1,0,True,5,61,,7042.5,['thirty four'],,,,,,,,,,thirty four,,,,,,,,,
,Hangman_replay,15,180459,0.0-12.0-2.0,,107,"[40, 88, 220, 209, 5, 125, 62, 174, 127, 125, 95, 120, 33, 103, 226, 75, 97, 21, 60, 1, 85, 20, 80, 166, 40, 206, 231, 34, 80, 159, 101, 41]",53,669a702db1122fc5150a13ce,65a4333efc75f965e7fc0cb5,669a8fa0dcf74dbfa31e26e7,1,1,0,True,5,61,,,,,,,THIRTY FOUR,"{'letter': ['', 'S', 'E', 'V', 'N', 'I', 'B', 'A', 'L', 'M', 'O', 'R', 'U', 'F', 'T', 'H', 'Y'], 't': [0, 5939.69999999553, 6539.39999999851, 7400.10000000149, 8660.89999999851, 9479.10000000149, 12183.5, 12958, 14049.10000000149, 14522, 15443.10000000149, 19498, 22892.19999999553, 23631.60000000149, 26760, 28129.10000000149, 28947.29999999702], 'hit': [None, 0, 0, 0, 0, 1, 0, 0, 0, 0, 1, 2, 1, 1, 2, 1, 1], 'asked': ['', 'S', 'SE', 'SEV', 'SEVN', 'SEVNI', 'SEVNIB', 'SEVNIBA', 'SEVNIBAL', 'SEVNIBALM', 'SEVNIBALMO', 'SEVNIBALMOR', 'SEVNIBALMORU', 'SEVNIBALMORUF', 'SEVNIBALMORUFT', 'SEVNIBALMORUFTH', 'SEVNIBALMORUFTHY'], 'word_state': ['______ ____', '______ ____', '______ ____', '______ ____', '______ ____', '__I___ ____', '__I___ ____', '__I___ ____', '__I___ ____', '__I___ ____', '__I___ _O__', '__IR__ _O_R', '__IR__ _OUR', '__IR__ FOUR', 'T_IRT_ FOUR', 'THIRT_ FOUR', 'THIRTY FOUR']}","['S', 'E', 'V', 'N', 'I', 'B', 'A', 'L', 'M', 'O', 'R', 'U', 'F', 'T', 'H', 'Y']",16.0,7.0,0.0,,,,,,,,,,
,instructions,16,182059,0.0-12.0-3.0,,107,"[40, 88, 220, 209, 5, 125, 62, 174, 127, 125, 95, 120, 33, 103, 226, 75, 97, 21, 60, 1, 85, 20, 80, 166, 40, 206, 231, 34, 80, 159, 101, 41]",53,669a702db1122fc5150a13ce,65a4333efc75f965e7fc0cb5,669a8fa0dcf74dbfa31e26e7,1,1,0,True,5,61,"[{""page_index"":0,""viewing_time"":1599.7000000029802}]",1599.8999999985099,,,,,,,,,,,,,,,,,,,,
,Guess_leaderboard,17,187246,0.0-12.0-4.0,,107,"[40, 88, 220, 209, 5, 125, 62, 174, 127, 125, 95, 120, 33, 103, 226, 75, 97, 21, 60, 1, 85, 20, 80, 166, 40, 206, 231, 34, 80, 159, 101, 41]",53,669a702db1122fc5150a13ce,65a4333efc75f965e7fc0cb5,669a8fa0dcf74dbfa31e26e7,1,1,0,True,5,61,,,,,,,THIRTY FOUR,,,,,,,4421.70000000298,81.0,91.0,0.0,89.0,8.0,,,
,instructions,18,190070,0.0-12.0-0.1,,107,"[40, 88, 220, 209, 5, 125, 62, 174, 127, 125, 95, 120, 33, 103, 226, 75, 97, 21, 60, 1, 85, 20, 80, 166, 40, 206, 231, 34, 80, 159, 101, 41]",53,669a702db1122fc5150a13ce,65a4333efc75f965e7fc0cb5,669a8fa0dcf74dbfa31e26e7,1,1,0,True,5,61,"[{""page_index"":0,""viewing_time"":2823.10000000149}]",2823.2999999970198,,,,,,,,,,,,,,,,,,,,
,type-this,19,194093,0.0-12.0-1.1,,107,"[40, 88, 220, 209, 5, 125, 62, 174, 127, 125, 95, 120, 33, 103, 226, 75, 97, 21, 60, 1, 85, 20, 80, 166, 40, 206, 231, 34, 80, 159, 101, 41]",53,669a702db1122fc5150a13ce,65a4333efc75f965e7fc0cb5,669a8fa0dcf74dbfa31e26e7,1,1,0,True,5,61,,3521.10000000149,['hawaii'],,,,,,,,,,hawaii,,,,,,,,,
,Hangman_replay,20,256144,0.0-12.0-2.1,,107,"[40, 88, 220, 209, 5, 125, 62, 174, 127, 125, 95, 120, 33, 103, 226, 75, 97, 21, 60, 1, 85, 20, 80, 166, 40, 206, 231, 34, 80, 159, 101, 41]",53,669a702db1122fc5150a13ce,65a4333efc75f965e7fc0cb5,669a8fa0dcf74dbfa31e26e7,1,1,0,True,5,61,,,,,,,HAWAII,"{'letter': ['', 'O', 'I', 'H', 'A', 'W'], 't': [0, 24935.30000000447, 55967.90000000596, 58034.70000000298, 58762, 60041], 'hit': [None, 0, 2, 1, 2, 1], 'asked': ['', 'O', 'OI', 'OIH', 'OIHA', 'OIHAW'], 'word_state': ['______', '______', '____II', 'H___II', 'HA_AII', 'HAWAII']}","['O', 'I', 'H', 'A', 'W']",5.0,14.0,0.0,,,,,,,,,,
,instructions,21,260570,0.0-12.0-3.1,,107,"[40, 88, 220, 209, 5, 125, 62, 174, 127, 125, 95, 120, 33, 103, 226, 75, 97, 21, 60, 1, 85, 20, 80, 166, 40, 206, 231, 34, 80, 159, 101, 41]",53,669a702db1122fc5150a13ce,65a4333efc75f965e7fc0cb5,669a8fa0dcf74dbfa31e26e7,1,1,0,True,5,61,"[{""page_index"":0,""viewing_time"":4424.89999999851}]",4425.29999999702,,,,,,,,,,,,,,,,,,,,
,Guess_leaderboard,22,263246,0.0-12.0-4.1,,107,"[40, 88, 220, 209, 5, 125, 62, 174, 127, 125, 95, 120, 33, 103, 226, 75, 97, 21, 60, 1, 85, 20, 80, 166, 40, 206, 231, 34, 80, 159, 101, 41]",53,669a702db1122fc5150a13ce,65a4333efc75f965e7fc0cb5,669a8fa0dcf74dbfa31e26e7,1,1,0,True,5,61,,,,,,,HAWAII,,,,,,,1915.3000000044703,15.0,23.0,1.0,31.0,16.0,,,
,instructions,23,264829,0.0-12.0-0.2,,107,"[40, 88, 220, 209, 5, 125, 62, 174, 127, 125, 95, 120, 33, 103, 226, 75, 97, 21, 60, 1, 85, 20, 80, 166, 40, 206, 231, 34, 80, 159, 101, 41]",53,669a702db1122fc5150a13ce,65a4333efc75f965e7fc0cb5,669a8fa0dcf74dbfa31e26e7,1,1,0,True,5,61,"[{""page_index"":0,""viewing_time"":1582.1999999955297}]",1582.5,,,,,,,,,,,,,,,,,,,,
,type-this,24,267966,0.0-12.0-1.2,,107,"[40, 88, 220, 209, 5, 125, 62, 174, 127, 125, 95, 120, 33, 103, 226, 75, 97, 21, 60, 1, 85, 20, 80, 166, 40, 206, 231, 34, 80, 159, 101, 41]",53,669a702db1122fc5150a13ce,65a4333efc75f965e7fc0cb5,669a8fa0dcf74dbfa31e26e7,1,1,0,True,5,61,,2635.6999999955297,['thumb'],,,,,,,,,,thumb,,,,,,,,,
,Hangman_replay,25,311294,0.0-12.0-2.2,,107,"[40, 88, 220, 209, 5, 125, 62, 174, 127, 125, 95, 120, 33, 103, 226, 75, 97, 21, 60, 1, 85, 20, 80, 166, 40, 206, 231, 34, 80, 159, 101, 41]",53,669a702db1122fc5150a13ce,65a4333efc75f965e7fc0cb5,669a8fa0dcf74dbfa31e26e7,1,1,0,True,5,61,,,,,,,THUMB,"{'letter': ['', 'H', 'T', 'R', 'I', 'U', 'M', 'B'], 't': [0, 6394.10000000149, 22558.89999999851, 25922.89999999851, 31796.10000000149, 38348.29999999702, 40094.20000000298, 41324.10000000149], 'hit': [None, 1, 1, 0, 0, 1, 1, 1], 'asked': ['', 'H', 'HT', 'HTR', 'HTRI', 'HTRIU', 'HTRIUM', 'HTRIUMB'], 'word_state': ['_____', '_H___', 'TH___', 'TH___', 'TH___', 'THU__', 'THUM_', 'THUMB']}","['H', 'T', 'R', 'I', 'U', 'M', 'B']",7.0,13.0,0.0,,,,,,,,,,
,instructions,26,312218,0.0-12.0-3.2,,107,"[40, 88, 220, 209, 5, 125, 62, 174, 127, 125, 95, 120, 33, 103, 226, 75, 97, 21, 60, 1, 85, 20, 80, 166, 40, 206, 231, 34, 80, 159, 101, 41]",53,669a702db1122fc5150a13ce,65a4333efc75f965e7fc0cb5,669a8fa0dcf74dbfa31e26e7,1,1,0,True,5,61,"[{""page_index"":0,""viewing_time"":923.5}]",923.8999999985099,,,,,,,,,,,,,,,,,,,,
,Guess_leaderboard,27,316486,0.0-12.0-4.2,,107,"[40, 88, 220, 209, 5, 125, 62, 174, 127, 125, 95, 120, 33, 103, 226, 75, 97, 21, 60, 1, 85, 20, 80, 166, 40, 206, 231, 34, 80, 159, 101, 41]",53,669a702db1122fc5150a13ce,65a4333efc75f965e7fc0cb5,669a8fa0dcf74dbfa31e26e7,1,1,0,True,5,61,,,,,,,THUMB,,,,,,,3511.2999999970198,25.0,96.0,2.0,60.0,35.0,,,
,instructions,28,318567,0.0-12.0-0.3,,107,"[40, 88, 220, 209, 5, 125, 62, 174, 127, 125, 95, 120, 33, 103, 226, 75, 97, 21, 60, 1, 85, 20, 80, 166, 40, 206, 231, 34, 80, 159, 101, 41]",53,669a702db1122fc5150a13ce,65a4333efc75f965e7fc0cb5,669a8fa0dcf74dbfa31e26e7,1,1,0,True,5,61,"[{""page_index"":0,""viewing_time"":2079.5}]",2079.7000000029802,,,,,,,,,,,,,,,,,,,,
,type-this,29,323279,0.0-12.0-1.3,,107,"[40, 88, 220, 209, 5, 125, 62, 174, 127, 125, 95, 120, 33, 103, 226, 75, 97, 21, 60, 1, 85, 20, 80, 166, 40, 206, 231, 34, 80, 159, 101, 41]",53,669a702db1122fc5150a13ce,65a4333efc75f965e7fc0cb5,669a8fa0dcf74dbfa31e26e7,1,1,0,True,5,61,,4210.79999999702,['usain bolt'],,,,,,,,,,usain bolt,,,,,,,,,
,Hangman_replay,30,352848,0.0-12.0-2.3,,107,"[40, 88, 220, 209, 5, 125, 62, 174, 127, 125, 95, 120, 33, 103, 226, 75, 97, 21, 60, 1, 85, 20, 80, 166, 40, 206, 231, 34, 80, 159, 101, 41]",53,669a702db1122fc5150a13ce,65a4333efc75f965e7fc0cb5,669a8fa0dcf74dbfa31e26e7,1,1,0,True,5,61,,,,,,,USAIN BOLT,"{'letter': ['', 'A', 'E', 'I', 'O', 'U', 'T', 'S', 'N', 'B', 'L'], 't': [0, 3571.0999999940395, 4437.0999999940395, 5249.29999999702, 6176.5999999940395, 7782.89999999851, 19511.09999999404, 23044.69999999553, 25329.69999999553, 26602.5, 27566.19999999553], 'hit': [None, 1, 0, 1, 1, 1, 1, 1, 1, 1, 1], 'asked': ['', 'A', 'AE', 'AEI', 'AEIO', 'AEIOU', 'AEIOUT', 'AEIOUTS', 'AEIOUTSN', 'AEIOUTSNB', 'AEIOUTSNBL'], 'word_state': ['_____ ____', '__A__ ____', '__A__ ____', '__AI_ ____', '__AI_ _O__', 'U_AI_ _O__', 'U_AI_ _O_T', 'USAI_ _O_T', 'USAIN _O_T', 'USAIN BO_T', 'USAIN BOLT']}","['A', 'E', 'I', 'O', 'U', 'T', 'S', 'N', 'B', 'L']",10.0,14.0,0.0,,,,,,,,,,
,instructions,31,353682,0.0-12.0-3.3,,107,"[40, 88, 220, 209, 5, 125, 62, 174, 127, 125, 95, 120, 33, 103, 226, 75, 97, 21, 60, 1, 85, 20, 80, 166, 40, 206, 231, 34, 80, 159, 101, 41]",53,669a702db1122fc5150a13ce,65a4333efc75f965e7fc0cb5,669a8fa0dcf74dbfa31e26e7,1,1,0,True,5,61,"[{""page_index"":0,""viewing_time"":833.3000000044703}]",833.5,,,,,,,,,,,,,,,,,,,,
,Guess_leaderboard,32,356023,0.0-12.0-4.3,,107,"[40, 88, 220, 209, 5, 125, 62, 174, 127, 125, 95, 120, 33, 103, 226, 75, 97, 21, 60, 1, 85, 20, 80, 166, 40, 206, 231, 34, 80, 159, 101, 41]",53,669a702db1122fc5150a13ce,65a4333efc75f965e7fc0cb5,669a8fa0dcf74dbfa31e26e7,1,1,0,True,5,61,,,,,,,USAIN BOLT,,,,,,,1574.8999999985099,20.0,78.0,3.0,77.0,57.0,,,
,instructions,33,357387,0.0-12.0-0.4,,107,"[40, 88, 220, 209, 5, 125, 62, 174, 127, 125, 95, 120, 33, 103, 226, 75, 97, 21, 60, 1, 85, 20, 80, 166, 40, 206, 231, 34, 80, 159, 101, 41]",53,669a702db1122fc5150a13ce,65a4333efc75f965e7fc0cb5,669a8fa0dcf74dbfa31e26e7,1,1,0,True,5,61,"[{""page_index"":0,""viewing_time"":1362.8999999985099}]",1363.2999999970198,,,,,,,,,,,,,,,,,,,,
,type-this,34,359865,0.0-12.0-1.4,,107,"[40, 88, 220, 209, 5, 125, 62, 174, 127, 125, 95, 120, 33, 103, 226, 75, 97, 21, 60, 1, 85, 20, 80, 166, 40, 206, 231, 34, 80, 159, 101, 41]",53,669a702db1122fc5150a13ce,65a4333efc75f965e7fc0cb5,669a8fa0dcf74dbfa31e26e7,1,1,0,True,5,61,,1975.5,['fig'],,,,,,,,,,fig,,,,,,,,,
,Hangman_replay,35,413327,0.0-12.0-2.4,,107,"[40, 88, 220, 209, 5, 125, 62, 174, 127, 125, 95, 120, 33, 103, 226, 75, 97, 21, 60, 1, 85, 20, 80, 166, 40, 206, 231, 34, 80, 159, 101, 41]",53,669a702db1122fc5150a13ce,65a4333efc75f965e7fc0cb5,669a8fa0dcf74dbfa31e26e7,1,1,0,True,5,61,,,,,,,FIG,"{'letter': ['', 'F', 'I', 'G'], 't': [0, 46990.80000000447, 48754.40000000596, 51457.80000000447], 'hit': [None, 1, 1, 1], 'asked': ['', 'F', 'FI', 'FIG'], 'word_state': ['___', 'F__', 'FI_', 'FIG']}","['F', 'I', 'G']",3.0,15.0,0.0,,,,,,,,,,
,instructions,36,414106,0.0-12.0-3.4,,107,"[40, 88, 220, 209, 5, 125, 62, 174, 127, 125, 95, 120, 33, 103, 226, 75, 97, 21, 60, 1, 85, 20, 80, 166, 40, 206, 231, 34, 80, 159, 101, 41]",53,669a702db1122fc5150a13ce,65a4333efc75f965e7fc0cb5,669a8fa0dcf74dbfa31e26e7,1,1,0,True,5,61,"[{""page_index"":0,""viewing_time"":778.2999999970198}]",778.6000000014901,,,,,,,,,,,,,,,,,,,,
,Guess_leaderboard,37,416143,0.0-12.0-4.4,,107,"[40, 88, 220, 209, 5, 125, 62, 174, 127, 125, 95, 120, 33, 103, 226, 75, 97, 21, 60, 1, 85, 20, 80, 166, 40, 206, 231, 34, 80, 159, 101, 41]",53,669a702db1122fc5150a13ce,65a4333efc75f965e7fc0cb5,669a8fa0dcf74dbfa31e26e7,1,1,0,True,5,61,,,,,,,FIG,,,,,,,1280.7999999970198,25.0,52.0,4.0,18.0,7.0,,,
,survey-text,38,420633,0.0-13.0,,107,"[40, 88, 220, 209, 5, 125, 62, 174, 127, 125, 95, 120, 33, 103, 226, 75, 97, 21, 60, 1, 85, 20, 80, 166, 40, 206, 231, 34, 80, 159, 101, 41]",53,669a702db1122fc5150a13ce,65a4333efc75f965e7fc0cb5,669a8fa0dcf74dbfa31e26e7,1,1,0,True,5,61,,4488.79999999702,"{""Q0"":""fig""}",,,,,,,,,,,,,,,,,fig,,
,survey-multi-choice,39,426438,0.0-14.0,,107,"[40, 88, 220, 209, 5, 125, 62, 174, 127, 125, 95, 120, 33, 103, 226, 75, 97, 21, 60, 1, 85, 20, 80, 166, 40, 206, 231, 34, 80, 159, 101, 41]",53,669a702db1122fc5150a13ce,65a4333efc75f965e7fc0cb5,669a8fa0dcf74dbfa31e26e7,1,1,0,True,5,61,,5804.0999999940395,"{""Q0"":""5. I would be <b>fifth</b> out of the six of us.""}",[0],,self-rating,,,,,,,,,5.0,,,,,,,
,html-slider-response,40,430588,0.0-15.0,,107,"[40, 88, 220, 209, 5, 125, 62, 174, 127, 125, 95, 120, 33, 103, 226, 75, 97, 21, 60, 1, 85, 20, 80, 166, 40, 206, 231, 34, 80, 159, 101, 41]",53,669a702db1122fc5150a13ce,65a4333efc75f965e7fc0cb5,669a8fa0dcf74dbfa31e26e7,1,1,0,True,5,61,,4148.60000000149,,,,,,,,,,,61,,,,,,,,"<p>Overall, how confident were you in your answer to this last question?</p>",61.0
,survey-text,41,445973,0.0-16.0,,107,"[40, 88, 220, 209, 5, 125, 62, 174, 127, 125, 95, 120, 33, 103, 226, 75, 97, 21, 60, 1, 85, 20, 80, 166, 40, 206, 231, 34, 80, 159, 101, 41]",53,669a702db1122fc5150a13ce,65a4333efc75f965e7fc0cb5,669a8fa0dcf74dbfa31e26e7,1,1,0,True,5,61,,15383.10000000149,"{""Q0"":""how you precieve other people playing hangman""}",,,,,,,,,,,,,,,,,,,
,survey-text,42,451756,0.0-17.0,,107,"[40, 88, 220, 209, 5, 125, 62, 174, 127, 125, 95, 120, 33, 103, 226, 75, 97, 21, 60, 1, 85, 20, 80, 166, 40, 206, 231, 34, 80, 159, 101, 41]",53,669a702db1122fc5150a13ce,65a4333efc75f965e7fc0cb5,669a8fa0dcf74dbfa31e26e7,1,1,0,True,5,61,,5781.69999999553,"{""Q0"":""I did it throughly""}",,,,,,,,,,,,,,,,,,,
,instructions,43,456966,0.0-18.0,,107,"[40, 88, 220, 209, 5, 125, 62, 174, 127, 125, 95, 120, 33, 103, 226, 75, 97, 21, 60, 1, 85, 20, 80, 166, 40, 206, 231, 34, 80, 159, 101, 41]",53,669a702db1122fc5150a13ce,65a4333efc75f965e7fc0cb5,669a8fa0dcf74dbfa31e26e7,1,1,0,True,5,61,"[{""page_index"":0,""viewing_time"":5209.5}]",5210.10000000149,,,,,,,,,,,,,,,,,,,,
