[{"success":true,"trial_type":"fullscreen","trial_index":0,"time_elapsed":4353,"internal_node_id":"0.0-0.0","protocol_sum":"","subject_identifier":425,"subject_sum":[250,43,122,240,168,17,185,172,222,96,42,172,183,142,54,56,232,80,109,254,173,95,230,195,66,91,16,181,38,249,75,221],"subject_pair":212,"STUDY_ID":"66a22c0758a3d5c9d26873c6","PROLIFIC_PID":"6686eda3f5bea9f320d9376d","SESSION_ID":"66a2baf44fd40f5d00c66b0f","practice_instructions":1,"leaderboard_instructions":0,"bonus":0,"reveal_word":true,"self_rating":"2","confidence":"100"},{"view_history":"[{\"page_index\":0,\"viewing_time\":9997.299999952316}]","rt":9997.5,"trial_type":"instructions","trial_index":1,"time_elapsed":14351,"internal_node_id":"0.0-1.0","protocol_sum":"","subject_identifier":425,"subject_sum":[250,43,122,240,168,17,185,172,222,96,42,172,183,142,54,56,232,80,109,254,173,95,230,195,66,91,16,181,38,249,75,221],"subject_pair":212,"STUDY_ID":"66a22c0758a3d5c9d26873c6","PROLIFIC_PID":"6686eda3f5bea9f320d9376d","SESSION_ID":"66a2baf44fd40f5d00c66b0f","practice_instructions":1,"leaderboard_instructions":0,"bonus":0,"reveal_word":true,"self_rating":"2","confidence":"100"},{"view_history":"[{\"page_index\":0,\"viewing_time\":21287.5}]","rt":21287.700000047684,"trial_type":"instructions","trial_index":2,"time_elapsed":35639,"internal_node_id":"0.0-2.0-0.0","protocol_sum":"","subject_identifier":425,"subject_sum":[250,43,122,240,168,17,185,172,222,96,42,172,183,142,54,56,232,80,109,254,173,95,230,195,66,91,16,181,38,249,75,221],"subject_pair":212,"STUDY_ID":"66a22c0758a3d5c9d26873c6","PROLIFIC_PID":"6686eda3f5bea9f320d9376d","SESSION_ID":"66a2baf44fd40f5d00c66b0f","practice_instructions":1,"leaderboard_instructions":0,"bonus":0,"reveal_word":true,"self_rating":"2","confidence":"100"},{"rt":20917.5,"responses":"{\"Q0\":\"... reveal the word with as <b>few letter guesses</b> as possible\"}","question_order":"[0]","trial_type":"survey-multi-choice","trial_index":3,"time_elapsed":56558,"internal_node_id":"0.0-2.0-1.0","protocol_sum":"","subject_identifier":425,"subject_sum":[250,43,122,240,168,17,185,172,222,96,42,172,183,142,54,56,232,80,109,254,173,95,230,195,66,91,16,181,38,249,75,221],"subject_pair":212,"correct":true,"test_part":"multichoice_nonpretend","STUDY_ID":"66a22c0758a3d5c9d26873c6","PROLIFIC_PID":"6686eda3f5bea9f320d9376d","SESSION_ID":"66a2baf44fd40f5d00c66b0f","practice_instructions":1,"leaderboard_instructions":0,"bonus":0,"reveal_word":true,"self_rating":"2","confidence":"100"},{"view_history":"[{\"page_index\":0,\"viewing_time\":3189}]","rt":3189.2000000476837,"trial_type":"instructions","trial_index":4,"time_elapsed":59748,"internal_node_id":"0.0-3.0","protocol_sum":"","subject_identifier":425,"subject_sum":[250,43,122,240,168,17,185,172,222,96,42,172,183,142,54,56,232,80,109,254,173,95,230,195,66,91,16,181,38,249,75,221],"subject_pair":212,"STUDY_ID":"66a22c0758a3d5c9d26873c6","PROLIFIC_PID":"6686eda3f5bea9f320d9376d","SESSION_ID":"66a2baf44fd40f5d00c66b0f","practice_instructions":1,"leaderboard_instructions":0,"bonus":0,"reveal_word":true,"self_rating":"2","confidence":"100"},{"word":"ZEBRA","click_log":{"letter":["","T","M","O","U","S","E","Z","B","R","A"],"t":[0,5182.100000023842,22225.700000047684,23617.700000047684,25647.899999976158,26377.899999976158,28408.200000047684,34835,35901.5,37449.299999952316,38747.39999997616],"hit":[null,0,0,0,0,0,1,1,1,1,1],"asked":["","T","TM","TMO","TMOU","TMOUS","TMOUSE","TMOUSEZ","TMOUSEZB","TMOUSEZBR","TMOUSEZBRA"],"word_state":["_____","_____","_____","_____","_____","_____","_E___","ZE___","ZEB__","ZEBR_","ZEBRA"]},"hover_log":{"letter":["?","?","?","?","?","?","?","?","?","?","?","?","?","?","?","?","?","?","?","?","?","?","?","?","?","Q","?","R","R","R","R","R","R","R","?","?","?","?","?","?","?","?","?","?","?","?","?","?","?","?","?","?","?","?","?","?","?","?","?","?","?","?","?","?","?","?","?","?","?","?","?","?","?","?","?","?","?","?","?","?","?","?","?","?","?","?","?","?","?","?","?","?","?","?","?","?","?","?","?","?","?","?","?","?","?","?","?","?","?","?","?","?","?","?","?","?","?","?","?","?","?","?","?","?","?","?","?","?","?","?","?","?","?","?","?","?","?","?","?","?","?","?","?","?","?","?","?","?","?","?","?","?","?","?","?","?","?","?","?","?","?","?","?","?","?","?","?","?","?","?","?","?","?","?","?","?","?","?","?","?","?","?","?","?","?","?","?","?","?","?","?","?","H","?","?","?","?","?","?","?","?","?","?","?","?","?","?","?","?","?","?","?","?","?","?","?","?","?","?","?","?","?","?","?","?","?","?","?","?","?","?","?","?","?","?","?","?","?","?","?","?","?","?","?","?","?","?","?","?","?","?","?","?","?","?","?","?","?","?","?","?","?","?","?","?","?","?","?","?","?","?","?","?","?","?","?","?","?","?","?","?","?","?","?","?","?","?","?","?","?","?","?","?","?","?","?","?","?","?","?","D","?","?","N","N","O","?","?","?","?","?","?","?","?","?","?","?","?","?","?","?","X","X","X","?","W","V","V","?","U","U","?","?","?","?","?","?","?","?","?","?","?","?","?","?","?","?","?","?","?","?","T","T","T","T","T","T","T","T","T","T","T","T","T","T","T","T","T","T","T","T","T","T","T","T","T","T","T","T","T","T","T","T","T","T","T","T","T","T","T","T","?","?","?","?","?","?","?","?","?","?","?","?","?","?","?","?","?","?","?","?","?","?","?","?","?","?","?","?","?","?","?","?","?","?","?","?","?","?","?","?","?","?","?","?","?","?","?","?","?","?","?","?","?","?","?","?","?","?","?","?","?","?","?","?","?","?","?","?","?","?","?","?","?","?","?","?","?","?","?","?","?","?","?","?","?","?","?","?","?","?","?","?","?","?","?","?","?","?","?","?","?","?","?","?","?","?","?","?","?","?","?","?","?","?","?","?","?","?","?","?","?","?","?","?","?","?","?","?","?","?","?","?","?","?","?","?","?","?","?","?","?","?","?","?","?","?","?","?","?","?","?","?","?","?","?","?","?","?","?","?","?","?","?","?","?","?","?","?","?","?","?","?","?","?","?","?","?","?","?","?","?","?","?","?","?","?","?","?","?","?","?","?","?","?","?","?","?","?","?","?","?","?","?","?","?","?","?","?","?","?","?","?","?","?","?","?","?","?","?","?","?","?","?","?","?","?","?","?","?","?","?","?","?","?","?","?","?","?","?","?","?","?","?","?","?","?","?","?","?","?","?","?","?","?","?","?","?","?","?","?","?","?","?","?","?","?","?","?","?","?","?","?","?","?","?","?","?","?","?","?","?","?","?","?","?","?","?","?","?","?","?","?","?","?","?","?","?","?","?","?","?","?","?","?","?","?","?","?","?","?","?","?","?","?","?","?","?","?","?","?","?","?","?","?","?","?","?","?","?","?","?","?","?","?","?","?","?","?","?","?","?","?","?","?","?","?","?","?","?","?","?","?","?","?","?","?","?","V","?","?","L","?","C","C","?","?","?","?","?","?","?","?","?","?","?","?","?","?","?","?","?","?","?","?","?","?","?","?","?","?","?","?","?","?","?","?","?","?","?","?","?","?","?","?","?","?","?","?","?","?","?","?","?","?","?","?","?","?","?","?","?","?","?","?","?","?","?","?","?","?","?","?","?","?","?","?","?","?","?","?","?","?","?","?","?","?","?","?","?","?","?","?","?","?","?","?","?","?","?","?","?","?","?","?","?","?","?","?","?","?","?","?","?","?","?","?","?","?","?","?","?","?","?","?","?","?","?","?","?","?","?","?","?","?","?","?","?","?","?","?","?","?","?","?","?","?","?","?","?","?","?","?","?","?","?","?","?","?","?","?","?","?","?","?","B","B","B","B","B","B","B","B","B","B","B","B","B","B","B","B","B","B","B","B","B","B","B","B","B","B","B","B","B","B","B","B","B","B","B","B","B","B","B","B","B","B","B","B","B","B","?","?","?","?","?","?","?","?","?","?","?","?","?","?","?","?","?","?","?","?","?","?","?","?","?","?","?","?","?","?","?","?","?","?","?","?","?","?","?","?","?","?","?","?","?","?","?","?","?","?","?","?","?","?","?","?","?","?","?","?","?","?","?","?","?","?","?","?","?","?","?","?","?","?","?","?","?","?","?","?","?","?","?","?","?","?","?","?","?","?","?","?","?","?","?","?","?","?","E","E","E","E","E","E","E","E","E","E","?","?","?","?","?","?","?","?","?","?","?","?","?","?","?","?","?","?","?","?","?","?","?","?","?","?","?","?","?","?","?","?","?","?","?","?","?","?","?","?","?","?","?","?","?","?","?","?","?","?","?","?","?","?","?","?","?","?","?","?","?","?","?","?","?","?","?","?","?","?","?","?","?","?","?","?","?","?","?","?","?","?","?","?","?","?","?","?","?","?","?","?","?","?","?","?","?","?","?","?","?","?","?","?","?","?","?","?","?","?","?","?","?","?","?","?","?","?","?","?","?","?","?","?","?","?","?","?","?","?","?","?","?","?","?","?","?","?","?","?","?","?","?","?","?","?","?","?","?","?","?","?","?","?","?","?","?","?","?","?","?","?","?","?","?","?","?","?","?","?","?","?","?","?","?","?","?","?","?","?","?","?","?","?","?","?","?","?","?","?","?","?","?","?","?","?","?","?","?","?","?","?","?","?","?","?","?","?","?","?","?","?","?","?","?","?","?","?","?","?","?","?","?","?","?","?","?","?","?","?","?","?","?","?","?","?","?","?","?","?","?","?","?","?","?","?","?","?","?","?","?","?","?","?","?","?","?","?","?","?","?","?","?","?","?","?","?","?","?","?","?","?","?","?","?","?","?","?","?","?","?","?","?","?","?","?","?","?","?","?","?","?","?","?","?","?","?","?","?","?","?","?","?","?","?","?","?","?","?","?","?","?","?","?","?","?","?","?","?","?","?","?","?","?","?","?","?","?","?","?","?","?","?","?","?","?","?","?","?","?","?","?","?","?","?","?","?","?","?","?","?","?","?","?","?","?","?","?","?","?","?","?","?","?","?","?","?","?","?","?","?","?","?","?","?","?","?","?","?","?","?","?","?","?","?","?","?","?","?","?","?","?","?","?","?","?","?","?","?","?","?","?","?","?","?","?","?","?","?","?","?","?","?","?","?","?","?","?","?","?","?","?","?","?","?","?","?","?","?","?","?","?","?","?","?","?","?","?","?","?","?","?","?","?","?","?","?","?","?","?","?","?","?","?","?","?","?","?","?","?","?","?","?","?","?","?","?","?","?","?","?","?","?","?","?","?","?","?","?","?","?","?","?","?","?","?","?","?","?","?","?","P","?","O","N","N","?","?","M","M","M","M","M","M","M","M","M","M","M","M","M","M","M","M","M","M","M","M","M","M","M","M","M","M","M","M","M","M","M","M","M","M","M","M","M","M","M","M","M","M","M","M","M","M","M","M","?","?","?","?","?","?","N","N","N","N","N","N","N","N","N","N","N","N","N","N","N","?","?","?","?","?","?","?","?","?","?","?","?","?","?","?","?","?","?","?","?","?","?","?","?","?","?","?","?","?","?","?","?","?","?","?","?","O","O","O","O","O","O","O","O","O","O","O","O","O","O","O","O","O","O","O","O","O","O","O","O","O","O","O","O","O","O","O","O","O","O","O","?","P","?","?","?","?","?","?","?","?","?","?","?","?","?","?","?","?","?","?","?","?","?","?","?","?","?","?","?","?","?","?","?","?","?","?","?","?","?","?","?","?","?","?","?","Q","?","?","P","P","P","?","O","O","?","?","?","?","?","?","?","?","?","?","?","?","?","?","?","D","D","D","D","D","D","D","D","D","D","?","?","?","?","?","?","L","L","L","L","L","L","L","L","?","?","?","?","?","?","?","?","?","?","?","?","?","?","?","?","?","?","?","?","?","?","?","?","?","U","U","U","U","U","U","U","U","U","U","U","U","U","U","U","U","U","U","U","U","U","U","U","U","U","U","U","U","U","U","U","U","U","U","?","?","?","?","?","?","?","?","?","?","?","?","S","S","S","S","S","S","S","S","S","S","S","S","S","S","S","S","S","S","S","S","S","S","S","S","S","S","S","S","S","S","S","S","S","S","S","S","S","S","S","S","S","S","S","S","S","S","S","S","?","?","J","J","J","?","?","?","?","?","?","?","?","?","?","?","?","?","?","?","?","?","?","?","?","?","?","?","?","?","?","?","?","?","?","?","?","?","?","?","?","?","?","?","?","?","?","?","?","?","?","?","?","?","?","?","?","?","?","?","?","?","?","?","?","?","?","?","?","?","?","?","?","?","?","?","?","?","?","?","?","?","?","?","?","?","?","?","?","?","D","D","D","D","D","D","D","D","D","D","D","D","D","?","?","?","E","E","E","E","E","E","E","E","E","E","E","E","E","E","E","E","E","E","E","E","E","E","E","E","E","E","E","E","E","E","E","E","E","E","?","?","?","?","?","?","?","?","?","?","?","?","?","?","?","?","?","F","F","?","?","?","?","?","?","?","?","?","?","?","?","I","I","?","?","?","?","?","?","?","?","?","?","?","?","?","?","?","?","?","?","?","?","?","?","?","?","?","?","?","?","?","?","?","?","?","?","?","?","?","?","?","?","?","?","?","?","?","?","?","?","?","?","?","?","?","?","?","?","?","?","?","?","?","?","?","?","?","?","?","?","?","?","?","?","?","?","?","?","?","?","?","?","?","?","?","?","?","?","?","?","?","?","?","?","?","?","?","?","?","?","?","?","?","?","?","?","?","?","?","?","?","?","?","?","?","?","?","?","?","?","?","?","?","?","?","?","?","?","?","?","?","?","?","?","?","?","?","?","?","?","?","?","?","?","?","?","?","?","?","?","?","?","?","?","?","?","?","?","?","?","?","?","?","?","?","?","?","?","?","?","?","?","?","?","?","?","?","?","?","?","?","?","?","?","?","?","?","?","?","?","?","?","?","?","?","?","?","?","?","?","?","?","?","?","?","?","?","?","?","?","?","?","?","?","?","?","?","?","?","?","?","?","?","?","?","?","?","?","?","?","?","?","?","?","?","?","?","?","?","?","?","?","?","?","?","?","?","?","?","?","?","?","R","R","R","R","R","R","R","R","R","R","R","R","R","R","R","R","R","R","?","?","?","?","?","?","?","?","?","?","?","?","?","?","?","?","Y","Y","Y","Y","Y","Y","Y","Y","Y","Y","Y","Y","Y","Y","Y","Y","Y","Y","Y","Y","Y","Y","Y","Y","Y","Y","Y","Y","Y","Y","Y","Y","Y","Y","Y","Y","Y","Y","Y","Y","Y","Y","Y","Y","Y","Y","Y","Y","Y","Y","Y","Y","Y","Y","Y","Y","Y","Y","Y","Y","Y","Y","Y","Y","Y","Y","Y","Y","Y","Y","Y","Y","Y","Y","Y","Y","Y","Y","Y","Y","Y","Y","Y","Y","Y","Y","Y","Y","Y","Y","Y","Y","Y","Y","Y","Y","Y","Y","Y","Y","Y","Y","Y","Y","Y","Y","Y","Y","?","?","?","?","?","?","?","Z","Z","Z","Z","Z","Z","Z","Z","Z","Z","Z","Z","Z","Z","Z","Z","Z","Z","Z","Z","Z","Z","Z","Z","Z","Z","Z","Z","Z","Z","Z","Z","Z","Z","Z","?","Y","Y","?","?","?","N","?","D","C","?","?","?","?","?","?","?","?","?","?","?","?","?","?","?","?","?","?","?","?","?","?","?","B","B","B","B","B","B","B","B","B","B","B","B","B","B","B","B","B","B","B","B","B","B","B","B","B","B","B","B","B","B","B","B","?","?","?","?","L","L","?","?","V","V","?","W","W","W","W","W","W","W","W","W","?","?","?","?","?","?","?","?","?","?","?","?","?","?","Z","Z","Z","Z","Z","Z","Z","?","?","?","?","?","?","?","?","?","?","?","?","?","?","?","?","?","?","?","?","?","?","?","?","?","?","?","?","?","?","?","?","?","?","?","?","?","?","?","?","?","R","R","R","R","R","R","R","R","R","R","R","R","R","R","R","R","R","R","R","R","R","R","R","Q","?","C","?","?","?","?","?","?","?","?","?","?","?","?","?","?","?","?","?","?","?","?","?","?","?","?","?","?","?","?","?","?","?","?","?","?","?","?","?","?","?","?","?","?","?","?","?","?","?","?","?","?","?","?","?","?","?","?","?","?","?","?","?","?","?","?","?","?","?","?","A","A","A","A","A","A","A","A","A","A","A","A","A","A","A","A","A","A","A","A","A","A","A","A","A","A","A","?","C","D","?","?","?","?","?","?","?","?","?","?","?","?","?","?","?","?","?","?","?","?","?","?","?","?","?","?","?","?","?","?","?","?","?","?","?","?","?","?","?","?","?","?","?","?","?","?","?","?","?","?","?","?","?","?","?","?","?","?","?","?","?","?","?","?","?","?","?","?","?","?","?","?","?","?","?","?","?","?","?","?","?","?","?","?","?","?","?","?","?","?","?","?","?","?","?","?","?","?","?","?","?","?","?","?","?","?","?","?","?","?","?","?","?","?","?","?","?","?","?","?","?","?","?","?","?","?","?","?","?","?","?","?","?"],"t":[31,34,48,62,76,90,104,118,132,146,159,173,188,201,215,229,243,257,271,285,298,312,326,340,354,369,382,396,410,424,437,451,465,479,493,507,521,535,549,562,576,590,604,618,632,646,660,673,687,701,715,729,743,757,771,785,799,812,826,840,854,868,882,896,910,924,938,952,965,979,993,1007,1021,1035,1049,1063,1077,1091,1104,1118,1132,1146,1160,1174,1189,1202,1216,1230,1244,1257,1271,1286,1300,1313,1327,1341,1355,1369,1384,1397,1410,1424,1438,1452,1466,1480,1494,1508,1522,1536,1549,1563,1577,1591,1605,1619,1633,1647,1661,1674,1688,1702,1716,1730,1744,1758,1772,1786,1800,1814,1827,1841,1855,1869,1883,1897,1911,1925,1939,1953,1966,1980,1994,2008,2022,2036,2050,2064,2078,2092,2106,2120,2133,2147,2161,2175,2189,2203,2217,2231,2245,2259,2272,2286,2300,2314,2328,2342,2356,2370,2384,2398,2412,2426,2439,2453,2467,2481,2495,2509,2523,2537,2551,2565,2579,2592,2606,2620,2634,2648,2662,2676,2690,2704,2718,2732,2746,2760,2773,2787,2801,2815,2829,2843,2857,2871,2885,2899,2912,2926,2940,2954,2968,2982,2996,3010,3024,3038,3052,3065,3079,3093,3107,3121,3135,3149,3163,3176,3190,3204,3218,3232,3246,3260,3274,3288,3302,3316,3330,3344,3357,3371,3385,3399,3413,3427,3441,3455,3469,3483,3497,3510,3524,3538,3552,3566,3580,3594,3608,3621,3635,3649,3663,3677,3691,3705,3719,3733,3747,3761,3775,3789,3803,3817,3830,3844,3858,3872,3886,3900,3914,3928,3942,3955,3969,3983,3997,4011,4025,4039,4053,4067,4081,4094,4109,4122,4136,4150,4164,4178,4192,4206,4219,4234,4247,4262,4275,4290,4304,4317,4331,4345,4359,4373,4387,4400,4414,4429,4443,4456,4470,4485,4498,4512,4526,4540,4554,4568,4582,4596,4609,4623,4637,4651,4665,4679,4693,4706,4720,4734,4748,4762,4776,4790,4805,4818,4832,4846,4860,4874,4888,4901,4915,4929,4943,4957,4971,4985,4999,5013,5026,5040,5054,5068,5083,5096,5110,5124,5138,5152,5166,5180,5194,5208,5221,5235,5249,5263,5277,5291,5305,5319,5332,5346,5360,5374,5388,5402,5416,5430,5444,5458,5472,5486,5500,5514,5527,5541,5555,5569,5583,5597,5611,5625,5639,5652,5666,5680,5694,5708,5722,5736,5749,5763,5777,5791,5805,5819,5833,5847,5861,5875,5889,5903,5917,5931,5945,5958,5972,5986,6000,6015,6028,6041,6055,6069,6083,6097,6111,6125,6139,6153,6167,6181,6194,6208,6222,6236,6250,6264,6278,6292,6306,6320,6334,6348,6362,6376,6390,6404,6417,6431,6445,6459,6473,6487,6501,6515,6528,6542,6556,6570,6584,6598,6612,6626,6640,6653,6667,6681,6695,6709,6723,6737,6751,6765,6779,6792,6806,6820,6834,6848,6862,6876,6890,6904,6918,6932,6946,6959,6973,6987,7001,7015,7029,7043,7057,7071,7085,7099,7113,7126,7140,7154,7168,7182,7196,7210,7224,7237,7251,7265,7279,7293,7307,7321,7335,7349,7362,7377,7391,7405,7419,7432,7446,7460,7474,7488,7502,7516,7530,7544,7557,7571,7585,7599,7613,7627,7641,7655,7669,7682,7696,7710,7724,7738,7752,7766,7780,7794,7808,7822,7835,7849,7863,7877,7891,7905,7919,7933,7947,7961,7975,7989,8002,8017,8031,8044,8058,8072,8086,8100,8114,8127,8141,8155,8169,8183,8197,8211,8225,8239,8253,8267,8281,8294,8308,8323,8336,8350,8364,8378,8392,8406,8420,8434,8448,8461,8475,8489,8503,8517,8531,8545,8559,8573,8587,8601,8615,8628,8642,8656,8670,8684,8698,8712,8726,8740,8753,8767,8781,8795,8809,8823,8837,8851,8865,8879,8893,8906,8920,8934,8948,8962,8976,8990,9004,9018,9031,9045,9059,9073,9087,9101,9115,9129,9143,9157,9170,9184,9198,9212,9226,9240,9254,9268,9282,9296,9310,9323,9337,9351,9365,9379,9394,9407,9421,9435,9449,9463,9477,9491,9504,9518,9532,9546,9560,9574,9588,9602,9616,9630,9644,9657,9671,9685,9699,9713,9727,9741,9755,9769,9783,9797,9810,9824,9838,9852,9866,9880,9894,9908,9922,9936,9949,9963,9977,9991,10005,10019,10033,10047,10061,10075,10088,10102,10116,10130,10144,10158,10172,10186,10200,10214,10228,10241,10255,10269,10283,10297,10311,10325,10339,10353,10366,10380,10395,10409,10422,10436,10450,10464,10478,10492,10506,10520,10534,10547,10561,10575,10589,10603,10617,10631,10645,10659,10672,10686,10700,10714,10728,10742,10756,10770,10783,10797,10811,10826,10839,10853,10867,10881,10895,10909,10923,10937,10951,10964,10978,10993,11006,11020,11034,11048,11062,11076,11089,11103,11117,11131,11145,11159,11173,11187,11201,11215,11228,11243,11256,11270,11284,11298,11312,11326,11340,11354,11367,11382,11396,11410,11423,11437,11451,11465,11479,11493,11507,11521,11535,11549,11563,11576,11590,11604,11618,11632,11646,11660,11674,11687,11701,11715,11729,11743,11757,11771,11785,11799,11813,11827,11841,11854,11868,11882,11896,11910,11924,11938,11952,11966,11980,11994,12007,12022,12037,12050,12063,12077,12091,12105,12119,12133,12147,12161,12174,12188,12202,12216,12230,12244,12258,12272,12286,12300,12313,12327,12341,12355,12369,12383,12397,12411,12425,12439,12452,12466,12480,12494,12508,12522,12536,12550,12564,12578,12591,12605,12619,12633,12647,12661,12675,12689,12703,12717,12731,12745,12758,12773,12786,12800,12814,12828,12842,12856,12869,12883,12897,12911,12925,12939,12953,12967,12981,12995,13008,13022,13036,13050,13064,13078,13092,13106,13120,13134,13148,13161,13175,13189,13204,13217,13231,13246,13259,13273,13287,13301,13314,13329,13342,13356,13371,13384,13398,13412,13426,13440,13454,13468,13481,13495,13509,13523,13537,13551,13565,13579,13593,13606,13620,13634,13648,13662,13676,13690,13704,13718,13732,13746,13760,13774,13787,13801,13815,13829,13843,13857,13871,13885,13899,13912,13926,13940,13954,13968,13982,13996,14010,14024,14038,14051,14065,14079,14093,14107,14121,14135,14149,14163,14177,14191,14204,14219,14232,14246,14260,14274,14288,14302,14316,14330,14344,14358,14372,14386,14399,14413,14427,14442,14455,14469,14483,14497,14510,14524,14538,14552,14566,14580,14594,14608,14622,14636,14650,14663,14677,14692,14705,14719,14733,14747,14761,14775,14789,14803,14816,14831,14844,14858,14872,14886,14900,14914,14928,14942,14955,14970,14983,14997,15011,15025,15039,15053,15067,15081,15095,15108,15123,15136,15150,15164,15178,15192,15206,15220,15234,15248,15261,15275,15289,15303,15317,15331,15345,15359,15373,15387,15401,15415,15428,15442,15456,15470,15484,15498,15512,15526,15539,15553,15567,15581,15595,15609,15623,15637,15651,15665,15678,15692,15706,15720,15734,15748,15762,15776,15790,15804,15818,15831,15846,15859,15873,15887,15901,15915,15929,15943,15957,15971,15984,15998,16012,16026,16040,16054,16068,16082,16096,16110,16123,16137,16151,16165,16179,16193,16207,16221,16235,16249,16263,16277,16290,16304,16318,16332,16346,16360,16374,16388,16402,16416,16429,16443,16457,16471,16485,16499,16513,16527,16541,16555,16568,16582,16596,16610,16624,16638,16652,16666,16680,16694,16708,16721,16735,16749,16763,16777,16791,16805,16819,16833,16847,16861,16875,16889,16903,16916,16930,16944,16958,16972,16986,17000,17013,17027,17041,17055,17069,17083,17097,17111,17125,17139,17152,17166,17180,17194,17208,17222,17236,17250,17264,17278,17292,17306,17320,17333,17347,17361,17375,17389,17404,17417,17431,17445,17459,17472,17486,17500,17514,17528,17542,17556,17570,17584,17597,17611,17625,17640,17654,17668,17681,17695,17709,17723,17737,17751,17765,17778,17792,17806,17820,17834,17848,17862,17876,17890,17904,17917,17931,17945,17959,17973,17987,18001,18015,18029,18043,18057,18071,18084,18099,18112,18126,18140,18154,18168,18182,18196,18209,18223,18237,18251,18265,18279,18293,18307,18321,18335,18348,18362,18376,18390,18404,18418,18432,18446,18460,18474,18488,18502,18516,18530,18543,18557,18571,18585,18599,18613,18627,18640,18654,18669,18683,18697,18711,18724,18738,18752,18766,18780,18794,18808,18822,18835,18849,18863,18877,18891,18905,18919,18933,18947,18961,18974,18988,19002,19016,19030,19044,19058,19072,19086,19100,19114,19127,19141,19155,19169,19183,19197,19211,19225,19239,19252,19267,19280,19294,19309,19322,19336,19350,19364,19378,19392,19405,19420,19433,19447,19461,19475,19489,19503,19517,19531,19545,19559,19572,19586,19600,19614,19628,19642,19656,19670,19684,19698,19711,19726,19739,19753,19767,19781,19795,19809,19823,19837,19851,19864,19878,19892,19906,19920,19934,19948,19962,19976,19990,20004,20017,20031,20045,20059,20073,20087,20101,20115,20129,20143,20156,20170,20184,20198,20212,20226,20240,20254,20268,20282,20295,20310,20324,20337,20351,20365,20379,20393,20407,20421,20434,20448,20462,20476,20490,20504,20518,20533,20546,20560,20573,20587,20601,20615,20629,20643,20657,20671,20685,20699,20713,20727,20740,20754,20768,20782,20796,20810,20824,20838,20852,20866,20880,20893,20907,20921,20935,20949,20963,20977,20991,21005,21018,21032,21046,21060,21074,21088,21102,21116,21130,21144,21157,21171,21186,21199,21213,21227,21241,21255,21269,21283,21297,21311,21324,21338,21352,21366,21380,21394,21408,21422,21436,21450,21464,21477,21491,21505,21519,21533,21547,21561,21575,21589,21603,21617,21631,21644,21658,21672,21686,21700,21714,21728,21743,21756,21770,21783,21797,21812,21825,21839,21853,21867,21881,21895,21908,21922,21936,21950,21964,21978,21992,22006,22020,22034,22048,22062,22075,22089,22103,22117,22131,22145,22159,22173,22187,22201,22214,22229,22242,22256,22270,22284,22298,22312,22326,22340,22354,22367,22381,22395,22409,22423,22437,22451,22465,22479,22493,22507,22521,22535,22548,22562,22576,22590,22604,22618,22632,22646,22660,22674,22688,22701,22715,22729,22743,22757,22771,22785,22799,22812,22827,22841,22854,22868,22882,22896,22910,22924,22939,22952,22966,22980,22993,23007,23021,23035,23049,23063,23077,23091,23105,23119,23132,23147,23160,23174,23188,23202,23216,23230,23244,23258,23271,23285,23299,23313,23327,23341,23355,23369,23383,23397,23411,23425,23438,23452,23466,23480,23494,23508,23522,23536,23549,23563,23577,23591,23605,23619,23633,23647,23661,23675,23688,23702,23716,23731,23744,23758,23772,23786,23800,23814,23828,23842,23856,23869,23883,23897,23911,23925,23939,23953,23967,23981,23995,24009,24022,24036,24050,24064,24078,24092,24106,24121,24134,24148,24161,24175,24189,24203,24217,24231,24245,24259,24273,24287,24300,24315,24328,24343,24356,24370,24384,24398,24412,24426,24440,24454,24467,24481,24495,24509,24523,24537,24551,24565,24579,24593,24607,24620,24634,24648,24662,24676,24690,24704,24718,24732,24746,24759,24774,24787,24801,24815,24829,24843,24857,24871,24884,24899,24912,24926,24940,24954,24968,24982,24996,25010,25024,25038,25051,25065,25079,25093,25107,25121,25135,25149,25163,25177,25190,25205,25218,25232,25246,25260,25274,25288,25302,25316,25330,25343,25357,25371,25385,25399,25414,25427,25441,25455,25469,25483,25496,25510,25524,25538,25552,25566,25580,25594,25608,25622,25635,25649,25663,25677,25691,25705,25719,25733,25747,25761,25774,25789,25803,25816,25830,25844,25858,25872,25886,25900,25914,25928,25942,25955,25969,25983,25997,26011,26025,26039,26053,26067,26080,26095,26108,26122,26136,26150,26164,26178,26192,26205,26219,26233,26247,26261,26275,26289,26303,26317,26331,26345,26358,26372,26386,26400,26414,26428,26442,26456,26470,26484,26498,26512,26526,26539,26553,26567,26581,26595,26609,26623,26637,26651,26665,26679,26692,26707,26720,26734,26748,26762,26776,26790,26804,26818,26831,26845,26859,26873,26887,26901,26915,26929,26943,26957,26971,26985,26998,27012,27026,27040,27054,27068,27082,27096,27110,27124,27137,27151,27165,27179,27193,27207,27221,27235,27249,27262,27277,27290,27304,27318,27332,27346,27360,27374,27388,27402,27416,27429,27443,27457,27471,27485,27499,27513,27527,27541,27555,27569,27582,27596,27610,27624,27638,27652,27666,27680,27694,27707,27722,27736,27749,27763,27777,27791,27805,27819,27832,27846,27861,27875,27888,27902,27916,27930,27944,27958,27972,27986,28000,28014,28027,28041,28055,28069,28083,28097,28111,28125,28139,28153,28167,28181,28194,28208,28222,28236,28250,28264,28278,28292,28306,28320,28333,28347,28361,28375,28389,28403,28417,28431,28445,28459,28472,28486,28500,28514,28528,28542,28556,28570,28583,28597,28611,28625,28639,28653,28667,28681,28695,28708,28722,28736,28750,28764,28778,28792,28806,28820,28833,28847,28862,28876,28890,28903,28917,28931,28945,28959,28973,28987,29001,29015,29028,29042,29056,29070,29084,29098,29112,29126,29140,29153,29168,29181,29195,29209,29223,29237,29251,29265,29279,29293,29307,29320,29334,29348,29362,29376,29390,29404,29419,29431,29445,29459,29473,29487,29501,29515,29529,29543,29556,29570,29585,29598,29612,29626,29640,29654,29668,29682,29696,29710,29723,29737,29751,29765,29779,29793,29807,29821,29835,29849,29862,29876,29890,29904,29918,29932,29946,29960,29974,29988,30001,30016,30030,30044,30058,30073,30085,30099,30113,30127,30141,30155,30169,30183,30196,30211,30225,30238,30252,30266,30280,30294,30308,30322,30335,30349,30363,30377,30391,30405,30419,30433,30447,30461,30475,30489,30502,30516,30530,30544,30558,30572,30586,30600,30614,30628,30641,30655,30669,30683,30697,30711,30725,30739,30753,30767,30781,30794,30808,30822,30836,30850,30864,30878,30891,30906,30920,30933,30947,30961,30975,30989,31003,31017,31031,31045,31059,31072,31086,31100,31114,31128,31142,31156,31170,31184,31198,31211,31225,31240,31253,31267,31281,31295,31309,31323,31337,31351,31365,31378,31392,31406,31420,31434,31448,31462,31476,31490,31503,31518,31532,31546,31559,31573,31587,31601,31615,31629,31643,31657,31671,31684,31698,31712,31726,31740,31754,31768,31782,31796,31810,31824,31837,31851,31865,31879,31893,31907,31921,31935,31949,31962,31976,31991,32005,32018,32032,32046,32060,32074,32088,32101,32116,32130,32144,32157,32171,32185,32199,32213,32227,32241,32255,32269,32283,32297,32310,32324,32338,32352,32366,32380,32394,32407,32422,32435,32449,32463,32477,32491,32505,32519,32533,32547,32561,32575,32588,32602,32616,32630,32644,32658,32672,32686,32700,32714,32727,32741,32755,32769,32783,32797,32811,32825,32839,32853,32867,32881,32894,32908,32922,32936,32950,32964,32978,32992,33006,33020,33033,33048,33062,33075,33089,33103,33117,33131,33145,33159,33173,33186,33200,33214,33228,33242,33256,33270,33283,33297,33311,33325,33339,33353,33367,33381,33395,33409,33424,33437,33450,33464,33478,33492,33506,33520,33534,33548,33562,33577,33590,33604,33618,33631,33645,33659,33673,33687,33701,33715,33728,33742,33756,33770,33784,33798,33812,33826,33840,33854,33868,33882,33895,33909,33923,33937,33951,33965,33979,33993,34007,34020,34034,34048,34062,34076,34090,34104,34118,34132,34146,34160,34174,34187,34201,34215,34229,34243,34257,34271,34285,34299,34313,34326,34340,34354,34368,34382,34396,34410,34424,34438,34452,34466,34480,34494,34508,34522,34535,34549,34563,34577,34591,34605,34619,34633,34647,34661,34675,34688,34702,34716,34730,34744,34758,34772,34786,34799,34813,34827,34841,34855,34869,34883,34897,34911,34925,34938,34952,34966,34980,34994,35008,35022,35036,35050,35063,35077,35091,35105,35119,35133,35147,35161,35175,35189,35203,35217,35231,35245,35259,35272,35286,35300,35314,35328,35342,35356,35370,35383,35397,35411,35425,35439,35453,35467,35481,35495,35509,35523,35537,35551,35564,35578,35592,35606,35620,35634,35648,35662,35675,35689,35703,35717,35731,35745,35759,35773,35787,35801,35815,35828,35842,35856,35870,35884,35898,35913,35926,35940,35954,35967,35981,35995,36009,36023,36037,36051,36065,36079,36093,36107,36121,36135,36149,36162,36176,36190,36204,36218,36232,36246,36260,36274,36288,36301,36315,36329,36343,36357,36371,36385,36399,36413,36427,36441,36454,36468,36482,36496,36511,36524,36538,36552,36566,36580,36594,36607,36621,36635,36649,36663,36677,36691,36705,36718,36732,36747,36760,36774,36788,36802,36816,36830,36844,36858,36872,36886,36899,36914,36927,36941,36955,36969,36983,36997,37010,37024,37038,37053,37066,37080,37094,37108,37122,37136,37150,37164,37178,37192,37205,37219,37233,37247,37261,37275,37289,37303,37316,37331,37344,37358,37372,37386,37400,37414,37429,37441,37456,37470,37483,37497,37513,37526,37539,37553,37567,37581,37595,37609,37623,37636,37650,37664,37678,37692,37706,37720,37734,37748,37762,37776,37789,37804,37817,37831,37845,37859,37873,37887,37901,37915,37928,37942,37956,37970,37984,37998,38012,38026,38040,38053,38067,38081,38095,38109,38123,38137,38151,38165,38179,38192,38206,38221,38234,38248,38262,38276,38290,38304,38318,38332,38346,38359,38373,38387,38401,38415,38429,38443,38457,38471,38485,38499,38513,38527,38541,38554,38568,38582,38596,38610,38624,38638,38651,38666,38679,38693,38707,38721,38735,38751,38763,38777,38791,38805,38818,38833,38847,38860,38874,38888,38902,38916,38930,38944,38958,38972,38986,39000,39013,39027,39041,39055,39069,39083,39097,39110,39125,39138,39152,39166,39180,39194,39208,39222,39235,39249,39265,39277,39291,39305,39319,39333,39347,39361,39375,39389,39402,39416,39430,39444,39458,39472,39486,39500,39514,39528,39541,39556,39569,39583,39597,39611,39625,39639,39653,39667,39681,39694,39708,39722,39736,39750,39764,39778,39792,39806,39820,39834,39848,39862,39876,39890,39903,39917,39931,39945,39959,39973,39987,40001,40014,40028,40042,40056,40070,40084,40098,40112,40125,40139,40153,40167,40181,40195,40209,40223,40237,40251,40265,40278,40292,40306,40320,40335,40348,40362,40376,40390,40404,40417,40431,40445,40459,40473,40487,40501,40515,40529,40543,40557,40571,40584,40598,40612,40626,40640,40654,40668,40682,40696,40709,40723,40737,40752],"hit":[null],"x":[-2.693877551020408,-2.693877551020408,-2.693877551020408,-2.693877551020408,-2.693877551020408,-2.693877551020408,-2.693877551020408,-2.693877551020408,-2.693877551020408,-2.693877551020408,-2.693877551020408,-2.693877551020408,0.07482993197278912,0.15306122448979592,0.2653061224489796,0.38095238095238093,0.43197278911564624,0.5136054421768708,0.5714285714285714,0.6360544217687075,0.6972789115646258,0.7244897959183674,0.7857142857142857,0.8741496598639455,0.9693877551020408,1.0170068027210883,1.0816326530612246,1.119047619047619,1.1360544217687074,1.1394557823129252,1.1428571428571428,1.153061224489796,1.1666666666666667,1.1768707482993197,1.1870748299319729,1.1904761904761905,1.1938775510204083,1.1972789115646258,1.1972789115646258,1.1972789115646258,1.1972789115646258,1.1972789115646258,1.1972789115646258,1.1972789115646258,1.1972789115646258,1.1972789115646258,1.1972789115646258,1.1972789115646258,1.1972789115646258,1.1972789115646258,1.1972789115646258,1.1972789115646258,1.1972789115646258,1.1972789115646258,1.1972789115646258,1.1972789115646258,1.1972789115646258,1.1972789115646258,1.1972789115646258,1.1972789115646258,1.1972789115646258,1.1972789115646258,1.1972789115646258,1.1972789115646258,1.1972789115646258,1.1972789115646258,1.1972789115646258,1.1972789115646258,1.1972789115646258,1.1972789115646258,1.1972789115646258,1.1972789115646258,1.1972789115646258,1.1972789115646258,1.1972789115646258,1.1972789115646258,1.1972789115646258,1.1972789115646258,1.1972789115646258,1.1972789115646258,1.1972789115646258,1.1972789115646258,1.1972789115646258,1.1972789115646258,1.1972789115646258,1.1972789115646258,1.1972789115646258,1.1972789115646258,1.1972789115646258,1.1972789115646258,1.1972789115646258,1.1972789115646258,1.1972789115646258,1.1972789115646258,1.1972789115646258,1.1972789115646258,1.1972789115646258,1.1972789115646258,1.1972789115646258,1.1972789115646258,1.1972789115646258,1.1972789115646258,1.1972789115646258,1.1972789115646258,1.1972789115646258,1.1972789115646258,1.1972789115646258,1.1972789115646258,1.1972789115646258,1.1972789115646258,1.1972789115646258,1.1972789115646258,1.1972789115646258,1.1972789115646258,1.1972789115646258,1.1972789115646258,1.1972789115646258,1.1972789115646258,1.1972789115646258,1.1972789115646258,1.1972789115646258,1.1972789115646258,1.1972789115646258,1.1972789115646258,1.1972789115646258,1.1972789115646258,1.1972789115646258,1.1972789115646258,1.1972789115646258,1.1972789115646258,1.1972789115646258,1.1972789115646258,1.1972789115646258,1.1972789115646258,1.1972789115646258,1.1972789115646258,1.1972789115646258,1.1972789115646258,1.1972789115646258,1.1972789115646258,1.1972789115646258,1.1972789115646258,1.1972789115646258,1.1972789115646258,1.1972789115646258,1.1972789115646258,1.1972789115646258,1.1972789115646258,1.1972789115646258,1.1972789115646258,1.1972789115646258,1.1972789115646258,1.1972789115646258,1.1972789115646258,1.1972789115646258,1.1972789115646258,1.1972789115646258,1.1972789115646258,1.1972789115646258,1.1972789115646258,1.1972789115646258,1.1972789115646258,1.1972789115646258,1.1972789115646258,1.1972789115646258,1.1972789115646258,1.1972789115646258,1.1972789115646258,1.1972789115646258,1.1972789115646258,1.1972789115646258,1.1972789115646258,1.1972789115646258,1.1972789115646258,1.1972789115646258,1.1972789115646258,1.1972789115646258,1.1972789115646258,1.1972789115646258,1.1972789115646258,1.1972789115646258,1.1972789115646258,1.1802721088435375,1.1700680272108843,1.1700680272108843,1.1700680272108843,1.1700680272108843,1.1700680272108843,1.1700680272108843,1.1462585034013606,1.119047619047619,1.054421768707483,0.95578231292517,0.8435374149659864,0.782312925170068,0.6768707482993197,0.608843537414966,0.5748299319727891,0.5544217687074829,0.54421768707483,0.5340136054421769,0.5170068027210885,0.4931972789115646,0.45918367346938777,0.445578231292517,0.43537414965986393,0.43197278911564624,0.42857142857142855,0.4217687074829932,0.41496598639455784,0.40476190476190477,0.3877551020408163,0.36394557823129253,0.3401360544217687,0.3333333333333333,0.3197278911564626,0.30612244897959184,0.29931972789115646,0.29591836734693877,0.2925170068027211,0.2857142857142857,0.282312925170068,0.282312925170068,0.282312925170068,0.282312925170068,0.282312925170068,0.2857142857142857,0.2857142857142857,0.2857142857142857,0.2857142857142857,0.2857142857142857,0.2857142857142857,0.2857142857142857,0.2857142857142857,0.2891156462585034,0.29591836734693877,0.3163265306122449,0.3231292517006803,0.3401360544217687,0.35374149659863946,0.3673469387755102,0.37755102040816324,0.38095238095238093,0.3843537414965986,0.3877551020408163,0.40476190476190477,0.43197278911564624,0.445578231292517,0.47619047619047616,0.4931972789115646,0.5,0.5,0.5,0.5,0.5,0.5,0.5,0.5,0.5,0.5,0.5,0.5,0.5,0.5,0.5,0.5,0.5,0.5068027210884354,0.5102040816326531,0.5170068027210885,0.5204081632653061,0.5204081632653061,0.5204081632653061,0.5204081632653061,0.5170068027210885,0.5102040816326531,0.5102040816326531,0.5034013605442177,0.4897959183673469,0.48639455782312924,0.46938775510204084,0.4489795918367347,0.42857142857142855,0.41496598639455784,0.40476190476190477,0.391156462585034,0.3741496598639456,0.36054421768707484,0.3469387755102041,0.3401360544217687,0.3299319727891156,0.3197278911564626,0.3129251700680272,0.30952380952380953,0.30612244897959184,0.30612244897959184,0.30612244897959184,0.3129251700680272,0.3231292517006803,0.35034013605442177,0.391156462585034,0.4523809523809524,0.5204081632653061,0.5510204081632653,0.6190476190476191,0.6802721088435374,0.7278911564625851,0.7585034013605442,0.7687074829931972,0.7755102040816326,0.7755102040816326,0.7755102040816326,0.7755102040816326,0.7755102040816326,0.7755102040816326,0.7755102040816326,0.7755102040816326,0.7755102040816326,0.7755102040816326,0.7687074829931972,0.7619047619047619,0.7517006802721088,0.7278911564625851,0.7040816326530612,0.6360544217687075,0.5544217687074829,0.45918367346938777,0.41836734693877553,0.35714285714285715,0.29591836734693877,0.25510204081632654,0.23809523809523808,0.23469387755102042,0.23469387755102042,0.23469387755102042,0.23469387755102042,0.23469387755102042,0.23469387755102042,0.23469387755102042,0.23469387755102042,0.23469387755102042,0.23469387755102042,0.23469387755102042,0.23469387755102042,0.23469387755102042,0.23469387755102042,0.23129251700680273,0.21428571428571427,0.20068027210884354,0.19047619047619047,0.19047619047619047,0.1870748299319728,0.1870748299319728,0.1870748299319728,0.1870748299319728,0.1870748299319728,0.18027210884353742,0.18027210884353742,0.18027210884353742,0.18027210884353742,0.18027210884353742,0.18027210884353742,0.18027210884353742,0.18027210884353742,0.18027210884353742,0.18027210884353742,0.18027210884353742,0.18027210884353742,0.18027210884353742,0.18027210884353742,0.18027210884353742,0.18027210884353742,0.18027210884353742,0.18027210884353742,0.18027210884353742,0.18027210884353742,0.18027210884353742,0.18027210884353742,0.18027210884353742,0.18027210884353742,0.18027210884353742,0.18027210884353742,0.18027210884353742,0.18027210884353742,0.18027210884353742,0.18027210884353742,0.18027210884353742,0.18027210884353742,0.18027210884353742,0.18027210884353742,0.1836734693877551,0.19047619047619047,0.19727891156462585,0.20068027210884354,0.2108843537414966,0.21768707482993196,0.22789115646258504,0.23129251700680273,0.23469387755102042,0.24149659863945577,0.25170068027210885,0.2585034013605442,0.2653061224489796,0.2653061224489796,0.272108843537415,0.2789115646258503,0.282312925170068,0.2857142857142857,0.2857142857142857,0.2857142857142857,0.2857142857142857,0.2857142857142857,0.2857142857142857,0.2857142857142857,0.2857142857142857,0.2857142857142857,0.2857142857142857,0.2857142857142857,0.2857142857142857,0.2857142857142857,0.2857142857142857,0.2857142857142857,0.2857142857142857,0.2857142857142857,0.272108843537415,0.25510204081632654,0.24149659863945577,0.22789115646258504,0.2108843537414966,0.20408163265306123,0.20408163265306123,0.20408163265306123,0.20408163265306123,0.20408163265306123,0.20408163265306123,0.20408163265306123,0.20408163265306123,0.20408163265306123,0.20408163265306123,0.20408163265306123,0.20068027210884354,0.20068027210884354,0.20068027210884354,0.20068027210884354,0.20068027210884354,0.20068027210884354,0.20068027210884354,0.20068027210884354,0.20068027210884354,0.20068027210884354,0.20068027210884354,0.20068027210884354,0.2108843537414966,0.22108843537414966,0.23129251700680273,0.2585034013605442,0.29591836734693877,0.35374149659863946,0.41156462585034015,0.4421768707482993,0.5,0.5612244897959183,0.6122448979591837,0.6598639455782312,0.6802721088435374,0.7142857142857143,0.7414965986394558,0.7619047619047619,0.782312925170068,0.7925170068027211,0.8027210884353742,0.8061224489795918,0.8061224489795918,0.8061224489795918,0.8061224489795918,0.8061224489795918,0.8061224489795918,0.8061224489795918,0.8061224489795918,0.8061224489795918,0.8061224489795918,0.8061224489795918,0.8061224489795918,0.8061224489795918,0.8061224489795918,0.8061224489795918,0.8061224489795918,0.8061224489795918,0.8061224489795918,0.8061224489795918,0.8061224489795918,0.8061224489795918,0.8061224489795918,0.8061224489795918,0.8061224489795918,0.8061224489795918,0.8061224489795918,0.8061224489795918,0.8027210884353742,0.7993197278911565,0.7959183673469388,0.7959183673469388,0.7925170068027211,0.7891156462585034,0.782312925170068,0.7789115646258503,0.7789115646258503,0.7755102040816326,0.7687074829931972,0.7653061224489796,0.7517006802721088,0.7517006802721088,0.7448979591836735,0.7414965986394558,0.7380952380952381,0.7346938775510204,0.7346938775510204,0.7346938775510204,0.7346938775510204,0.7346938775510204,0.7346938775510204,0.7346938775510204,0.7346938775510204,0.7346938775510204,0.7346938775510204,0.7346938775510204,0.7346938775510204,0.7346938775510204,0.7346938775510204,0.7346938775510204,0.7346938775510204,0.7346938775510204,0.7346938775510204,0.7346938775510204,0.7346938775510204,0.7346938775510204,0.7346938775510204,0.7346938775510204,0.7346938775510204,0.7346938775510204,0.7346938775510204,0.7346938775510204,0.7346938775510204,0.7346938775510204,0.7346938775510204,0.7346938775510204,0.7346938775510204,0.7346938775510204,0.7346938775510204,0.7346938775510204,0.7346938775510204,0.7346938775510204,0.7346938775510204,0.7346938775510204,0.7346938775510204,0.7346938775510204,0.7346938775510204,0.7346938775510204,0.7346938775510204,0.7346938775510204,0.7346938775510204,0.7346938775510204,0.7346938775510204,0.7346938775510204,0.7346938775510204,0.7346938775510204,0.7346938775510204,0.7380952380952381,0.782312925170068,0.8469387755102041,0.9217687074829932,1.0068027210884354,1.0476190476190477,1.119047619047619,1.1802721088435375,1.217687074829932,1.2414965986394557,1.2789115646258504,1.3027210884353742,1.3231292517006803,1.3299319727891157,1.3333333333333333,1.3333333333333333,1.3333333333333333,1.3401360544217686,1.346938775510204,1.346938775510204,1.3537414965986394,1.3571428571428572,1.3639455782312926,1.3673469387755102,1.3673469387755102,1.370748299319728,1.370748299319728,1.370748299319728,1.370748299319728,1.370748299319728,1.370748299319728,1.370748299319728,1.370748299319728,1.370748299319728,1.370748299319728,1.370748299319728,1.370748299319728,1.370748299319728,1.370748299319728,1.370748299319728,1.370748299319728,1.370748299319728,1.380952380952381,1.3843537414965987,1.3911564625850341,1.401360544217687,1.4149659863945578,1.4285714285714286,1.4387755102040816,1.4557823129251701,1.4761904761904763,1.489795918367347,1.4931972789115646,1.5,1.5068027210884354,1.510204081632653,1.510204081632653,1.510204081632653,1.510204081632653,1.510204081632653,1.5136054421768708,1.5136054421768708,1.5136054421768708,1.5170068027210883,1.5170068027210883,1.5170068027210883,1.5170068027210883,1.5170068027210883,1.5170068027210883,1.5170068027210883,1.5170068027210883,1.5170068027210883,1.5170068027210883,1.5170068027210883,1.5170068027210883,1.5170068027210883,1.5170068027210883,1.5170068027210883,1.5170068027210883,1.5170068027210883,1.5170068027210883,1.5170068027210883,1.5170068027210883,1.5170068027210883,1.5170068027210883,1.5170068027210883,1.5170068027210883,1.5170068027210883,1.5170068027210883,1.5170068027210883,1.5170068027210883,1.5170068027210883,1.5170068027210883,1.5170068027210883,1.5170068027210883,1.5170068027210883,1.5170068027210883,1.5170068027210883,1.5170068027210883,1.5170068027210883,1.5170068027210883,1.5170068027210883,1.5170068027210883,1.5170068027210883,1.5170068027210883,1.5170068027210883,1.5170068027210883,1.5170068027210883,1.5170068027210883,1.5170068027210883,1.5170068027210883,1.5170068027210883,1.5170068027210883,1.5170068027210883,1.5170068027210883,1.5170068027210883,1.5170068027210883,1.5136054421768708,1.5136054421768708,1.510204081632653,1.5068027210884354,1.5034013605442176,1.5,1.4965986394557824,1.4965986394557824,1.4931972789115646,1.489795918367347,1.4863945578231292,1.4829931972789117,1.4795918367346939,1.4727891156462585,1.469387755102041,1.4625850340136055,1.4591836734693877,1.4523809523809523,1.4489795918367347,1.445578231292517,1.435374149659864,1.4285714285714286,1.4183673469387754,1.4081632653061225,1.3979591836734695,1.380952380952381,1.3571428571428572,1.3265306122448979,1.2993197278911566,1.2789115646258504,1.2448979591836735,1.2040816326530612,1.1496598639455782,1.0952380952380953,1.0680272108843538,1.0136054421768708,0.9659863945578231,0.9285714285714286,0.9115646258503401,0.8809523809523809,0.8605442176870748,0.8435374149659864,0.8231292517006803,0.8129251700680272,0.7925170068027211,0.7721088435374149,0.7517006802721088,0.7346938775510204,0.7244897959183674,0.7074829931972789,0.6870748299319728,0.6632653061224489,0.6360544217687075,0.6224489795918368,0.5884353741496599,0.5612244897959183,0.5408163265306123,0.5204081632653061,0.5102040816326531,0.4897959183673469,0.47278911564625853,0.46258503401360546,0.45918367346938777,0.4421768707482993,0.41496598639455784,0.3741496598639456,0.32653061224489793,0.30952380952380953,0.2789115646258503,0.2585034013605442,0.25170068027210885,0.24829931972789115,0.24829931972789115,0.25170068027210885,0.2687074829931973,0.29591836734693877,0.3163265306122449,0.32653061224489793,0.3401360544217687,0.35374149659863946,0.3673469387755102,0.3707482993197279,0.37755102040816324,0.391156462585034,0.3945578231292517,0.4013605442176871,0.4013605442176871,0.40476190476190477,0.40476190476190477,0.40476190476190477,0.40476190476190477,0.40476190476190477,0.40476190476190477,0.40476190476190477,0.40476190476190477,0.40476190476190477,0.40476190476190477,0.40476190476190477,0.40476190476190477,0.4013605442176871,0.3979591836734694,0.391156462585034,0.38095238095238093,0.3741496598639456,0.3707482993197279,0.3707482993197279,0.3707482993197279,0.3707482993197279,0.3707482993197279,0.3707482993197279,0.3707482993197279,0.3707482993197279,0.3707482993197279,0.3707482993197279,0.3707482993197279,0.3707482993197279,0.3707482993197279,0.3707482993197279,0.3707482993197279,0.3707482993197279,0.3707482993197279,0.3707482993197279,0.3707482993197279,0.3707482993197279,0.3707482993197279,0.3707482993197279,0.36394557823129253,0.36054421768707484,0.36054421768707484,0.35714285714285715,0.35714285714285715,0.35714285714285715,0.35714285714285715,0.35714285714285715,0.35714285714285715,0.35714285714285715,0.35714285714285715,0.35714285714285715,0.35714285714285715,0.35714285714285715,0.35714285714285715,0.35714285714285715,0.36054421768707484,0.37755102040816324,0.41496598639455784,0.45918367346938777,0.5170068027210885,0.54421768707483,0.5986394557823129,0.6394557823129252,0.6666666666666666,0.6768707482993197,0.6802721088435374,0.6836734693877551,0.6836734693877551,0.6836734693877551,0.6836734693877551,0.6836734693877551,0.6836734693877551,0.6870748299319728,0.6972789115646258,0.7074829931972789,0.7074829931972789,0.7142857142857143,0.717687074829932,0.7210884353741497,0.7244897959183674,0.7278911564625851,0.7278911564625851,0.7278911564625851,0.7278911564625851,0.7278911564625851,0.7142857142857143,0.6938775510204082,0.6700680272108843,0.6530612244897959,0.6190476190476191,0.5748299319727891,0.5204081632653061,0.4931972789115646,0.43537414965986393,0.38095238095238093,0.3163265306122449,0.2925170068027211,0.24829931972789115,0.22108843537414966,0.20408163265306123,0.19727891156462585,0.19387755102040816,0.19047619047619047,0.1836734693877551,0.17006802721088435,0.14965986394557823,0.13945578231292516,0.11904761904761904,0.09523809523809523,0.07482993197278912,0.05442176870748299,0.030612244897959183,0.02040816326530612,0.006802721088435374,-0.003401360544217687,-0.006802721088435374,-0.01020408163265306,-0.013605442176870748,-0.017006802721088437,-0.017006802721088437,-0.017006802721088437,-0.02040816326530612,-0.02040816326530612,-0.02040816326530612,-0.02040816326530612,-0.02040816326530612,-0.02040816326530612,-0.013605442176870748,-0.006802721088435374,0,0.013605442176870748,0.017006802721088437,0.02040816326530612,0.02040816326530612,0.02040816326530612,0.02040816326530612,0.02040816326530612,0.02040816326530612,0.02040816326530612,0.02040816326530612,0.030612244897959183,0.047619047619047616,0.07142857142857142,0.1054421768707483,0.1360544217687075,0.14625850340136054,0.1564625850340136,0.1598639455782313,0.1598639455782313,0.1598639455782313,0.1598639455782313,0.1598639455782313,0.1598639455782313,0.1598639455782313,0.1598639455782313,0.1598639455782313,0.1598639455782313,0.1598639455782313,0.1598639455782313,0.1598639455782313,0.1598639455782313,0.1598639455782313,0.1598639455782313,0.1598639455782313,0.1598639455782313,0.1598639455782313,0.1598639455782313,0.1598639455782313,0.1598639455782313,0.1598639455782313,0.1598639455782313,0.1598639455782313,0.1598639455782313,0.1598639455782313,0.1598639455782313,0.1598639455782313,0.1598639455782313,0.1598639455782313,0.1598639455782313,0.1598639455782313,0.1598639455782313,0.1598639455782313,0.1598639455782313,0.1598639455782313,0.1598639455782313,0.1598639455782313,0.1598639455782313,0.1598639455782313,0.1598639455782313,0.17006802721088435,0.19387755102040816,0.23129251700680273,0.24829931972789115,0.272108843537415,0.29591836734693877,0.30952380952380953,0.3163265306122449,0.3163265306122449,0.3163265306122449,0.3163265306122449,0.3163265306122449,0.3163265306122449,0.3163265306122449,0.3197278911564626,0.3197278911564626,0.3197278911564626,0.3197278911564626,0.3197278911564626,0.3197278911564626,0.3197278911564626,0.3197278911564626,0.3197278911564626,0.3197278911564626,0.32653061224489793,0.3299319727891156,0.3333333333333333,0.336734693877551,0.3401360544217687,0.3401360544217687,0.3401360544217687,0.3401360544217687,0.3401360544217687,0.3401360544217687,0.3401360544217687,0.3401360544217687,0.3401360544217687,0.3401360544217687,0.3401360544217687,0.3401360544217687,0.3401360544217687,0.3401360544217687,0.3401360544217687,0.3401360544217687,0.3401360544217687,0.3401360544217687,0.3401360544217687,0.336734693877551,0.3333333333333333,0.3333333333333333,0.3333333333333333,0.3333333333333333,0.3333333333333333,0.3333333333333333,0.3333333333333333,0.3333333333333333,0.3333333333333333,0.3333333333333333,0.3333333333333333,0.3333333333333333,0.3333333333333333,0.3333333333333333,0.3333333333333333,0.3333333333333333,0.3333333333333333,0.3435374149659864,0.36394557823129253,0.38095238095238093,0.4013605442176871,0.40816326530612246,0.4217687074829932,0.42857142857142855,0.43197278911564624,0.43537414965986393,0.4387755102040816,0.4421768707482993,0.445578231292517,0.4489795918367347,0.4523809523809524,0.4523809523809524,0.4523809523809524,0.4523809523809524,0.4523809523809524,0.4523809523809524,0.4523809523809524,0.4523809523809524,0.45918367346938777,0.46598639455782315,0.46598639455782315,0.47619047619047616,0.47959183673469385,0.48299319727891155,0.48299319727891155,0.48299319727891155,0.48299319727891155,0.48639455782312924,0.4931972789115646,0.5,0.5136054421768708,0.5340136054421769,0.5510204081632653,0.5680272108843537,0.5714285714285714,0.5782312925170068,0.5816326530612245,0.5816326530612245,0.5816326530612245,0.5816326530612245,0.5850340136054422,0.5884353741496599,0.5918367346938775,0.5952380952380952,0.5986394557823129,0.6020408163265306,0.6020408163265306,0.6020408163265306,0.608843537414966,0.608843537414966,0.608843537414966,0.6122448979591837,0.6122448979591837,0.6156462585034014,0.6190476190476191,0.6190476190476191,0.6190476190476191,0.6190476190476191,0.6190476190476191,0.6190476190476191,0.6224489795918368,0.6258503401360545,0.6258503401360545,0.6258503401360545,0.6258503401360545,0.6258503401360545,0.6258503401360545,0.6258503401360545,0.6258503401360545,0.6258503401360545,0.6258503401360545,0.6258503401360545,0.6258503401360545,0.6258503401360545,0.6292517006802721,0.6530612244897959,0.6632653061224489,0.6802721088435374,0.6938775510204082,0.7006802721088435,0.7040816326530612,0.7040816326530612,0.7040816326530612,0.7040816326530612,0.7040816326530612,0.7040816326530612,0.7040816326530612,0.7040816326530612,0.7040816326530612,0.7040816326530612,0.7040816326530612,0.7040816326530612,0.7040816326530612,0.7040816326530612,0.7040816326530612,0.7040816326530612,0.7040816326530612,0.7040816326530612,0.7040816326530612,0.7040816326530612,0.7040816326530612,0.7040816326530612,0.7040816326530612,0.7040816326530612,0.7040816326530612,0.7040816326530612,0.7040816326530612,0.7040816326530612,0.7040816326530612,0.7040816326530612,0.7040816326530612,0.7040816326530612,0.7040816326530612,0.7040816326530612,0.7040816326530612,0.7040816326530612,0.7040816326530612,0.7040816326530612,0.7040816326530612,0.7040816326530612,0.7040816326530612,0.7040816326530612,0.7040816326530612,0.7040816326530612,0.7040816326530612,0.7040816326530612,0.7040816326530612,0.7040816326530612,0.7040816326530612,0.7040816326530612,0.7040816326530612,0.7040816326530612,0.7040816326530612,0.7040816326530612,0.7040816326530612,0.7040816326530612,0.7040816326530612,0.7040816326530612,0.7040816326530612,0.7040816326530612,0.7040816326530612,0.7040816326530612,0.7040816326530612,0.7040816326530612,0.7040816326530612,0.7040816326530612,0.7040816326530612,0.7040816326530612,0.7040816326530612,0.7040816326530612,0.7040816326530612,0.7040816326530612,0.7040816326530612,0.7040816326530612,0.7040816326530612,0.7040816326530612,0.7040816326530612,0.7040816326530612,0.7040816326530612,0.7040816326530612,0.7040816326530612,0.7040816326530612,0.7040816326530612,0.7040816326530612,0.7040816326530612,0.7040816326530612,0.7040816326530612,0.7040816326530612,0.7040816326530612,0.7040816326530612,0.7040816326530612,0.7040816326530612,0.7040816326530612,0.7040816326530612,0.7040816326530612,0.7040816326530612,0.7040816326530612,0.7040816326530612,0.7040816326530612,0.7040816326530612,0.7040816326530612,0.7040816326530612,0.7040816326530612,0.7040816326530612,0.7040816326530612,0.7040816326530612,0.7040816326530612,0.7040816326530612,0.7040816326530612,0.7040816326530612,0.7040816326530612,0.7040816326530612,0.7040816326530612,0.7040816326530612,0.7040816326530612,0.7040816326530612,0.7040816326530612,0.7040816326530612,0.7040816326530612,0.7040816326530612,0.7040816326530612,0.7040816326530612,0.7040816326530612,0.7040816326530612,0.7040816326530612,0.7040816326530612,0.7040816326530612,0.7040816326530612,0.7040816326530612,0.7040816326530612,0.7040816326530612,0.7040816326530612,0.7040816326530612,0.7040816326530612,0.7040816326530612,0.7040816326530612,0.7040816326530612,0.7040816326530612,0.7040816326530612,0.7040816326530612,0.7040816326530612,0.7040816326530612,0.7040816326530612,0.7040816326530612,0.7040816326530612,0.7040816326530612,0.7040816326530612,0.7040816326530612,0.7040816326530612,0.7040816326530612,0.7040816326530612,0.7040816326530612,0.7040816326530612,0.7040816326530612,0.7040816326530612,0.7040816326530612,0.7040816326530612,0.7040816326530612,0.7040816326530612,0.7040816326530612,0.7040816326530612,0.7040816326530612,0.7006802721088435,0.7006802721088435,0.7006802721088435,0.7006802721088435,0.7006802721088435,0.7006802721088435,0.7006802721088435,0.7040816326530612,0.7040816326530612,0.7040816326530612,0.7040816326530612,0.7040816326530612,0.7074829931972789,0.7108843537414966,0.7108843537414966,0.7108843537414966,0.7108843537414966,0.7108843537414966,0.7108843537414966,0.7108843537414966,0.7108843537414966,0.7108843537414966,0.7108843537414966,0.7108843537414966,0.7108843537414966,0.7108843537414966,0.7108843537414966,0.7108843537414966,0.7108843537414966,0.7108843537414966,0.7108843537414966,0.7108843537414966,0.7108843537414966,0.7108843537414966,0.7108843537414966,0.7108843537414966,0.7108843537414966,0.7108843537414966,0.7108843537414966,0.7108843537414966,0.7108843537414966,0.7108843537414966,0.7108843537414966,0.7108843537414966,0.7108843537414966,0.7108843537414966,0.7108843537414966,0.7108843537414966,0.7108843537414966,0.7108843537414966,0.7108843537414966,0.7108843537414966,0.7210884353741497,0.7278911564625851,0.7448979591836735,0.7585034013605442,0.7653061224489796,0.7755102040816326,0.782312925170068,0.7857142857142857,0.7891156462585034,0.7925170068027211,0.7959183673469388,0.7993197278911565,0.7993197278911565,0.7993197278911565,0.7993197278911565,0.7993197278911565,0.7993197278911565,0.7993197278911565,0.7993197278911565,0.8027210884353742,0.8027210884353742,0.8061224489795918,0.8095238095238095,0.8129251700680272,0.8163265306122449,0.8231292517006803,0.8299319727891157,0.8469387755102041,0.8571428571428571,0.8741496598639455,0.8877551020408163,0.8945578231292517,0.9081632653061225,0.9217687074829932,0.9319727891156463,0.9489795918367347,0.9693877551020408,0.9795918367346939,1.0034013605442176,1.034013605442177,1.0612244897959184,1.0850340136054422,1.098639455782313,1.129251700680272,1.1598639455782314,1.1802721088435375,1.2006802721088434,1.2074829931972788,1.217687074829932,1.2244897959183674,1.227891156462585,1.2312925170068028,1.2346938775510203,1.2380952380952381,1.2414965986394557,1.2414965986394557,1.2448979591836735,1.248299319727891,1.248299319727891,1.248299319727891,1.248299319727891,1.248299319727891,1.248299319727891,1.248299319727891,1.248299319727891,1.248299319727891,1.248299319727891,1.251700680272109,1.2551020408163265,1.2619047619047619,1.2653061224489797,1.2687074829931972,1.2687074829931972,1.272108843537415,1.2755102040816326,1.2755102040816326,1.2789115646258504,1.282312925170068,1.2857142857142858,1.2857142857142858,1.2891156462585034,1.2925170068027212,1.2959183673469388,1.2959183673469388,1.2959183673469388,1.2993197278911566,1.3027210884353742,1.3027210884353742,1.3061224489795917,1.3095238095238095,1.3129251700680271,1.316326530612245,1.3197278911564625,1.3231292517006803,1.3265306122448979,1.3333333333333333,1.336734693877551,1.3435374149659864,1.346938775510204,1.346938775510204,1.346938775510204,1.346938775510204,1.3435374149659864,1.3401360544217686,1.336734693877551,1.3299319727891157,1.3265306122448979,1.3197278911564625,1.316326530612245,1.3095238095238095,1.3027210884353742,1.2993197278911566,1.2959183673469388,1.2925170068027212,1.2891156462585034,1.2857142857142858,1.2857142857142858,1.2857142857142858,1.2857142857142858,1.2857142857142858,1.2857142857142858,1.2857142857142858,1.2857142857142858,1.2857142857142858,1.2857142857142858,1.282312925170068,1.282312925170068,1.282312925170068,1.282312925170068,1.282312925170068,1.282312925170068,1.282312925170068,1.282312925170068,1.282312925170068,1.282312925170068,1.282312925170068,1.282312925170068,1.2755102040816326,1.2619047619047619,1.2448979591836735,1.2346938775510203,1.217687074829932,1.2040816326530612,1.2006802721088434,1.2006802721088434,1.2006802721088434,1.2006802721088434,1.2006802721088434,1.2006802721088434,1.2006802721088434,1.2006802721088434,1.2006802721088434,1.2006802721088434,1.2006802721088434,1.2006802721088434,1.2006802721088434,1.2006802721088434,1.2006802721088434,1.2006802721088434,1.2006802721088434,1.2006802721088434,1.2006802721088434,1.2006802721088434,1.2006802721088434,1.2006802721088434,1.2006802721088434,1.2006802721088434,1.2006802721088434,1.2006802721088434,1.2006802721088434,1.2006802721088434,1.2006802721088434,1.2006802721088434,1.2006802721088434,1.2006802721088434,1.2006802721088434,1.2006802721088434,1.2006802721088434,1.2006802721088434,1.2006802721088434,1.2006802721088434,1.2006802721088434,1.2006802721088434,1.2006802721088434,1.2006802721088434,1.2006802721088434,1.2006802721088434,1.2006802721088434,1.2006802721088434,1.2006802721088434,1.2006802721088434,1.2006802721088434,1.2006802721088434,1.2006802721088434,1.2006802721088434,1.2006802721088434,1.2006802721088434,1.2006802721088434,1.2006802721088434,1.2006802721088434,1.2006802721088434,1.2006802721088434,1.2006802721088434,1.2006802721088434,1.2006802721088434,1.2006802721088434,1.2006802721088434,1.2006802721088434,1.2006802721088434,1.2006802721088434,1.2006802721088434,1.2006802721088434,1.2006802721088434,1.2006802721088434,1.1938775510204083,1.1870748299319729,1.183673469387755,1.1802721088435375,1.1802721088435375,1.1802721088435375,1.1802721088435375,1.1802721088435375,1.1802721088435375,1.1802721088435375,1.1802721088435375,1.1802721088435375,1.1802721088435375,1.1802721088435375,1.1802721088435375,1.1802721088435375,1.1802721088435375,1.1802721088435375,1.1802721088435375,1.1802721088435375,1.153061224489796,1.1326530612244898,1.0714285714285714,0.9727891156462585,0.8537414965986394,0.7993197278911565,0.6904761904761905,0.6054421768707483,0.54421768707483,0.5034013605442177,0.4897959183673469,0.47619047619047616,0.46938775510204084,0.46598639455782315,0.46258503401360546,0.45918367346938777,0.4557823129251701,0.4557823129251701,0.4557823129251701,0.4557823129251701,0.4557823129251701,0.4557823129251701,0.4557823129251701,0.4557823129251701,0.4557823129251701,0.4557823129251701,0.4523809523809524,0.4489795918367347,0.4489795918367347,0.4489795918367347,0.4489795918367347,0.4489795918367347,0.4489795918367347,0.4489795918367347,0.4489795918367347,0.4489795918367347,0.4489795918367347,0.4489795918367347,0.4489795918367347,0.4489795918367347,0.4489795918367347,0.4489795918367347,0.4489795918367347,0.4489795918367347,0.4489795918367347,0.4489795918367347,0.4489795918367347,0.4489795918367347,0.4489795918367347,0.4489795918367347,0.4489795918367347,0.4489795918367347,0.4489795918367347,0.4489795918367347,0.4489795918367347,0.4489795918367347,0.45918367346938777,0.46598639455782315,0.47959183673469385,0.4897959183673469,0.4965986394557823,0.5,0.5034013605442177,0.5068027210884354,0.5102040816326531,0.5136054421768708,0.5170068027210885,0.5204081632653061,0.5204081632653061,0.5204081632653061,0.5204081632653061,0.5204081632653061,0.5306122448979592,0.5408163265306123,0.5544217687074829,0.5680272108843537,0.5714285714285714,0.5782312925170068,0.5816326530612245,0.5884353741496599,0.5952380952380952,0.6020408163265306,0.6122448979591837,0.6190476190476191,0.6292517006802721,0.6360544217687075,0.6394557823129252,0.6462585034013606,0.6496598639455783,0.6530612244897959,0.6564625850340136,0.6598639455782312,0.6632653061224489,0.6666666666666666,0.6700680272108843,0.673469387755102,0.6768707482993197,0.6768707482993197,0.6802721088435374,0.6836734693877551,0.6870748299319728,0.6904761904761905,0.6938775510204082,0.6972789115646258,0.7006802721088435,0.7040816326530612,0.7074829931972789,0.7142857142857143,0.717687074829932,0.7210884353741497,0.7244897959183674,0.7278911564625851,0.7312925170068028,0.7346938775510204,0.7346938775510204,0.7346938775510204,0.7380952380952381,0.7380952380952381,0.7380952380952381,0.7380952380952381,0.7346938775510204,0.7346938775510204,0.7312925170068028,0.7312925170068028,0.7312925170068028,0.7278911564625851,0.7244897959183674,0.7210884353741497,0.7210884353741497,0.717687074829932,0.717687074829932,0.717687074829932,0.717687074829932,0.717687074829932,0.717687074829932,0.717687074829932,0.717687074829932,0.717687074829932,0.717687074829932,0.717687074829932,0.717687074829932,0.717687074829932,0.717687074829932,0.717687074829932,0.717687074829932,0.717687074829932,0.717687074829932,0.717687074829932,0.717687074829932,0.7278911564625851,0.7585034013605442,0.7789115646258503,0.8367346938775511,0.9081632653061225,0.9761904761904762,1.0442176870748299,1.0782312925170068,1.1326530612244898,1.1768707482993197,1.2074829931972788,1.2244897959183674,1.2244897959183674,1.227891156462585,1.227891156462585,1.227891156462585,1.227891156462585,1.227891156462585,1.227891156462585,1.227891156462585,1.227891156462585,1.227891156462585,1.227891156462585,1.227891156462585,1.227891156462585,1.227891156462585,1.227891156462585,1.2210884353741496,1.217687074829932,1.2108843537414966,1.2040816326530612,1.1972789115646258,1.1904761904761905,1.183673469387755,1.1700680272108843,1.1598639455782314,1.153061224489796,1.1428571428571428,1.129251700680272,1.1224489795918366,1.1156462585034013,1.1156462585034013,1.1122448979591837,1.1020408163265305,1.08843537414966,1.0612244897959184,1.0442176870748299,1,0.9489795918367347,0.9251700680272109,0.8877551020408163,0.8503401360544217,0.8095238095238095,0.7721088435374149,0.7517006802721088,0.717687074829932,0.6972789115646258,0.6768707482993197,0.6632653061224489,0.6564625850340136,0.6394557823129252,0.6224489795918368,0.6020408163265306,0.5816326530612245,0.5714285714285714,0.5578231292517006,0.5374149659863946,0.5238095238095238,0.5170068027210885,0.4965986394557823,0.47619047619047616,0.4557823129251701,0.43197278911564624,0.4217687074829932,0.40816326530612246,0.40476190476190477,0.40476190476190477,0.40476190476190477,0.40476190476190477,0.4013605442176871,0.3945578231292517,0.3843537414965986,0.3673469387755102,0.36054421768707484,0.3435374149659864,0.32653061224489793,0.3129251700680272,0.29591836734693877,0.2891156462585034,0.2789115646258503,0.2755102040816326,0.272108843537415,0.272108843537415,0.272108843537415,0.272108843537415,0.2789115646258503,0.29591836734693877,0.29931972789115646,0.30952380952380953,0.3197278911564626,0.32653061224489793,0.3401360544217687,0.3435374149659864,0.3469387755102041,0.3469387755102041,0.3469387755102041,0.35034013605442177,0.35034013605442177,0.35374149659863946,0.35374149659863946,0.35374149659863946,0.35374149659863946,0.35374149659863946,0.35374149659863946,0.35374149659863946,0.35374149659863946,0.35374149659863946,0.35374149659863946,0.35374149659863946,0.3469387755102041,0.336734693877551,0.32653061224489793,0.3129251700680272,0.30612244897959184,0.30272108843537415,0.29931972789115646,0.29591836734693877,0.29591836734693877,0.29591836734693877,0.29591836734693877,0.29591836734693877,0.29591836734693877,0.29591836734693877,0.29591836734693877,0.29591836734693877,0.29591836734693877,0.29591836734693877,0.29591836734693877,0.29591836734693877,0.29591836734693877,0.29591836734693877,0.29591836734693877,0.29591836734693877,0.29931972789115646,0.29931972789115646,0.29931972789115646,0.29931972789115646,0.29931972789115646,0.30272108843537415,0.30272108843537415,0.30272108843537415,0.30272108843537415,0.29931972789115646,0.29591836734693877,0.2789115646258503,0.24829931972789115,0.2108843537414966,0.17346938775510204,0.1598639455782313,0.13945578231292516,0.12585034013605442,0.11224489795918367,0.09863945578231292,0.09183673469387756,0.07482993197278912,0.05442176870748299,0.034013605442176874,0.013605442176870748,0.003401360544217687,-0.006802721088435374,-0.01020408163265306,-0.017006802721088437,-0.02040816326530612,-0.023809523809523808,-0.023809523809523808,-0.023809523809523808,-0.023809523809523808,-0.023809523809523808,-0.023809523809523808,-0.023809523809523808,-0.023809523809523808,-0.023809523809523808,-0.023809523809523808,-0.023809523809523808,-0.023809523809523808,-0.023809523809523808,-0.023809523809523808,-0.023809523809523808,-0.023809523809523808,-0.023809523809523808,-0.023809523809523808,-0.023809523809523808,-0.023809523809523808,-0.023809523809523808,-0.023809523809523808,-0.023809523809523808,-0.023809523809523808,-0.023809523809523808,-0.023809523809523808,-0.023809523809523808,-0.023809523809523808,-0.023809523809523808,-0.023809523809523808,-0.023809523809523808,-0.023809523809523808,-0.023809523809523808,-0.023809523809523808,-0.023809523809523808,-0.023809523809523808,-0.023809523809523808,-0.023809523809523808,-0.023809523809523808,-0.02040816326530612,-0.006802721088435374,0.003401360544217687,0.023809523809523808,0.034013605442176874,0.04081632653061224,0.04081632653061224,0.04081632653061224,0.04081632653061224,0.047619047619047616,0.07482993197278912,0.08503401360544217,0.10884353741496598,0.12244897959183673,0.1326530612244898,0.1360544217687075,0.1360544217687075,0.1360544217687075,0.1360544217687075,0.14285714285714285,0.14625850340136054,0.15306122448979592,0.1564625850340136,0.1564625850340136,0.16326530612244897,0.16666666666666666,0.17346938775510204,0.1836734693877551,0.19387755102040816,0.20068027210884354,0.20408163265306123,0.20408163265306123,0.20408163265306123,0.20748299319727892,0.20748299319727892,0.20748299319727892,0.20748299319727892,0.20748299319727892,0.20748299319727892,0.20748299319727892,0.20748299319727892,0.20748299319727892,0.20748299319727892,0.20748299319727892,0.20748299319727892,0.20748299319727892,0.20748299319727892,0.20748299319727892,0.20748299319727892,0.20748299319727892,0.20748299319727892,0.20748299319727892,0.2108843537414966,0.21428571428571427,0.22108843537414966,0.22448979591836735,0.23129251700680273,0.23809523809523808,0.24489795918367346,0.25170068027210885,0.25510204081632654,0.2585034013605442,0.2585034013605442,0.2585034013605442,0.24829931972789115,0.24489795918367346,0.24149659863945577,0.23809523809523808,0.23469387755102042,0.23129251700680273,0.22789115646258504,0.22108843537414966,0.21768707482993196,0.21428571428571427,0.2108843537414966,0.20408163265306123,0.20068027210884354,0.19727891156462585,0.19387755102040816,0.19387755102040816,0.19047619047619047,0.19047619047619047,0.19047619047619047,0.19047619047619047,0.19047619047619047,0.19387755102040816,0.2108843537414966,0.22448979591836735,0.2653061224489796,0.30952380952380953,0.35034013605442177,0.3877551020408163,0.40816326530612246,0.43197278911564624,0.445578231292517,0.4489795918367347,0.4523809523809524,0.4523809523809524,0.4557823129251701,0.4557823129251701,0.4557823129251701,0.4557823129251701,0.4557823129251701,0.4557823129251701,0.47278911564625853,0.4931972789115646,0.5102040816326531,0.5170068027210885,0.5272108843537415,0.5374149659863946,0.5408163265306123,0.54421768707483,0.54421768707483,0.54421768707483,0.54421768707483,0.54421768707483,0.54421768707483,0.54421768707483,0.54421768707483,0.54421768707483,0.54421768707483,0.54421768707483,0.54421768707483,0.54421768707483,0.54421768707483,0.54421768707483,0.54421768707483,0.54421768707483,0.54421768707483,0.54421768707483,0.54421768707483,0.54421768707483,0.5476190476190477,0.5510204081632653,0.5544217687074829,0.5612244897959183,0.5680272108843537,0.5816326530612245,0.5952380952380952,0.608843537414966,0.6156462585034014,0.6258503401360545,0.6394557823129252,0.6428571428571429,0.6496598639455783,0.6496598639455783,0.6496598639455783,0.6496598639455783,0.6496598639455783,0.6496598639455783,0.6496598639455783,0.6496598639455783,0.6496598639455783,0.6496598639455783,0.6496598639455783,0.6496598639455783,0.6496598639455783,0.6564625850340136,0.6666666666666666,0.6836734693877551,0.717687074829932,0.7687074829931972,0.8333333333333334,0.8673469387755102,0.9319727891156463,0.9829931972789115,1.030612244897959,1.0442176870748299,1.0680272108843538,1.08843537414966,1.1054421768707483,1.1258503401360545,1.1394557823129252,1.1666666666666667,1.1904761904761905,1.2142857142857142,1.227891156462585,1.2346938775510203,1.2448979591836735,1.251700680272109,1.2551020408163265,1.2585034013605443,1.2585034013605443,1.2619047619047619,1.2653061224489797,1.2653061224489797,1.2687074829931972,1.2687074829931972,1.272108843537415,1.272108843537415,1.272108843537415,1.272108843537415,1.272108843537415,1.272108843537415,1.272108843537415,1.272108843537415,1.2755102040816326,1.2755102040816326,1.2755102040816326,1.2755102040816326,1.2755102040816326,1.2755102040816326,1.2755102040816326,1.2755102040816326,1.2755102040816326,1.2755102040816326,1.2755102040816326,1.2755102040816326,1.2755102040816326,1.2755102040816326,1.2755102040816326,1.2755102040816326,1.2755102040816326,1.2755102040816326,1.2755102040816326,1.2755102040816326,1.2755102040816326,1.2755102040816326,1.2755102040816326,1.2755102040816326,1.2755102040816326,1.2755102040816326,1.2755102040816326,1.2755102040816326,1.2755102040816326,1.2755102040816326,1.2755102040816326,1.2755102040816326,1.2755102040816326,1.2755102040816326,1.2755102040816326,1.2755102040816326,1.2755102040816326,1.2755102040816326,1.2755102040816326,1.2755102040816326,1.2755102040816326,1.2755102040816326,1.2755102040816326,1.2755102040816326,1.272108843537415,1.2687074829931972,1.2653061224489797,1.2653061224489797,1.2619047619047619,1.2585034013605443,1.2551020408163265,1.251700680272109,1.251700680272109,1.248299319727891,1.2448979591836735,1.2414965986394557,1.2414965986394557,1.2414965986394557,1.2414965986394557,1.2380952380952381,1.2346938775510203,1.2312925170068028,1.2312925170068028,1.2312925170068028,1.2312925170068028,1.2312925170068028,1.2312925170068028,1.2312925170068028,1.2312925170068028,1.2312925170068028,1.2312925170068028,1.2312925170068028,1.2312925170068028,1.2312925170068028,1.2312925170068028,1.2312925170068028,1.2312925170068028,1.2312925170068028,1.2312925170068028,1.2312925170068028,1.2312925170068028,1.2312925170068028,1.2312925170068028,1.2312925170068028,1.2312925170068028,1.2312925170068028,1.2312925170068028,1.2312925170068028,1.2312925170068028,1.2312925170068028,1.2312925170068028,1.2312925170068028,1.2312925170068028,1.2312925170068028,1.2312925170068028,1.2312925170068028,1.2312925170068028,1.2312925170068028,1.2312925170068028,1.2312925170068028,1.2312925170068028,1.2312925170068028,1.2312925170068028,1.2312925170068028,1.2312925170068028,1.2312925170068028,1.2312925170068028,1.2312925170068028,1.2312925170068028,1.2312925170068028,1.2312925170068028,1.2312925170068028,1.2312925170068028,1.2312925170068028,1.2312925170068028,1.2312925170068028,1.2312925170068028,1.2312925170068028,1.2312925170068028,1.2312925170068028,1.2312925170068028,1.2312925170068028,1.2312925170068028,1.2312925170068028,1.2312925170068028,1.2312925170068028,1.2312925170068028,1.2312925170068028,1.2312925170068028,1.2312925170068028,1.2312925170068028,1.2312925170068028,1.2312925170068028,1.2312925170068028,1.2312925170068028,1.2312925170068028,1.2312925170068028,1.2312925170068028,1.2312925170068028,1.2312925170068028,1.2312925170068028,1.2312925170068028,1.2312925170068028,1.2312925170068028,1.2312925170068028,1.2312925170068028,1.2312925170068028,1.2312925170068028,1.2312925170068028,1.2312925170068028,1.2312925170068028,1.2312925170068028,1.2312925170068028,1.2312925170068028,1.2312925170068028,1.2312925170068028,1.2312925170068028,1.2312925170068028,1.2312925170068028,1.2312925170068028,1.2448979591836735,1.2551020408163265,1.2551020408163265,1.2551020408163265,1.2551020408163265,1.2551020408163265,1.2551020408163265,1.2551020408163265,1.2551020408163265,1.2551020408163265,1.2551020408163265,1.2551020408163265,1.2551020408163265,1.2551020408163265,1.2551020408163265,1.2551020408163265,1.2551020408163265,1.2551020408163265,1.2551020408163265,1.2551020408163265,1.2551020408163265,1.2551020408163265,1.2551020408163265,1.2551020408163265,1.2551020408163265,1.2551020408163265,1.2551020408163265,1.2551020408163265,1.2551020408163265,1.2551020408163265,1.2551020408163265,1.2551020408163265,1.2551020408163265,1.2551020408163265,1.2551020408163265,1.251700680272109,1.2448979591836735,1.2414965986394557,1.2414965986394557,1.2380952380952381,1.2380952380952381,1.2380952380952381,1.2346938775510203,1.2346938775510203,1.2312925170068028,1.227891156462585,1.2244897959183674,1.2210884353741496,1.217687074829932,1.2142857142857142,1.2142857142857142,1.2108843537414966,1.2074829931972788,1.2040816326530612,1.2040816326530612,1.2040816326530612,1.2040816326530612,1.2040816326530612,1.2040816326530612,1.2040816326530612,1.2040816326530612,1.2040816326530612,1.2040816326530612,1.2040816326530612,1.2040816326530612,1.2040816326530612,1.2006802721088434,1.2006802721088434,1.1972789115646258,1.1938775510204083,1.1904761904761905,1.1904761904761905,1.1870748299319729,1.183673469387755,1.1802721088435375,1.1768707482993197,1.1734693877551021,1.1700680272108843,1.1666666666666667,1.1564625850340136,1.153061224489796,1.1428571428571428,1.1360544217687074,1.129251700680272,1.1224489795918366,1.1156462585034013,1.1054421768707483,1.08843537414966,1.064625850340136,1.0510204081632653,1.0272108843537415,1,0.9761904761904762,0.95578231292517,0.9489795918367347,0.9319727891156463,0.9251700680272109,0.9183673469387755,0.9149659863945578,0.9115646258503401,0.9081632653061225,0.9047619047619048,0.9013605442176871,0.8979591836734694,0.8979591836734694,0.8945578231292517,0.891156462585034,0.8877551020408163,0.8877551020408163,0.8843537414965986,0.8775510204081632,0.8775510204081632,0.8741496598639455,0.8707482993197279,0.8707482993197279,0.8639455782312925,0.8639455782312925,0.8605442176870748,0.8605442176870748,0.8605442176870748,0.8605442176870748,0.8605442176870748,0.8605442176870748,0.8605442176870748,0.8605442176870748,0.8605442176870748,0.8605442176870748,0.8605442176870748,0.8605442176870748,0.8605442176870748,0.8605442176870748,0.8605442176870748,0.8605442176870748,0.8605442176870748,0.8605442176870748,0.8605442176870748,0.8605442176870748,0.8605442176870748,0.8605442176870748,0.8639455782312925,0.8673469387755102,0.8741496598639455,0.8809523809523809,0.8843537414965986,0.8843537414965986,0.8843537414965986,0.8843537414965986,0.8843537414965986,0.8843537414965986,0.8843537414965986,0.8843537414965986,0.8843537414965986,0.8843537414965986,0.8843537414965986,0.8843537414965986,0.8843537414965986,0.8843537414965986,0.8843537414965986,0.8843537414965986,0.8843537414965986,0.8843537414965986,0.8843537414965986,0.8843537414965986,0.8843537414965986,0.8843537414965986,0.8843537414965986,0.8843537414965986,0.8843537414965986,0.8843537414965986,0.8843537414965986,0.8843537414965986,0.8843537414965986,0.8843537414965986,0.8843537414965986,0.8843537414965986,0.8843537414965986,0.8843537414965986,0.8843537414965986,0.8843537414965986,0.8843537414965986,0.8843537414965986,0.8843537414965986,0.8843537414965986,0.8843537414965986,0.8843537414965986,0.8843537414965986,0.8843537414965986,0.8843537414965986,0.8843537414965986,0.8843537414965986,0.8843537414965986,0.8843537414965986,0.8843537414965986,0.8843537414965986,0.8843537414965986,0.8843537414965986,0.8843537414965986,0.8843537414965986,0.8843537414965986,0.8843537414965986,0.8843537414965986,0.8843537414965986,0.8843537414965986,0.8843537414965986,0.8877551020408163,0.891156462585034,0.8945578231292517,0.9013605442176871,0.9047619047619048,0.9115646258503401,0.9149659863945578,0.9183673469387755,0.9217687074829932,0.9251700680272109,0.9319727891156463,0.935374149659864,0.935374149659864,0.9387755102040817,0.9421768707482994,0.9455782312925171,0.9489795918367347,0.9489795918367347,0.9489795918367347,0.9489795918367347,0.9489795918367347,0.9489795918367347,0.9489795918367347,0.9489795918367347,0.9489795918367347,0.9489795918367347,0.9489795918367347,0.9489795918367347,0.9489795918367347,0.9489795918367347,0.9489795918367347,0.9489795918367347,0.9489795918367347,0.9489795918367347,0.9489795918367347,0.9489795918367347,0.9489795918367347,0.9489795918367347,0.9489795918367347,0.9489795918367347,0.9489795918367347,0.9489795918367347,0.9489795918367347,0.9489795918367347,0.9489795918367347,0.9489795918367347,0.9489795918367347,0.9489795918367347,0.9489795918367347,0.9285714285714286,0.9047619047619048,0.8469387755102041,0.7857142857142857,0.7142857142857143,0.6462585034013606,0.608843537414966,0.5204081632653061,0.41156462585034015,0.30612244897959184,0.22108843537414966,0.18027210884353742,0.11904761904761904,0.06462585034013606,0.027210884353741496,0.006802721088435374,0.006802721088435374,0.006802721088435374,0.006802721088435374,0.006802721088435374,0.006802721088435374,0.006802721088435374,0.006802721088435374,0.006802721088435374,0.006802721088435374,0.006802721088435374,0.006802721088435374,0.01020408163265306,0.017006802721088437,0.027210884353741496,0.04081632653061224,0.061224489795918366,0.08503401360544217,0.12585034013605442,0.14625850340136054,0.17346938775510204,0.19387755102040816,0.19387755102040816,0.19387755102040816,0.19387755102040816,0.19387755102040816,0.19387755102040816,0.19387755102040816,0.19387755102040816,0.19387755102040816,0.19387755102040816,0.19387755102040816,0.19387755102040816,0.19387755102040816,0.19387755102040816,0.19387755102040816,0.19387755102040816,0.19387755102040816,0.19387755102040816,0.19387755102040816,0.19387755102040816,0.19387755102040816,0.19387755102040816,0.19387755102040816,0.19387755102040816,0.19387755102040816,0.19387755102040816,0.19387755102040816,0.19387755102040816,0.19387755102040816,0.20408163265306123,0.22108843537414966,0.23129251700680273,0.2585034013605442,0.2789115646258503,0.30272108843537415,0.3435374149659864,0.3707482993197279,0.4217687074829932,0.46938775510204084,0.5,0.5170068027210885,0.5238095238095238,0.5306122448979592,0.5340136054421769,0.5340136054421769,0.5374149659863946,0.5476190476190477,0.564625850340136,0.5952380952380952,0.6122448979591837,0.6530612244897959,0.6938775510204082,0.7380952380952381,0.7755102040816326,0.7925170068027211,0.826530612244898,0.8469387755102041,0.8605442176870748,0.8741496598639455,0.8741496598639455,0.8843537414965986,0.9013605442176871,0.9217687074829932,0.9523809523809523,0.9625850340136054,0.9863945578231292,1.0068027210884354,1.0136054421768708,1.0170068027210883,1.0204081632653061,1.030612244897959,1.0374149659863945,1.0408163265306123,1.0408163265306123,1.0408163265306123,1.0408163265306123,1.0408163265306123,1.0408163265306123,1.0408163265306123,1.0408163265306123,1.034013605442177,1.0272108843537415,1.0204081632653061,1.0204081632653061,1.0204081632653061,1.0204081632653061,1.0238095238095237,1.030612244897959,1.0510204081632653,1.1088435374149659,1.1870748299319729,1.2653061224489797,1.2959183673469388,1.336734693877551,1.346938775510204,1.3503401360544218,1.3503401360544218,1.3503401360544218,1.3503401360544218,1.3503401360544218,1.3503401360544218,1.3503401360544218,1.3503401360544218,1.3503401360544218,1.3503401360544218,1.336734693877551,1.3197278911564625,1.3061224489795917,1.2653061224489797,1.227891156462585,1.2074829931972788,1.1870748299319729,1.1666666666666667,1.1564625850340136,1.153061224489796,1.1496598639455782,1.1462585034013606,1.1428571428571428,1.1394557823129252,1.1360544217687074,1.1360544217687074,1.1326530612244898,1.129251700680272,1.129251700680272,1.129251700680272,1.129251700680272,1.129251700680272,1.129251700680272,1.129251700680272,1.129251700680272,1.129251700680272,1.129251700680272,1.129251700680272,1.1020408163265305,1.0272108843537415,0.7346938775510204,0.3197278911564626,-0.14285714285714285,-0.5204081632653061,-0.6632653061224489,-0.826530612244898,-0.8673469387755102,-0.8673469387755102,-0.8673469387755102,-0.8673469387755102,-0.8537414965986394,-0.8401360544217688,-0.826530612244898,-0.8095238095238095,-0.7925170068027211,-0.7517006802721088,-0.6904761904761905,-0.6156462585034014,-0.5816326530612245,-0.5102040816326531,-0.4523809523809524,-0.41836734693877553,-0.3945578231292517,-0.3877551020408163,-0.37755102040816324,-0.3741496598639456,-0.3673469387755102,-0.35714285714285715,-0.3469387755102041,-0.3129251700680272,-0.2687074829931973,-0.2108843537414966,-0.1564625850340136,-0.1326530612244898,-0.08843537414965986,-0.07142857142857142,-0.06802721088435375,-0.06802721088435375,-0.06802721088435375,-0.06802721088435375,-0.06802721088435375,-0.06802721088435375,-0.06802721088435375,-0.06802721088435375,-0.06802721088435375,-0.06802721088435375,-0.06802721088435375,-0.06802721088435375,-0.06802721088435375,-0.06802721088435375,-0.06802721088435375,-0.06802721088435375,-0.06802721088435375,-0.06802721088435375,-0.06802721088435375,-0.06802721088435375,-0.06802721088435375,-0.06802721088435375,-0.06802721088435375,-0.06802721088435375,-0.06802721088435375,-0.06802721088435375,-0.06802721088435375,-0.06802721088435375,-0.06802721088435375,-0.06802721088435375,-0.06802721088435375,-0.06802721088435375,-0.06462585034013606,-0.061224489795918366,-0.05442176870748299,-0.047619047619047616,-0.04081632653061224,-0.034013605442176874,-0.030612244897959183,-0.027210884353741496,-0.023809523809523808,-0.02040816326530612,-0.02040816326530612,-0.02040816326530612,-0.02040816326530612,-0.02040816326530612,-0.02040816326530612,-0.02040816326530612,-0.02040816326530612,-0.02040816326530612,-0.02040816326530612,-0.02040816326530612,-0.02040816326530612,-0.02040816326530612,-0.02040816326530612,-0.02040816326530612,-0.02040816326530612,-0.02040816326530612,-0.02040816326530612,-0.02040816326530612,0,0.0782312925170068,0.2619047619047619,0.3877551020408163,0.673469387755102,0.9659863945578231,1.2244897959183674,1.3265306122448979,1.5136054421768708,1.6666666666666667,1.7585034013605443,1.8129251700680271,1.8333333333333333,1.846938775510204,1.8503401360544218,1.8537414965986394,1.8537414965986394,1.8571428571428572,1.8605442176870748,1.8639455782312926,1.8673469387755102,1.8673469387755102,1.8673469387755102,1.8673469387755102,1.8673469387755102,1.8673469387755102,1.8673469387755102,1.8673469387755102,1.8673469387755102,1.8673469387755102,1.8673469387755102,1.8673469387755102,1.8673469387755102,1.8673469387755102,1.8673469387755102,1.8673469387755102,1.8673469387755102,1.8673469387755102,1.8673469387755102,1.8673469387755102,1.8673469387755102,1.8673469387755102,1.8673469387755102,1.8673469387755102,1.8673469387755102,1.8673469387755102,1.8673469387755102,1.8673469387755102,1.8673469387755102,1.8673469387755102,1.8673469387755102,1.8673469387755102,1.8673469387755102,1.8673469387755102,1.8673469387755102,1.8673469387755102,1.8673469387755102,1.8673469387755102,1.8673469387755102,1.8673469387755102,1.8673469387755102,1.8673469387755102,1.8673469387755102,1.8673469387755102,1.8673469387755102,1.8673469387755102,1.8673469387755102,1.8673469387755102,1.8673469387755102,1.8673469387755102,1.8605442176870748,1.836734693877551,1.8095238095238095,1.7925170068027212,1.7653061224489797,1.7346938775510203,1.7074829931972788,1.6700680272108843,1.6462585034013606,1.6054421768707483,1.5612244897959184,1.5136054421768708,1.489795918367347,1.4863945578231292,1.4795918367346939,1.4795918367346939,1.4795918367346939,1.4795918367346939,1.4795918367346939,1.4795918367346939,1.4795918367346939,1.4795918367346939,1.4795918367346939,1.4795918367346939,1.4795918367346939,1.4795918367346939,1.4795918367346939,1.4795918367346939,1.4795918367346939,1.4795918367346939,1.4795918367346939,1.4795918367346939,1.4795918367346939,1.4795918367346939,1.4795918367346939,1.4795918367346939,1.4795918367346939,1.4795918367346939,1.4795918367346939,1.4795918367346939,1.4795918367346939,1.4795918367346939,1.4795918367346939,1.4795918367346939,1.4795918367346939,1.4795918367346939,1.4795918367346939,1.4795918367346939,1.4795918367346939,1.4795918367346939,1.4795918367346939,1.4795918367346939,1.4795918367346939,1.4795918367346939,1.4795918367346939,1.4795918367346939,1.4795918367346939,1.4795918367346939,1.4795918367346939,1.4795918367346939,1.4795918367346939,1.4795918367346939,1.4795918367346939,1.4795918367346939,1.4795918367346939,1.4795918367346939,1.4795918367346939],"y":[-4.285714285714286,-4.285714285714286,-4.285714285714286,-4.285714285714286,-4.285714285714286,-4.285714285714286,-4.285714285714286,-4.285714285714286,-4.285714285714286,-4.285714285714286,-4.285714285714286,-4.285714285714286,0.7571428571428571,0.7571428571428571,0.7571428571428571,0.7380952380952381,0.7285714285714285,0.7285714285714285,0.7476190476190476,0.7571428571428571,0.7666666666666667,0.7666666666666667,0.7571428571428571,0.7380952380952381,0.680952380952381,0.6523809523809524,0.5857142857142857,0.5476190476190477,0.5285714285714286,0.5190476190476191,0.5095238095238095,0.4714285714285714,0.4142857142857143,0.3761904761904762,0.3476190476190476,0.32857142857142857,0.319047619047619,0.319047619047619,0.319047619047619,0.319047619047619,0.319047619047619,0.319047619047619,0.319047619047619,0.319047619047619,0.319047619047619,0.319047619047619,0.319047619047619,0.319047619047619,0.319047619047619,0.319047619047619,0.319047619047619,0.319047619047619,0.319047619047619,0.319047619047619,0.319047619047619,0.319047619047619,0.319047619047619,0.319047619047619,0.319047619047619,0.319047619047619,0.319047619047619,0.319047619047619,0.319047619047619,0.319047619047619,0.319047619047619,0.319047619047619,0.319047619047619,0.319047619047619,0.319047619047619,0.319047619047619,0.319047619047619,0.319047619047619,0.319047619047619,0.319047619047619,0.319047619047619,0.319047619047619,0.319047619047619,0.319047619047619,0.319047619047619,0.319047619047619,0.319047619047619,0.319047619047619,0.319047619047619,0.319047619047619,0.319047619047619,0.319047619047619,0.319047619047619,0.319047619047619,0.319047619047619,0.319047619047619,0.319047619047619,0.319047619047619,0.319047619047619,0.319047619047619,0.319047619047619,0.319047619047619,0.319047619047619,0.319047619047619,0.319047619047619,0.319047619047619,0.319047619047619,0.319047619047619,0.319047619047619,0.319047619047619,0.319047619047619,0.319047619047619,0.319047619047619,0.319047619047619,0.319047619047619,0.319047619047619,0.319047619047619,0.319047619047619,0.319047619047619,0.319047619047619,0.319047619047619,0.319047619047619,0.319047619047619,0.319047619047619,0.319047619047619,0.319047619047619,0.319047619047619,0.319047619047619,0.319047619047619,0.319047619047619,0.319047619047619,0.319047619047619,0.319047619047619,0.319047619047619,0.319047619047619,0.319047619047619,0.319047619047619,0.319047619047619,0.319047619047619,0.319047619047619,0.319047619047619,0.319047619047619,0.319047619047619,0.319047619047619,0.319047619047619,0.319047619047619,0.319047619047619,0.319047619047619,0.319047619047619,0.319047619047619,0.319047619047619,0.319047619047619,0.319047619047619,0.319047619047619,0.319047619047619,0.319047619047619,0.319047619047619,0.319047619047619,0.319047619047619,0.319047619047619,0.319047619047619,0.319047619047619,0.319047619047619,0.319047619047619,0.319047619047619,0.319047619047619,0.319047619047619,0.319047619047619,0.319047619047619,0.319047619047619,0.319047619047619,0.319047619047619,0.319047619047619,0.319047619047619,0.319047619047619,0.319047619047619,0.319047619047619,0.319047619047619,0.319047619047619,0.319047619047619,0.319047619047619,0.319047619047619,0.319047619047619,0.319047619047619,0.319047619047619,0.319047619047619,0.319047619047619,0.319047619047619,0.32857142857142857,0.3476190476190476,0.3476190476190476,0.3476190476190476,0.3476190476190476,0.3476190476190476,0.3476190476190476,0.319047619047619,0.2619047619047619,0.10952380952380952,-0.10952380952380952,-0.3380952380952381,-0.43333333333333335,-0.5761904761904761,-0.680952380952381,-0.7476190476190476,-0.8047619047619048,-0.8142857142857143,-0.8523809523809524,-0.9,-0.9761904761904762,-1.0523809523809524,-1.0809523809523809,-1.1095238095238096,-1.119047619047619,-1.1285714285714286,-1.1476190476190475,-1.1571428571428573,-1.1761904761904762,-1.223809523809524,-1.2714285714285714,-1.319047619047619,-1.338095238095238,-1.3666666666666667,-1.4238095238095239,-1.4619047619047618,-1.4904761904761905,-1.519047619047619,-1.5571428571428572,-1.5761904761904761,-1.5952380952380953,-1.6142857142857143,-1.6238095238095238,-1.6428571428571428,-1.6523809523809523,-1.6523809523809523,-1.6523809523809523,-1.6523809523809523,-1.6523809523809523,-1.6523809523809523,-1.6523809523809523,-1.6523809523809523,-1.6523809523809523,-1.6523809523809523,-1.6428571428571428,-1.6333333333333333,-1.6238095238095238,-1.6047619047619048,-1.6047619047619048,-1.5857142857142856,-1.5857142857142856,-1.5857142857142856,-1.5857142857142856,-1.5761904761904761,-1.5761904761904761,-1.5761904761904761,-1.5761904761904761,-1.5666666666666667,-1.5666666666666667,-1.5666666666666667,-1.5666666666666667,-1.5666666666666667,-1.5666666666666667,-1.5666666666666667,-1.5666666666666667,-1.5666666666666667,-1.5666666666666667,-1.5666666666666667,-1.5666666666666667,-1.5666666666666667,-1.5666666666666667,-1.5666666666666667,-1.5666666666666667,-1.5666666666666667,-1.5571428571428572,-1.4904761904761905,-1.4238095238095239,-1.3476190476190477,-1.2904761904761906,-1.2619047619047619,-1.2047619047619047,-1.1666666666666667,-1.1285714285714286,-1.1095238095238096,-1.0904761904761904,-1.061904761904762,-1.0142857142857142,-0.9952380952380953,-0.9476190476190476,-0.9095238095238095,-0.8809523809523809,-0.861904761904762,-0.8523809523809524,-0.8047619047619048,-0.7666666666666667,-0.7285714285714285,-0.7095238095238096,-0.6904761904761905,-0.6523809523809524,-0.6142857142857143,-0.5666666666666667,-0.5095238095238095,-0.49047619047619045,-0.44285714285714284,-0.40476190476190477,-0.3380952380952381,-0.28095238095238095,-0.14761904761904762,0.014285714285714285,0.18571428571428572,0.35714285714285715,0.4142857142857143,0.5476190476190477,0.6238095238095238,0.680952380952381,0.7285714285714285,0.7380952380952381,0.7571428571428571,0.7571428571428571,0.7571428571428571,0.7571428571428571,0.7571428571428571,0.7571428571428571,0.7571428571428571,0.7571428571428571,0.7761904761904762,0.7952380952380952,0.8428571428571429,0.8809523809523809,0.919047619047619,0.9666666666666667,0.9952380952380953,1.042857142857143,1.0809523809523809,1.119047619047619,1.1285714285714286,1.138095238095238,1.138095238095238,1.138095238095238,1.138095238095238,1.138095238095238,1.138095238095238,1.138095238095238,1.138095238095238,1.138095238095238,1.138095238095238,1.138095238095238,1.138095238095238,1.138095238095238,1.138095238095238,1.138095238095238,1.138095238095238,1.138095238095238,1.138095238095238,1.138095238095238,1.119047619047619,1.1095238095238096,1.1,1.1,1.0904761904761904,1.0904761904761904,1.0904761904761904,1.0904761904761904,1.0809523809523809,1.0714285714285714,1.0714285714285714,1.061904761904762,1.061904761904762,1.061904761904762,1.061904761904762,1.061904761904762,1.061904761904762,1.061904761904762,1.061904761904762,1.061904761904762,1.061904761904762,1.061904761904762,1.061904761904762,1.061904761904762,1.061904761904762,1.061904761904762,1.061904761904762,1.061904761904762,1.061904761904762,1.061904761904762,1.061904761904762,1.061904761904762,1.061904761904762,1.061904761904762,1.061904761904762,1.061904761904762,1.061904761904762,1.061904761904762,1.061904761904762,1.061904761904762,1.061904761904762,1.061904761904762,1.0714285714285714,1.0904761904761904,1.119047619047619,1.1571428571428573,1.1761904761904762,1.2142857142857142,1.2523809523809524,1.2904761904761906,1.3095238095238095,1.319047619047619,1.3476190476190477,1.3761904761904762,1.3952380952380952,1.4142857142857144,1.4333333333333333,1.4428571428571428,1.4619047619047618,1.4619047619047618,1.4714285714285715,1.4714285714285715,1.4714285714285715,1.4714285714285715,1.4714285714285715,1.4714285714285715,1.4714285714285715,1.4714285714285715,1.4714285714285715,1.4714285714285715,1.4714285714285715,1.4714285714285715,1.4714285714285715,1.4714285714285715,1.4714285714285715,1.4714285714285715,1.4714285714285715,1.4428571428571428,1.3952380952380952,1.3761904761904762,1.338095238095238,1.3095238095238095,1.3,1.3,1.3,1.3,1.3,1.3,1.3,1.3,1.3,1.3,1.2904761904761906,1.2904761904761906,1.2904761904761906,1.2904761904761906,1.2904761904761906,1.2904761904761906,1.2904761904761906,1.2904761904761906,1.2904761904761906,1.2904761904761906,1.2904761904761906,1.2904761904761906,1.2904761904761906,1.2904761904761906,1.2904761904761906,1.3,1.3095238095238095,1.319047619047619,1.338095238095238,1.3571428571428572,1.3666666666666667,1.3857142857142857,1.4238095238095239,1.4523809523809523,1.4714285714285715,1.480952380952381,1.5,1.519047619047619,1.5285714285714285,1.5476190476190477,1.5571428571428572,1.5571428571428572,1.5666666666666667,1.5666666666666667,1.5666666666666667,1.5666666666666667,1.5666666666666667,1.5666666666666667,1.5666666666666667,1.5666666666666667,1.5666666666666667,1.5666666666666667,1.5666666666666667,1.5666666666666667,1.5666666666666667,1.5666666666666667,1.5666666666666667,1.5666666666666667,1.5666666666666667,1.5666666666666667,1.5666666666666667,1.5666666666666667,1.5666666666666667,1.5666666666666667,1.5666666666666667,1.5666666666666667,1.5666666666666667,1.5761904761904761,1.5857142857142856,1.5857142857142856,1.5952380952380953,1.6047619047619048,1.6047619047619048,1.6238095238095238,1.6238095238095238,1.6333333333333333,1.6428571428571428,1.6428571428571428,1.661904761904762,1.6714285714285715,1.680952380952381,1.6904761904761905,1.7,1.7095238095238094,1.7190476190476192,1.7190476190476192,1.7285714285714286,1.7285714285714286,1.7285714285714286,1.7285714285714286,1.7285714285714286,1.7285714285714286,1.7285714285714286,1.7285714285714286,1.7285714285714286,1.7285714285714286,1.7285714285714286,1.7285714285714286,1.7285714285714286,1.7285714285714286,1.7285714285714286,1.7285714285714286,1.7285714285714286,1.7285714285714286,1.7285714285714286,1.7285714285714286,1.7285714285714286,1.7285714285714286,1.7285714285714286,1.7285714285714286,1.7285714285714286,1.7285714285714286,1.7285714285714286,1.7285714285714286,1.7285714285714286,1.7285714285714286,1.7285714285714286,1.7285714285714286,1.7285714285714286,1.7285714285714286,1.7285714285714286,1.7285714285714286,1.7285714285714286,1.7285714285714286,1.7285714285714286,1.7285714285714286,1.7285714285714286,1.7285714285714286,1.7285714285714286,1.7285714285714286,1.7285714285714286,1.7285714285714286,1.7285714285714286,1.7285714285714286,1.7285714285714286,1.7285714285714286,1.7285714285714286,1.7285714285714286,1.7476190476190476,1.8142857142857143,1.9190476190476191,2.033333333333333,2.1476190476190475,2.1857142857142855,2.2523809523809524,2.3,2.3190476190476192,2.3285714285714287,2.3476190476190477,2.357142857142857,2.3666666666666667,2.3666666666666667,2.3666666666666667,2.3666666666666667,2.3666666666666667,2.357142857142857,2.3190476190476192,2.3,2.2714285714285714,2.223809523809524,2.1857142857142855,2.1476190476190475,2.119047619047619,2.080952380952381,2.0619047619047617,2.0428571428571427,2.0428571428571427,2.033333333333333,2.0238095238095237,2.0047619047619047,1.9952380952380953,1.9857142857142858,1.9761904761904763,1.9761904761904763,1.9761904761904763,1.9761904761904763,1.9761904761904763,1.9761904761904763,1.9666666666666666,1.9476190476190476,1.9190476190476191,1.9095238095238096,1.880952380952381,1.8428571428571427,1.8047619047619048,1.7380952380952381,1.7,1.6238095238095238,1.5380952380952382,1.4333333333333333,1.3952380952380952,1.3095238095238095,1.2333333333333334,1.1571428571428573,1.119047619047619,1.0523809523809524,0.9952380952380953,0.9380952380952381,0.8904761904761904,0.861904761904762,0.8047619047619048,0.7380952380952381,0.680952380952381,0.6238095238095238,0.5571428571428572,0.5,0.40476190476190477,0.30952380952380953,0.2523809523809524,0.23333333333333334,0.19523809523809524,0.18571428571428572,0.1761904761904762,0.15714285714285714,0.12857142857142856,0.11904761904761904,0.1,0.09047619047619047,0.09047619047619047,0.09047619047619047,0.09047619047619047,0.09047619047619047,0.09047619047619047,0.09047619047619047,0.09047619047619047,0.090476190476