[{"success":true,"trial_type":"fullscreen","trial_index":0,"time_elapsed":40205,"internal_node_id":"0.0-0.0","protocol_sum":"","subject_identifier":205,"subject_sum":[55,131,79,47,37,118,47,35,225,247,74,83,28,190,68,93,183,61,103,101,235,230,8,120,167,223,190,205,125,74,246,225],"subject_pair":102,"STUDY_ID":"669eec2e4270c76bc184a38e","PROLIFIC_PID":"66914ab400af8a7d634121ab","SESSION_ID":"669f734bfde88843031dc333","practice_instructions":1,"leaderboard_instructions":0,"bonus":0,"reveal_word":true,"self_rating":"2","confidence":"100"},{"view_history":"[{\"page_index\":0,\"viewing_time\":37934.39999997616}]","rt":37936.19999998808,"trial_type":"instructions","trial_index":1,"time_elapsed":78144,"internal_node_id":"0.0-1.0","protocol_sum":"","subject_identifier":205,"subject_sum":[55,131,79,47,37,118,47,35,225,247,74,83,28,190,68,93,183,61,103,101,235,230,8,120,167,223,190,205,125,74,246,225],"subject_pair":102,"STUDY_ID":"669eec2e4270c76bc184a38e","PROLIFIC_PID":"66914ab400af8a7d634121ab","SESSION_ID":"669f734bfde88843031dc333","practice_instructions":1,"leaderboard_instructions":0,"bonus":0,"reveal_word":true,"self_rating":"2","confidence":"100"},{"view_history":"[{\"page_index\":0,\"viewing_time\":197408.5}]","rt":197409.19999998808,"trial_type":"instructions","trial_index":2,"time_elapsed":275554,"internal_node_id":"0.0-2.0-0.0","protocol_sum":"","subject_identifier":205,"subject_sum":[55,131,79,47,37,118,47,35,225,247,74,83,28,190,68,93,183,61,103,101,235,230,8,120,167,223,190,205,125,74,246,225],"subject_pair":102,"STUDY_ID":"669eec2e4270c76bc184a38e","PROLIFIC_PID":"66914ab400af8a7d634121ab","SESSION_ID":"669f734bfde88843031dc333","practice_instructions":1,"leaderboard_instructions":0,"bonus":0,"reveal_word":true,"self_rating":"2","confidence":"100"},{"rt":17953.100000023842,"responses":"{\"Q0\":\"... reveal the word with as <b>few letter guesses</b> as possible\"}","question_order":"[0]","trial_type":"survey-multi-choice","trial_index":3,"time_elapsed":293512,"internal_node_id":"0.0-2.0-1.0","protocol_sum":"","subject_identifier":205,"subject_sum":[55,131,79,47,37,118,47,35,225,247,74,83,28,190,68,93,183,61,103,101,235,230,8,120,167,223,190,205,125,74,246,225],"subject_pair":102,"correct":true,"test_part":"multichoice_nonpretend","STUDY_ID":"669eec2e4270c76bc184a38e","PROLIFIC_PID":"66914ab400af8a7d634121ab","SESSION_ID":"669f734bfde88843031dc333","practice_instructions":1,"leaderboard_instructions":0,"bonus":0,"reveal_word":true,"self_rating":"2","confidence":"100"},{"view_history":"[{\"page_index\":0,\"viewing_time\":3423.899999976158}]","rt":3424.199999988079,"trial_type":"instructions","trial_index":4,"time_elapsed":296940,"internal_node_id":"0.0-3.0","protocol_sum":"","subject_identifier":205,"subject_sum":[55,131,79,47,37,118,47,35,225,247,74,83,28,190,68,93,183,61,103,101,235,230,8,120,167,223,190,205,125,74,246,225],"subject_pair":102,"STUDY_ID":"669eec2e4270c76bc184a38e","PROLIFIC_PID":"66914ab400af8a7d634121ab","SESSION_ID":"669f734bfde88843031dc333","practice_instructions":1,"leaderboard_instructions":0,"bonus":0,"reveal_word":true,"self_rating":"2","confidence":"100"},{"word":"ZEBRA","click_log":{"letter":["","S","Z","E","B","R","A"],"t":[0,38841.30000001192,49158.69999998808,50810.80000001192,53542.39999997616,54875.10000002384,56201.89999997616],"hit":[null,0,1,1,1,1,1],"asked":["","S","SZ","SZE","SZEB","SZEBR","SZEBRA"],"word_state":["_____","_____","Z____","ZE___","ZEB__","ZEBR_","ZEBRA"]},"hover_log":{"letter":["?","?","?","?","?","?","?","?","?","?","?","?","?","?","?","?","?","?","?","?","?","?","?","?","?","?","?","?","?","?","?","?","?","?","?","?","?","?","?","?","?","?","?","?","?","?","?","?","?","?","?","?","J","J","J","J","J","J","J","J","J","J","J","J","J","J","J","J","J","J","J","J","J","J","J","J","J","J","J","?","?","?","B","B","B","B","B","B","B","B","B","B","B","B","B","B","B","B","B","B","B","B","B","B","?","?","?","?","?","?","?","?","?","A","A","A","A","A","A","A","A","A","A","A","A","A","A","A","A","A","A","A","A","A","A","A","A","A","A","A","A","A","A","A","A","A","A","A","A","A","A","A","A","A","A","A","A","A","A","A","A","A","A","A","A","A","A","A","A","A","A","A","A","A","A","A","A","A","A","A","A","A","A","A","A","A","A","A","A","A","A","A","A","A","A","A","A","A","A","A","A","A","A","A","A","A","A","A","A","A","A","A","A","A","A","A","A","A","A","A","A","A","A","A","A","A","A","A","A","A","A","A","A","A","A","A","A","A","A","A","A","A","A","A","A","A","A","A","A","A","A","A","A","A","A","?","?","?","?","?","?","?","K","K","K","K","K","?","?","?","T","T","T","T","T","?","?","?","?","?","?","?","?","?","?","?","?","?","?","?","?","?","?","?","?","?","?","?","?","?","?","?","?","?","?","?","?","?","?","?","?","?","?","?","?","?","?","?","?","?","?","?","?","?","?","?","?","?","?","?","?","?","?","?","?","?","?","?","?","?","?","?","?","?","?","?","?","?","?","?","?","?","?","?","?","?","?","?","?","?","?","?","?","?","?","?","?","?","?","?","?","?","?","?","?","?","?","?","?","?","?","?","?","?","?","?","?","?","?","?","?","?","?","?","?","?","?","?","?","?","?","?","?","?","?","?","?","?","?","?","?","?","?","?","?","?","?","?","?","?","?","?","?","?","?","?","?","?","?","?","?","?","?","?","?","?","?","?","?","?","?","?","?","?","?","?","?","?","?","?","?","?","?","?","?","?","?","?","?","?","?","?","?","?","?","?","?","?","?","?","?","?","?","?","?","?","?","?","?","?","?","?","?","?","?","?","?","?","?","?","?","?","?","?","?","?","?","?","?","?","?","?","?","?","?","?","?","?","?","?","?","?","?","?","?","?","?","?","?","?","?","?","?","?","?","?","?","?","?","?","?","?","?","?","?","?","?","?","?","?","?","?","?","?","?","?","?","?","?","?","?","?","?","?","?","?","?","?","?","?","?","?","?","?","?","?","?","?","?","?","?","?","?","?","?","?","?","?","?","?","?","?","?","?","?","?","?","?","?","?","?","?","?","?","?","?","?","?","T","T","T","T","?","U","U","U","U","U","U","U","?","?","?","?","?","?","?","?","?","?","?","?","?","?","?","?","?","?","?","?","?","?","?","?","?","?","?","?","?","?","?","?","?","?","?","?","?","?","?","?","?","?","?","?","?","?","?","?","?","?","?","?","?","?","?","?","?","?","?","?","?","?","?","?","?","?","?","?","?","?","?","?","?","?","?","?","?","?","?","?","?","?","?","?","?","?","?","?","?","?","?","?","M","M","M","M","M","M","M","M","M","M","M","M","M","M","M","M","M","M","M","M","M","M","M","M","M","M","M","M","M","M","M","M","M","M","M","M","M","M","M","M","M","M","M","M","?","?","?","?","?","?","?","?","?","?","?","?","?","?","?","W","W","?","?","?","?","?","?","?","?","?","?","?","?","?","?","?","?","?","?","?","?","?","?","?","?","?","?","?","?","?","?","?","?","?","?","?","?","?","?","?","?","?","?","?","?","?","?","?","?","?","?","?","?","?","?","?","?","?","?","?","?","?","?","?","?","?","?","?","?","?","?","?","?","?","?","?","?","?","?","?","?","?","?","?","?","?","?","?","?","?","?","?","?","?","?","?","?","?","?","?","?","?","?","?","?","?","?","?","?","?","?","?","?","?","?","?","?","?","?","?","?","?","?","?","?","?","?","?","?","?","?","?","?","?","?","?","?","?","?","?","?","?","?","?","?","?","?","?","?","?","?","?","?","?","?","?","?","?","?","?","?","?","?","?","?","?","?","?","?","?","?","?","?","?","?","?","?","?","?","?","?","?","?","?","?","?","?","?","?","?","?","?","?","?","?","?","?","?","?","?","?","?","?","?","?","?","?","?","?","?","?","?","?","?","?","?","?","?","?","?","?","?","?","?","?","?","?","?","?","?","?","?","?","?","?","?","?","?","?","?","?","?","?","?","?","?","?","?","?","?","?","?","?","?","?","?","?","?","?","?","?","?","?","?","?","?","?","?","?","?","?","?","?","?","?","?","?","?","?","?","?","?","?","?","?","?","?","?","?","?","?","?","?","?","?","?","?","?","?","?","?","?","?","?","?","?","?","?","?","?","?","?","?","?","?","?","?","?","?","?","?","?","?","?","?","?","?","?","?","?","?","?","?","?","?","?","?","?","?","?","?","?","?","?","?","?","?","?","?","?","?","?","?","?","?","?","?","?","?","?","?","?","?","?","?","?","?","?","?","?","?","?","?","?","?","?","?","?","?","?","?","?","?","?","?","?","?","?","?","?","?","?","?","?","?","?","?","?","?","?","?","?","?","?","?","?","?","?","?","?","?","?","?","?","?","?","?","?","?","?","?","?","?","?","?","?","?","?","?","?","?","?","?","?","?","?","?","?","?","?","?","?","?","?","?","?","?","?","?","?","?","?","?","?","?","?","?","?","?","?","?","?","?","?","?","?","?","?","?","?","?","?","?","?","?","?","?","?","?","?","?","?","?","?","?","?","?","?","?","?","?","?","?","?","?","?","?","?","?","?","?","?","?","?","?","?","?","?","?","?","?","?","?","?","?","?","?","?","?","?","?","?","?","?","?","?","?","?","?","?","?","?","?","?","?","?","?","?","?","?","?","?","?","?","?","?","?","?","?","?","?","?","?","?","?","?","?","?","?","?","?","?","?","?","?","?","?","?","?","?","?","?","?","?","?","?","?","?","?","?","?","?","?","?","?","?","?","?","?","?","?","?","?","?","?","?","?","?","?","?","?","?","?","?","?","?","?","?","?","?","?","?","?","?","?","?","?","?","?","?","?","?","?","?","?","?","?","?","?","?","?","?","?","?","?","?","?","?","?","?","?","?","?","?","?","?","?","?","?","?","?","?","?","?","?","?","?","?","?","?","?","?","?","?","?","?","?","?","?","?","?","?","?","?","?","?","?","?","?","?","?","?","?","?","?","?","?","?","?","?","?","?","?","?","?","?","?","?","?","?","?","?","?","?","?","?","?","?","?","?","?","?","?","?","?","?","?","?","?","?","?","?","?","?","?","?","?","?","?","?","?","?","?","?","?","?","?","?","?","?","?","?","?","?","?","?","?","?","?","?","?","?","?","?","?","?","?","?","?","?","?","?","?","?","?","?","?","?","?","?","?","?","?","?","?","?","?","?","?","?","?","?","?","?","?","?","?","?","?","?","?","?","?","?","?","?","?","?","?","?","?","?","?","?","?","?","?","?","?","?","?","?","?","?","?","?","?","?","?","?","?","?","?","?","?","?","?","?","?","?","?","?","?","?","?","?","?","?","?","?","?","?","?","?","?","?","?","?","?","?","?","?","?","?","?","?","?","?","?","?","?","?","?","?","?","?","?","?","?","?","?","?","?","?","?","?","?","?","?","?","?","?","?","?","?","?","?","?","?","?","?","?","?","?","?","?","?","?","?","?","?","?","?","?","?","?","?","?","?","?","?","?","?","?","?","?","?","?","?","?","?","?","?","?","?","?","?","?","?","?","?","?","?","?","?","?","?","?","?","?","?","?","?","?","?","?","?","?","?","?","?","?","?","?","?","?","?","?","?","?","?","?","?","?","?","?","?","?","?","?","?","?","?","?","?","?","?","?","?","?","?","?","?","?","?","?","?","?","?","?","?","?","?","?","?","?","?","?","?","?","?","?","?","?","?","?","?","?","?","?","?","?","?","?","?","?","?","?","?","?","?","?","?","?","?","?","?","?","?","?","?","?","?","?","?","?","?","?","?","?","?","?","?","?","?","?","?","?","?","?","?","?","?","?","?","?","?","?","?","?","?","?","?","?","?","?","?","?","?","?","?","?","?","?","?","?","?","?","?","?","?","?","?","?","?","?","?","?","?","?","?","?","?","?","?","?","?","?","?","?","?","?","?","?","?","?","?","?","?","?","?","?","?","?","?","?","?","?","?","?","?","?","?","?","?","?","?","?","?","?","?","?","?","?","?","?","?","?","?","?","?","?","?","?","?","?","?","?","?","?","?","?","?","?","?","?","?","?","?","?","?","?","?","?","?","?","?","?","?","?","?","?","?","?","?","?","?","?","?","?","?","?","?","?","?","?","?","?","?","?","?","?","?","?","?","?","?","?","?","?","?","?","?","?","?","?","?","?","?","?","?","?","?","?","?","?","?","?","?","?","?","?","?","?","?","?","?","?","?","?","?","?","?","?","?","?","?","?","?","?","?","?","?","?","?","?","?","?","?","?","?","?","?","?","?","?","?","?","?","?","?","?","?","?","?","?","?","?","?","?","?","?","?","?","?","?","?","?","?","?","?","?","?","?","?","?","?","?","?","?","?","?","?","?","?","?","?","?","?","?","?","?","?","?","?","?","?","?","?","?","?","?","?","?","?","?","?","?","?","?","?","?","?","?","?","?","?","?","?","?","?","?","?","?","?","?","?","?","?","?","?","?","?","?","?","?","?","?","?","?","?","?","?","?","?","?","?","?","?","?","?","?","?","?","?","?","U","U","U","U","?","?","?","?","?","?","?","?","?","?","L","?","?","?","?","?","?","?","?","?","?","?","?","?","?","?","N","N","N","N","N","N","N","N","N","N","N","N","N","N","N","N","N","N","N","N","N","N","N","N","N","N","N","N","N","O","O","?","P","P","P","P","P","P","P","P","P","P","P","P","P","P","P","P","P","P","P","P","P","P","P","P","P","P","P","?","?","?","?","?","?","?","?","W","W","W","W","W","W","W","V","V","V","?","?","?","?","U","U","U","?","?","?","?","?","?","?","?","?","?","?","?","?","?","?","?","K","K","K","K","K","K","K","K","K","K","K","K","K","K","K","K","K","?","?","?","?","T","T","T","T","T","?","?","?","?","?","S","S","S","S","S","S","S","S","S","S","S","S","S","S","S","S","S","S","S","S","S","S","S","S","S","S","S","S","S","S","S","S","S","S","S","S","S","S","S","S","S","S","S","S","S","S","S","S","S","S","S","S","S","S","S","S","S","S","S","S","S","S","S","S","S","S","S","S","S","S","S","S","S","S","S","S","S","S","S","S","S","S","S","S","S","S","S","S","S","S","S","S","S","S","S","S","S","S","S","S","S","S","S","S","S","?","?","?","M","M","M","M","M","M","M","M","M","M","M","M","M","M","?","?","?","N","N","N","N","N","N","?","?","?","?","?","?","?","?","?","?","N","N","N","N","N","N","N","N","N","N","N","N","N","?","O","O","O","?","?","?","P","?","?","?","?","?","?","?","?","?","?","P","P","P","P","P","?","?","?","?","?","?","?","H","H","H","H","H","H","H","H","H","H","H","H","H","H","H","H","H","H","H","H","H","H","H","H","H","H","H","H","H","H","H","H","H","H","H","H","H","H","H","H","H","H","H","H","H","H","H","H","H","H","H","H","H","H","H","H","H","H","H","H","H","H","H","H","H","H","H","H","H","H","H","H","H","H","H","H","H","H","H","H","H","H","H","H","H","H","H","H","H","H","H","H","H","H","H","H","H","H","H","H","H","H","H","H","H","H","H","H","H","H","H","H","H","H","H","H","H","H","H","H","H","H","H","H","H","H","H","H","H","H","H","H","H","H","H","H","H","H","H","H","H","H","H","H","H","H","H","H","H","H","H","H","H","H","H","H","H","H","H","H","H","H","H","H","H","H","H","H","H","H","H","H","H","H","H","H","H","H","H","H","H","H","H","H","H","H","H","H","H","H","H","H","H","H","H","H","H","H","H","H","H","H","H","H","H","H","H","H","H","H","H","H","H","H","H","H","H","H","H","H","H","H","H","H","H","H","H","H","H","H","H","H","H","H","H","H","H","H","H","H","H","H","H","H","H","H","H","H","H","H","H","H","H","H","H","H","H","H","H","H","H","H","H","H","H","H","H","H","H","H","H","H","H","H","H","H","H","H","H","H","H","H","H","H","H","H","H","H","H","H","H","H","H","H","H","H","H","H","H","H","H","H","H","H","H","H","H","H","H","H","H","H","H","H","H","H","H","H","?","?","?","?","?","?","N","N","?","?","M","M","M","M","M","M","M","L","L","?","?","?","?","?","?","?","?","?","?","?","?","?","?","?","?","?","?","?","?","?","?","K","K","K","?","J","J","J","?","?","?","?","?","?","?","A","?","B","B","C","C","C","D","D","D","?","E","?","?","?","?","?","O","O","O","O","O","O","?","?","?","?","?","?","?","?","?","Y","Y","Y","Y","Y","Y","Y","Y","Y","Y","Y","Y","Y","Y","?","?","?","?","?","?","?","Z","Z","Z","Z","Z","Z","Z","Z","Z","Z","Z","Z","Z","Z","Z","Z","Z","Z","Z","Z","Z","Z","Z","Z","Z","Z","Z","Z","Z","Z","Z","Z","Z","Z","Z","Z","Z","Z","Z","Z","Z","Z","Z","Z","Z","Z","Z","Z","Z","Z","Z","Z","Z","Z","Z","Z","Z","Z","Z","Z","Z","Z","Z","Z","Z","Z","Z","Z","Z","Z","Z","Z","?","?","?","?","N","N","M","M","M","M","M","?","?","?","?","?","?","?","?","?","?","?","?","?","C","C","C","?","D","D","D","D","?","E","E","E","E","E","E","E","E","E","E","E","E","E","E","E","E","E","E","E","E","E","E","E","E","E","E","E","E","E","E","E","E","E","E","E","E","E","E","E","E","E","E","E","E","E","E","E","E","E","E","E","E","E","E","E","E","E","E","E","E","E","?","?","?","N","N","N","N","N","N","N","N","N","?","?","?","?","?","?","?","?","?","?","?","?","?","?","?","O","O","O","O","O","O","O","O","O","O","O","O","?","?","P","P","P","P","P","P","?","?","?","?","?","?","?","?","?","?","?","G","G","G","?","?","F","F","?","?","?","?","?","?","?","?","?","?","?","?","?","?","?","?","?","?","?","?","?","?","?","?","?","?","?","?","?","?","?","?","C","C","C","C","C","C","C","?","?","?","?","B","B","B","B","B","B","B","B","B","B","B","B","B","B","B","B","B","B","B","B","B","B","B","B","B","B","B","B","B","B","B","B","B","B","B","B","B","B","B","B","B","B","B","B","B","B","B","B","C","D","?","E","?","?","?","?","?","?","P","P","P","P","P","P","P","P","?","?","?","Q","Q","Q","Q","Q","Q","?","?","R","R","R","R","R","R","R","R","R","R","R","R","R","R","R","R","R","R","R","R","R","R","R","R","R","R","R","R","R","R","R","R","R","R","R","R","R","R","R","R","R","R","R","R","R","R","R","R","R","R","R","R","Q","P","?","?","N","?","?","?","?","?","?","?","?","?","?","?","?","?","?","?","?","B","B","B","B","B","?","?","A","A","A","A","A","A","A","A","A","A","A","A","A","A","A","A","A","A","A","A","A","A","A","A","A","A","A","A","A","A","A","A","A","A","A","A","A","A","A","A","A","A","A","A","A","A","A","A","A","A","A","A","A","A","A","A","A","A","A","A","A","A","A","A","A","A","A","A","A","A","A","A","A","A","B","?","?","?","M","M","?","?","?","?","?","?","?","W","W","W","W","W","W","W","W","W","W","?","?","?","V","V","V","V","V","V","V","V","?","?","?","?","?","?","?","?","?","?","?","?","?","?","?","?","?","?","?","?","?","?","?","?","?","?","?","?","?","?","?","?","?","?","?","?","?","?","?","?","?","?","?","?","?","?","?"],"t":[205,215,230,247,266,283,301,316,334,347,363,380,396,415,432,449,466,483,502,517,534,548,564,581,598,615,631,648,665,681,698,714,733,748,764,781,797,814,831,848,864,881,898,915,931,947,964,981,997,1014,1031,1050,1070,1084,1100,1118,1133,1150,1166,1183,1199,1215,1231,1248,1265,1282,1297,1316,1334,1350,1366,1382,1398,1417,1435,1450,1467,1482,1501,1517,1533,1549,1567,1586,1602,1614,1629,1645,1664,1681,1697,1716,1732,1747,1764,1781,1797,1816,1832,1849,1865,1882,1899,1916,1931,1949,1966,1983,1999,2014,2030,2047,2067,2081,2095,2112,2129,2146,2162,2179,2196,2213,2229,2245,2262,2280,2296,2313,2330,2346,2363,2379,2396,2414,2430,2448,2465,2481,2498,2513,2530,2547,2563,2579,2596,2612,2629,2647,2664,2681,2697,2713,2728,2745,2763,2780,2795,2812,2829,2845,2862,2879,2895,2912,2929,2945,2962,2978,2996,3012,3032,3044,3063,3077,3093,3110,3127,3143,3161,3179,3195,3212,3229,3244,3262,3279,3296,3311,3327,3346,3361,3378,3395,3412,3429,3443,3460,3476,3494,3510,3527,3543,3561,3578,3595,3611,3627,3644,3661,3677,3694,3711,3727,3746,3761,3776,3793,3813,3827,3843,3862,3877,3892,3909,3925,3944,3960,3977,3993,4010,4026,4043,4060,4077,4093,4110,4127,4143,4160,4177,4193,4210,4227,4243,4260,4277,4294,4310,4327,4344,4361,4377,4394,4412,4428,4450,4462,4479,4497,4511,4526,4542,4559,4575,4592,4608,4625,4643,4658,4675,4693,4709,4726,4743,4759,4775,4792,4809,4827,4842,4859,4876,4892,4909,4925,4942,4959,4975,4992,5009,5025,5041,5059,5074,5091,5107,5125,5142,5158,5175,5191,5209,5225,5242,5258,5275,5292,5308,5325,5341,5358,5375,5391,5408,5425,5441,5459,5476,5492,5509,5525,5541,5561,5575,5593,5609,5625,5643,5658,5674,5691,5708,5725,5741,5758,5775,5791,5808,5824,5841,5858,5874,5891,5908,5926,5943,5959,5973,5990,6006,6023,6040,6056,6074,6091,6107,6124,6141,6157,6174,6191,6207,6224,6241,6257,6274,6291,6307,6325,6341,6357,6374,6391,6407,6424,6441,6457,6475,6492,6507,6524,6541,6557,6574,6590,6607,6623,6640,6657,6674,6690,6707,6724,6740,6757,6774,6790,6807,6823,6840,6857,6873,6890,6907,6923,6940,6957,6973,6990,7006,7023,7040,7056,7073,7090,7106,7123,7140,7156,7172,7190,7206,7225,7241,7256,7273,7289,7306,7323,7339,7356,7372,7390,7408,7422,7439,7454,7471,7488,7504,7522,7539,7556,7572,7589,7606,7622,7641,7657,7673,7690,7706,7722,7739,7755,7772,7789,7805,7822,7839,7855,7872,7887,7904,7920,7938,7955,7972,7989,8005,8022,8038,8055,8072,8088,8105,8122,8138,8155,8172,8189,8205,8221,8239,8255,8272,8288,8305,8321,8338,8356,8371,8388,8405,8421,8438,8456,8471,8488,8505,8521,8538,8555,8571,8588,8605,8622,8638,8654,8671,8688,8705,8721,8737,8754,8771,8787,8804,8821,8837,8854,8871,8887,8904,8922,8941,8955,8971,8987,9004,9021,9038,9054,9070,9087,9104,9121,9137,9154,9171,9187,9204,9221,9237,9254,9270,9287,9304,9320,9337,9353,9370,9389,9404,9420,9437,9453,9470,9487,9504,9522,9538,9552,9568,9585,9602,9620,9637,9653,9670,9687,9704,9721,9736,9753,9770,9786,9803,9820,9836,9853,9870,9886,9903,9920,9937,9953,9970,9986,10003,10019,10037,10053,10072,10087,10105,10123,10138,10154,10171,10187,10206,10222,10239,10255,10271,10288,10304,10321,10338,10354,10371,10389,10407,10421,10436,10452,10468,10485,10502,10520,10535,10551,10568,10584,10602,10619,10636,10652,10669,10685,10702,10719,10735,10752,10769,10785,10802,10819,10835,10852,10869,10886,10902,10918,10935,10952,10968,10985,11002,11018,11035,11052,11068,11085,11101,11120,11135,11152,11168,11185,11201,11218,11235,11251,11268,11285,11301,11318,11335,11351,11368,11385,11403,11418,11435,11451,11468,11484,11501,11518,11537,11552,11568,11584,11601,11618,11635,11652,11669,11687,11702,11719,11735,11753,11770,11786,11802,11819,11836,11852,11869,11888,11903,11920,11936,11950,11966,11985,12002,12019,12035,12052,12068,12084,12102,12120,12136,12152,12168,12184,12202,12218,12233,12251,12268,12284,12300,12317,12334,12350,12366,12384,12401,12417,12434,12451,12466,12485,12502,12517,12533,12551,12569,12585,12601,12619,12636,12651,12668,12686,12702,12719,12734,12751,12769,12784,12802,12818,12835,12852,12869,12885,12902,12917,12933,12950,12966,12983,13001,13016,13033,13049,13066,13083,13099,13116,13132,13149,13166,13183,13199,13216,13234,13249,13266,13282,13299,13317,13332,13352,13366,13381,13397,13414,13432,13449,13465,13482,13499,13515,13532,13549,13566,13582,13599,13615,13632,13649,13665,13682,13699,13715,13732,13748,13765,13782,13798,13815,13832,13848,13865,13882,13898,13915,13932,13948,13965,13981,13998,14015,14031,14048,14065,14082,14098,14116,14132,14148,14165,14181,14199,14215,14231,14248,14265,14281,14298,14314,14332,14348,14364,14381,14398,14414,14433,14447,14464,14481,14497,14514,14531,14547,14565,14582,14598,14615,14631,14647,14664,14682,14697,14714,14731,14747,14764,14781,14797,14816,14833,14846,14863,14881,14897,14914,14931,14947,14964,14981,14997,15014,15031,15047,15064,15080,15097,15114,15132,15147,15163,15180,15197,15214,15230,15247,15263,15280,15297,15314,15330,15347,15363,15380,15397,15413,15430,15447,15463,15480,15496,15513,15530,15546,15565,15582,15597,15613,15630,15646,15663,15680,15696,15713,15730,15746,15763,15780,15797,15813,15829,15846,15863,15879,15896,15913,15930,15946,15962,15979,15996,16013,16030,16046,16063,16079,16096,16112,16129,16146,16162,16179,16196,16212,16229,16246,16262,16279,16297,16311,16327,16344,16363,16379,16395,16412,16429,16445,16462,16479,16496,16513,16529,16545,16562,16579,16595,16612,16629,16645,16662,16679,16695,16712,16729,16745,16762,16780,16795,16811,16828,16845,16862,16878,16895,16912,16928,16945,16962,16978,16995,17012,17028,17044,17061,17078,17095,17111,17128,17145,17161,17178,17195,17211,17228,17244,17261,17278,17294,17311,17328,17344,17361,17378,17394,17411,17428,17444,17461,17478,17494,17511,17528,17544,17560,17577,17594,17611,17628,17644,17661,17677,17694,17711,17727,17744,17761,17778,17797,17809,17826,17842,17859,17876,17893,17911,17927,17944,17961,17977,17994,18011,18027,18043,18060,18077,18094,18110,18127,18143,18160,18181,18195,18211,18227,18243,18260,18277,18293,18310,18327,18343,18360,18376,18393,18410,18426,18443,18460,18477,18493,18509,18526,18543,18560,18576,18593,18610,18626,18643,18660,18676,18693,18710,18727,18743,18759,18776,18793,18809,18826,18843,18859,18876,18892,18909,18926,18943,18959,18976,18992,19009,19026,19042,19059,19076,19092,19109,19126,19142,19159,19176,19192,19209,19225,19243,19261,19275,19292,19309,19326,19342,19359,19375,19392,19409,19426,19443,19459,19475,19494,19510,19525,19542,19558,19575,19592,19608,19627,19642,19660,19676,19692,19709,19726,19742,19758,19775,19791,19808,19825,19841,19858,19875,19891,19908,19925,19942,19959,19975,19991,20008,20025,20041,20058,20075,20091,20108,20125,20141,20158,20174,20191,20209,20224,20241,20258,20274,20291,20308,20324,20341,20358,20374,20392,20408,20424,20441,20458,20474,20491,20508,20524,20541,20557,20574,20591,20607,20624,20641,20659,20675,20691,20709,20729,20740,20757,20773,20791,20807,20824,20841,20857,20874,20891,20907,20924,20941,20957,20974,20990,21007,21024,21040,21057,21073,21090,21107,21124,21141,21157,21173,21190,21207,21223,21240,21256,21273,21290,21307,21323,21340,21356,21373,21390,21407,21423,21440,21456,21473,21490,21506,21523,21540,21556,21573,21590,21606,21623,21640,21656,21673,21689,21706,21723,21740,21756,21772,21789,21806,21823,21840,21856,21873,21890,21905,21924,21939,21956,21972,21989,22006,22022,22039,22056,22072,22089,22106,22123,22139,22155,22172,22190,22208,22221,22238,22254,22272,22289,22305,22322,22339,22356,22372,22389,22405,22422,22440,22455,22471,22489,22505,22522,22538,22555,22572,22588,22605,22622,22638,22655,22672,22688,22705,22722,22738,22755,22772,22789,22805,22822,22838,22855,22871,22888,22905,22921,22938,22955,22972,22988,23005,23021,23038,23055,23071,23088,23104,23121,23138,23154,23171,23188,23204,23221,23238,23254,23271,23288,23304,23321,23338,23354,23371,23387,23404,23421,23437,23454,23471,23487,23504,23521,23539,23554,23571,23587,23604,23621,23637,23654,23673,23688,23703,23719,23736,23752,23769,23787,23804,23820,23837,23854,23870,23887,23903,23920,23937,23953,23972,23987,24003,24020,24037,24053,24070,24086,24103,24120,24136,24153,24170,24186,24203,24220,24236,24253,24270,24287,24303,24320,24336,24353,24370,24386,24403,24420,24436,24453,24470,24486,24503,24520,24537,24555,24569,24586,24603,24619,24636,24653,24670,24687,24705,24722,24735,24751,24768,24784,24802,24820,24836,24852,24869,24886,24902,24919,24936,24952,24969,24986,25002,25019,25036,25052,25069,25085,25102,25119,25135,25154,25172,25186,25202,25219,25235,25252,25269,25286,25303,25318,25335,25352,25369,25385,25402,25419,25435,25452,25468,25485,25502,25519,25535,25552,25569,25585,25602,25618,25635,25651,25668,25685,25702,25719,25735,25751,25768,25785,25802,25818,25834,25851,25868,25884,25901,25918,25935,25951,25968,25984,26001,26018,26034,26051,26068,26084,26101,26118,26134,26151,26168,26184,26201,26218,26234,26251,26268,26284,26301,26317,26334,26351,26367,26384,26401,26417,26434,26451,26467,26484,26501,26517,26534,26550,26567,26586,26600,26617,26634,26652,26670,26684,26700,26718,26734,26750,26769,26784,26800,26817,26834,26850,26867,26884,26900,26917,26933,26950,26967,26983,27000,27017,27033,27050,27067,27083,27100,27116,27133,27150,27167,27183,27200,27216,27233,27250,27267,27283,27300,27316,27333,27349,27366,27383,27400,27416,27433,27450,27466,27483,27500,27516,27532,27549,27566,27583,27599,27616,27632,27649,27666,27682,27700,27717,27733,27749,27766,27782,27799,27816,27832,27849,27866,27882,27899,27916,27932,27949,27966,27983,27999,28014,28032,28049,28065,28082,28099,28115,28134,28151,28164,28180,28197,28215,28232,28250,28265,28283,28299,28315,28332,28348,28365,28382,28398,28415,28432,28449,28465,28482,28498,28515,28531,28548,28565,28581,28598,28614,28631,28648,28664,28681,28698,28715,28732,28749,28765,28781,28798,28814,28831,28848,28865,28881,28898,28915,28931,28948,28965,28981,28998,29015,29031,29048,29064,29081,29098,29114,29131,29148,29164,29181,29198,29214,29231,29248,29264,29281,29298,29314,29331,29347,29364,29381,29397,29414,29430,29447,29464,29481,29498,29516,29532,29546,29562,29579,29597,29614,29630,29647,29663,29680,29697,29714,29732,29748,29764,29780,29797,29814,29830,29847,29864,29880,29897,29913,29930,29947,29964,29980,29997,30013,30030,30047,30063,30080,30096,30113,30130,30146,30163,30180,30196,30214,30231,30247,30262,30279,30297,30313,30330,30346,30363,30380,30396,30413,30430,30446,30463,30480,30496,30512,30530,30546,30562,30579,30596,30612,30629,30646,30662,30679,30695,30713,30729,30745,30763,30780,30796,30812,30829,30846,30862,30879,30896,30912,30929,30946,30963,30980,30999,31011,31027,31045,31061,31077,31094,31111,31127,31144,31162,31179,31195,31212,31229,31245,31262,31278,31295,31312,31328,31345,31362,31378,31395,31411,31429,31445,31462,31478,31495,31511,31528,31545,31561,31578,31595,31611,31628,31645,31661,31678,31695,31711,31728,31745,31763,31780,31794,31810,31826,31843,31860,31877,31894,31911,31928,31945,31961,31978,31994,32011,32028,32044,32061,32078,32094,32111,32128,32144,32161,32178,32194,32211,32227,32244,32261,32277,32294,32311,32327,32344,32360,32379,32394,32411,32428,32444,32460,32479,32497,32509,32526,32542,32559,32576,32593,32610,32627,32644,32661,32677,32693,32710,32727,32743,32760,32779,32794,32810,32827,32843,32860,32877,32893,32910,32927,32943,32960,32976,32993,33010,33026,33043,33060,33076,33093,33110,33126,33143,33160,33177,33193,33210,33226,33243,33260,33276,33293,33310,33326,33343,33359,33376,33393,33409,33426,33442,33459,33476,33493,33509,33526,33542,33559,33576,33592,33609,33626,33642,33660,33676,33693,33709,33726,33742,33759,33776,33792,33809,33826,33842,33859,33876,33892,33909,33925,33942,33960,33976,33991,34007,34024,34041,34057,34075,34092,34109,34126,34142,34159,34175,34192,34208,34225,34242,34258,34275,34291,34308,34325,34342,34358,34375,34392,34408,34425,34441,34458,34475,34492,34508,34525,34541,34558,34575,34592,34612,34627,34642,34657,34675,34690,34707,34723,34741,34760,34775,34790,34806,34823,34840,34858,34874,34891,34908,34924,34941,34958,34974,34991,35008,35024,35041,35057,35074,35091,35108,35126,35141,35158,35175,35191,35208,35224,35241,35258,35276,35293,35310,35326,35342,35359,35376,35393,35409,35428,35443,35460,35474,35491,35507,35524,35541,35557,35573,35590,35607,35629,35641,35657,35674,35691,35707,35724,35740,35757,35774,35791,35806,35824,35840,35857,35873,35890,35906,35923,35940,35957,35973,35990,36008,36023,36039,36057,36074,36091,36109,36127,36141,36158,36175,36191,36209,36225,36241,36258,36275,36292,36308,36324,36342,36357,36374,36391,36408,36425,36442,36458,36474,36491,36508,36524,36540,36558,36575,36591,36609,36625,36645,36660,36674,36689,36706,36722,36739,36756,36772,36789,36807,36823,36842,36859,36873,36892,36909,36922,36938,36955,36972,36987,37005,37021,37038,37056,37073,37091,37108,37125,37141,37157,37174,37191,37207,37224,37240,37257,37273,37290,37306,37324,37341,37357,37374,37390,37407,37423,37440,37457,37473,37490,37507,37523,37540,37557,37573,37590,37607,37624,37640,37656,37673,37690,37706,37724,37740,37756,37773,37789,37806,37823,37839,37856,37873,37889,37905,37921,37939,37956,37974,37992,38006,38023,38040,38056,38073,38090,38107,38124,38140,38156,38172,38189,38206,38223,38239,38255,38272,38290,38306,38321,38342,38355,38373,38387,38403,38420,38436,38453,38469,38487,38504,38520,38537,38554,38571,38588,38604,38623,38639,38655,38672,38688,38706,38721,38738,38757,38773,38788,38805,38821,38839,38856,38872,38888,38904,38921,38937,38954,38970,38987,39003,39020,39037,39054,39071,39087,39103,39121,39137,39154,39170,39189,39204,39220,39237,39254,39270,39287,39303,39320,39337,39353,39370,39386,39403,39420,39436,39453,39470,39487,39503,39520,39536,39553,39570,39586,39603,39620,39636,39652,39670,39687,39704,39719,39737,39753,39769,39786,39802,39822,39841,39852,39871,39886,39902,39919,39936,39953,39970,39985,40003,40020,40038,40055,40071,40088,40105,40121,40137,40153,40170,40186,40203,40221,40239,40253,40269,40287,40302,40320,40337,40355,40371,40389,40404,40421,40438,40453,40471,40488,40503,40520,40535,40552,40569,40585,40602,40619,40637,40654,40670,40687,40704,40720,40736,40754,40769,40785,40801,40820,40837,40853,40870,40889,40905,40922,40939,40956,40969,40984,41001,41018,41034,41051,41068,41085,41102,41119,41135,41153,41169,41185,41202,41217,41234,41253,41270,41289,41302,41320,41334,41350,41368,41384,41400,41418,41434,41450,41466,41483,41500,41517,41534,41551,41567,41584,41600,41617,41635,41652,41668,41684,41702,41719,41735,41753,41770,41785,41803,41818,41834,41851,41867,41883,41901,41917,41933,41950,41966,41983,42000,42016,42033,42050,42067,42083,42100,42116,42133,42150,42166,42183,42200,42216,42233,42250,42266,42283,42300,42316,42333,42349,42366,42383,42400,42416,42433,42449,42466,42483,42499,42516,42532,42549,42566,42582,42599,42616,42632,42649,42666,42682,42699,42715,42732,42751,42766,42782,42797,42814,42831,42848,42864,42882,42899,42916,42935,42949,42966,42982,42999,43015,43032,43049,43065,43084,43100,43117,43132,43148,43165,43182,43198,43215,43232,43248,43265,43282,43298,43315,43332,43348,43365,43382,43398,43415,43432,43448,43465,43481,43498,43515,43532,43548,43565,43581,43598,43615,43631,43648,43665,43682,43698,43714,43731,43748,43764,43781,43799,43814,43831,43848,43866,43881,43898,43914,43931,43948,43964,43981,43997,44014,44031,44047,44065,44081,44097,44114,44131,44148,44164,44181,44198,44217,44232,44246,44262,44279,44297,44314,44331,44347,44364,44381,44397,44414,44430,44447,44464,44480,44497,44514,44531,44547,44564,44580,44597,44614,44630,44647,44663,44680,44697,44713,44730,44747,44763,44780,44797,44813,44831,44846,44863,44880,44897,44913,44930,44946,44963,44980,44997,45013,45030,45047,45063,45080,45097,45113,45132,45146,45163,45180,45196,45213,45229,45246,45262,45279,45296,45312,45329,45346,45362,45379,45396,45413,45429,45446,45462,45479,45496,45512,45529,45546,45563,45579,45596,45612,45629,45646,45662,45682,45699,45711,45727,45744,45761,45779,45796,45813,45829,45845,45862,45879,45896,45914,45929,45945,45962,45979,45995,46012,46029,46045,46062,46078,46095,46111,46131,46145,46162,46178,46195,46212,46228,46245,46262,46278,46295,46311,46328,46345,46361,46378,46395,46411,46428,46445,46461,46478,46495,46512,46528,46544,46562,46579,46594,46611,46629,46647,46663,46680,46697,46713,46730,46747,46763,46781,46796,46813,46832,46846,46863,46879,46896,46913,46930,46946,46966,46981,46997,47014,47029,47045,47061,47078,47094,47111,47127,47145,47163,47176,47192,47209,47226,47244,47262,47278,47294,47311,47330,47347,47364,47379,47395,47411,47429,47446,47462,47478,47496,47511,47529,47545,47562,47579,47595,47613,47629,47646,47662,47679,47696,47712,47729,47745,47763,47779,47795,47811,47831,47847,47862,47877,47893,47910,47927,47943,47960,47977,47994,48010,48026,48043,48060,48077,48093,48111,48127,48143,48160,48177,48192,48210,48226,48242,48259,48276,48293,48309,48326,48343,48360,48376,48395,48411,48427,48445,48462,48478,48493,48516,48527,48545,48562,48579,48596,48609,48625,48642,48659,48676,48692,48710,48727,48743,48759,48775,48792,48809,48825,48843,48859,48876,48892,48908,48926,48944,48959,48975,48992,49008,49025,49042,49058,49075,49092,49109,49127,49142,49164,49177,49192,49209,49225,49242,49259,49275,49292,49309,49325,49342,49360,49375,49392,49408,49425,49442,49459,49475,49494,49509,49525,49542,49558,49576,49592,49609,49625,49644,49660,49677,49693,49710,49727,49743,49760,49776,49793,49809,49826,49844,49861,49876,49893,49910,49926,49942,49960,49977,49994,50012,50023,50039,50058,50076,50092,50109,50127,50143,50159,50175,50192,50209,50225,50242,50259,50277,50292,50307,50324,50342,50359,50377,50392,50409,50425,50441,50457,50474,50490,50507,50524,50540,50558,50574,50591,50608,50624,50642,50657,50673,50690,50707,50723,50740,50757,50773,50790,50807,50824,50842,50858,50873,50890,50907,50923,50940,50956,50973,50992,51007,51023,51040,51056,51073,51090,51108,51125,51140,51156,51174,51192,51208,51224,51242,51259,51275,51291,51308,51326,51342,51358,51375,51393,51407,51423,51439,51456,51473,51489,51506,51522,51538,51554,51571,51589,51605,51622,51639,51656,51673,51689,51705,51722,51739,51756,51772,51789,51806,51822,51839,51856,51872,51889,51906,51922,51938,51955,51972,51990,52005,52022,52038,52055,52072,52089,52105,52123,52139,52155,52171,52190,52206,52221,52239,52255,52272,52289,52305,52321,52338,52355,52372,52388,52404,52421,52438,52456,52474,52490,52506,52523,52538,52555,52574,52590,52606,52623,52640,52656,52673,52690,52707,52723,52740,52756,52773,52793,52808,52821,52837,52854,52870,52887,52905,52921,52938,52954,52971,52987,53003,53021,53037,53053,53070,53087,53103,53120,53136,53153,53171,53188,53204,53221,53237,53254,53271,53288,53304,53324,53338,53354,53371,53388,53405,53421,53437,53453,53470,53487,53503,53520,53537,53554,53571,53587,53604,53620,53637,53653,53670,53687,53704,53721,53738,53754,53770,53787,53805,53822,53839,53855,53873,53888,53906,53922,53938,53955,53972,53988,54009,54023,54039,54055,54071,54088,54105,54124,54138,54155,54173,54192,54207,54221,54239,54252,54269,54286,54303,54319,54336,54351,54369,54386,54402,54419,54436,54454,54471,54486,54502,54519,54536,54552,54569,54586,54603,54619,54636,54653,54670,54686,54702,54719,54735,54752,54769,54785,54802,54819,54835,54852,54869,54886,54902,54919,54936,54952,54969,54985,55002,55019,55037,55053,55069,55085,55102,55119,55136,55154,55171,55187,55204,55221,55237,55254,55270,55288,55304,55321,55337,55353,55370,55387,55404,55421,55437,55454,55470,55487,55503,55520,55537,55554,55570,55587,55607,55623,55639,55665,55682,55698,55715,55732,55748,55765,55781,55798,55817,55833,55850,55866,55883,55900,55918,55933,55950,55966,55983,55999,56016,56033,56049,56066,56083,56099,56116,56133,56149,56166,56183,56201,56225,56235,56251,56267,56283,56300,56317,56334,56350,56367,56383,56401,56416,56433,56450,56466,56483,56499,56516,56533,56550,56566,56583,56600,56616,56633,56649,56666,56683,56700,56716,56733,56749,56766,56783,56799,56816,56833,56850,56867,56884,56902,56917,56934,56951,56970,56984,56998,57015,57032,57049,57065,57081,57098,57115,57133,57149,57167,57184,57200,57216,57233,57250,57266,57283,57300,57316,57333,57350,57367,57382,57400,57416,57433,57450,57466,57483,57500,57516,57532,57550,57567,57583,57599,57616,57632,57648,57666,57683,57701,57716,57732,57749,57766,57782,57799,57816,57835,57851,57865,57882,57900,57918,57932,57949,57966,57982,57999,58015,58032,58048,58064,58081,58098,58114,58131,58148,58164,58181,58198,58218],"hit":[null],"x":[-1.751700680272109,-1.751700680272109,-1.751700680272109,-1.751700680272109,-1.751700680272109,-1.751700680272109,-1.751700680272109,-1.751700680272109,-1.751700680272109,-1.751700680272109,-1.751700680272109,-1.751700680272109,-1.751700680272109,-1.751700680272109,-1.751700680272109,-1.751700680272109,-1.751700680272109,-1.751700680272109,-1.751700680272109,-1.751700680272109,-1.751700680272109,-1.751700680272109,-1.751700680272109,-1.751700680272109,-1.751700680272109,-1.751700680272109,-1.751700680272109,-1.751700680272109,-1.751700680272109,-1.751700680272109,-1.751700680272109,-1.751700680272109,-1.751700680272109,-1.751700680272109,-1.751700680272109,-1.751700680272109,-1.751700680272109,-1.751700680272109,-1.751700680272109,-1.751700680272109,-1.751700680272109,-1.751700680272109,-1.751700680272109,-1.751700680272109,-1.751700680272109,-1.751700680272109,-1.751700680272109,-1.751700680272109,-1.751700680272109,-1.751700680272109,-1.751700680272109,0.027210884353741496,0.023809523809523808,0.023809523809523808,0.02040816326530612,0.017006802721088437,0.013605442176870748,0.006802721088435374,0.006802721088435374,0.006802721088435374,0.003401360544217687,0.003401360544217687,0.003401360544217687,0.003401360544217687,0.003401360544217687,0.003401360544217687,0.003401360544217687,0.003401360544217687,0.01020408163265306,0.01020408163265306,0.013605442176870748,0.013605442176870748,0.013605442176870748,0.017006802721088437,0.02040816326530612,0.023809523809523808,0.027210884353741496,0.034013605442176874,0.04421768707482993,0.05442176870748299,0.08163265306122448,0.10204081632653061,0.12244897959183673,0.14285714285714285,0.14965986394557823,0.15306122448979592,0.1564625850340136,0.1564625850340136,0.1564625850340136,0.1564625850340136,0.1564625850340136,0.1564625850340136,0.1564625850340136,0.1564625850340136,0.1564625850340136,0.1564625850340136,0.1564625850340136,0.14965986394557823,0.14625850340136054,0.14285714285714285,0.13945578231292516,0.13945578231292516,0.1292517006802721,0.09863945578231292,0.08163265306122448,0.0782312925170068,0.07482993197278912,0.06802721088435375,0.06802721088435375,0.06802721088435375,0.06802721088435375,0.06802721088435375,0.06462585034013606,0.05782312925170068,0.047619047619047616,0.03741496598639456,0.027210884353741496,0.02040816326530612,0.013605442176870748,0.003401360544217687,0,-0.003401360544217687,-0.006802721088435374,-0.006802721088435374,-0.006802721088435374,-0.006802721088435374,-0.006802721088435374,-0.006802721088435374,-0.006802721088435374,-0.006802721088435374,-0.006802721088435374,-0.006802721088435374,-0.006802721088435374,-0.003401360544217687,0,0,0.01020408163265306,0.01020408163265306,0.01020408163265306,0.013605442176870748,0.013605442176870748,0.013605442176870748,0.013605442176870748,0.013605442176870748,0.013605442176870748,0.013605442176870748,0.013605442176870748,0.006802721088435374,0.003401360544217687,0,-0.003401360544217687,-0.003401360544217687,-0.003401360544217687,-0.003401360544217687,-0.003401360544217687,-0.003401360544217687,-0.003401360544217687,-0.003401360544217687,-0.003401360544217687,-0.003401360544217687,-0.003401360544217687,-0.003401360544217687,-0.003401360544217687,-0.003401360544217687,-0.003401360544217687,-0.003401360544217687,-0.003401360544217687,-0.003401360544217687,-0.003401360544217687,-0.003401360544217687,-0.003401360544217687,-0.003401360544217687,-0.003401360544217687,-0.003401360544217687,-0.003401360544217687,-0.003401360544217687,-0.003401360544217687,-0.003401360544217687,-0.003401360544217687,-0.003401360544217687,-0.003401360544217687,-0.003401360544217687,-0.003401360544217687,-0.003401360544217687,-0.003401360544217687,-0.003401360544217687,-0.003401360544217687,-0.003401360544217687,-0.003401360544217687,-0.003401360544217687,-0.003401360544217687,-0.003401360544217687,-0.003401360544217687,-0.003401360544217687,-0.003401360544217687,-0.003401360544217687,-0.003401360544217687,-0.003401360544217687,-0.003401360544217687,-0.003401360544217687,-0.003401360544217687,-0.003401360544217687,-0.003401360544217687,-0.003401360544217687,-0.003401360544217687,-0.003401360544217687,-0.003401360544217687,-0.003401360544217687,-0.003401360544217687,-0.003401360544217687,-0.003401360544217687,-0.003401360544217687,-0.003401360544217687,-0.003401360544217687,-0.003401360544217687,-0.003401360544217687,-0.003401360544217687,-0.003401360544217687,-0.003401360544217687,-0.003401360544217687,-0.003401360544217687,-0.003401360544217687,-0.003401360544217687,-0.003401360544217687,-0.003401360544217687,-0.003401360544217687,-0.003401360544217687,-0.003401360544217687,-0.003401360544217687,-0.003401360544217687,-0.003401360544217687,-0.003401360544217687,-0.003401360544217687,-0.003401360544217687,-0.003401360544217687,-0.003401360544217687,-0.003401360544217687,-0.003401360544217687,-0.003401360544217687,-0.003401360544217687,-0.003401360544217687,-0.003401360544217687,-0.003401360544217687,-0.003401360544217687,-0.003401360544217687,-0.003401360544217687,-0.003401360544217687,-0.003401360544217687,-0.003401360544217687,-0.003401360544217687,0,0.003401360544217687,0.006802721088435374,0.01020408163265306,0.017006802721088437,0.02040816326530612,0.030612244897959183,0.04081632653061224,0.05782312925170068,0.06462585034013606,0.07482993197278912,0.08503401360544217,0.09183673469387756,0.1054421768707483,0.11904761904761904,0.1360544217687075,0.14285714285714285,0.1564625850340136,0.16326530612244897,0.17006802721088435,0.17346938775510204,0.18027210884353742,0.1836734693877551,0.1870748299319728,0.19047619047619047,0.19387755102040816,0.19727891156462585,0.19727891156462585,0.19727891156462585,0.19727891156462585,0.19727891156462585,0.20408163265306123,0.20408163265306123,0.20408163265306123,0.20408163265306123,0.20408163265306123,0.20408163265306123,0.20408163265306123,0.20408163265306123,0.20408163265306123,0.20408163265306123,0.20748299319727892,0.20748299319727892,0.20748299319727892,0.20748299319727892,0.20748299319727892,0.20748299319727892,0.20748299319727892,0.20748299319727892,0.20748299319727892,0.20748299319727892,0.20748299319727892,0.20748299319727892,0.20748299319727892,0.20748299319727892,0.20748299319727892,0.20748299319727892,0.20748299319727892,0.20748299319727892,0.20748299319727892,0.20748299319727892,0.20748299319727892,0.20748299319727892,0.20748299319727892,0.20748299319727892,0.20748299319727892,0.20748299319727892,0.20748299319727892,0.20748299319727892,0.20748299319727892,0.20748299319727892,0.20748299319727892,0.20748299319727892,0.20748299319727892,0.20748299319727892,0.20748299319727892,0.20748299319727892,0.20748299319727892,0.20748299319727892,0.20748299319727892,0.20748299319727892,0.20748299319727892,0.20748299319727892,0.20748299319727892,0.20748299319727892,0.20748299319727892,0.20748299319727892,0.20748299319727892,0.20748299319727892,0.20748299319727892,0.20748299319727892,0.20748299319727892,0.20748299319727892,0.20748299319727892,0.20748299319727892,0.20748299319727892,0.20748299319727892,0.20748299319727892,0.20748299319727892,0.20748299319727892,0.20748299319727892,0.20748299319727892,0.20748299319727892,0.20748299319727892,0.20748299319727892,0.20748299319727892,0.20748299319727892,0.20748299319727892,0.20748299319727892,0.20748299319727892,0.20748299319727892,0.20748299319727892,0.20748299319727892,0.20748299319727892,0.20748299319727892,0.20748299319727892,0.20748299319727892,0.20748299319727892,0.20748299319727892,0.20748299319727892,0.20748299319727892,0.20748299319727892,0.20748299319727892,0.20748299319727892,0.20748299319727892,0.20748299319727892,0.20748299319727892,0.20748299319727892,0.20748299319727892,0.20748299319727892,0.20748299319727892,0.20748299319727892,0.20748299319727892,0.20748299319727892,0.20748299319727892,0.20748299319727892,0.20748299319727892,0.20748299319727892,0.20748299319727892,0.20748299319727892,0.20748299319727892,0.20748299319727892,0.20748299319727892,0.20748299319727892,0.20748299319727892,0.20748299319727892,0.20748299319727892,0.20748299319727892,0.20748299319727892,0.20748299319727892,0.20748299319727892,0.20748299319727892,0.20748299319727892,0.20748299319727892,0.20748299319727892,0.20748299319727892,0.20748299319727892,0.20748299319727892,0.20748299319727892,0.20748299319727892,0.20748299319727892,0.20748299319727892,0.20748299319727892,0.20748299319727892,0.20748299319727892,0.20748299319727892,0.20748299319727892,0.20748299319727892,0.20748299319727892,0.20748299319727892,0.20748299319727892,0.20748299319727892,0.20748299319727892,0.20748299319727892,0.20748299319727892,0.20748299319727892,0.20748299319727892,0.20748299319727892,0.20748299319727892,0.20748299319727892,0.20748299319727892,0.20748299319727892,0.20748299319727892,0.20748299319727892,0.20748299319727892,0.20748299319727892,0.20748299319727892,0.20748299319727892,0.20748299319727892,0.20748299319727892,0.20748299319727892,0.20748299319727892,0.20748299319727892,0.20748299319727892,0.20748299319727892,0.20748299319727892,0.20748299319727892,0.20748299319727892,0.20748299319727892,0.20748299319727892,0.20748299319727892,0.20748299319727892,0.20748299319727892,0.20748299319727892,0.20748299319727892,0.20748299319727892,0.20748299319727892,0.20748299319727892,0.20748299319727892,0.20748299319727892,0.20748299319727892,0.20748299319727892,0.20748299319727892,0.20748299319727892,0.20748299319727892,0.20748299319727892,0.20748299319727892,0.20748299319727892,0.20748299319727892,0.20748299319727892,0.20748299319727892,0.20748299319727892,0.20748299319727892,0.20748299319727892,0.20748299319727892,0.20748299319727892,0.20748299319727892,0.20748299319727892,0.20748299319727892,0.20748299319727892,0.20748299319727892,0.20748299319727892,0.20748299319727892,0.20748299319727892,0.20748299319727892,0.20748299319727892,0.20748299319727892,0.20748299319727892,0.20748299319727892,0.20748299319727892,0.20748299319727892,0.20748299319727892,0.20748299319727892,0.20748299319727892,0.20748299319727892,0.20748299319727892,0.20748299319727892,0.20748299319727892,0.20748299319727892,0.20748299319727892,0.20748299319727892,0.20748299319727892,0.20748299319727892,0.20748299319727892,0.20748299319727892,0.20748299319727892,0.20748299319727892,0.20748299319727892,0.20748299319727892,0.20748299319727892,0.20748299319727892,0.20748299319727892,0.20748299319727892,0.20748299319727892,0.20748299319727892,0.20748299319727892,0.20748299319727892,0.20748299319727892,0.20748299319727892,0.20748299319727892,0.20748299319727892,0.20748299319727892,0.20748299319727892,0.20748299319727892,0.20748299319727892,0.20748299319727892,0.20748299319727892,0.20748299319727892,0.20748299319727892,0.20748299319727892,0.20748299319727892,0.20748299319727892,0.20748299319727892,0.20748299319727892,0.20748299319727892,0.20748299319727892,0.20748299319727892,0.20748299319727892,0.20748299319727892,0.20748299319727892,0.20748299319727892,0.20748299319727892,0.20748299319727892,0.20748299319727892,0.20748299319727892,0.20748299319727892,0.20748299319727892,0.20748299319727892,0.20748299319727892,0.20748299319727892,0.20748299319727892,0.20748299319727892,0.20748299319727892,0.20748299319727892,0.20748299319727892,0.20748299319727892,0.20748299319727892,0.20748299319727892,0.20748299319727892,0.20748299319727892,0.20748299319727892,0.20748299319727892,0.20748299319727892,0.20748299319727892,0.20748299319727892,0.20748299319727892,0.20748299319727892,0.20748299319727892,0.20748299319727892,0.20748299319727892,0.20748299319727892,0.20748299319727892,0.20748299319727892,0.20748299319727892,0.20748299319727892,0.20748299319727892,0.20748299319727892,0.20748299319727892,0.20748299319727892,0.20748299319727892,0.20748299319727892,0.20748299319727892,0.20748299319727892,0.20748299319727892,0.20748299319727892,0.20748299319727892,0.20748299319727892,0.20748299319727892,0.20748299319727892,0.20748299319727892,0.20748299319727892,0.20748299319727892,0.20748299319727892,0.20748299319727892,0.20068027210884354,0.19727891156462585,0.19727891156462585,0.19387755102040816,0.19387755102040816,0.19387755102040816,0.19387755102040816,0.20068027210884354,0.21768707482993196,0.23129251700680273,0.24149659863945577,0.25510204081632654,0.25510204081632654,0.2619047619047619,0.2789115646258503,0.2857142857142857,0.30272108843537415,0.30952380952380953,0.3299319727891156,0.3401360544217687,0.35034013605442177,0.35374149659863946,0.35714285714285715,0.35714285714285715,0.36394557823129253,0.3673469387755102,0.3741496598639456,0.3741496598639456,0.3741496598639456,0.3741496598639456,0.3741496598639456,0.3741496598639456,0.3741496598639456,0.3741496598639456,0.3741496598639456,0.3741496598639456,0.3741496598639456,0.3741496598639456,0.3741496598639456,0.3741496598639456,0.3741496598639456,0.3741496598639456,0.3741496598639456,0.3741496598639456,0.3741496598639456,0.3741496598639456,0.3741496598639456,0.3741496598639456,0.3741496598639456,0.3741496598639456,0.3741496598639456,0.3741496598639456,0.3741496598639456,0.3741496598639456,0.3741496598639456,0.3741496598639456,0.3741496598639456,0.3741496598639456,0.3741496598639456,0.3741496598639456,0.3741496598639456,0.3741496598639456,0.3741496598639456,0.3741496598639456,0.3741496598639456,0.3741496598639456,0.3741496598639456,0.3741496598639456,0.3741496598639456,0.3741496598639456,0.3741496598639456,0.3741496598639456,0.3741496598639456,0.3741496598639456,0.3741496598639456,0.3741496598639456,0.3741496598639456,0.3741496598639456,0.3741496598639456,0.3741496598639456,0.3741496598639456,0.3741496598639456,0.3741496598639456,0.3741496598639456,0.3741496598639456,0.3741496598639456,0.3741496598639456,0.3741496598639456,0.3741496598639456,0.3741496598639456,0.3741496598639456,0.3741496598639456,0.3741496598639456,0.3741496598639456,0.3741496598639456,0.3741496598639456,0.38095238095238093,0.3843537414965986,0.3843537414965986,0.3877551020408163,0.3877551020408163,0.391156462585034,0.3945578231292517,0.3979591836734694,0.3979591836734694,0.3979591836734694,0.40476190476190477,0.40816326530612246,0.41496598639455784,0.41496598639455784,0.41836734693877553,0.4217687074829932,0.4217687074829932,0.4217687074829932,0.42517006802721086,0.42857142857142855,0.42857142857142855,0.43197278911564624,0.43197278911564624,0.43537414965986393,0.43537414965986393,0.4387755102040816,0.4387755102040816,0.4421768707482993,0.445578231292517,0.445578231292517,0.445578231292517,0.4489795918367347,0.4489795918367347,0.4489795918367347,0.4489795918367347,0.4489795918367347,0.4489795918367347,0.4489795918367347,0.4489795918367347,0.4489795918367347,0.4489795918367347,0.4489795918367347,0.4489795918367347,0.4489795918367347,0.4489795918367347,0.4489795918367347,0.4489795918367347,0.4489795918367347,0.4489795918367347,0.4489795918367347,0.4489795918367347,0.4489795918367347,0.4489795918367347,0.4523809523809524,0.46258503401360546,0.46598639455782315,0.46938775510204084,0.47278911564625853,0.48299319727891155,0.48299319727891155,0.48639455782312924,0.4931972789115646,0.4931972789115646,0.4965986394557823,0.5,0.5034013605442177,0.5034013605442177,0.5034013605442177,0.5068027210884354,0.5136054421768708,0.5170068027210885,0.5170068027210885,0.5170068027210885,0.5170068027210885,0.5068027210884354,0.5068027210884354,0.5068027210884354,0.5068027210884354,0.5068027210884354,0.5068027210884354,0.5068027210884354,0.5068027210884354,0.5068027210884354,0.5068027210884354,0.5068027210884354,0.5068027210884354,0.5068027210884354,0.5068027210884354,0.5068027210884354,0.5068027210884354,0.5068027210884354,0.5068027210884354,0.5068027210884354,0.5068027210884354,0.5068027210884354,0.5068027210884354,0.5068027210884354,0.5068027210884354,0.5068027210884354,0.5068027210884354,0.5068027210884354,0.5068027210884354,0.5068027210884354,0.5068027210884354,0.5068027210884354,0.5068027210884354,0.5068027210884354,0.5068027210884354,0.5068027210884354,0.5068027210884354,0.5068027210884354,0.5068027210884354,0.5068027210884354,0.5068027210884354,0.5068027210884354,0.5068027210884354,0.5068027210884354,0.5068027210884354,0.5068027210884354,0.5068027210884354,0.5068027210884354,0.5068027210884354,0.5068027210884354,0.5068027210884354,0.5068027210884354,0.5068027210884354,0.5068027210884354,0.5068027210884354,0.5068027210884354,0.5068027210884354,0.5068027210884354,0.5068027210884354,0.5068027210884354,0.5068027210884354,0.5068027210884354,0.5068027210884354,0.5068027210884354,0.5068027210884354,0.5068027210884354,0.5068027210884354,0.5068027210884354,0.5068027210884354,0.5068027210884354,0.5068027210884354,0.5068027210884354,0.5068027210884354,0.5068027210884354,0.5068027210884354,0.5068027210884354,0.5068027210884354,0.5068027210884354,0.5068027210884354,0.5068027210884354,0.5068027210884354,0.5068027210884354,0.5068027210884354,0.5068027210884354,0.5068027210884354,0.5068027210884354,0.5068027210884354,0.5068027210884354,0.5068027210884354,0.5068027210884354,0.5068027210884354,0.5068027210884354,0.5068027210884354,0.5068027210884354,0.5068027210884354,0.5068027210884354,0.5068027210884354,0.5068027210884354,0.5068027210884354,0.5068027210884354,0.5068027210884354,0.5068027210884354,0.5068027210884354,0.5068027210884354,0.5068027210884354,0.5068027210884354,0.5068027210884354,0.5068027210884354,0.5068027210884354,0.5068027210884354,0.5068027210884354,0.5068027210884354,0.5068027210884354,0.5068027210884354,0.5068027210884354,0.5068027210884354,0.5068027210884354,0.5068027210884354,0.5068027210884354,0.5068027210884354,0.5068027210884354,0.5068027210884354,0.5068027210884354,0.5068027210884354,0.5068027210884354,0.5068027210884354,0.5068027210884354,0.5068027210884354,0.5068027210884354,0.5068027210884354,0.5068027210884354,0.5068027210884354,0.5068027210884354,0.5068027210884354,0.5068027210884354,0.5068027210884354,0.5068027210884354,0.5068027210884354,0.5068027210884354,0.5068027210884354,0.5068027210884354,0.5068027210884354,0.5068027210884354,0.5068027210884354,0.5068027210884354,0.5068027210884354,0.5068027210884354,0.5068027210884354,0.5068027210884354,0.5068027210884354,0.5068027210884354,0.5068027210884354,0.5068027210884354,0.5068027210884354,0.5068027210884354,0.5068027210884354,0.5068027210884354,0.5068027210884354,0.5068027210884354,0.5068027210884354,0.5068027210884354,0.5068027210884354,0.5068027210884354,0.5068027210884354,0.5068027210884354,0.5068027210884354,0.5068027210884354,0.5068027210884354,0.5068027210884354,0.5068027210884354,0.5068027210884354,0.5068027210884354,0.5068027210884354,0.5068027210884354,0.5068027210884354,0.5068027210884354,0.5068027210884354,0.5068027210884354,0.5068027210884354,0.5068027210884354,0.5068027210884354,0.5068027210884354,0.5068027210884354,0.5068027210884354,0.5068027210884354,0.5068027210884354,0.5068027210884354,0.5068027210884354,0.5068027210884354,0.5068027210884354,0.5068027210884354,0.5068027210884354,0.5068027210884354,0.5068027210884354,0.5068027210884354,0.5068027210884354,0.5068027210884354,0.5068027210884354,0.5068027210884354,0.5068027210884354,0.5068027210884354,0.5068027210884354,0.5068027210884354,0.5068027210884354,0.5068027210884354,0.5068027210884354,0.5068027210884354,0.5068027210884354,0.5068027210884354,0.5068027210884354,0.5068027210884354,0.5068027210884354,0.5068027210884354,0.5068027210884354,0.5068027210884354,0.5068027210884354,0.5068027210884354,0.5068027210884354,0.5068027210884354,0.5068027210884354,0.5068027210884354,0.5068027210884354,0.5068027210884354,0.5068027210884354,0.5068027210884354,0.5068027210884354,0.5068027210884354,0.5068027210884354,0.5068027210884354,0.5068027210884354,0.5068027210884354,0.5068027210884354,0.5068027210884354,0.5068027210884354,0.5068027210884354,0.5068027210884354,0.5068027210884354,0.5068027210884354,0.5068027210884354,0.5068027210884354,0.5068027210884354,0.5068027210884354,0.5068027210884354,0.5068027210884354,0.5068027210884354,0.5068027210884354,0.5068027210884354,0.5068027210884354,0.5068027210884354,0.5068027210884354,0.5068027210884354,0.5068027210884354,0.5068027210884354,0.5068027210884354,0.5068027210884354,0.5068027210884354,0.5068027210884354,0.5068027210884354,0.5068027210884354,0.5068027210884354,0.5068027210884354,0.5068027210884354,0.5068027210884354,0.5068027210884354,0.5068027210884354,0.5068027210884354,0.5068027210884354,0.5068027210884354,0.5068027210884354,0.5068027210884354,0.5068027210884354,0.5068027210884354,0.5068027210884354,0.5068027210884354,0.5068027210884354,0.5068027210884354,0.5068027210884354,0.5068027210884354,0.5068027210884354,0.5068027210884354,0.5068027210884354,0.5068027210884354,0.5068027210884354,0.5068027210884354,0.5068027210884354,0.5068027210884354,0.5068027210884354,0.5068027210884354,0.5068027210884354,0.5068027210884354,0.5068027210884354,0.5068027210884354,0.5068027210884354,0.5068027210884354,0.5068027210884354,0.5068027210884354,0.5068027210884354,0.5068027210884354,0.5068027210884354,0.5068027210884354,0.5068027210884354,0.5068027210884354,0.5068027210884354,0.5068027210884354,0.5068027210884354,0.5068027210884354,0.5068027210884354,0.5068027210884354,0.5068027210884354,0.5068027210884354,0.5068027210884354,0.5068027210884354,0.5068027210884354,0.5068027210884354,0.5068027210884354,0.5068027210884354,0.5068027210884354,0.5068027210884354,0.5068027210884354,0.5068027210884354,0.5068027210884354,0.5068027210884354,0.5068027210884354,0.5068027210884354,0.5068027210884354,0.5068027210884354,0.5068027210884354,0.5068027210884354,0.5068027210884354,0.5068027210884354,0.5068027210884354,0.5068027210884354,0.5068027210884354,0.5068027210884354,0.5068027210884354,0.5068027210884354,0.5068027210884354,0.5068027210884354,0.5068027210884354,0.5068027210884354,0.5068027210884354,0.5068027210884354,0.5068027210884354,0.5068027210884354,0.5068027210884354,0.5068027210884354,0.5068027210884354,0.5068027210884354,0.5068027210884354,0.5068027210884354,0.5068027210884354,0.5068027210884354,0.5068027210884354,0.5068027210884354,0.5068027210884354,0.5068027210884354,0.5068027210884354,0.5068027210884354,0.5068027210884354,0.5068027210884354,0.5068027210884354,0.5068027210884354,0.5068027210884354,0.5068027210884354,0.5068027210884354,0.5068027210884354,0.5068027210884354,0.5068027210884354,0.5068027210884354,0.5068027210884354,0.5068027210884354,0.5068027210884354,0.5068027210884354,0.5068027210884354,0.5068027210884354,0.5068027210884354,0.5068027210884354,0.5068027210884354,0.5068027210884354,0.5068027210884354,0.5068027210884354,0.5068027210884354,0.5068027210884354,0.5068027210884354,0.5068027210884354,0.5068027210884354,0.5068027210884354,0.5068027210884354,0.5068027210884354,0.5068027210884354,0.5068027210884354,0.5068027210884354,0.5068027210884354,0.5068027210884354,0.5068027210884354,0.5068027210884354,0.5068027210884354,0.5068027210884354,0.5068027210884354,0.5068027210884354,0.5068027210884354,0.5068027210884354,0.5068027210884354,0.5068027210884354,0.5068027210884354,0.5068027210884354,0.5068027210884354,0.5068027210884354,0.5068027210884354,0.5068027210884354,0.5068027210884354,0.5068027210884354,0.5068027210884354,0.5068027210884354,0.5068027210884354,0.5068027210884354,0.5068027210884354,0.5068027210884354,0.5068027210884354,0.5068027210884354,0.5068027210884354,0.5068027210884354,0.5068027210884354,0.5068027210884354,0.5068027210884354,0.5068027210884354,0.5068027210884354,0.5068027210884354,0.5068027210884354,0.5068027210884354,0.5068027210884354,0.5068027210884354,0.5068027210884354,0.5068027210884354,0.5068027210884354,0.5068027210884354,0.5068027210884354,0.5068027210884354,0.5068027210884354,0.5068027210884354,0.5068027210884354,0.5068027210884354,0.5068027210884354,0.5068027210884354,0.5068027210884354,0.5068027210884354,0.5068027210884354,0.5068027210884354,0.5068027210884354,0.5068027210884354,0.5068027210884354,0.5068027210884354,0.5068027210884354,0.5068027210884354,0.5068027210884354,0.5068027210884354,0.5068027210884354,0.5068027210884354,0.5068027210884354,0.5068027210884354,0.5068027210884354,0.5068027210884354,0.5068027210884354,0.5068027210884354,0.5068027210884354,0.5068027210884354,0.5068027210884354,0.5068027210884354,0.5068027210884354,0.5068027210884354,0.5068027210884354,0.5068027210884354,0.5068027210884354,0.5068027210884354,0.5068027210884354,0.5068027210884354,0.5068027210884354,0.5068027210884354,0.5068027210884354,0.5068027210884354,0.5068027210884354,0.5068027210884354,0.5068027210884354,0.5068027210884354,0.5068027210884354,0.5068027210884354,0.5068027210884354,0.5068027210884354,0.5068027210884354,0.5068027210884354,0.5068027210884354,0.5068027210884354,0.5068027210884354,0.5068027210884354,0.5068027210884354,0.5068027210884354,0.5068027210884354,0.5068027210884354,0.5068027210884354,0.5068027210884354,0.5068027210884354,0.5068027210884354,0.5068027210884354,0.5068027210884354,0.5068027210884354,0.5068027210884354,0.5068027210884354,0.5068027210884354,0.5068027210884354,0.5068027210884354,0.5068027210884354,0.5068027210884354,0.5068027210884354,0.5068027210884354,0.5068027210884354,0.5068027210884354,0.5068027210884354,0.5068027210884354,0.5068027210884354,0.5068027210884354,0.5068027210884354,0.5068027210884354,0.5068027210884354,0.5068027210884354,0.5068027210884354,0.5068027210884354,0.5068027210884354,0.5068027210884354,0.5068027210884354,0.5068027210884354,0.5068027210884354,0.5068027210884354,0.5068027210884354,0.5068027210884354,0.5068027210884354,0.5068027210884354,0.5068027210884354,0.5068027210884354,0.5068027210884354,0.5068027210884354,0.5068027210884354,0.5068027210884354,0.5068027210884354,0.5068027210884354,0.5068027210884354,0.5068027210884354,0.5068027210884354,0.5068027210884354,0.5068027210884354,0.5068027210884354,0.5068027210884354,0.5068027210884354,0.5068027210884354,0.5068027210884354,0.5068027210884354,0.5068027210884354,0.5068027210884354,0.5068027210884354,0.5068027210884354,0.5068027210884354,0.5068027210884354,0.5068027210884354,0.5068027210884354,0.5068027210884354,0.5068027210884354,0.5068027210884354,0.5068027210884354,0.5068027210884354,0.5068027210884354,0.5068027210884354,0.5068027210884354,0.5068027210884354,0.5068027210884354,0.5068027210884354,0.5068027210884354,0.5068027210884354,0.5068027210884354,0.5068027210884354,0.5068027210884354,0.5068027210884354,0.5068027210884354,0.5068027210884354,0.5068027210884354,0.5068027210884354,0.5068027210884354,0.5068027210884354,0.5068027210884354,0.5068027210884354,0.5068027210884354,0.5068027210884354,0.5068027210884354,0.5068027210884354,0.5068027210884354,0.5068027210884354,0.5068027210884354,0.5068027210884354,0.5068027210884354,0.5068027210884354,0.5068027210884354,0.5068027210884354,0.5068027210884354,0.5068027210884354,0.5068027210884354,0.5068027210884354,0.5068027210884354,0.5068027210884354,0.5068027210884354,0.5068027210884354,0.5068027210884354,0.5068027210884354,0.5068027210884354,0.5068027210884354,0.5068027210884354,0.5068027210884354,0.5068027210884354,0.5068027210884354,0.5068027210884354,0.5068027210884354,0.5068027210884354,0.5068027210884354,0.5068027210884354,0.5068027210884354,0.5068027210884354,0.5068027210884354,0.5068027210884354,0.5068027210884354,0.5068027210884354,0.5068027210884354,0.5068027210884354,0.5068027210884354,0.5068027210884354,0.5068027210884354,0.5068027210884354,0.5068027210884354,0.5068027210884354,0.5068027210884354,0.5068027210884354,0.5068027210884354,0.5068027210884354,0.5068027210884354,0.5068027210884354,0.5068027210884354,0.5068027210884354,0.5068027210884354,0.5068027210884354,0.5068027210884354,0.5068027210884354,0.5068027210884354,0.5068027210884354,0.5068027210884354,0.5068027210884354,0.5068027210884354,0.5068027210884354,0.5068027210884354,0.5068027210884354,0.5068027210884354,0.5068027210884354,0.5068027210884354,0.5068027210884354,0.5068027210884354,0.5068027210884354,0.5068027210884354,0.5068027210884354,0.5068027210884354,0.5068027210884354,0.5068027210884354,0.5068027210884354,0.5068027210884354,0.5068027210884354,0.5068027210884354,0.5068027210884354,0.5068027210884354,0.5068027210884354,0.5068027210884354,0.5068027210884354,0.5068027210884354,0.5068027210884354,0.5068027210884354,0.5068027210884354,0.5068027210884354,0.5068027210884354,0.5068027210884354,0.5068027210884354,0.5068027210884354,0.5068027210884354,0.5068027210884354,0.5068027210884354,0.5068027210884354,0.5068027210884354,0.5068027210884354,0.5068027210884354,0.5068027210884354,0.5068027210884354,0.5068027210884354,0.5068027210884354,0.5068027210884354,0.5068027210884354,0.5068027210884354,0.5068027210884354,0.5068027210884354,0.5068027210884354,0.5068027210884354,0.5068027210884354,0.5068027210884354,0.5068027210884354,0.5068027210884354,0.5068027210884354,0.5068027210884354,0.5068027210884354,0.5068027210884354,0.5068027210884354,0.5068027210884354,0.5068027210884354,0.5068027210884354,0.5068027210884354,0.5068027210884354,0.5068027210884354,0.5068027210884354,0.5068027210884354,0.5068027210884354,0.5068027210884354,0.5068027210884354,0.5068027210884354,0.5068027210884354,0.5068027210884354,0.5068027210884354,0.5068027210884354,0.5068027210884354,0.5068027210884354,0.5068027210884354,0.5068027210884354,0.5068027210884354,0.5068027210884354,0.5068027210884354,0.5068027210884354,0.5068027210884354,0.5068027210884354,0.5068027210884354,0.5068027210884354,0.5068027210884354,0.5068027210884354,0.5068027210884354,0.5068027210884354,0.5068027210884354,0.5068027210884354,0.5068027210884354,0.5068027210884354,0.5068027210884354,0.5068027210884354,0.5068027210884354,0.5068027210884354,0.5068027210884354,0.5068027210884354,0.5068027210884354,0.5068027210884354,0.5068027210884354,0.5068027210884354,0.5068027210884354,0.5068027210884354,0.5068027210884354,0.5068027210884354,0.5068027210884354,0.5068027210884354,0.5068027210884354,0.5068027210884354,0.5068027210884354,0.5068027210884354,0.5068027210884354,0.5068027210884354,0.5068027210884354,0.5068027210884354,0.5068027210884354,0.5068027210884354,0.5068027210884354,0.5068027210884354,0.5068027210884354,0.5068027210884354,0.5068027210884354,0.5068027210884354,0.5068027210884354,0.5068027210884354,0.5068027210884354,0.5068027210884354,0.5068027210884354,0.5068027210884354,0.5068027210884354,0.5068027210884354,0.5068027210884354,0.5068027210884354,0.5068027210884354,0.5068027210884354,0.5068027210884354,0.5068027210884354,0.5068027210884354,0.5068027210884354,0.5068027210884354,0.5068027210884354,0.5068027210884354,0.5068027210884354,0.5068027210884354,0.5068027210884354,0.5068027210884354,0.5068027210884354,0.5068027210884354,0.5068027210884354,0.5068027210884354,0.5068027210884354,0.5068027210884354,0.5068027210884354,0.5068027210884354,0.5068027210884354,0.5068027210884354,0.5068027210884354,0.5068027210884354,0.5068027210884354,0.5068027210884354,0.5068027210884354,0.5068027210884354,0.5068027210884354,0.5068027210884354,0.5068027210884354,0.5068027210884354,0.5068027210884354,0.5068027210884354,0.5068027210884354,0.5068027210884354,0.5068027210884354,0.5068027210884354,0.5068027210884354,0.5068027210884354,0.5068027210884354,0.5068027210884354,0.5068027210884354,0.5068027210884354,0.5068027210884354,0.5068027210884354,0.5068027210884354,0.5068027210884354,0.5068027210884354,0.5068027210884354,0.5068027210884354,0.5068027210884354,0.5068027210884354,0.5068027210884354,0.5068027210884354,0.5068027210884354,0.5068027210884354,0.5068027210884354,0.5068027210884354,0.5068027210884354,0.5068027210884354,0.5068027210884354,0.5068027210884354,0.5068027210884354,0.5068027210884354,0.5068027210884354,0.5068027210884354,0.5068027210884354,0.5068027210884354,0.5068027210884354,0.5068027210884354,0.5068027210884354,0.5068027210884354,0.5068027210884354,0.5068027210884354,0.5068027210884354,0.5068027210884354,0.5068027210884354,0.5068027210884354,0.5068027210884354,0.5068027210884354,0.5068027210884354,0.5068027210884354,0.5068027210884354,0.5068027210884354,0.5068027210884354,0.5068027210884354,0.5068027210884354,0.5068027210884354,0.5068027210884354,0.5068027210884354,0.5068027210884354,0.5068027210884354,0.5068027210884354,0.5068027210884354,0.5068027210884354,0.5068027210884354,0.5068027210884354,0.5068027210884354,0.5068027210884354,0.5068027210884354,0.5068027210884354,0.5068027210884354,0.5068027210884354,0.5068027210884354,0.5068027210884354,0.5068027210884354,0.5068027210884354,0.5068027210884354,0.5068027210884354,0.5068027210884354,0.5068027210884354,0.5068027210884354,0.5068027210884354,0.5068027210884354,0.5068027210884354,0.5068027210884354,0.5068027210884354,0.5068027210884354,0.5068027210884354,0.5068027210884354,0.5068027210884354,0.5068027210884354,0.5068027210884354,0.5068027210884354,0.5068027210884354,0.5068027210884354,0.5068027210884354,0.5068027210884354,0.5068027210884354,0.5068027210884354,0.5068027210884354,0.5068027210884354,0.5068027210884354,0.5068027210884354,0.5068027210884354,0.5068027210884354,0.5068027210884354,0.5068027210884354,0.5068027210884354,0.5068027210884354,0.5068027210884354,0.5068027210884354,0.5068027210884354,0.5068027210884354,0.5068027210884354,0.5068027210884354,0.5068027210884354,0.5068027210884354,0.5068027210884354,0.5068027210884354,0.5068027210884354,0.5068027210884354,0.5068027210884354,0.5068027210884354,0.5068027210884354,0.5068027210884354,0.5068027210884354,0.5068027210884354,0.5068027210884354,0.5068027210884354,0.5068027210884354,0.5068027210884354,0.5068027210884354,0.5068027210884354,0.5068027210884354,0.5068027210884354,0.5068027210884354,0.5068027210884354,0.5068027210884354,0.5068027210884354,0.5068027210884354,0.5068027210884354,0.5068027210884354,0.5068027210884354,0.5068027210884354,0.5068027210884354,0.5068027210884354,0.5068027210884354,0.5068027210884354,0.5068027210884354,0.5068027210884354,0.5068027210884354,0.5068027210884354,0.5068027210884354,0.5068027210884354,0.5068027210884354,0.5068027210884354,0.5068027210884354,0.5068027210884354,0.5068027210884354,0.5068027210884354,0.5068027210884354,0.5068027210884354,0.5068027210884354,0.5068027210884354,0.5068027210884354,0.5068027210884354,0.5068027210884354,0.5068027210884354,0.5068027210884354,0.5068027210884354,0.5068027210884354,0.5068027210884354,0.5068027210884354,0.5068027210884354,0.5068027210884354,0.5068027210884354,0.5068027210884354,0.5068027210884354,0.5068027210884354,0.5068027210884354,0.5068027210884354,0.5068027210884354,0.5068027210884354,0.5068027210884354,0.5068027210884354,0.5068027210884354,0.5068027210884354,0.5068027210884354,0.5068027210884354,0.5068027210884354,0.5068027210884354,0.5068027210884354,0.5068027210884354,0.5068027210884354,0.5068027210884354,0.5068027210884354,0.5068027210884354,0.5068027210884354,0.5068027210884354,0.5068027210884354,0.5068027210884354,0.5068027210884354,0.5068027210884354,0.5068027210884354,0.5068027210884354,0.5068027210884354,0.5068027210884354,0.5068027210884354,0.5068027210884354,0.5068027210884354,0.5068027210884354,0.5068027210884354,0.5068027210884354,0.5068027210884354,0.5068027210884354,0.5068027210884354,0.5068027210884354,0.5068027210884354,0.5068027210884354,0.5068027210884354,0.5068027210884354,0.5068027210884354,0.5068027210884354,0.5068027210884354,0.5068027210884354,0.5068027210884354,0.5068027210884354,0.5068027210884354,0.5068027210884354,0.5068027210884354,0.5068027210884354,0.5068027210884354,0.5068027210884354,0.5068027210884354,0.5068027210884354,0.5068027210884354,0.5068027210884354,0.5068027210884354,0.5068027210884354,0.5068027210884354,0.5068027210884354,0.5068027210884354,0.5068027210884354,0.5068027210884354,0.5068027210884354,0.5068027210884354,0.5068027210884354,0.5068027210884354,0.5068027210884354,0.5068027210884354,0.5068027210884354,0.5068027210884354,0.5068027210884354,0.5068027210884354,0.5068027210884354,0.5068027210884354,0.5068027210884354,0.5068027210884354,0.5068027210884354,0.5068027210884354,0.5068027210884354,0.5068027210884354,0.5068027210884354,0.5068027210884354,0.5068027210884354,0.5068027210884354,0.5068027210884354,0.5068027210884354,0.5068027210884354,0.5068027210884354,0.5068027210884354,0.5068027210884354,0.5068027210884354,0.5068027210884354,0.5068027210884354,0.5068027210884354,0.5068027210884354,0.5068027210884354,0.5068027210884354,0.5068027210884354,0.5068027210884354,0.5068027210884354,0.5068027210884354,0.5068027210884354,0.5068027210884354,0.5068027210884354,0.5068027210884354,0.5068027210884354,0.5068027210884354,0.5068027210884354,0.5068027210884354,0.5068027210884354,0.5068027210884354,0.5068027210884354,0.5068027210884354,0.5068027210884354,0.5068027210884354,0.5068027210884354,0.5068027210884354,0.5068027210884354,0.5068027210884354,0.5068027210884354,0.5068027210884354,0.5068027210884354,0.5068027210884354,0.5068027210884354,0.5068027210884354,0.5068027210884354,0.5068027210884354,0.5068027210884354,0.5068027210884354,0.5068027210884354,0.5068027210884354,0.5068027210884354,0.5068027210884354,0.5068027210884354,0.5068027210884354,0.5068027210884354,0.5068027210884354,0.5068027210884354,0.5068027210884354,0.5068027210884354,0.5068027210884354,0.5068027210884354,0.5068027210884354,0.5068027210884354,0.5068027210884354,0.5068027210884354,0.5068027210884354,0.5068027210884354,0.5068027210884354,0.5068027210884354,0.5068027210884354,0.5068027210884354,0.5068027210884354,0.5068027210884354,0.5068027210884354,0.5068027210884354,0.5068027210884354,0.5068027210884354,0.5068027210884354,0.5068027210884354,0.5068027210884354,0.5068027210884354,0.5068027210884354,0.5068027210884354,0.5068027210884354,0.5068027210884354,0.5068027210884354,0.5068027210884354,0.5068027210884354,0.5068027210884354,0.5068027210884354,0.5068027210884354,0.5068027210884354,0.5068027210884354,0.5068027210884354,0.5068027210884354,0.5068027210884354,0.5068027210884354,0.5068027210884354,0.5068027210884354,0.5068027210884354,0.5068027210884354,0.5068027210884354,0.5068027210884354,0.5068027210884354,0.5068027210884354,0.5068027210884354,0.5068027210884354,0.5068027210884354,0.5068027210884354,0.5068027210884354,0.5068027210884354,0.5068027210884354,0.5068027210884354,0.5068027210884354,0.5068027210884354,0.5068027210884354,0.5068027210884354,0.5068027210884354,0.5068027210884354,0.5068027210884354,0.5068027210884354,0.5068027210884354,0.5068027210884354,0.5068027210884354,0.5068027210884354,0.5068027210884354,0.5068027210884354,0.5068027210884354,0.5068027210884354,0.5068027210884354,0.5068027210884354,0.5068027210884354,0.5068027210884354,0.5068027210884354,0.5068027210884354,0.5068027210884354,0.5068027210884354,0.5068027210884354,0.5068027210884354,0.5068027210884354,0.5068027210884354,0.5068027210884354,0.5068027210884354,0.5068027210884354,0.5068027210884354,0.5068027210884354,0.5068027210884354,0.5068027210884354,0.5068027210884354,0.5068027210884354,0.5068027210884354,0.5068027210884354,0.5068027210884354,0.5068027210884354,0.5068027210884354,0.5068027210884354,0.5068027210884354,0.5068027210884354,0.5068027210884354,0.5068027210884354,0.5068027210884354,0.5068027210884354,0.5068027210884354,0.5068027210884354,0.5068027210884354,0.5068027210884354,0.5068027210884354,0.5068027210884354,0.5068027210884354,0.5068027210884354,0.5068027210884354,0.5068027210884354,0.5068027210884354,0.5068027210884354,0.5068027210884354,0.5068027210884354,0.5068027210884354,0.5068027210884354,0.5068027210884354,0.5068027210884354,0.5068027210884354,0.5068027210884354,0.5068027210884354,0.5068027210884354,0.5068027210884354,0.5068027210884354,0.5068027210884354,0.5068027210884354,0.5068027210884354,0.5068027210884354,0.5068027210884354,0.5068027210884354,0.5068027210884354,0.5068027210884354,0.5068027210884354,0.5068027210884354,0.5068027210884354,0.5068027210884354,0.5068027210884354,0.5068027210884354,0.5068027210884354,0.5068027210884354,0.5068027210884354,0.5068027210884354,0.5068027210884354,0.5068027210884354,0.5068027210884354,0.5068027210884354,0.5068027210884354,0.5068027210884354,0.5068027210884354,0.5068027210884354,0.5068027210884354,0.5068027210884354,0.5068027210884354,0.5068027210884354,0.5068027210884354,0.5068027210884354,0.5068027210884354,0.5068027210884354,0.5068027210884354,0.5068027210884354,0.5068027210884354,0.5068027210884354,0.5068027210884354,0.5068027210884354,0.5068027210884354,0.5068027210884354,0.5068027210884354,0.5068027210884354,0.5068027210884354,0.5068027210884354,0.5068027210884354,0.5068027210884354,0.5068027210884354,0.5068027210884354,0.5068027210884354,0.5068027210884354,0.5068027210884354,0.5068027210884354,0.5068027210884354,0.5068027210884354,0.5068027210884354,0.5068027210884354,0.5068027210884354,0.5068027210884354,0.5068027210884354,0.5068027210884354,0.5068027210884354,0.5068027210884354,0.5068027210884354,0.5068027210884354,0.5068027210884354,0.5068027210884354,0.5068027210884354,0.5068027210884354,0.5068027210884354,0.5068027210884354,0.5068027210884354,0.5068027210884354,0.4897959183673469,0.47619047619047616,0.46938775510204084,0.45918367346938777,0.4489795918367347,0.445578231292517,0.4421768707482993,0.42857142857142855,0.42517006802721086,0.4217687074829932,0.4013605442176871,0.3843537414965986,0.36054421768707484,0.3435374149659864,0.3299319727891156,0.3231292517006803,0.3197278911564626,0.30612244897959184,0.29591836734693877,0.2891156462585034,0.272108843537415,0.25510204081632654,0.24149659863945577,0.23469387755102042,0.22789115646258504,0.22448979591836735,0.22108843537414966,0.21768707482993196,0.21768707482993196,0.21768707482993196,0.21768707482993196,0.21768707482993196,0.22108843537414966,0.22789115646258504,0.2789115646258503,0.3129251700680272,0.35034013605442177,0.38095238095238093,0.43537414965986393,0.46258503401360546,0.47278911564625853,0.5,0.5170068027210885,0.5306122448979592,0.5408163265306123,0.5510204081632653,0.5544217687074829,0.5578231292517006,0.564625850340136,0.5714285714285714,0.5748299319727891,0.5782312925170068,0.5816326530612245,0.5850340136054422,0.5850340136054422,0.5850340136054422,0.5850340136054422,0.5850340136054422,0.5850340136054422,0.5918367346938775,0.5986394557823129,0.6054421768707483,0.6190476190476191,0.6258503401360545,0.6292517006802721,0.6292517006802721,0.6292517006802721,0.6292517006802721,0.608843537414966,0.5952380952380952,0.5748299319727891,0.5578231292517006,0.5374149659863946,0.5272108843537415,0.5238095238095238,0.5238095238095238,0.5272108843537415,0.5476190476190477,0.5680272108843537,0.673469387755102,0.7312925170068028,0.7857142857142857,0.8401360544217688,0.8571428571428571,0.8673469387755102,0.8741496598639455,0.8775510204081632,0.8809523809523809,0.8809523809523809,0.8843537414965986,0.8843537414965986,0.8843537414965986,0.8843537414965986,0.8843537414965986,0.8775510204081632,0.8741496598639455,0.8741496598639455,0.8707482993197279,0.8605442176870748,0.8571428571428571,0.8537414965986394,0.8537414965986394,0.8537414965986394,0.8537414965986394,0.8537414965986394,0.8537414965986394,0.8503401360544217,0.8469387755102041,0.8299319727891157,0.8027210884353742,0.7789115646258503,0.7585034013605442,0.7210884353741497,0.6870748299319728,0.6598639455782312,0.6462585034013606,0.6360544217687075,0.6258503401360545,0.6156462585034014,0.6054421768707483,0.5782312925170068,0.5544217687074829,0.5374149659863946,0.5170068027210885,0.47278911564625853,0.43197278911564624,0.3979591836734694,0.3741496598639456,0.35374149659863946,0.336734693877551,0.3231292517006803,0.29591836734693877,0.282312925170068,0.2653061224489796,0.25510204081632654,0.23809523809523808,0.22789115646258504,0.21768707482993196,0.20408163265306123,0.19047619047619047,0.18027210884353742,0.17006802721088435,0.1598639455782313,0.14965986394557823,0.14625850340136054,0.13945578231292516,0.1360544217687075,0.1326530612244898,0.1292517006802721,0.12244897959183673,0.12244897959183673,0.12244897959183673,0.12244897959183673,0.12244897959183673,0.12244897959183673,0.12244897959183673,0.12585034013605442,0.12585034013605442,0.12585034013605442,0.1326530612244898,0.1360544217687075,0.13945578231292516,0.1564625850340136,0.16326530612244897,0.16326530612244897,0.16666666666666666,0.16666666666666666,0.16666666666666666,0.1564625850340136,0.1360544217687075,0.1326530612244898,0.12244897959183673,0.11564625850340136,0.10884353741496598,0.10204081632653061,0.09523809523809523,0.08843537414965986,0.0782312925170068,0.07142857142857142,0.06462585034013606,0.05782312925170068,0.05442176870748299,0.05442176870748299,0.05102040816326531,0.047619047619047616,0.04421768707482993,0.03741496598639456,0.03741496598639456,0.030612244897959183,0.027210884353741496,0.027210884353741496,0.027210884353741496,0.027210884353741496,0.027210884353741496,0.027210884353741496,0.027210884353741496,0.027210884353741496,0.027210884353741496,0.027210884353741496,0.027210884353741496,0.027210884353741496,0.027210884353741496,0.027210884353741496,0.027210884353741496,0.027210884353741496,0.027210884353741496,0.027210884353741496,0.027210884353741496,0.027210884353741496,0.027210884353741496,0.027210884353741496,0.027210884353741496,0.027210884353741496,0.027210884353741496,0.027210884353741496,0.027210884353741496,0.027210884353741496,0.027210884353741496,0.027210884353741496,0.027210884353741496,0.027210884353741496,0.027210884353741496,0.027210884353741496,0.027210884353741496,0.027210884353741496,0.027210884353741496,0.027210884353741496,0.027210884353741496,0.027210884353741496,0.027210884353741496,0.027210884353741496,0.027210884353741496,0.027210884353741496,0.027210884353741496,0.027210884353741496,0.027210884353741496,0.027210884353741496,0.027210884353741496,0.027210884353741496,0.027210884353741496,0.027210884353741496,0.027210884353741496,0.027210884353741496,0.027210884353741496,0.027210884353741496,0.027210884353741496,0.027210884353741496,0.027210884353741496,0.027210884353741496,0.027210884353741496,0.027210884353741496,0.027210884353741496,0.027210884353741496,0.027210884353741496,0.027210884353741496,0.027210884353741496,0.027210884353741496,0.027210884353741496,0.027210884353741496,0.027210884353741496,0.027210884353741496,0.027210884353741496,0.027210884353741496,0.027210884353741496,0.027210884353741496,0.027210884353741496,0.027210884353741496,0.027210884353741496,0.027210884353741496,0.027210884353741496,0.027210884353741496,0.027210884353741496,0.027210884353741496,0.027210884353741496,0.027210884353741496,0.027210884353741496,0.027210884353741496,0.027210884353741496,0.027210884353741496,0.027210884353741496,0.027210884353741496,0.027210884353741496,0.027210884353741496,0.027210884353741496,0.027210884353741496,0.03741496598639456,0.1870748299319728,0.25510204081632654,0.36394557823129253,0.41836734693877553,0.4489795918367347,0.46258503401360546,0.46598639455782315,0.46938775510204084,0.46938775510204084,0.46938775510204084,0.47619047619047616,0.47959183673469385,0.47959183673469385,0.47959183673469385,0.47959183673469385,0.47959183673469385,0.47959183673469385,0.48639455782312924,0.4931972789115646,0.5,0.5238095238095238,0.5340136054421769,0.5510204081632653,0.564625850340136,0.6054421768707483,0.6292517006802721,0.6428571428571429,0.6496598639455783,0.6530612244897959,0.6530612244897959,0.6530612244897959,0.6530612244897959,0.6530612244897959,0.6530612244897959,0.6496598639455783,0.6428571428571429,0.6258503401360545,0.608843537414966,0.5884353741496599,0.5782312925170068,0.5748299319727891,0.5680272108843537,0.5680272108843537,0.564625850340136,0.564625850340136,0.564625850340136,0.564625850340136,0.5748299319727891,0.6020408163265306,0.6496598639455783,0.6904761904761905,0.7108843537414966,0.7312925170068028,0.7619047619047619,0.8129251700680272,0.8299319727891157,0.8469387755102041,0.8537414965986394,0.8571428571428571,0.8605442176870748,0.8605442176870748,0.8605442176870748,0.8605442176870748,0.8673469387755102,0.8673469387755102,0.8673469387755102,0.8673469387755102,0.8707482993197279,0.8707482993197279,0.8707482993197279,0.8707482993197279,0.8707482993197279,0.8775510204081632,0.8877551020408163,0.8979591836734694,0.9149659863945578,0.9319727891156463,0.9421768707482994,0.9455782312925171,0.9489795918367347,0.9523809523809523,0.95578231292517,0.9591836734693877,0.9591836734693877,0.9591836734693877,0.9591836734693877,0.9591836734693877,0.9591836734693877,0.9591836734693877,0.9591836734693877,0.9591836734693877,0.9591836734693877,0.9591836734693877,0.9591836734693877,0.9591836734693877,0.9591836734693877,0.9659863945578231,0.9693877551020408,0.9693877551020408,0.9761904761904762,0.9761904761904762,0.9795918367346939,0.9795918367346939,0.9829931972789115,0.9829931972789115,0.9897959183673469,0.9931972789115646,0.9931972789115646,0.9931972789115646,0.9931972789115646,0.9931972789115646,0.9931972789115646,0.9931972789115646,0.9931972789115646,0.9931972789115646,0.9931972789115646,0.9931972789115646,0.9931972789115646,0.9931972789115646,0.9931972789115646,0.9931972789115646,0.9931972789115646,0.9931972789115646,0.9931972789115646,0.9931972789115646,0.9931972789115646,0.9931972789115646,0.9931972789115646,0.9931972789115646,0.9931972789115646,0.9931972789115646,0.9931972789115646,0.9931972789115646,0.9931972789115646,0.9931972789115646,0.9931972789115646,0.9931972789115646,0.9931972789115646,0.9931972789115646,0.9931972789115646,0.9931972789115646,0.9931972789115646,0.9931972789115646,0.9931972789115646,0.9931972789115646,0.9931972789115646,0.9931972789115646,0.9931972789115646,0.9931972789115646,0.9931972789115646,0.9931972789115646,0.9931972789115646,0.9931972789115646,0.9931972789115646,0.9931972789115646,0.9931972789115646,0.9931972789115646,0.9931972789115646,0.9931972789115646,0.9931972789115646,0.9931972789115646,0.9931972789115646,0.9931972789115646,0.9931972789115646,0.9931972789115646,0.9931972789115646,0.9931972789115646,0.9931972789115646,0.9931972789115646,0.9931972789115646,0.9931972789115646,0.9931972789115646,0.9931972789115646,0.9931972789115646,0.9931972789115646,0.9931972789115646,0.9931972789115646,0.9931972789115646,0.9931972789115646,0.9931972789115646,0.9931972789115646,0.9931972789115646,0.9931972789115646,0.9931972789115646,0.9931972789115646,0.9931972789115646,0.9931972789115646,0.9931972789115646,0.9931972789115646,0.9931972789115646,0.9931972789115646,0.9931972789115646,0.9931972789115646,0.9931972789115646,0.9931972789115646,0.9931972789115646,0.9931972789115646,0.9931972789115646,0.9931972789115646,0.9931972789115646,0.9931972789115646,0.9931972789115646,0.9931972789115646,0.9931972789115646,0.9931972789115646,0.9931972789115646,0.9931972789115646,0.9931972789115646,0.9931972789115646,0.9931972789115646,0.9931972789115646,0.9931972789115646,0.9931972789115646,0.9931972789115646,0.9931972789115646,0.9931972789115646,0.9931972789115646,0.9931972789115646,0.9931972789115646,0.9931972789115646,0.9931972789115646,0.9931972789115646,0.9931972789115646,0.9931972789115646,0.9931972789115646,0.9931972789115646,0.9931972789115646,0.9931972789115646,0.9931972789115646,0.9931972789115646,0.9931972789115646,0.9931972789115646,0.9931972789115646,0.9931972789115646,0.9931972789115646,0.9931972789115646,0.9931972789115646,0.9931972789115646,0.9931972789115646,0.9931972789115646,0.9931972789115646,0.9931972789115646,0.9931972789115646,0.9931972789115646,0.9931972789115646,0.9931972789115646,0.9931972789115646,0.9931972789115646,0.9931972789115646,0.9931972789115646,0.9931972789115646,0.9931972789115646,0.9931972789115646,0.9931972789115646,0.9931972789115646,0.9931972789115646,0.9931972789115646,0.9931972789115646,0.9931972789115646,0.9931972789115646,0.9931972789115646,0.9931972789115646,0.9931972789115646,0.9931972789115646,0.9931972789115646,0.9931972789115646,0.9931972789115646,0.9931972789115646,0.9931972789115646,0.9931972789115646,0.9931972789115646,0.9931972789115646,0.9931972789115646,0.9931972789115646,0.9931972789115646,0.9931972789115646,0.9931972789115646,0.9931972789115646,0.9931972789115646,0.9931972789115646,0.9931972789115646,0.9931972789115646,0.9931972789115646,0.9931972789115646,0.9931972789115646,0.9931972789115646,0.9931972789115646,0.9931972789115646,0.9931972789115646,0.9931972789115646,0.9931972789115646,0.9931972789115646,0.9931972789115646,0.9931972789115646,0.9931972789115646,0.9931972789115646,0.9931972789115646,0.9931972789115646,0.9931972789115646,0.9931972789115646,0.9931972789115646,0.9931972789115646,0.9931972789115646,0.9931972789115646,0.9931972789115646,0.9931972789115646,0.9931972789115646,0.9931972789115646,0.9931972789115646,0.9931972789115646,0.9931972789115646,0.9931972789115646,0.9931972789115646,0.9931972789115646,0.9931972789115646,0.9931972789115646,0.9931972789115646,0.9931972789115646,0.9931972789115646,0.9931972789115646,0.9931972789115646,0.9931972789115646,0.9931972789115646,0.9931972789115646,0.9931972789115646,0.9931972789115646,0.9931972789115646,0.9931972789115646,0.9931972789115646,0.9931972789115646,0.9931972789115646,0.9931972789115646,0.9931972789115646,0.9931972789115646,0.9931972789115646,0.9931972789115646,0.9931972789115646,0.9931972789115646,0.9931972789115646,0.9931972789115646,0.9931972789115646,0.9931972789115646,0.9931972789115646,0.9931972789115646,0.9931972789115646,0.9931972789115646,0.9931972789115646,0.9931972789115646,0.9931972789115646,0.9931972789115646,0.9931972789115646,0.9931972789115646,0.9931972789115646,0.9931972789115646,0.9931972789115646,0.9931972789115646,0.9931972789115646,0.9931972789115646,0.9931972789115646,0.9931972789115646,0.9931972789115646,0.9931972789115646,0.9931972789115646,0.9931972789115646,0.9931972789115646,0.9931972789115646,0.9931972789115646,0.9931972789115646,0.9931972789115646,0.9931972789115646,0.9931972789115646,0.9931972789115646,0.9931972789115646,0.9931972789115646,0.9931972789115646,0.9931972789115646,0.9931972789115646,0.9931972789115646,0.9931972789115646,0.9931972789115646,0.9931972789115646,0.9931972789115646,0.9931972789115646,0.9931972789115646,0.9931972789115646,0.9931972789115646,0.9931972789115646,0.9931972789115646,0.9931972789115646,0.9931972789115646,0.9931972789115646,0.9931972789115646,0.9931972789115646,0.9931972789115646,0.9931972789115646,0.9931972789115646,0.95578231292517,0.8877551020408163,0.8435374149659864,0.7414965986394558,0.7040816326530612,0.6462585034013606,0.5986394557823129,0.5714285714285714,0.5408163265306123,0.5102040816326531,0.4931972789115646,0.47619047619047616,0.46258503401360546,0.4523809523809524,0.4421768707482993,0.42857142857142855,0.41496598639455784,0.391156462585034,0.3129251700680272,0.2755102040816326,0.22448979591836735,0.1836734693877551,0.1598639455782313,0.15306122448979592,0.15306122448979592,0.15306122448979592,0.15306122448979592,0.15306122448979592,0.15306122448979592,0.15306122448979592,0.15306122448979592,0.15306122448979592,0.15306122448979592,0.15306122448979592,0.15306122448979592,0.15306122448979592,0.15306122448979592,0.15306122448979592,0.15306122448979592,0.15306122448979592,0.15306122448979592,0.14285714285714285,0.11904761904761904,0.1054421768707483,0.09183673469387756,0.07482993197278912,0.034013605442176874,0.02040816326530612,0.006802721088435374,0,-0.003401360544217687,-0.003401360544217687,-0.003401360544217687,-0.003401360544217687,-0.003401360544217687,0,0.034013605442176874,0.08503401360544217,0.12244897959183673,0.16326530612244897,0.2585034013605442,0.2857142857142857,0.3299319727891156,0.41496598639455784,0.4489795918367347,0.47959183673469385,0.5136054421768708,0.5612244897959183,0.5850340136054422,0.6020408163265306,0.6360544217687075,0.6666666666666666,0.6904761904761905,0.7142857142857143,0.7244897959183674,0.7278911564625851,0.7380952380952381,0.7517006802721088,0.7619047619047619,0.7687074829931972,0.7789115646258503,0.782312925170068,0.7891156462585034,0.7925170068027211,0.7925170068027211,0.7959183673469388,0.7993197278911565,0.8095238095238095,0.8197278911564626,0.8231292517006803,0.8401360544217688,0.8469387755102041,0.8605442176870748,0.8673469387755102,0.8707482993197279,0.8741496598639455,0.8809523809523809,0.8877551020408163,0.8945578231292517,0.8945578231292517,0.9081632653061225,0.9115646258503401,0.9149659863945578,0.9149659863945578,0.9149659863945578,0.9183673469387755,0.9251700680272109,0.935374149659864,0.935374149659864,0.9455782312925171,0.9489795918367347,0.9489795918367347,0.9523809523809523,0.95578231292517,0.9625850340136054,0.9659863945578231,0.9761904761904762,0.9829931972789115,0.9863945578231292,0.9931972789115646,0.9931972789115646,0.9931972789115646,0.9931972789115646,0.9931972789115646,0.9965986394557823,0.9965986394557823,1.0068027210884354,1.0068027210884354,1.0068027210884354,1.0068027210884354,1.0068027210884354,1.0068027210884354,1.0068027210884354,1.0068027210884354,1.0068027210884354,1.0068027210884354,1.0068027210884354,1.0068027210884354,1.0068027210884354,1.0068027210884354,1.0068027210884354,1.0068027210884354,1.0068027210884354,1.0068027210884354,1.0068027210884354,1.0068027210884354,1.0068027210884354,1.0068027210884354,1.0068027210884354,1.0068027210884354,1.0068027210884354,1.0068027210884354,1.0068027210884354,1.0068027210884354,1.0068027210884354,1.0068027210884354,1.0068027210884354,1.0068027210884354,1.0068027210884354,1.0068027210884354,1.0068027210884354,1.0068027210884354,1.0068027210884354,1.0068027210884354,1.0068027210884354,1.0068027210884354,1.0068027210884354,1.0068027210884354,1.0068027210884354,1.0068027210884354,1.0068027210884354,1.0068027210884354,1.0068027210884354,1.0068027210884354,1.0068027210884354,1.0068027210884354,1.0068027210884354,1.0068027210884354,1.0068027210884354,1.0068027210884354,0.95578231292517,0.9047619047619048,0.8061224489795918,0.7108843537414966,0.6326530612244898,0.5578231292517006,0.5340136054421769,0.47959183673469385,0.4421768707482993,0.42517006802721086,0.40476190476190477,0.3979591836734694,0.391156462585034,0.3843537414965986,0.3707482993197279,0.3673469387755102,0.35714285714285715,0.3401360544217687,0.3231292517006803,0.30612244897959184,0.29931972789115646,0.29591836734693877,0.29591836734693877,0.29591836734693877,0.29931972789115646,0.3129251700680272,0.3197278911564626,0.336734693877551,0.3673469387755102,0.38095238095238093,0.3979591836734694,0.43537414965986393,0.47959183673469385,0.5136054421768708,0.5340136054421769,0.5476190476190477,0.5544217687074829,0.5612244897959183,0.5680272108843537,0.5680272108843537,0.5680272108843537,0.5680272108843537,0.5714285714285714,0.5714285714285714,0.5714285714285714,0.5782312925170068,0.5782312925170068,0.5816326530612245,0.5816326530612245,0.5816326530612245,0.5816326530612245,0.5816326530612245,0.5816326530612245,0.5816326530612245,0.5816326530612245,0.5816326530612245,0.5816326530612245,0.5816326530612245,0.5816326530612245,0.5816326530612245,0.5816326530612245,0.5816326530612245,0.5816326530612245,0.5816326530612245,0.5816326530612245,0.5816326530612245,0.5816326530612245,0.5816326530612245,0.5816326530612245,0.5816326530612245,0.5816326530612245,0.5816326530612245,0.5816326530612245,0.5816326530612245,0.5816326530612245,0.5816326530612245,0.5816326530612245,0.5816326530612245,0.5816326530612245,0.5816326530612245,0.5816326530612245,0.5816326530612245,0.5816326530612245,0.5816326530612245,0.5816326530612245,0.5816326530612245,0.5816326530612245,0.5816326530612245,0.5816326530612245,0.5816326530612245,0.5816326530612245,0.5816326530612245,0.5816326530612245,0.5816326530612245,0.5748299319727891,0.5748299319727891,0.5748299319727891,0.5748299319727891,0.5748299319727891,0.5748299319727891,0.5714285714285714,0.564625850340136,0.564625850340136,0.5578231292517006,0.5544217687074829,0.5510204081632653,0.54421768707483,0.5374149659863946,0.5238095238095238,0.5102040816326531,0.5034013605442177,0.4965986394557823,0.4897959183673469,0.48639455782312924,0.48639455782312924,0.48639455782312924,0.48639455782312924,0.4965986394557823,0.5578231292517006,0.5952380952380952,0.6190476190476191,0.6462585034013606,0.6598639455782312,0.6700680272108843,0.6768707482993197,0.6938775510204082,0.7006802721088435,0.7108843537414966,0.7244897959183674,0.7278911564625851,0.7380952380952381,0.7482993197278912,0.7585034013605442,0.7653061224489796,0.7755102040816326,0.8095238095238095,0.826530612244898,0.8435374149659864,0.8571428571428571,0.8639455782312925,0.8673469387755102,0.8775510204081632,0.8843537414965986,0.891156462585034,0.8945578231292517,0.9047619047619048,0.9081632653061225,0.9149659863945578,0.9217687074829932,0.9217687074829932,0.9217687074829932,0.9183673469387755,0.9013605442176871,0.8843537414965986,0.8639455782312925,0.8333333333333334,0.8027210884353742,0.7653061224489796,0.7312925170068028,0.7074829931972789,0.6802721088435374,0.6530612244897959,0.6190476190476191,0.6054421768707483,0.6020408163265306,0.5986394557823129,0.5986394557823129,0.5986394557823129,0.6020408163265306,0.6224489795918368,0.6428571428571429,0.6598639455782312,0.6768707482993197,0.6802721088435374,0.6802721088435374,0.6802721088435374,0.6768707482993197,0.6428571428571429,0.5952380952380952,0.564625850340136,0.5510204081632653,0.5136054421768708,0.48299319727891155,0.4421768707482993,0.42517006802721086,0.40816326530612246,0.3741496598639456,0.35034013605442177,0.336734693877551,0.3197278911564626,0.3163265306122449,0.30612244897959184,0.29931972789115646,0.29591836734693877,0.2925170068027211,0.2789115646258503,0.272108843537415,0.2585034013605442,0.24489795918367346,0.22789115646258504,0.22108843537414966,0.2108843537414966,0.20408163265306123,0.19727891156462585,0.1836734693877551,0.18027210884353742,0.17346938775510204,0.16666666666666666,0.16326530612244897,0.1598639455782313,0.1598639455782313,0.1598639455782313,0.1564625850340136,0.1564625850340136,0.1564625850340136,0.1564625850340136,0.1564625850340136,0.1564625850340136,0.1564625850340136,0.1564625850340136,0.1564625850340136,0.1564625850340136,0.1564625850340136,0.1564625850340136,0.1564625850340136,0.1564625850340136,0.1564625850340136,0.1564625850340136,0.1564625850340136,0.1564625850340136,0.1564625850340136,0.1564625850340136,0.1564625850340136,0.1564625850340136,0.1564625850340136,0.1564625850340136,0.1564625850340136,0.1564625850340136,0.1564625850340136,0.1564625850340136,0.1564625850340136,0.1564625850340136,0.1564625850340136,0.1564625850340136,0.1564625850340136,0.1564625850340136,0.1564625850340136,0.1564625850340136,0.1564625850340136,0.1564625850340136,0.19387755102040816,0.2755102040816326,0.3877551020408163,0.4897959183673469,0.5850340136