[{"success":true,"trial_type":"fullscreen","trial_index":0,"time_elapsed":3994,"internal_node_id":"0.0-0.0","protocol_sum":"","subject_identifier":112,"subject_sum":[118,136,182,239,82,85,89,98,208,8,255,248,148,34,53,130,196,132,81,124,234,125,164,158,230,120,0,173,199,252,136,102],"subject_pair":56,"STUDY_ID":"669a702db1122fc5150a13ce","PROLIFIC_PID":"667af6df6d1e576158ef7e96","SESSION_ID":"669abbbca40da5c759d66a49","practice_instructions":1,"leaderboard_instructions":0,"bonus":1,"reveal_word":false,"self_rating":"1","confidence":"66"},{"view_history":"[{\"page_index\":0,\"viewing_time\":4767.5999999996275}]","rt":4767.800000000745,"trial_type":"instructions","trial_index":1,"time_elapsed":8763,"internal_node_id":"0.0-1.0","protocol_sum":"","subject_identifier":112,"subject_sum":[118,136,182,239,82,85,89,98,208,8,255,248,148,34,53,130,196,132,81,124,234,125,164,158,230,120,0,173,199,252,136,102],"subject_pair":56,"STUDY_ID":"669a702db1122fc5150a13ce","PROLIFIC_PID":"667af6df6d1e576158ef7e96","SESSION_ID":"669abbbca40da5c759d66a49","practice_instructions":1,"leaderboard_instructions":0,"bonus":1,"reveal_word":false,"self_rating":"1","confidence":"66"},{"view_history":"[{\"page_index\":0,\"viewing_time\":13820.400000000373}]","rt":13820.5,"trial_type":"instructions","trial_index":2,"time_elapsed":22583,"internal_node_id":"0.0-2.0-0.0","protocol_sum":"","subject_identifier":112,"subject_sum":[118,136,182,239,82,85,89,98,208,8,255,248,148,34,53,130,196,132,81,124,234,125,164,158,230,120,0,173,199,252,136,102],"subject_pair":56,"STUDY_ID":"669a702db1122fc5150a13ce","PROLIFIC_PID":"667af6df6d1e576158ef7e96","SESSION_ID":"669abbbca40da5c759d66a49","practice_instructions":1,"leaderboard_instructions":0,"bonus":1,"reveal_word":false,"self_rating":"1","confidence":"66"},{"rt":6394.5999999996275,"responses":"{\"Q0\":\"... reveal the word with as <b>few letter guesses</b> as possible\"}","question_order":"[0]","trial_type":"survey-multi-choice","trial_index":3,"time_elapsed":28979,"internal_node_id":"0.0-2.0-1.0","protocol_sum":"","subject_identifier":112,"subject_sum":[118,136,182,239,82,85,89,98,208,8,255,248,148,34,53,130,196,132,81,124,234,125,164,158,230,120,0,173,199,252,136,102],"subject_pair":56,"correct":true,"test_part":"multichoice_nonpretend","STUDY_ID":"669a702db1122fc5150a13ce","PROLIFIC_PID":"667af6df6d1e576158ef7e96","SESSION_ID":"669abbbca40da5c759d66a49","practice_instructions":1,"leaderboard_instructions":0,"bonus":1,"reveal_word":false,"self_rating":"1","confidence":"66"},{"view_history":"[{\"page_index\":0,\"viewing_time\":1291.0999999996275}]","rt":1291.3999999985099,"trial_type":"instructions","trial_index":4,"time_elapsed":30285,"internal_node_id":"0.0-3.0","protocol_sum":"","subject_identifier":112,"subject_sum":[118,136,182,239,82,85,89,98,208,8,255,248,148,34,53,130,196,132,81,124,234,125,164,158,230,120,0,173,199,252,136,102],"subject_pair":56,"STUDY_ID":"669a702db1122fc5150a13ce","PROLIFIC_PID":"667af6df6d1e576158ef7e96","SESSION_ID":"669abbbca40da5c759d66a49","practice_instructions":1,"leaderboard_instructions":0,"bonus":1,"reveal_word":false,"self_rating":"1","confidence":"66"},{"word":"ZEBRA","click_log":{"letter":["","E","A","B","Z","R"],"t":[0,10467.199999999255,19238.199999999255,28151.300000000745,31808,33782.59999999963],"hit":[null,1,1,1,1,1],"asked":["","E","EA","EAB","EABZ","EABZR"],"word_state":["_____","_E___","_E__A","_EB_A","ZEB_A","ZEBRA"]},"hover_log":{"letter":["?","?","?","?","?","?","?","?","?","?","?","?","?","?","?","?","?","?","?","?","?","?","?","?","?","?","?","?","S","?","T","V","?","O","Q","R","R","R","R","R","R","R","R","R","R","R","R","R","R","?","?","?","?","?","?","?","?","?","?","?","?","?","?","?","?","?","?","?","?","?","?","?","?","?","?","?","?","?","?","?","?","?","?","?","?","?","?","?","?","?","?","?","?","?","?","?","?","?","?","?","?","?","?","?","?","?","?","?","?","?","?","?","?","?","?","?","?","?","?","?","?","?","?","?","?","?","?","?","?","?","?","?","?","?","?","?","?","?","?","?","?","?","?","?","?","?","?","?","?","?","?","?","?","?","?","?","?","?","?","?","?","?","?","?","?","?","?","?","?","?","?","?","?","?","?","?","?","?","?","?","?","?","?","?","?","?","?","?","?","?","?","?","?","?","?","?","?","?","?","?","?","?","?","?","?","?","?","?","?","?","?","?","?","?","?","?","?","?","?","?","?","?","?","?","?","?","?","?","?","?","?","?","?","?","?","?","?","?","?","?","?","?","?","?","?","?","?","?","?","?","?","?","?","?","?","?","?","?","?","?","?","?","?","?","?","?","?","?","?","?","?","?","?","?","?","?","?","?","?","?","?","?","?","?","?","?","?","?","?","?","?","?","?","?","?","?","?","?","?","?","?","?","?","?","?","?","?","?","?","?","?","?","?","?","?","?","?","?","?","?","?","?","?","?","?","?","?","?","?","?","?","?","?","?","?","?","?","?","?","?","?","?","?","?","?","?","?","?","?","?","?","?","?","?","?","?","?","?","?","?","?","?","?","?","?","?","?","?","?","?","?","?","?","?","?","?","?","?","?","?","?","?","?","?","?","?","?","?","?","?","?","?","?","?","?","?","?","?","?","?","?","?","?","?","?","?","?","?","?","?","?","?","?","?","?","?","?","?","?","?","?","?","?","?","?","?","?","?","?","?","?","?","?","?","?","?","?","?","?","?","?","?","?","?","?","?","?","?","?","?","?","?","?","?","?","?","?","?","?","?","?","?","?","?","?","?","?","?","?","?","?","?","?","?","?","?","?","?","?","?","?","?","?","?","?","?","?","?","?","?","?","?","?","?","?","?","?","?","?","?","?","?","?","?","?","?","?","?","?","?","?","?","?","?","?","?","?","?","?","?","?","?","?","?","?","?","?","?","?","?","?","?","?","?","?","?","?","?","?","?","?","?","?","?","?","?","?","?","?","?","?","?","?","?","?","?","?","?","?","?","?","?","?","?","?","?","?","?","?","?","?","?","?","?","?","?","?","?","?","?","?","?","?","?","?","?","?","?","?","?","?","?","?","E","E","?","?","?","?","?","?","D","D","D","D","D","D","D","?","?","?","E","E","E","E","E","E","E","E","E","E","E","E","E","E","E","E","E","E","E","E","E","E","E","E","E","E","?","F","?","?","?","?","?","?","?","?","?","?","?","?","?","?","?","?","?","?","?","?","?","?","?","?","?","?","?","?","?","?","?","?","?","?","?","?","?","?","?","?","?","?","?","?","?","?","?","?","?","?","?","?","?","?","?","?","?","?","?","?","?","?","?","?","?","?","?","?","?","?","?","?","?","?","?","?","?","?","?","?","?","?","?","?","?","?","?","?","?","?","?","?","?","?","?","?","?","?","?","?","?","?","?","?","?","?","?","?","?","?","?","?","?","?","?","?","?","?","?","?","?","?","?","?","?","?","?","?","?","?","?","?","?","?","?","?","?","?","?","?","?","?","?","?","?","?","?","?","?","?","?","?","?","?","?","?","?","?","?","?","?","?","?","?","?","?","?","?","?","?","?","?","?","?","?","?","?","?","?","?","?","?","?","?","?","?","?","?","?","?","?","?","?","?","?","?","?","?","?","?","?","?","?","?","?","?","?","?","?","?","?","?","?","?","?","?","?","?","?","?","?","?","?","?","?","?","?","?","?","?","?","?","?","?","?","?","?","?","?","?","?","?","?","?","?","?","?","?","?","?","?","?","?","?","?","?","?","?","?","?","?","?","?","?","?","?","?","?","F","?","?","?","?","M","M","M","M","M","?","?","?","?","?","?","?","D","D","D","D","D","D","D","D","D","D","D","D","D","D","D","D","D","D","D","D","D","D","D","D","D","D","D","D","D","D","D","D","D","D","D","D","D","D","D","D","D","?","?","?","?","?","?","?","?","?","?","?","?","?","?","?","?","?","?","?","?","?","?","?","?","?","?","?","?","?","?","?","?","?","?","?","?","?","?","?","?","?","?","?","?","?","?","?","?","?","?","?","?","?","?","?","?","?","?","?","?","?","?","?","?","?","?","?","?","?","?","?","?","?","?","D","D","D","D","D","?","?","C","C","C","C","C","C","C","C","C","C","C","C","C","C","C","C","C","C","C","C","C","C","C","C","?","D","D","D","D","D","D","D","D","D","D","D","D","D","?","?","?","?","?","E","E","E","?","?","?","?","?","?","?","?","M","M","M","M","M","M","M","M","M","M","M","M","M","?","?","?","?","?","?","?","?","?","?","?","L","L","L","L","L","L","?","?","K","?","?","?","?","?","?","?","?","?","A","A","A","A","A","A","A","A","A","A","A","A","A","A","A","A","A","A","A","A","A","A","A","A","A","A","A","A","A","A","A","A","A","A","A","A","A","A","A","A","A","A","A","A","A","A","A","?","B","C","?","?","?","?","?","?","?","?","?","?","?","?","?","?","?","?","?","?","?","?","?","?","?","?","?","?","?","?","?","?","?","?","?","?","?","?","?","?","?","?","?","?","?","?","?","?","?","?","?","?","?","?","?","?","?","?","?","?","?","?","?","?","?","?","?","?","?","?","?","?","?","?","?","?","?","?","?","?","?","?","?","?","?","?","?","?","?","?","?","?","?","?","?","?","?","?","?","?","?","?","?","?","?","?","?","?","?","?","?","?","?","?","?","?","?","?","?","?","?","?","?","?","?","?","?","?","?","?","?","?","?","?","?","?","?","?","?","?","?","?","?","?","?","?","?","?","?","?","?","?","?","?","?","?","?","?","?","?","?","?","?","?","?","?","?","?","?","?","?","?","?","?","?","?","?","?","?","?","?","?","?","?","?","?","?","?","?","?","?","?","?","?","?","?","?","?","?","?","?","?","?","?","?","?","?","?","?","?","?","?","?","?","?","?","?","?","?","?","Q","Q","?","?","P","P","P","P","P","P","P","P","P","P","P","P","P","P","P","?","?","?","?","?","?","?","?","?","?","?","?","?","?","?","O","O","O","O","O","O","O","O","?","?","?","?","?","?","?","?","?","?","?","?","?","?","?","?","?","?","?","?","?","?","?","?","?","?","?","?","?","?","?","?","N","N","N","N","?","?","?","?","?","?","?","?","?","?","?","?","?","?","?","?","?","?","?","?","?","?","?","?","?","?","?","?","?","?","?","?","?","?","?","?","?","?","?","?","?","?","?","?","?","?","?","?","?","?","?","?","?","?","?","?","?","?","?","?","?","?","?","?","?","?","?","?","?","?","?","?","?","?","B","B","B","B","B","B","B","B","B","B","B","B","B","B","B","B","B","B","B","B","B","B","B","B","B","B","B","B","B","B","B","B","B","B","B","B","B","B","B","B","B","B","B","B","B","B","B","B","B","B","B","B","B","B","B","?","?","C","?","D","?","?","?","?","?","?","N","N","N","N","?","?","?","?","?","?","?","?","?","?","?","?","?","?","?","?","?","L","L","L","L","L","L","L","L","?","?","?","?","?","?","?","?","?","?","?","?","?","?","?","?","?","?","B","B","B","B","B","B","B","B","B","B","B","B","B","B","B","B","B","B","B","B","B","B","B","?","C","?","D","?","E","?","F","F","F","F","F","?","?","?","?","?","?","?","?","?","?","?","?","?","?","?","G","G","G","G","G","G","G","G","G","G","G","G","G","G","G","G","G","G","G","G","G","G","G","G","G","G","G","G","G","G","G","G","G","G","G","G","G","G","G","G","G","G","G","G","G","G","G","G","G","G","G","G","G","G","G","G","G","G","G","G","G","G","?","?","?","?","?","?","?","?","?","?","?","?","?","?","?","?","?","?","?","?","?","?","?","?","?","?","?","?","?","?","?","?","?","?","O","?","N","N","M","M","M","?","?","?","?","?","?","?","?","?","?","?","?","?","?","?","?","?","?","?","?","?","?","?","?","?","?","L","L","L","?","?","?","U","U","U","?","?","?","?","?","?","?","?","?","?","?","?","?","?","?","?","Z","Z","Z","Z","Z","?","Z","?","?","?","?","?","?","Z","Z","Z","Z","Z","Z","Z","Z","Z","Z","Z","Z","Z","Z","Z","Z","Z","Z","Z","Z","Z","Z","Z","Z","Z","Z","Z","Z","Z","Y","Y","?","?","?","N","N","N","N","?","?","M","M","M","M","M","M","M","?","?","N","N","?","?","O","O","O","O","O","O","O","O","O","O","O","O","?","?","?","?","?","?","?","?","?","?","N","?","M","?","L","?","K","K","K","K","K","K","?","?","L","L","L","L","?","M","M","M","M","M","N","?","?","?","Q","Q","Q","Q","Q","Q","Q","Q","Q","Q","Q","?","?","?","R","R","R","R","R","R","R","R","R","R","R","R","R","R","R","R","R","R","R","R","R","R","R","R","R","R","R","R","R","R","R","R","R","R","?","?","?","?","?","?","?","?","?","?","?","Z","Y","W","V","U","?","S","?","?","?","?","?","?","?","?","?","?","?","?","?","?","?","?","?","?","?","?","?","?","?","S","S","T","T","T","?","?","?","?","?","?","?","?","?","?","?","?","?","?","?","?","?","U","U","U","U","U","U","U","U","U","U","?","?","V","V","V","V","V","?","W","W","W","W","W","W","?","?","?","?","?","?","?","?","?","?","?","?","?","?","X","X","X","X","X","X"],"t":[39,48,64,77,91,105,119,133,147,161,174,188,202,216,230,244,258,272,285,299,313,334,348,362,382,396,417,431,446,466,480,501,515,529,551,564,584,598,612,633,647,668,681,695,716,730,751,765,779,800,814,835,848,862,883,897,918,932,945,966,981,1001,1015,1029,1050,1063,1085,1098,1112,1133,1147,1168,1182,1201,1216,1230,1261,1279,1294,1307,1321,1335,1349,1363,1383,1397,1419,1432,1446,1466,1480,1502,1515,1529,1550,1564,1585,1599,1613,1633,1647,1669,1682,1696,1717,1730,1752,1765,1779,1800,1814,1836,1849,1863,1883,1898,1919,1979,1995,2009,2023,2037,2051,2065,2079,2093,2106,2120,2134,2148,2162,2176,2189,2203,2217,2232,2252,2266,2280,2301,2314,2328,2349,2363,2384,2397,2411,2432,2446,2468,2481,2503,2516,2530,2551,2565,2578,2599,2613,2634,2648,2662,2683,2697,2717,2731,2745,2766,2780,2801,2814,2828,2849,2863,2884,2898,2912,2933,2947,2967,2982,2995,3016,3030,3051,3065,3079,3100,3113,3135,3148,3162,3183,3197,3218,3231,3245,3267,3282,3302,3315,3344,3357,3371,3384,3398,3412,3433,3447,3511,3523,3537,3551,3565,3579,3593,3607,3620,3634,3648,3662,3676,3690,3704,3718,3731,3746,3766,3780,3802,3815,3829,3850,3864,3885,3898,3912,3933,3947,3969,3982,3996,4017,4031,4052,4065,4079,4100,4114,4136,4149,4162,4184,4197,4219,4232,4246,4267,4281,4302,4315,4329,4350,4364,4386,4399,4413,4434,4447,4469,4482,4496,4517,4531,4553,4566,4580,4601,4616,4636,4650,4664,4684,4698,4719,4733,4747,4768,4782,4803,4816,4830,4851,4865,4879,4900,4913,4934,4948,4961,4982,4996,5017,5031,5045,5066,5080,5101,5114,5128,5149,5163,5184,5198,5212,5233,5246,5267,5281,5295,5316,5330,5352,5364,5378,5400,5413,5435,5448,5462,5483,5497,5518,5531,5545,5566,5580,5602,5615,5628,5649,5663,5685,5698,5712,5733,5747,5769,5781,5795,5816,5830,5852,5865,5879,5900,5920,5934,5948,5962,5983,5997,6019,6032,6046,6066,6080,6102,6115,6129,6150,6164,6185,6198,6212,6233,6247,6269,6282,6296,6317,6331,6352,6366,6379,6400,6414,6436,6449,6462,6483,6497,6519,6532,6546,6567,6580,6602,6615,6629,6650,6664,6686,6699,6713,6733,6747,6769,6782,6796,6817,6831,6853,6866,6879,6900,6914,6928,6949,6963,6984,6998,7019,7033,7047,7068,7081,7103,7116,7137,7151,7165,7186,7199,7213,7234,7248,7262,7283,7297,7317,7331,7345,7366,7380,7400,7414,7428,7449,7463,7484,7498,7512,7533,7547,7567,7581,7595,7616,7630,7652,7664,7678,7699,7713,7735,7748,7762,7783,7797,7818,7831,7845,7866,7880,7902,7915,7929,7950,7963,7985,7998,8012,8033,8047,8069,8081,8095,8116,8130,8151,8165,8179,8200,8214,8235,8248,8262,8283,8297,8319,8331,8346,8366,8380,8402,8415,8429,8450,8464,8484,8498,8512,8533,8547,8568,8582,8596,8617,8630,8652,8665,8679,8700,8714,8735,8748,8763,8783,8797,8818,8832,8846,8867,8881,8902,8916,8929,8950,8964,8986,8999,9013,9033,9047,9069,9082,9096,9117,9131,9153,9165,9179,9200,9214,9228,9249,9263,9284,9297,9311,9332,9346,9367,9381,9395,9416,9429,9451,9464,9478,9499,9514,9534,9548,9562,9582,9596,9617,9631,9645,9666,9680,9701,9715,9728,9750,9763,9785,9798,9812,9833,9847,9869,9882,9896,9917,9930,9951,9965,9979,10000,10014,10034,10048,10062,10083,10097,10118,10132,10146,10167,10180,10202,10215,10229,10250,10264,10285,10298,10312,10333,10347,10369,10381,10395,10416,10430,10452,10465,10479,10500,10514,10534,10548,10562,10583,10597,10619,10632,10646,10667,10680,10702,10715,10729,10750,10764,10785,10798,10812,10833,10847,10869,10882,10896,10917,10930,10951,10965,10979,11000,11014,11036,11049,11063,11084,11098,11119,11132,11146,11167,11181,11202,11216,11229,11251,11264,11286,11299,11313,11334,11348,11369,11382,11396,11417,11431,11453,11466,11480,11500,11514,11528,11549,11563,11584,11598,11612,11632,11646,11667,11681,11695,11716,11730,11750,11764,11778,11799,11813,11834,11848,11862,11883,11896,11917,11931,11945,11966,11980,12001,12015,12028,12049,12063,12085,12098,12112,12133,12147,12168,12181,12195,12216,12230,12251,12265,12278,12299,12313,12335,12348,12362,12383,12397,12417,12431,12445,12466,12480,12502,12515,12529,12550,12563,12585,12598,12612,12633,12647,12669,12682,12695,12716,12730,12752,12765,12779,12800,12814,12835,12848,12862,12883,12897,12919,12932,12945,12966,12980,13002,13015,13029,13050,13064,13085,13099,13112,13133,13147,13169,13182,13196,13217,13231,13252,13265,13279,13300,13314,13336,13349,13362,13383,13397,13419,13432,13446,13470,13493,13502,13516,13530,13551,13564,13586,13599,13613,13634,13648,13669,13683,13697,13718,13731,13753,13766,13780,13801,13814,13828,13849,13863,13884,13898,13911,13932,13947,13967,13981,13995,14016,14030,14051,14064,14078,14099,14113,14134,14148,14162,14183,14196,14217,14231,14245,14266,14280,14301,14315,14328,14349,14363,14385,14398,14412,14433,14446,14468,14481,14495,14516,14530,14552,14565,14579,14599,14613,14634,14648,14662,14683,14698,14718,14732,14746,14766,14780,14802,14815,14829,14850,14864,14885,14898,14912,14933,14947,14969,14982,14996,15016,15030,15052,15065,15079,15100,15114,15135,15149,15163,15184,15197,15219,15232,15246,15267,15280,15302,15315,15329,15350,15364,15386,15398,15412,15433,15447,15469,15482,15496,15517,15530,15552,15565,15579,15600,15614,15636,15649,15662,15683,15697,15719,15732,15746,15767,15781,15802,15815,15829,15850,15864,15885,15899,15912,15934,15947,15961,15983,15997,16017,16032,16054,16066,16080,16101,16115,16136,16150,16163,16184,16198,16219,16233,16247,16267,16281,16295,16316,16329,16351,16364,16378,16399,16413,16434,16448,16462,16482,16496,16517,16531,16545,16566,16580,16601,16614,16628,16649,16663,16684,16698,16712,16733,16747,16768,16782,16795,16816,16830,16852,16865,16878,16899,16913,16934,16948,16962,16983,16996,17017,17031,17045,17066,17080,17101,17115,17129,17150,17164,17185,17198,17212,17233,17247,17269,17282,17296,17316,17330,17352,17365,17379,17400,17414,17435,17449,17462,17483,17497,17519,17532,17546,17567,17580,17601,17615,17629,17650,17664,17686,17698,17712,17733,17747,17769,17782,17796,17817,17831,17852,17866,17879,17900,17914,17936,17949,17962,17983,17997,18018,18032,18046,18067,18081,18102,18115,18129,18150,18164,18178,18199,18213,18234,18248,18261,18282,18296,18317,18331,18345,18366,18380,18400,18414,18428,18449,18463,18484,18498,18512,18532,18546,18567,18581,18595,18616,18630,18651,18664,18678,18699,18713,18734,18748,18762,18782,18796,18817,18831,18846,18866,18880,18902,18914,18928,18949,18963,18985,18998,19012,19033,19047,19068,19081,19095,19116,19130,19152,19165,19178,19199,19213,19234,19248,19262,19283,19297,19318,19331,19345,19366,19380,19401,19415,19429,19450,19463,19485,19498,19512,19533,19547,19568,19582,19595,19616,19630,19652,19665,19679,19700,19714,19735,19748,19762,19783,19797,19819,19832,19846,19867,19881,19902,19915,19929,19950,19964,19986,19999,20012,20033,20047,20068,20082,20096,20117,20131,20152,20166,20180,20200,20215,20236,20249,20263,20284,20298,20319,20346,20367,20381,20402,20416,20429,20444,20457,20471,20485,20499,20512,20534,20548,20569,20582,20596,20617,20632,20653,20666,20680,20701,20714,20728,20749,20763,20784,20798,20811,20832,20846,20867,20881,20895,20916,20930,20950,20964,20978,20999,21013,21034,21048,21061,21082,21096,21118,21131,21145,21166,21180,21202,21214,21229,21249,21264,21285,21298,21312,21333,21347,21368,21382,21396,21416,21430,21451,21464,21479,21499,21513,21534,21548,21562,21583,21597,21620,21645,21678,21700,21715,21729,21743,21756,21794,21812,21826,21840,21854,21868,21882,21896,21916,21930,21952,21965,21979,22000,22014,22035,22049,22062,22083,22097,22119,22132,22146,22167,22181,22202,22215,22229,22250,22264,22286,22299,22313,22333,22347,22369,22382,22396,22417,22431,22444,22458,22472,22486,22500,22514,22535,22549,22563,22576,22590,22604,22632,22646,22667,22681,22695,22708,22723,22738,22750,22765,22778,22799,22813,22834,22848,22861,22882,22896,22917,22931,22945,22966,22979,23000,23014,23028,23049,23063,23084,23097,23111,23132,23146,23167,23181,23195,23216,23229,23250,23264,23278,23299,23313,23334,23348,23362,23383,23397,23417,23431,23445,23466,23480,23502,23515,23528,23550,23564,23584,23598,23612,23633,23646,23667,23681,23695,23716,23730,23752,23765,23782,23799,23813,23835,23848,23862,23883,23896,23917,23932,23945,23966,23980,24001,24015,24029,24050,24064,24085,24098,24112,24133,24147,24169,24182,24196,24216,24230,24252,24265,24279,24300,24314,24334,24348,24362,24383,24397,24419,24432,24446,24467,24480,24502,24515,24529,24550,24564,24586,24598,24613,24634,24647,24669,24682,24696,24717,24731,24752,24766,24779,24800,24814,24836,24849,24863,24884,24897,24918,24932,24946,24967,24980,25003,25016,25029,25050,25064,25086,25099,25113,25134,25148,25161,25182,25196,25217,25231,25245,25266,25279,25300,25314,25328,25349,25363,25387,25405,25419,25433,25447,25468,25481,25495,25516,25530,25551,25565,25579,25600,25613,25634,25649,25662,25683,25697,25717,25731,25745,25766,25780,25801,25814,25828,25849,25863,25885,25898,25912,25933,25947,25968,25981,25995,26016,26030,26052,26065,26078,26099,26113,26135,26148,26162,26183,26197,26219,26231,26245,26266,26280,26302,26315,26329,26350,26363,26384,26398,26412,26433,26447,26469,26482,26495,26516,26530,26552,26565,26579,26600,26614,26635,26648,26662,26683,26697,26719,26732,26746,26766,26780,26801,26815,26829,26850,26864,26886,26898,26912,26934,26947,26969,26982,26996,27017,27031,27052,27065,27079,27100,27114,27136,27149,27163,27184,27197,27219,27232,27246,27267,27281,27295,27315,27329,27351,27364,27378,27399,27413,27434,27447,27462,27482,27496,27517,27531,27545,27566,27579,27600,27614,27628,27649,27663,27684,27697,27711,27732,27746,27767,27781,27795,27816,27830,27851,27864,27878,27899,27913,27934,27948,27962,27982,27996,28018,28031,28045,28066,28080,28102,28115,28128,28149,28163,28185,28198,28212,28233,28247,28268,28281,28295,28316,28330,28352,28365,28379,28400,28413,28435,28448,28462,28483,28497,28519,28531,28545,28566,28580,28602,28615,28629,28650,28663,28684,28699,28712,28733,28747,28769,28782,28796,28816,28830,28852,28865,28879,28900,28914,28935,28948,28962,28983,28997,29019,29032,29046,29067,29080,29101,29115,29129,29150,29164,29186,29199,29212,29233,29247,29269,29282,29296,29317,29331,29352,29365,29379,29400,29414,29436,29449,29463,29484,29497,29519,29533,29546,29567,29581,29594,29616,29630,29651,29665,29686,29699,29713,29734,29748,29769,29783,29797,29818,29831,29853,29866,29880,29901,29915,29929,29950,29963,29984,29998,30012,30033,30046,30067,30081,30095,30116,30130,30151,30164,30178,30199,30213,30235,30248,30262,30283,30297,30318,30331,30345,30366,30380,30402,30415,30429,30449,30463,30485,30498,30512,30533,30547,30568,30581,30595,30616,30630,30652,30665,30678,30700,30713,30734,30748,30762,30783,30797,30819,30831,30845,30866,30880,30902,30915,30929,30950,30964,30985,30998,31012,31034,31047,31069,31082,31096,31117,31130,31152,31165,31180,31200,31214,31235,31249,31263,31284,31298,31319,31332,31346,31367,31381,31402,31416,31430,31451,31464,31486,31499,31513,31534,31548,31569,31582,31596,31617,31630,31652,31666,31679,31700,31714,31736,31756,31769,31783,31797,31819,31832,31846,31867,31881,31903,31916,31929,31950,31964,31978,31999,32013,32034,32048,32061,32083,32096,32117,32131,32145,32166,32179,32200,32214,32228,32249,32263,32284,32298,32312,32333,32347,32367,32381,32395,32417,32430,32451,32464,32478,32499,32513,32535,32548,32562,32583,32597,32618,32631,32645,32666,32680,32702,32715,32729,32750,32763,32785,32798,32812,32833,32847,32868,32881,32895,32916,32930,32952,32965,32979,33000,33013,33035,33048,33062,33083,33097,33119,33132,33145,33166,33180,33202,33215,33229,33250,33263,33285,33299,33312,33333,33347,33369,33382,33396,33416,33430,33452,33465,33479,33500,33514,33534,33549,33562,33583,33597,33619,33632,33646,33667,33681,33702,33716,33740,33741,33764,33788,33799,33814,33834,33848,33869,33883,33896,33917,33931,33952,33966,33980,34001,34015,34036,34050,34063,34084,34098,34111,34132,34146,34167,34181,34195,34216,34230,34251,34265,34279,34299,34313,34334,34348,34370,34383,34396,34417,34431,34445,34466,34480,34500,34514,34528,34549,34563,34584,34598,34612,34633,34647,34667,34682,34695,34716,34730,34751,34765,34778,34800,34813,34835,34848,34862,34883,34897,34918,34931,34945,34966,34980,35002,35015,35029,35050,35063,35085,35098,35112,35133,35147,35168,35181,35195,35216,35231,35252,35265,35279,35300,35314,35335,35348,35362,35383,35397,35419,35432,35445,35467,35480,35502,35515,35529,35550,35564,35585,35599,35612,35633,35647,35669,35682,35696,35717,35730,35752,35765,35780,35801],"hit":[null],"x":[-2.372448979591837,-2.372448979591837,-2.372448979591837,-2.372448979591837,-2.372448979591837,-2.372448979591837,-2.372448979591837,-2.372448979591837,-2.372448979591837,-2.372448979591837,-2.372448979591837,-2.372448979591837,-2.372448979591837,-2.372448979591837,-2.372448979591837,-2.372448979591837,-2.372448979591837,-2.372448979591837,-2.372448979591837,-2.372448979591837,-2.372448979591837,-2.372448979591837,-2.372448979591837,-2.372448979591837,-2.372448979591837,-2.372448979591837,-0.07422281933479569,-0.05721601661370725,-0.02320241117153038,0.07883840515500024,0.17747786093731316,0.39516493576724515,0.5686343235223472,0.7523077929101023,1.027817996991735,1.1638724187604423,1.1672737793046601,1.1672737793046601,1.1672737793046601,1.1672737793046601,1.1672737793046601,1.1672737793046601,1.1672737793046601,1.1672737793046601,1.1672737793046601,1.1672737793046601,1.1672737793046601,1.1672737793046601,1.1910833031141839,1.2829200378080614,1.4223758201209866,1.810130922161803,2.157069697672007,2.497205752093776,3.133260173862483,3.4631921466515987,3.4631921466515987,3.4631921466515987,3.4631921466515987,3.4631921466515987,3.4631921466515987,3.4631921466515987,3.4631921466515987,3.4631921466515987,3.4631921466515987,3.4631921466515987,3.4631921466515987,3.4631921466515987,3.4631921466515987,3.4631921466515987,3.4631921466515987,3.4631921466515987,3.4631921466515987,3.4631921466515987,3.4631921466515987,3.4631921466515987,3.4631921466515987,3.4631921466515987,3.4631921466515987,3.4631921466515987,3.4631921466515987,3.4631921466515987,3.4631921466515987,3.4631921466515987,3.4631921466515987,3.4631921466515987,3.4631921466515987,3.4631921466515987,3.4631921466515987,3.4631921466515987,3.4631921466515987,3.4631921466515987,3.4631921466515987,3.4631921466515987,3.4631921466515987,3.4631921466515987,3.4631921466515987,3.4631921466515987,3.4631921466515987,3.4631921466515987,3.4631921466515987,3.4631921466515987,3.4631921466515987,3.4631921466515987,3.4631921466515987,3.4631921466515987,3.4631921466515987,3.4631921466515987,3.4631921466515987,3.4631921466515987,3.4631921466515987,3.4631921466515987,3.4631921466515987,3.4631921466515987,3.4631921466515987,3.4631921466515987,3.4631921466515987,3.4631921466515987,3.4631921466515987,3.4631921466515987,3.4631921466515987,3.4631921466515987,3.4631921466515987,3.4631921466515987,3.4631921466515987,3.4631921466515987,3.4631921466515987,3.4631921466515987,3.4631921466515987,3.4631921466515987,3.4631921466515987,3.4631921466515987,3.4631921466515987,3.4631921466515987,3.3033282010733678,3.3033282010733678,3.3237363643386737,3.3237363643386737,3.3237363643386737,3.3237363643386737,3.3237363643386737,3.3237363643386737,3.3237363643386737,3.3237363643386737,3.3237363643386737,3.3237363643386737,3.3237363643386737,3.3237363643386737,3.3237363643386737,3.1842805820257487,3.0652329629781296,2.861151330325068,2.735300990189014,2.616253371141395,2.487001670461123,2.4665935071958165,2.4801989493726873,2.5346207180801703,2.5958452078760885,2.7387023507332313,2.8577499697808504,3.0006071126379936,3.187681942569966,3.2795186772638436,3.354348609236633,3.361151330325068,3.3373418065155445,3.2727159561754084,3.2591105139985377,3.2591105139985377,3.2591105139985377,3.2591105139985377,3.245505071821667,3.231899629644796,3.2284982691005784,3.235300990189014,3.2795186772638436,3.425777180665204,3.49040303100534,3.49040303100534,3.49040303100534,3.49040303100534,3.49040303100534,3.49040303100534,3.49040303100534,3.49040303100534,3.49040303100534,3.49040303100534,3.49040303100534,3.49040303100534,3.49040303100534,3.49040303100534,3.49040303100534,3.49040303100534,3.49040303100534,3.49040303100534,3.49040303100534,3.49040303100534,3.49040303100534,3.49040303100534,3.49040303100534,3.49040303100534,3.49040303100534,3.49040303100534,3.49040303100534,3.49040303100534,3.49040303100534,3.49040303100534,3.49040303100534,2.908770377944116,2.568634323522347,2.235300990189014,1.9767975888284697,1.8169336432502383,1.7523077929101023,1.7523077929101023,1.7897227588964968,1.8169336432502383,1.8169336432502383,1.8169336432502383,1.8169336432502383,1.8169336432502383,1.8169336432502383,1.8169336432502383,1.8169336432502383,1.8169336432502383,1.8169336432502383,1.8237363643386737,1.8271377248828913,1.8135322827060207,1.7863213983522792,1.7523077929101023,1.7148928269237078,1.6944846636584017,1.6842805820257485,1.6672737793046601,1.6502669765835716,1.6366615344067008,1.6298588133182654,1.6230560922298303,1.6196547316856125,1.612852010597177,1.6026479289645241,1.5992465684203063,1.5958452078760887,1.5958452078760887,1.5958452078760887,1.5958452078760887,1.5958452078760887,1.5958452078760887,1.5958452078760887,1.5958452078760887,1.5958452078760887,1.5958452078760887,1.5958452078760887,1.5958452078760887,1.5958452078760887,1.5958452078760887,1.5958452078760887,1.5958452078760887,1.5958452078760887,1.592443847331871,1.5856411262434356,1.582239765699218,1.5686343235223472,1.558430241889694,1.5448247997128233,1.5210152759032995,1.5040084731822112,1.4733962282842519,1.4461853439305103,1.4087703779441159,1.3373418065155445,1.2897227588964968,1.1876819425699663,1.1060492895087417,1.0040084731822112,0.8747567725019391,0.8033282010733676,0.7012873847468369,0.6638724187604425,0.6434642554951363,0.6400628949509186,0.6366615344067009,0.6366615344067009,0.6400628949509186,0.6604710582162248,0.7148928269237077,0.7625118745427554,0.8713554119577214,0.973396228284252,1.1026479289645241,1.2931241194407146,1.4019676568556805,1.4870016704611226,1.5788384051550002,1.6298588133182654,1.6876819425699663,1.6944846636584017,1.6944846636584017,1.6944846636584017,1.6944846636584017,1.6944846636584017,1.6944846636584017,1.6944846636584017,1.6944846636584017,1.6944846636584017,1.6944846636584017,1.6944846636584017,1.6944846636584017,1.6944846636584017,1.6944846636584017,1.6944846636584017,1.6944846636584017,1.6944846636584017,1.6944846636584017,1.6944846636584017,1.6944846636584017,1.6944846636584017,1.6944846636584017,1.6944846636584017,1.6944846636584017,1.6944846636584017,1.6944846636584017,1.6944846636584017,1.6944846636584017,1.6944846636584017,1.6944846636584017,1.6944846636584017,1.6944846636584017,1.6944846636584017,1.6944846636584017,1.6944846636584017,1.6944846636584017,1.6944846636584017,1.6944846636584017,1.6944846636584017,1.6944846636584017,1.6944846636584017,1.6944846636584017,1.6944846636584017,1.6944846636584017,1.6944846636584017,1.6944846636584017,1.6944846636584017,1.6944846636584017,1.6944846636584017,1.6944846636584017,1.6944846636584017,1.6944846636584017,1.6944846636584017,1.6944846636584017,1.6944846636584017,1.6944846636584017,1.6944846636584017,1.6944846636584017,1.6944846636584017,1.6944846636584017,1.6944846636584017,1.6944846636584017,1.6944846636584017,1.6944846636584017,1.6944846636584017,1.6944846636584017,1.6944846636584017,1.6944846636584017,1.6944846636584017,1.6944846636584017,1.6944846636584017,1.6944846636584017,1.6944846636584017,1.6944846636584017,1.6944846636584017,1.6944846636584017,1.6944846636584017,1.6944846636584017,1.6944846636584017,1.6944846636584017,1.6944846636584017,1.6944846636584017,1.6944846636584017,1.6944846636584017,1.6944846636584017,1.6944846636584017,1.6944846636584017,1.6944846636584017,1.6944846636584017,1.6944846636584017,1.6944846636584017,1.6944846636584017,1.6944846636584017,1.6944846636584017,1.6944846636584017,1.6944846636584017,1.6944846636584017,1.6944846636584017,1.6944846636584017,1.6944846636584017,1.6944846636584017,1.6944846636584017,1.6944846636584017,1.6944846636584017,1.6944846636584017,1.6944846636584017,1.6944846636584017,1.6944846636584017,1.6944846636584017,1.6944846636584017,1.6944846636584017,1.6944846636584017,1.6944846636584017,1.6944846636584017,1.6944846636584017,1.6944846636584017,1.6740765003930955,1.6298588133182654,1.6026479289645241,1.5958452078760887,1.592443847331871,1.592443847331871,1.592443847331871,1.592443847331871,1.592443847331871,1.592443847331871,1.592443847331871,1.592443847331871,1.592443847331871,1.592443847331871,1.592443847331871,1.592443847331871,1.592443847331871,1.592443847331871,1.592443847331871,1.592443847331871,1.592443847331871,1.592443847331871,1.592443847331871,1.592443847331871,1.592443847331871,1.592443847331871,1.592443847331871,1.592443847331871,1.592443847331871,1.592443847331871,1.592443847331871,1.592443847331871,1.592443847331871,1.592443847331871,1.592443847331871,1.592443847331871,1.592443847331871,1.592443847331871,1.592443847331871,1.592443847331871,1.592443847331871,1.592443847331871,1.592443847331871,1.592443847331871,1.592443847331871,1.592443847331871,1.5720356840665648,1.5550288813454765,1.538022078624388,1.538022078624388,1.5312193575359525,1.5210152759032995,1.5210152759032995,1.517613915359082,1.517613915359082,1.517613915359082,1.5312193575359525,1.5414234391686057,1.5516275208012587,1.5686343235223472,1.5754370446107826,1.5754370446107826,1.5788384051550002,1.5788384051550002,1.5788384051550002,1.5890424867876534,1.612852010597177,1.6264574527740479,1.6332601738624832,1.6434642554951362,1.6434642554951362,1.6434642554951362,1.6434642554951362,1.6434642554951362,1.6434642554951362,1.6434642554951362,1.6434642554951362,1.6434642554951362,1.6434642554951362,1.6434642554951362,1.6298588133182654,1.6026479289645241,1.6026479289645241,1.5720356840665648,1.538022078624388,1.527817996991735,1.517613915359082,1.517613915359082,1.517613915359082,1.517613915359082,1.517613915359082,1.517613915359082,1.517613915359082,1.517613915359082,1.517613915359082,1.517613915359082,1.517613915359082,1.517613915359082,1.517613915359082,1.517613915359082,1.517613915359082,1.517613915359082,1.517613915359082,1.517613915359082,1.517613915359082,1.517613915359082,1.517613915359082,1.517613915359082,1.517613915359082,1.517613915359082,1.517613915359082,1.517613915359082,1.517613915359082,1.517613915359082,1.517613915359082,1.517613915359082,1.517613915359082,1.517613915359082,1.517613915359082,1.517613915359082,1.517613915359082,1.517613915359082,1.517613915359082,1.517613915359082,1.517613915359082,1.517613915359082,1.517613915359082,1.517613915359082,1.517613915359082,1.517613915359082,1.517613915359082,1.517613915359082,1.517613915359082,1.517613915359082,1.517613915359082,1.517613915359082,1.517613915359082,1.517613915359082,1.517613915359082,1.517613915359082,1.517613915359082,1.517613915359082,1.517613915359082,1.517613915359082,1.517613915359082,1.517613915359082,1.517613915359082,1.517613915359082,1.517613915359082,1.517613915359082,1.517613915359082,1.517613915359082,1.517613915359082,1.517613915359082,1.517613915359082,1.517613915359082,1.517613915359082,1.517613915359082,1.517613915359082,1.517613915359082,1.517613915359082,1.517613915359082,1.517613915359082,1.517613915359082,1.517613915359082,1.517613915359082,1.517613915359082,1.517613915359082,1.5754370446107826,1.745505071821667,1.8169336432502383,1.8441445276039798,1.6740765003930955,1.483600309916905,1.2182941874679254,1.048226160257041,0.9155730990325512,0.7353009901890138,0.6536683371277894,0.5720356840665649,0.538022078624388,0.5176139153590819,0.5006071126379934,0.5006071126379934,0.5006071126379934,0.5006071126379934,0.4904030310053404,0.47339622828425193,0.46999486774003424,0.46999486774003424,0.46999486774003424,0.46999486774003424,0.4767975888284696,0.483600309916905,0.4904030310053404,0.5006071126379934,0.5040084731822111,0.5210152759032995,0.5312193575359526,0.5482261602570411,0.5482261602570411,0.5550288813454765,0.5584302418896941,0.5584302418896941,0.5652329629781295,0.5652329629781295,0.5652329629781295,0.5652329629781295,0.5652329629781295,0.5652329629781295,0.5652329629781295,0.5652329629781295,0.5652329629781295,0.5652329629781295,0.5652329629781295,0.5652329629781295,0.5652329629781295,0.5652329629781295,0.5652329629781295,0.5652329629781295,0.5652329629781295,0.5652329629781295,0.5924438473318709,0.6332601738624832,0.7421037112774492,0.8305390854271091,0.9087703779441159,1.0244166364475173,1.0720356840665648,1.1026479289645241,1.116253371141395,1.1196547316856125,1.1366615344067008,1.157069697672007,1.2284982691005784,1.2489064323658845,1.2489064323658845,1.2489064323658845,1.2489064323658845,1.2489064323658845,1.2489064323658845,1.2489064323658845,1.2489064323658845,1.2489064323658845,1.2489064323658845,1.2489064323658845,1.2489064323658845,1.2489064323658845,1.2489064323658845,1.2489064323658845,1.2489064323658845,1.2489064323658845,1.2489064323658845,1.2489064323658845,1.2489064323658845,1.2489064323658845,1.2489064323658845,1.2591105139985377,1.2523077929101023,1.2318996296447962,1.2250969085563608,1.2148928269237078,1.2080901058352724,1.1978860242026192,1.1978860242026192,1.1910833031141839,1.1876819425699663,1.177477860937313,1.1706751398488777,1.1706751398488777,1.1706751398488777,1.1706751398488777,1.1706751398488777,1.1706751398488777,1.1706751398488777,1.1672737793046601,1.1434642554951362,1.0856411262434356,1.0414234391686057,0.993804391549558,0.9495867044747281,0.9427839833862928,0.9427839833862928,0.9461853439305105,0.9495867044747281,0.9495867044747281,0.9495867044747281,0.9495867044747281,0.9495867044747281,0.9495867044747281,0.9495867044747281,0.9495867044747281,0.9495867044747281,0.9495867044747281,0.9495867044747281,0.9495867044747281,0.9495867044747281,0.9495867044747281,0.9325799017536397,0.9427839833862928,0.9461853439305105,0.9597907861073812,0.9699948677400343,0.9699948677400343,0.9665935071958166,0.9427839833862928,0.929178541209422,0.9121717384883335,0.9019676568556805,0.8951649357672451,0.8917635752230274,0.8917635752230274,0.8883622146788097,0.8747567725019391,0.8509472486924152,0.8135322827060206,0.7965254799849322,0.7727159561754084,0.7591105139985377,0.7489064323658846,0.7353009901890138,0.7353009901890138,0.7353009901890138,0.7353009901890138,0.7353009901890138,0.7353009901890138,0.7353009901890138,0.7353009901890138,0.7353009901890138,0.7353009901890138,0.7353009901890138,0.7353009901890138,0.7353009901890138,0.7353009901890138,0.7353009901890138,0.7353009901890138,0.7353009901890138,0.7353009901890138,0.7353009901890138,0.7353009901890138,0.7353009901890138,0.7353009901890138,0.7353009901890138,0.7353009901890138,0.7421037112774492,0.7795186772638437,0.7965254799849322,0.7965254799849322,0.7965254799849322,0.7863213983522791,0.7829200378080614,0.7829200378080614,0.7829200378080614,0.7965254799849322,0.8169336432502383,0.8543486092366329,0.8713554119577214,0.9053690173998982,0.9257771806652043,0.9461853439305105,0.9597907861073812,0.9597907861073812,0.9597907861073812,0.9597907861073812,0.9597907861073812,0.9597907861073812,0.9597907861073812,0.9597907861073812,0.9597907861073812,0.9597907861073812,0.9495867044747281,0.9427839833862928,0.9393826228420751,0.9393826228420751,0.9427839833862928,0.9495867044747281,0.9529880650189458,0.9495867044747281,0.9495867044747281,0.9495867044747281,0.9495867044747281,0.9495867044747281,0.9495867044747281,0.9699948677400343,0.9801989493726873,0.9904030310053403,0.9904030310053403,0.9904030310053403,0.9904030310053403,0.9904030310053403,0.9904030310053403,0.9904030310053403,0.9904030310053403,0.9904030310053403,0.9904030310053403,0.9904030310053403,0.9904030310053403,0.9904030310053403,0.9904030310053403,0.9904030310053403,1.0074098337264288,1.0074098337264288,1.0040084731822112,0.9972057520937757,0.9972057520937757,1.0108111942706466,1.027817996991735,1.0550288813454765,1.0720356840665648,1.092443847331871,1.2182941874679254,1.3509472486924152,1.5890424867876534,1.745505071821667,1.9019676568556805,2.136661534406701,2.2829200378080614,2.3951649357672453,2.425777180665204,2.374756772501939,2.354348609236633,2.354348609236633,2.354348609236633,2.354348609236633,2.354348609236633,2.354348609236633,2.354348609236633,2.354348609236633,2.354348609236633,2.354348609236633,2.354348609236633,2.354348609236633,2.354348609236633,2.354348609236633,2.354348609236633,2.354348609236633,2.354348609236633,2.354348609236633,2.354348609236633,2.354348609236633,2.354348609236633,2.354348609236633,2.3577499697808504,2.3577499697808504,2.3577499697808504,2.361151330325068,2.367954051413504,2.371355411957721,2.371355411957721,2.371355411957721,2.371355411957721,2.371355411957721,2.367954051413504,2.3577499697808504,2.3577499697808504,2.354348609236633,2.330539085427109,2.310130922161803,2.2829200378080614,2.2727159561754084,2.252307792910102,2.245505071821667,2.2284982691005784,2.2182941874679254,2.2182941874679254,2.2182941874679254,2.2182941874679254,2.2182941874679254,2.191083303114184,2.106049289508742,1.939382622842075,1.8067295616175854,1.6298588133182654,1.3543486092366328,1.2046887452910546,1.1060492895087417,1.116253371141395,1.1434642554951362,1.1434642554951362,1.1434642554951362,1.1434642554951362,1.1434642554951362,1.1434642554951362,1.1434642554951362,1.1434642554951362,1.1434642554951362,1.1434642554951362,1.1434642554951362,1.112852010597177,1.0618316024339118,0.9495867044747281,0.8679540514135037,0.7965254799849322,0.6808792214815308,0.6196547316856125,0.5516275208012588,0.5176139153590819,0.4904030310053404,0.46319214665159886,0.4563894255631635,0.4529880650189458,0.44618534393051046,0.44278398338629277,0.4359812622978574,0.4325799017536397,0.4257771806652043,0.4257771806652043,0.4257771806652043,0.4257771806652043,0.429178541209422,0.4359812622978574,0.4393826228420751,0.4393826228420751,0.4393826228420751,0.4393826228420751,0.44618534393051046,0.44958670447472815,0.4563894255631635,0.483600309916905,0.4870016704611227,0.4870016704611227,0.4870016704611227,0.4870016704611227,0.4870016704611227,0.4870016704611227,0.4870016704611227,0.4870016704611227,0.4870016704611227,0.4870016704611227,0.4870016704611227,0.4870016704611227,0.4870016704611227,0.4870016704611227,0.4870016704611227,0.4870016704611227,0.4870016704611227,0.4870016704611227,0.4870016704611227,0.4870016704611227,0.4870016704611227,0.4870016704611227,0.4870016704611227,0.4870016704611227,0.4870016704611227,0.4870016704611227,0.4870016704611227,0.4870016704611227,0.4870016704611227,0.4870016704611227,0.4870016704611227,0.483600309916905,0.483600309916905,0.483600309916905,0.483600309916905,0.483600309916905,0.47339622828425193,0.47339622828425193,0.46999486774003424,0.46999486774003424,0.46999486774003424,0.46999486774003424,0.46999486774003424,0.46999486774003424,0.46999486774003424,0.46319214665159886,0.46319214665159886,0.45979078610738117,0.45979078610738117,0.4563894255631635,0.4563894255631635,0.4529880650189458,0.44618534393051046,0.4359812622978574,0.4257771806652043,0.41557309903255124,0.40877037794411586,0.40536901739989817,0.40536901739989817,0.41897445957676893,0.4223758201209866,0.4223758201209866,0.4223758201209866,0.4223758201209866,0.4223758201209866,0.4223758201209866,0.4223758201209866,0.4223758201209866,0.4223758201209866,0.4223758201209866,0.4223758201209866,0.4223758201209866,0.41557309903255124,0.39516493576724515,0.36455269086928593,0.34414452760397984,0.33394044597132677,0.3271377248828914,0.3271377248828914,0.3271377248828914,0.3271377248828914,0.3237363643386737,0.3237363643386737,0.3237363643386737,0.3237363643386737,0.3237363643386737,0.3237363643386737,0.3237363643386737,0.3237363643386737,0.3237363643386737,0.3237363643386737,0.3237363643386737,0.3237363643386737,0.3237363643386737,0.3237363643386737,0.3237363643386737,0.3271377248828914,0.3305390854271091,0.33394044597132677,0.34754588814819753,0.35774996978085055,0.36455269086928593,0.374756772501939,0.374756772501939,0.374756772501939,0.374756772501939,0.3815594935903744,0.3849608541345921,0.3849608541345921,0.3849608541345921,0.3815594935903744,0.3679540514135036,0.33394044597132677,0.3169336432502383,0.2999268405291499,0.28972275889649685,0.2795186772638438,0.2693145956311907,0.25911051399853763,0.25911051399853763,0.25911051399853763,0.25911051399853763,0.25911051399853763,0.25911051399853763,0.25911051399853763,0.25911051399853763,0.25911051399853763,0.25911051399853763,0.25911051399853763,0.25911051399853763,0.25911051399853763,0.25911051399853763,0.2625118745427553,0.265913235086973,0.28292003780806146,0.2999268405291499,0.3169336432502383,0.35774996978085055,0.3815594935903744,0.41897445957676893,0.4359812622978574,0.44958670447472815,0.46319214665159886,0.46319214665159886,0.46319214665159886,0.46319214665159886,0.46319214665159886,0.46319214665159886,0.46319214665159886,0.46659350719581655,0.47339622828425193,0.483600309916905,0.4938043915495581,0.5108111942706465,0.5176139153590819,0.5210152759032995,0.5278179969917349,0.538022078624388,0.5414234391686057,0.5482261602570411,0.5482261602570411,0.5482261602570411,0.5448247997128234,0.5278179969917349,0.5176139153590819,0.5006071126379934,0.4904030310053404,0.4801989493726873,0.46999486774003424,0.45979078610738117,0.4529880650189458,0.44618534393051046,0.44618534393051046,0.44618534393051046,0.44618534393051046,0.4359812622978574,0.4257771806652043,0.40536901739989817,0.39516493576724515,0.38836221467880977,0.36455269086928593,0.36455269086928593,0.36455269086928593,0.36455269086928593,0.36455269086928593,0.36455269086928593,0.36455269086928593,0.36455269086928593,0.3713554119577213,0.3679540514135036,0.34414452760397984,0.33394044597132677,0.30672956161758524,0.2999268405291499,0.28632139835227916,0.2693145956311907,0.24890643236588458,0.21149146637949004,0.18768194256996623,0.17067513984887778,0.15706969767200704,0.14686561603935397,0.1400628949509186,0.12305609222983016,0.10604928950874173,0.0856411262434356,0.07543704461078254,0.06863432352234718,0.05843024188969411,0.051627520801258736,0.031219357535952612,0.02441663644751724,0.010811194270646491,0.010811194270646491,0.010811194270646491,0.010811194270646491,0.010811194270646491,0.010811194270646491,0.010811194270646491,0.010811194270646491,0.010811194270646491,0.010811194270646491,0.010811194270646491,0.010811194270646491,0.010811194270646491,0.010811194270646491,0.010811194270646491,0.010811194270646491,0.010811194270646491,0.010811194270646491,0.014212554814864178,0.014212554814864178,0.014212554814864178,0.017613915359081866,0.017613915359081866,0.017613915359081866,0.017613915359081866,0.017613915359081866,0.017613915359081866,0.017613915359081866,0.017613915359081866,0.017613915359081866,0.017613915359081866,0.017613915359081866,0.017613915359081866,0.017613915359081866,0.017613915359081866,0.017613915359081866,0.017613915359081866,0.017613915359081866,0.017613915359081866,0.017613915359081866,0.017613915359081866,0.02441663644751724,0.02441663644751724,0.04142343916860568,0.06863432352234718,0.15026697658357166,0.23530099018901385,0.35434860923663286,0.5482261602570411,0.6876819425699662,0.8815594935903743,0.9870016704611226,1.0754370446107826,1.1672737793046601,1.1910833031141839,1.1978860242026192,1.1978860242026192,1.1978860242026192,1.1978860242026192,1.1978860242026192,1.1978860242026192,1.1978860242026192,1.1978860242026192,1.1978860242026192,1.1978860242026192,1.1978860242026192,1.1978860242026192,1.1978860242026192,1.1978860242026192,1.1978860242026192,1.1978860242026192,1.1910833031141839,1.1910833031141839,1.1910833031141839,1.1910833031141839,1.1910833031141839,1.1910833031141839,1.1910833031141839,1.1910833031141839,1.1910833031141839,1.1910833031141839,1.1910833031141839,1.1910833031141839,1.1910833031141839,1.1910833031141839,1.1910833031141839,1.1910833031141839,1.1910833031141839,1.1910833031141839,1.1910833031141839,1.1910833031141839,1.1910833031141839,1.1910833031141839,1.180879221481531,1.177477860937313,1.1604710582162248,1.1502669765835716,1.157069697672007,1.1638724187604423,1.1638724187604423,1.1638724187604423,1.1638724187604423,1.1638724187604423,1.1638724187604423,1.1638724187604423,1.1638724187604423,1.1638724187604423,1.1638724187604423,1.1638724187604423,1.1638724187604423,1.1638724187604423,1.1638724187604423,1.1638724187604423,1.1638724187604423,1.1638724187604423,1.1638724187604423,1.1638724187604423,1.1604710582162248,1.1604710582162248,1.1604710582162248,1.1672737793046601,1.1672737793046601,1.1638724187604423,1.1536683371277894,1.1502669765835716,1.1502669765835716,1.1638724187604423,1.1740765003930955,1.245505071821667,1.330539085427109,1.4495867044747281,1.7148928269237078,1.9904030310053404,2.6740765003930953,3.187681942569966,3.4801989493726873,3.4801989493726873,3.4801989493726873,3.4801989493726873,3.4801989493726873,3.4801989493726873,3.4801989493726873,3.4801989493726873,3.4801989493726873,3.4801989493726873,3.4801989493726873,3.4801989493726873,3.4801989493726873,3.4801989493726873,3.4801989493726873,3.4801989493726873,3.4801989493726873,3.4801989493726873,3.4801989493726873,3.4801989493726873,3.4801989493726873,3.4801989493726873,3.4801989493726873,3.4801989493726873,3.4801989493726873,3.4801989493726873,3.4801989493726873,3.4801989493726873,3.4801989493726873,3.4801989493726873,3.4801989493726873,3.4801989493726873,3.4801989493726873,3.4801989493726873,3.4801989493726873,3.4801989493726873,3.4801989493726873,3.4801989493726873,3.4801989493726873,3.4801989493726873,3.4801989493726873,3.4801989493726873,3.4801989493726873,3.4801989493726873,3.4801989493726873,3.4801989493726873,3.4801989493726873,3.4801989493726873,3.4801989493726873,3.4801989493726873,3.4801989493726873,3.4801989493726873,3.4801989493726873,3.4801989493726873,3.4801989493726873,3.4801989493726873,3.4801989493726873,3.4801989493726873,3.4801989493726873,3.4801989493726873,3.4801989493726873,3.4801989493726873,3.4801989493726873,3.4801989493726873,3.4801989493726873,3.4801989493726873,3.4801989493726873,3.4801989493726873,3.4801989493726873,3.4801989493726873,3.4801989493726873,3.4801989493726873,3.4801989493726873,3.4801989493726873,3.4801989493726873,3.4801989493726873,3.4801989493726873,3.4801989493726873,3.4801989493726873,3.4801989493726873,3.4801989493726873,3.4801989493726873,3.4801989493726873,3.4801989493726873,3.4801989493726873,3.4801989493726873,3.4801989493726873,3.4801989493726873,3.201287384746837,2.7080901058352724,2.3475458881481974,1.8441445276039798,1.5992465684203063,1.429178541209422,1.3611513303250682,1.3917635752230275,1.4053690173998983,1.4053690173998983,1.4053690173998983,1.4053690173998983,1.4053690173998983,1.4053690173998983,1.4053690173998983,1.4053690173998983,1.4053690173998983,1.4053690173998983,1.4019676568556805,1.4019676568556805,1.3883622146788097,1.364552690869286,1.3475458881481974,1.3339404459713267,1.3271377248828913,1.3271377248828913,1.3271377248828913,1.3271377248828913,1.3271377248828913,1.3271377248828913,1.3271377248828913,1.3271377248828913,1.3271377248828913,1.3271377248828913,1.3271377248828913,1.3271377248828913,1.2795186772638438,1.2523077929101023,1.1910833031141839,1.1536683371277894,1.112852010597177,1.058430241889694,1.0142125548148642,0.9665935071958166,0.9393826228420751,0.9155730990325512,0.8679540514135037,0.8373418065155445,0.8305390854271091,0.8305390854271091,0.8305390854271091,0.8305390854271091,0.8305390854271091,0.8305390854271091,0.8305390854271091,0.8305390854271091,0.8305390854271091,0.8305390854271091,0.8271377248828914,0.8237363643386737,0.8101309221618029,0.7965254799849322,0.7863213983522791,0.7761173167196261,0.7761173167196261,0.7761173167196261,0.7761173167196261,0.7761173167196261,0.7761173167196261,0.7761173167196261,0.7761173167196261,0.7761173167196261,0.7761173167196261,0.7761173167196261,0.7761173167196261,0.7761173167196261,0.7659132350869731,0.7659132350869731,0.7455050718216669,0.7318996296447962,0.7284982691005785,0.7182941874679254,0.71149146637949,0.7046887452910546,0.6944846636584016,0.6740765003930955,0.6672737793046601,0.6672737793046601,0.6672737793046601,0.6672737793046601,0.6672737793046601,0.6672737793046601,0.6672737793046601,0.6672737793046601,0.6672737793046601,0.6672737793046601,0.6672737793046601,0.6672737793046601,0.6672737793046601,0.6672737793046601,0.6672737793046601,0.6570696976720071,0.6536683371277894,0.6536683371277894,0.6536683371277894,0.6570696976720071,0.6570696976720071,0.6570696976720071,0.6570696976720071,0.6570696976720071,0.6570696976720071,0.6570696976720071,0.6536683371277894,0.6400628949509186,0.6264574527740479,0.6162533711413948,0.602647928964524,0.5924438473318709,0.5720356840665649,0.5482261602570411,0.5108111942706465,0.4563894255631635,0.41897445957676893,0.3713554119577213,0.36115133032506824,0.34074316705976215,0.33394044597132677,0.33394044597132677,0.33394044597132677,0.33394044597132677,0.33394044597132677,0.33394044597132677,0.33394044597132677,0.33734180651554446,0.34414452760397984,0.34754588814819753,0.35774996978085055,0.35774996978085055,0.35774996978085055,0.35774996978085055,0.35774996978085055,0.35774996978085055,0.35434860923663286,0.35434860923663286,0.34074316705976215,0.33394044597132677,0.3135322827060206,0.30672956161758524,0.30672956161758524,0.30672956161758524,0.30672956161758524,0.30332820107336755,0.30332820107336755,0.30332820107336755,0.30332820107336755,0.30332820107336755,0.30332820107336755,0.30332820107336755,0.30332820107336755,0.30332820107336755,0.30332820107336755,0.30332820107336755,0.30332820107336755,0.30332820107336755,0.30332820107336755,0.30332820107336755,0.30332820107336755,0.30332820107336755,0.30332820107336755,0.2965254799849322,0.28972275889649685,0.28632139835227916,0.2795186772638438,0.2693145956311907,0.2693145956311907,0.2625118745427553,0.25230779291010225,0.25230779291010225,0.25230779291010225,0.25230779291010225,0.25230779291010225,0.24890643236588458,0.2421037112774492,0.23870235073323154,0.23189962964479616,0.22169554801214308,0.21149146637949004,0.20809010583527235,0.20809010583527235,0.19788602420261928,0.19448466365840159,0.18428058202574854,0.17747786093731316,0.17747786093731316,0.1672737793046601,0.16047105821622473,0.15706969767200704,0.15026697658357166,0.15026697658357166,0.15026697658357166,0.15026697658357166,0.15026697658357166,0.15026697658357166,0.15026697658357166,0.15026697658357166,0.15026697658357166,0.15026697658357166,0.15026697658357166,0.15026697658357166,0.15026697658357166,0.15026697658357166,0.15026697658357166,0.15026697658357166,0.15026697658357166,0.15026697658357166,0.15026697658357166,0.15026697658357166,0.15026697658357166,0.15026697658357166,0.15026697658357166,0.15026697658357166,0.15026697658357166,0.15026697658357166,0.15026697658357166,0.15026697658357166,0.15026697658357166,0.15026697658357166,0.15026697658357166,0.15026697658357166,0.15026697658357166,0.15026697658357166,0.15026697658357166,0.15026697658357166,0.15026697658357166,0.15026697658357166,0.15026697658357166,0.15026697658357166,0.15026697658357166,0.15366833712778935,0.15366833712778935,0.15366833712778935,0.15366833712778935,0.15366833712778935,0.15366833712778935,0.15366833712778935,0.15366833712778935,0.16387241876044242,0.17067513984887778,0.17747786093731316,0.20128738474683697,0.2182941874679254,0.2727159561754084,0.33394044597132677,0.40877037794411586,0.5142125548148642,0.5584302418896941,0.5958452078760886,0.602647928964524,0.602647928964524,0.602647928964524,0.5992465684203063,0.5924438473318709,0.5890424867876533,0.5822397656992179,0.5720356840665649,0.5618316024339118,0.5482261602570411,0.538022078624388,0.5244166364475172,0.49720575209377577,0.4801989493726873,0.46999486774003424,0.4529880650189458,0.4325799017536397,0.39856629631146284,0.3815594935903744,0.36455269086928593,0.35434860923663286,0.3509472486924152,0.3509472486924152,0.34414452760397984,0.33394044597132677,0.3169336432502383,0.30672956161758524,0.2999268405291499,0.2965254799849322,0.28972275889649685,0.2795186772638438,0.2761173167196261,0.2625118745427553,0.25911051399853763,0.25911051399853763,0.25911051399853763,0.25230779291010225,0.24890643236588458,0.24890643236588458,0.2421037112774492,0.23870235073323154,0.23530099018901385,0.22509690855636078,0.22169554801214308,0.2148928269237077,0.21149146637949004,0.20809010583527235,0.19788602420261928,0.19448466365840159,0.18768194256996623,0.17747786093731316,0.17747786093731316,0.17747786093731316,0.17067513984887778,0.17067513984887778,0.17067513984887778,0.17067513984887778,0.17067513984887778,0.1672737793046601,0.1672737793046601,0.1672737793046601,0.1672737793046601,0.1672737793046601,0.1672737793046601,0.1672737793046601,0.1672737793046601,0.1672737793046601,0.1672737793046601,0.1672737793046601,0.17067513984887778,0.17407650039309547,0.17407650039309547,0.1910833031141839,0.2148928269237077,0.2625118745427553,0.35774996978085055,0.4359812622978574,0.5108111942706465,0.6060492895087417,0.6502669765835717,0.6876819425699662,0.7046887452910546,0.7216955480121431,0.7353009901890138,0.7523077929101023,0.7795186772638437,0.8033282010733676,0.8169336432502383,0.8169336432502383,0.8169336432502383,0.8169336432502383,0.8101309221618029,0.8101309221618029,0.8101309221618029,0.8101309221618029,0.8101309221618029,0.8101309221618029,0.8101309221618029,0.8135322827060206,0.8271377248828914,0.8271377248828914,0.8271377248828914,0.820335003794456,0.8135322827060206,0.8101309221618029,0.8101309221618029,0.8135322827060206,0.8169336432502383,0.8237363643386737,0.8237363643386737,0.8237363643386737,0.8237363643386737,0.8237363643386737,0.8237363643386737,0.8237363643386737,0.8237363643386737,0.8271377248828914,0.8271377248828914,0.8271377248828914,0.8271377248828914,0.8271377248828914,0.8271377248828914,0.8271377248828914,0.8271377248828914,0.8271377248828914,0.8271377248828914,0.8271377248828914,0.8271377248828914,0.8271377248828914,0.8271377248828914,0.8271377248828914,0.8271377248828914,0.8271377248828914,0.8271377248828914,0.8271377248828914,0.8271377248828914,0.8271377248828914,0.8271377248828914,0.8271377248828914,0.8271377248828914,0.8271377248828914,0.8271377248828914,0.8271377248828914,0.8271377248828914,0.8271377248828914,0.8271377248828914,0.8271377248828914,0.8271377248828914,0.8271377248828914,0.8271377248828914,0.8237363643386737,0.8237363643386737,0.8237363643386737,0.8237363643386737,0.8237363643386737,0.820335003794456,0.820335003794456,0.820335003794456,0.820335003794456,0.820335003794456,0.820335003794456,0.820335003794456,0.8135322827060206,0.8135322827060206,0.8135322827060206,0.8135322827060206,0.8101309221618029,0.8101309221618029,0.8101309221618029,0.8101309221618029,0.8101309221618029,0.8033282010733676,0.8033282010733676,0.8033282010733676,0.8033282010733676,0.8033282010733676,0.8033282010733676,0.8033282010733676,0.7999268405291499,0.7999268405291499,0.7999268405291499,0.7999268405291499,0.7999268405291499,0.7999268405291499,0.7999268405291499,0.7999268405291499,0.7999268405291499,0.7999268405291499,0.7965254799849322,0.7965254799849322,0.7931241194407145,0.7863213983522791,0.7863213983522791,0.7727159561754084,0.7591105139985377,0.7318996296447962,0.7012873847468369,0.6570696976720071,0.5788384051550002,0.5346207180801703,0.46999486774003424,0.44618534393051046,0.4325799017536397,0.40877037794411586,0.39516493576724515,0.3713554119577213,0.36455269086928593,0.36115133032506824,0.35434860923663286,0.3509472486924152,0.35434860923663286,0.35434860923663286,0.35434860923663286,0.35434860923663286,0.35434860923663286,0.35434860923663286,0.35434860923663286,0.35434860923663286,0.3509472486924152,0.36455269086928593,0.39176357522302746,0.39516493576724515,0.38836221467880977,0.35434860923663286,0.34074316705976215,0.33394044597132677,0.33394044597132677,0.3271377248828914,0.3135322827060206,0.30332820107336755,0.30332820107336755,0.30332820107336755,0.2999268405291499,0.2965254799849322,0.28972275889649685,0.2761173167196261,0.25911051399853763,0.23530099018901385,0.20468874529105466,0.18428058202574854,0.16047105821622473,0.14686561603935397,0.14346425549513628,0.1400628949509186,0.13326017386248323,0.12305609222983016,0.12645745277404785,0.15026697658357166,0.20809010583527235,0.2999268405291499,0.5040084731822111,0.646865616039354,0.7795186772638437,0.9223758201209866,0.9801989493726873,1.0346207180801703,1.0448247997128233,1.0448247997128233,1.0516275208012587,1.0550288813454765,1.0550288813454765,1.0618316024339118,1.0652329629781294,1.0754370446107826,1.0754370446107826,1.0720356840665648,1.0618316024339118,1.0448247997128233,1.0244166364475173,1.0142125548148642,1.0040084731822112,1.0040084731822112,1.0040084731822112,1.0040084731822112,1.0040084731822112,1.0040084731822112,1.0040084731822112,1.0040084731822112,0.9972057520937757,0.9972057520937757,0.9972057520937757,0.9972057520937757,0.9972057520937757,0.9972057520937757,0.9972057520937757,0.9972057520937757,0.9972057520937757,0.9972057520937757,0.9972057520937757,0.9972057520937757,0.9972057520937757,0.9972057520937757,0.9972057520937757,0.9870016704611226,0.9767975888284696,0.9495867044747281,0.8951649357672451,0.8407431670597622,0.7591105139985377,0.7012873847468369,0.646865616039354,0.5788384051550002,0.5482261602570411,0.5278179969917349,0.5176139153590819,0.5108111942706465,0.4904030310053404,0.4870016704611227,0.483600309916905,0.483600309916905,0.4801989493726873,0.4801989493726873,0.4801989493726873,0.483600309916905,0.4938043915495581,0.5142125548148642,0.5482261602570411,0.5788384051550002,0.6230560922298302,0.6570696976720071,0.6774778609373131,0.7046887452910546,0.71149146637949,0.71149146637949,0.71149146637949,0.71149146637949,0.71149146637949,0.7080901058352723,0.7046887452910546,0.7012873847468369,0.6944846636584016,0.6910833031141839,0.6842805820257485,0.6740765003930955,0.6740765003930955,0.6740765003930955,0.6740765003930955,0.6740765003930955,0.6740765003930955,0.6672737793046601,0.6536683371277894,0.6196547316856125,0.5822397656992179,0.5006071126379934,0.4325799017536397,0.35434860923663286,0.2421037112774492,0.19448466365840159,0.1672737793046601,0.1672737793046601,0.1672737793046601,0.17407650039309547,0.17747786093731316,0.18768194256996623,0.19788602420261928,0.2148928269237077,0.2455050718216669,0.2727159561754084,0.31013092216180294,0.33394044597132677,0.36455269086928593,0.3849608541345921,0.39516493576724515,0.40877037794411586,0.429178541209422,0.46319214665159886,0.5584302418896941,0.6502669765835717,0.8135322827060206,0.9053690173998982,0.9801989493726873,1.0448247997128233,1.0516275208012587,1.0516275208012587,1.0516275208012587,1.048226160257041,1.048226160257041,1.048226160257041,1.048226160257041,1.048226160257041,1.0550288813454765,1.0652329629781294,1.0720356840665648,1.082239765699218,1.092443847331871,1.0992465684203063,1.1026479289645241,1.1026479289645241,1.1060492895087417,1.1094506500529595,1.116253371141395,1.1196547316856125,1.1196547316856125,1.1196547316856125,1.1196547316856125,1.1196547316856125,1.1196547316856125,1.1196547316856125,1.1196547316856125,1.1196547316856125,1.1196547316856125,1.1196547316856125,1.1196547316856125,1.1196547316856125,1.1196547316856125,1.1196547316856125,1.1196547316856125,1.1196547316856125,1.1196547316856125,1.1196547316856125,1.1196547316856125,1.1196547316856125,1.1196547316856125,1.1196547316856125,1.1196547316856125,1.1264574527740479,1.1536683371277894,1.1740765003930955,1.2216955480121432,1.2489064323658845,1.2863213983522792,1.3271377248828913,1.3509472486924152,1.364552690869286,1.3679540514135036,1.3611513303250682,1.3237363643386737,1.2693145956311906,1.1876819425699663,0.9870016704611226,0.8271377248828914,0.5516275208012588,0.3815594935903744,0.23530099018901385,0.05502888134547642,-0.03340649280418344,-0.13544730913071407,-0.19327043838241473,-0.2851071730762923,-0.31912077851846915,-0.3463316628722107,-0.3463316628722107,-0.3463316628722107,-0.3463316628722107,-0.3463316628722107,-0.3463316628722107,-0.3463316628722107,-0.3463316628722107,-0.342930302327993,-0.3361275812395576,-0.3327262206953399,-0.32592349960690453,-0.32252213906268684,-0.3089166968858161,-0.26810037035520384,-0.2306854043688093,-0.16265819348445554,-0.11503914586540794,-0.070821458790578,0.007409833726428804,0.05502888134547642,0.11625337114139479,0.15366833712778935,0.18087922148153085,0.20809010583527235,0.20809010583527235,0.20809010583527235,0.20809010583527235,0.20809010583527235,0.20809010583527235,0.20809010583527235,0.20809010583527235,0.20809010583527235,0.20809010583527235,0.20809010583527235,0.20809010583527235,0.20809010583527235,0.20809010583527235,0.20809010583527235,0.2182941874679254,0.22509690855636078,0.23870235073323154,0.2455050718216669,0.2625118745427553,0.2727159561754084,0.2795186772638438,0.29312411944071454,0.2999268405291499,0.3169336432502383,0.3305390854271091,0.34414452760397984,0.36455269086928593,0.36455269086928593,0.374756772501939,0.39516493576724515,0.40877037794411586,0.44618534393051046,0.46659350719581655,0.4938043915495581,0.5312193575359526,0.5482261602570411,0.5788384051550002,0.602647928964524,0.6128520105971771,0.6298588133182655,0.6400628949509186,0.6400628949509186,0.646865616039354,0.646865616039354,0.646865616039354,0.646865616039354,0.646865616039354,0.646865616039354,0.646865616039354,0.646865616039354,0.646865616039354,0.646865616039354,0.646865616039354,0.6502669765835717,0.6672737793046601,0.6740765003930955,0.6876819425699662,0.6978860242026192,0.7046887452910546,0.7318996296447962],"y":[-3.3134920634920637,-3.3134920634920637,-3.3134920634920637,-3.3134920634920637,-3.3134920634920637,-3.3134920634920637,-3.3134920634920637,-3.3134920634920637,-3.3134920634920637,-3.3134920634920637,-3.3134920634920637,-3.3134920634920637,-3.3134920634920637,-3.3134920634920637,-3.3134920634920637,-3.3134920634920637,-3.3134920634920637,-3.3134920634920637,-3.3134920634920637,-3.3134920634920637,-3.3134920634920637,-3.3134920634920637,-3.3134920634920637,-3.3134920634920637,-3.3134920634920637,-3.3134920634920637,1.1824002704923113,1.1728764609685018,1.1443050323970732,1.0776383657304065,1.0204955085875493,0.868114556206597,0.7633526514446923,0.6109716990637399,0.449066937158978,0.4014478895399304,0.4109716990637399,0.4109716990637399,0.4109716990637399,0.4109716990637399,0.4109716990637399,0.4109716990637399,0.4109716990637399,0.4109716990637399,0.4109716990637399,0.4109716990637399,0.4109716990637399,0.43001931811135896,0.43001931811135896,0.4966859847780256,0.5347812228732637,0.5443050323970733,0.5728764609685018,0.5728764609685018,0.5252574133494542,0.45859074668278754,0.45859074668278754,0.45859074668278754,0.45859074668278754,0.45859074668278754,0.45859074668278754,0.45859074668278754,0.45859074668278754,0.45859074668278754,0.45859074668278754,0.45859074668278754,0.45859074668278754,0.45859074668278754,0.45859074668278754,0.45859074668278754,0.45859074668278754,0.45859074668278754,0.45859074668278754,0.45859074668278754,0.45859074668278754,0.45859074668278754,0.45859074668278754,0.45859074668278754,0.45859074668278754,0.45859074668278754,0.45859074668278754,0.45859074668278754,0.45859074668278754,0.45859074668278754,0.45859074668278754,0.45859074668278754,0.45859074668278754,0.45859074668278754,0.45859074668278754,0.45859074668278754,0.45859074668278754,0.45859074668278754,0.45859074668278754,0.45859074668278754,0.45859074668278754,0.45859074668278754,0.45859074668278754,0.45859074668278754,0.45859074668278754,0.45859074668278754,0.45859074668278754,0.45859074668278754,0.45859074668278754,0.45859074668278754,0.45859074668278754,0.45859074668278754,0.45859074668278754,0.45859074668278754,0.45859074668278754,0.45859074668278754,0.45859074668278754,0.45859074668278754,0.45859074668278754,0.45859074668278754,0.45859074668278754,0.45859074668278754,0.45859074668278754,0.45859074668278754,0.45859074668278754,0.45859074668278754,0.45859074668278754,0.45859074668278754,0.45859074668278754,0.45859074668278754,0.45859074668278754,0.45859074668278754,0.45859074668278754,0.45859074668278754,0.45859074668278754,0.45859074668278754,0.45859074668278754,0.45859074668278754,0.45859074668278754,0.45859074668278754,-2.093790205698165,-2.169980681888641,-2.217599729507689,-2.217599729507689,-2.217599729507689,-2.217599729507689,-2.217599729507689,-2.217599729507689,-2.217599729507689,-2.217599729507689,-2.217599729507689,-2.217599729507689,-2.217599729507689,-2.217599729507689,-2.2271235390314983,-2.2747425866505457,-2.2747425866505457,-2.350933062841022,-2.350933062841022,-2.3414092533172126,-2.3223616342695936,-2.2937902056981647,-2.2937902056981647,-2.2652187771267362,-2.2461711580791173,-2.217599729507689,-2.18902830093626,-2.1604568723648314,-2.093790205698165,-2.0366473485553076,-1.9890283009362602,-1.950933062841022,-1.9223616342695935,-1.8747425866505458,-1.8366473485553076,-1.8366473485553076,-1.8366473485553076,-1.8366473485553076,-1.7795044914124505,-1.750933062841022,-1.6937902056981649,-1.6556949676029267,-1.6271235390314982,-1.550933062841022,-1.5414092533172126,-1.5414092533172126,-1.5414092533172126,-1.5414092533172126,-1.5414092533172126,-1.5414092533172126,-1.5414092533172126,-1.5414092533172126,-1.5414092533172126,-1.5414092533172126,-1.5414092533172126,-1.5414092533172126,-1.5414092533172126,-1.5414092533172126,-1.5414092533172126,-1.5414092533172126,-1.5414092533172126,-1.5414092533172126,-1.5414092533172126,-1.5414092533172126,-1.5414092533172126,-1.5414092533172126,-1.5414092533172126,-1.5414092533172126,-1.5414092533172126,-1.5414092533172126,-1.5414092533172126,-1.5414092533172126,-1.5414092533172126,-1.5414092533172126,-1.5414092533172126,-1.7985521104600697,-1.731885443793403,-1.7033140152219743,-1.6937902056981649,-1.6937902056981649,-1.7128378247457838,-1.7795044914124505,-1.8556949676029268,-1.8937902056981648,-1.8937902056981648,-1.8937902056981648,-1.8937902056981648,-1.8937902056981648,-1.8937902056981648,-1.8937902056981648,-1.8937902056981648,-1.8937902056981648,-1.912837824745784,-1.912837824745784,-1.9033140152219743,-1.8556949676029268,-1.8366473485553076,-1.8271235390314982,-1.750933062841022,-1.7223616342695935,-1.6461711580791172,-1.58902830093626,-1.550933062841022,-1.5128378247457839,-1.493790205698165,-1.493790205698165,-1.493790205698165,-1.493790205698165,-1.474742586650546,-1.474742586650546,-1.4652187771267362,-1.4652187771267362,-1.4652187771267362,-1.4652187771267362,-1.4652187771267362,-1.4652187771267362,-1.4652187771267362,-1.4652187771267362,-1.4652187771267362,-1.4652187771267362,-1.4652187771267362,-1.4652187771267362,-1.4652187771267362,-1.4652187771267362,-1.4652187771267362,-1.4652187771267362,-1.4652187771267362,-1.4652187771267362,-1.4461711580791172,-1.4461711580791172,-1.4175997295076888,-1.408075919983879,-1.3985521104600696,-1.369980681888641,-1.3414092533172124,-1.3223616342695934,-1.293790205698165,-1.2556949676029268,-1.2175997295076886,-1.1795044914124506,-1.131885443793403,-1.1033140152219745,-1.0842663961743553,-1.0556949676029268,-1.0556949676029268,-1.0556949676029268,-1.0556949676029268,-1.0652187771267363,-1.0652187771267363,-1.0842663961743553,-1.112837824745784,-1.1414092533172124,-1.1985521104600696,-1.2461711580791173,-1.2747425866505457,-1.293790205698165,-1.2842663961743552,-1.2366473485553078,-1.1795044914124506,-1.1414092533172124,-1.131885443793403,-1.0842663961743553,-1.0556949676029268,-1.0366473485553078,-1.0366473485553078,-1.0366473485553078,-1.0366473485553078,-1.0366473485553078,-1.0366473485553078,-1.0366473485553078,-1.0366473485553078,-1.0366473485553078,-1.0366473485553078,-1.0366473485553078,-1.0366473485553078,-1.0366473485553078,-1.0366473485553078,-1.0366473485553078,-1.0366473485553078,-1.0366473485553078,-1.0366473485553078,-1.0366473485553078,-1.0366473485553078,-1.0366473485553078,-1.0366473485553078,-1.0366473485553078,-1.0366473485553078,-1.0366473485553078,-1.0366473485553078,-1.0366473485553078,-1.0366473485553078,-1.0366473485553078,-1.0366473485553078,-1.0366473485553078,-1.0366473485553078,-1.0366473485553078,-1.0366473485553078,-1.0366473485553078,-1.0366473485553078,-1.0366473485553078,-1.0366473485553078,-1.0366473485553078,-1.0366473485553078,-1.0366473485553078,-1.0366473485553078,-1.0366473485553078,-1.0366473485553078,-1.0366473485553078,-1.0366473485553078,-1.0366473485553078,-1.0366473485553078,-1.0366473485553078,-1.0366473485553078,-1.0366473485553078,-1.0366473485553078,-1.0366473485553078,-1.0366473485553078,-1.0366473485553078,-1.0366473485553078,-1.0366473485553078,-1.0366473485553078,-1.0366473485553078,-1.0366473485553078,-1.0366473485553078,-1.0366473485553078,-1.0366473485553078,-1.0366473485553078,-1.0366473485553078,-1.0366473485553078,-1.0366473485553078,-1.0366473485553078,-1.0366473485553078,-1.0366473485553078,-1.0366473485553078,-1.0366473485553078,-1.0366473485553078,-1.0366473485553078,-1.0366473485553078,-1.0366473485553078,-1.0366473485553078,-1.0366473485553078,-1.0366473485553078,-1.0366473485553078,-1.0366473485553078,-1.0366473485553078,-1.0366473485553078,-1.0366473485553078,-1.0366473485553078,-1.0366473485553078,-1.0366473485553078,-1.0366473485553078,-1.0366473485553078,-1.0366473485553078,-1.0366473485553078,-1.0366473485553078,-1.0366473485553078,-1.0366473485553078,-1.0366473485553078,-1.0366473485553078,-1.0366473485553078,-1.0366473485553078,-1.0366473485553078,-1.0366473485553078,-1.0366473485553078,-1.0366473485553078,-1.0366473485553078,-1.0366473485553078,-1.0366473485553078,-1.0366473485553078,-1.0366473485553078,-1.0366473485553078,-1.0366473485553078,-1.0366473485553078,-1.0366473485553078,-1.0366473485553078,-1.0366473485553078,-1.0366473485553078,-1.0366473485553078,-1.0366473485553078,-1.0271235390314981,-0.9985521104600696,-0.9604568723648316,-0.950933062841022,-0.9223616342695934,-0.8937902056981648,-0.8937902056981648,-0.8937902056981648,-0.8937902056981648,-0.8937902056981648,-0.8937902056981648,-0.8937902056981648,-0.8937902056981648,-0.8937902056981648,-0.8937902056981648,-0.8937902056981648,-0.8937902056981648,-0.8937902056981648,-0.8937902056981648,-0.8937902056981648,-0.8937902056981648,-0.8937902056981648,-0.8937902056981648,-0.8937902056981648,-0.8937902056981648,-0.8937902056981648,-0.8937902056981648,-0.8937902056981648,-0.8937902056981648,-0.8937902056981648,-0.8937902056981648,-0.8937902056981648,-0.8937902056981648,-0.8937902056981648,-0.8937902056981648,-0.8937902056981648,-0.8937902056981648,-0.8937902056981648,-0.8937902056981648,-0.8937902056981648,-0.8937902056981648,-0.8937902056981648,-0.8937902056981648,-0.8937902056981648,-0.8937902056981648,-0.8937902056981648,-0.8937902056981648,-0.8937902056981648,-0.9033140152219744,-0.9128378247457839,-0.9128378247457839,-0.9128378247457839,-0.9033140152219744,-0.8937902056981648,-0.8842663961743553,-0.8556949676029267,-0.8175997295076887,-0.7985521104600696,-0.7985521104600696,-0.7985521104600696,-0.7985521104600696,-0.8271235390314982,-0.8652187771267363,-0.8842663961743553,-0.931885443793403,-0.9604568723648316,-0.9795044914124506,-1.0366473485553078,-1.0556949676029268,-1.0937902056981648,-1.112837824745784,-1.112837824745784,-1.1223616342695935,-1.1223616342695935,-1.1223616342695935,-1.1223616342695935,-1.1223616342695935,-1.1223616342695935,-1.1223616342695935,-1.1223616342695935,-1.1223616342695935,-1.112837824745784,-1.112837824745784,-1.112837824745784,-1.1414092533172124,-1.18902830093626,-1.1985521104600696,-1.2175997295076886,-1.2175997295076886,-1.2175997295076886,-1.2175997295076886,-1.2175997295076886,-1.2175997295076886,-1.2175997295076886,-1.2175997295076886,-1.2175997295076886,-1.2175997295076886,-1.2175997295076886,-1.2175997295076886,-1.2175997295076886,-1.2175997295076886,-1.2175997295076886,-1.2175997295076886,-1.2175997295076886,-1.2175997295076886,-1.2175997295076886,-1.2175997295076886,-1.2175997295076886,-1.2175997295076886,-1.2175997295076886,-1.2175997295076886,-1.2175997295076886,-1.2175997295076886,-1.2175997295076886,-1.2175997295076886,-1.2175997295076886,-1.2175997295076886,-1.2175997295076886,-1.2175997295076886,-1.2175997295076886,-1.2175997295076886,-1.2175997295076886,-1.2175997295076886,-1.2175997295076886,-1.2175997295076886,-1.2175997295076886,-1.2175997295076886,-1.2175997295076886,-1.2175997295076886,-1.2175997295076886,-1.2175997295076886,-1.2175997295076886,-1.2175997295076886,-1.2175997295076886,-1.2175997295076886,-1.2175997295076886,-1.2175997295076886,-1.2175997295076886,-1.2175997295076886,-1.2175997295076886,-1.2175997295076886,-1.2175997295076886,-1.2175997295076886,-1.2175997295076886,-1.2175997295076886,-1.2175997295076886,-1.2175997295076886,-1.2175997295076886,-1.2175997295076886,-1.2175997295076886,-1.2175997295076886,-1.2175997295076886,-1.2175997295076886,-1.2175997295076886,-1.2175997295076886,-1.2175997295076886,-1.2175997295076886,-1.2175997295076886,-1.2175997295076886,-1.2175997295076886,-1.2175997295076886,-1.2175997295076886,-1.2175997295076886,-1.2175997295076886,-1.2175997295076886,-1.2175997295076886,-1.2175997295076886,-1.2175997295076886,-1.2175997295076886,-1.2175997295076886,-1.1414092533172124,-1.0366473485553078,-0.950933062841022,-0.750933062841022,-0.6747425866505458,-0.5414092533172125,-0.4652187771267363,-0.3795044914124506,-0.2271235390314982,-0.16045687236483153,-0.10331401522197439,-0.10331401522197439,-0.13188544379340295,-0.1414092533172125,-0.1414092533172125,-0.1414092533172125,-0.13188544379340295,-0.10331401522197439,-0.046171158079117244,-0.017599729507688674,-0.017599729507688674,-0.00807591998387915,-0.00807591998387915,-0.00807591998387915,-0.00807591998387915,-0.00807591998387915,-0.017599729507688674,-0.027123539031498195,-0.03664734855530772,-0.05569496760292677,-0.05569496760292677,-0.0652187771267363,-0.0652187771267363,-0.0652187771267363,-0.0652187771267363,-0.0652187771267363,-0.0652187771267363,-0.0652187771267363,-0.0652187771267363,-0.0652187771267363,-0.0652187771267363,-0.0652187771267363,-0.0652187771267363,-0.0652187771267363,-0.0652187771267363,-0.0652187771267363,-0.0652187771267363,-0.0652187771267363,-0.0652187771267363,-0.0652187771267363,-0.0652187771267363,-0.0652187771267363,-0.0652187771267363,-0.08426639617435534,-0.10331401522197439,-0.1414092533172125,-0.1890283009362601,-0.21759972950768866,-0.3128378247457839,-0.369980681888641,-0.45569496760292677,-0.49379020569816484,-0.5414092533172125,-0.5795044914124505,-0.5985521104600696,-0.6080759199838791,-0.6271235390314982,-0.6271235390314982,-0.6271235390314982,-0.6271235390314982,-0.6271235390314982,-0.6271235390314982,-0.6271235390314982,-0.6271235390314982,-0.6271235390314982,-0.6271235390314982,-0.6271235390314982,-0.6271235390314982,-0.6271235390314982,-0.6271235390314982,-0.6271235390314982,-0.6271235390314982,-0.6271235390314982,-0.6271235390314982,-0.6271235390314982,-0.6271235390314982,-0.6271235390314982,-0.6271235390314982,-0.6271235390314982,-0.5604568723648315,-0.48426639617435535,-0.43664734855530773,-0.3890283009362601,-0.33188544379340296,-0.3033140152219744,-0.3033140152219744,-0.3128378247457839,-0.3223616342695934,-0.3985521104600696,-0.4747425866505458,-0.6080759199838791,-0.6556949676029268,-0.6842663961743554,-0.6842663961743554,-0.6842663961743554,-0.6842663961743554,-0.7033140152219743,-0.7223616342695934,-0.7604568723648315,-0.7795044914124506,-0.7985521104600696,-0.8080759199838792,-0.8080759199838792,-0.8080759199838792,-0.8271235390314982,-0.8271235390314982,-0.8366473485553078,-0.8366473485553078,-0.8366473485553078,-0.8366473485553078,-0.8366473485553078,-0.8366473485553078,-0.8366473485553078,-0.8366473485553078,-0.8366473485553078,-0.8366473485553078,-0.8366473485553078,-0.8366473485553078,-0.8366473485553078,-0.8366473485553078,-0.8366473485553078,-0.7985521104600696,-0.750933062841022,-0.6652187771267363,-0.6366473485553077,-0.6175997295076887,-0.569980681888641,-0.5414092533172125,-0.49379020569816484,-0.4652187771267363,-0.4461711580791172,-0.43664734855530773,-0.43664734855530773,-0.4175997295076887,-0.3890283009362601,-0.3795044914124506,-0.3795044914124506,-0.3795044914124506,-0.3795044914124506,-0.4175997295076887,-0.49379020569816484,-0.6461711580791173,-0.6461711580791173,-0.6461711580791173,-0.6461711580791173,-0.6461711580791173,-0.6461711580791173,-0.6461711580791173,-0.6461711580791173,-0.6461711580791173,-0.6461711580791173,-0.6461711580791173,-0.6461711580791173,-0.6461711580791173,-0.6461711580791173,-0.6461711580791173,-0.6461711580791173,-0.6461711580791173,-0.6461711580791173,-0.6461711580791173,-0.6461711580791173,-0.6461711580791173,-0.6461711580791173,-0.6461711580791173,-0.6461711580791173,-0.6366473485553077,-0.6366473485553077,-0.6366473485553077,-0.6556949676029268,-0.7033140152219743,-0.7223616342695934,-0.7604568723648315,-0.7795044914124506,-0.7890283009362601,-0.7890283009362601,-0.7699806818886411,-0.7033140152219743,-0.6652187771267363,-0.6271235390314982,-0.5985521104600696,-0.5604568723648315,-0.5414092533172125,-0.5414092533172125,-0.5414092533172125,-0.5414092533172125,-0.5414092533172125,-0.5414092533172125,-0.5414092533172125,-0.5414092533172125,-0.5414092533172125,-0.5414092533172125,-0.5414092533172125,-0.5223616342695935,-0.5128378247457839,-0.49379020569816484,-0.48426639617435535,-0.5033140152219744,-0.531885443793403,-0.5414092533172125,-0.5414092533172125,-0.5414092533172125,-0.5414092533172125,-0.5414092533172125,-0.5414092533172125,-0.49379020569816484,-0.4652187771267363,-0.45569496760292677,-0.45569496760292677,-0.45569496760292677,-0.45569496760292677,-0.45569496760292677,-0.45569496760292677,-0.45569496760292677,-0.45569496760292677,-0.45569496760292677,-0.45569496760292677,-0.45569496760292677,-0.45569496760292677,-0.45569496760292677,-0.45569496760292677,-0.45569496760292677,-0.4652187771267363,-0.4652187771267363,-0.4747425866505458,-0.5033140152219744,-0.531885443793403,-0.5509330628410221,-0.5509330628410221,-0.5509330628410221,-0.5509330628410221,-0.5414092533172125,-0.45569496760292677,-0.40807591998387915,-0.36045687236483154,-0.36045687236483154,-0.36045687236483154,-0.36045687236483154,-0.36045687236483154,-0.33188544379340296,-0.3033140152219744,-0.350933062841022,-0.369980681888641,-0.369980681888641,-0.369980681888641,-0.369980681888641,-0.369980681888641,-0.369980681888641,-0.369980681888641,-0.369980681888641,-0.369980681888641,-0.369980681888641,-0.369980681888641,-0.369980681888641,-0.369980681888641,-0.369980681888641,-0.369980681888641,-0.369980681888641,-0.369980681888641,-0.369980681888641,-0.369980681888641,-0.369980681888641,-0.369980681888641,-0.369980681888641,-0.3985521104600696,-0.4175997295076887,-0.4271235390314982,-0.4461711580791172,-0.4461711580791172,-0.4461711580791172,-0.4461711580791172,-0.45569496760292677,-0.4652187771267363,-0.4747425866505458,-0.49379020569816484,-0.5033140152219744,-0.5033140152219744,-0.5223616342695935,-0.5414092533172125,-0.569980681888641,-0.6271235390314982,-0.6842663961743554,-0.7128378247457839,-0.7223616342695934,-0.7318854437934029,-0.750933062841022,-0.750933062841022,-0.750933062841022,-0.750933062841022,-0.750933062841022,-0.6271235390314982,-0.4461711580791172,-0.28426639617435534,-0.25569496760292676,-0.2747425866505458,-0.3890283009362601,-0.4271235390314982,-0.4271235390314982,-0.4271235390314982,-0.4747425866505458,-0.4747425866505458,-0.4747425866505458,-0.4747425866505458,-0.4747425866505458,-0.4747425866505458,-0.4747425866505458,-0.4747425866505458,-0.4747425866505458,-0.4747425866505458,-0.49379020569816484,-0.45569496760292677,-0.40807591998387915,-0.28426639617435534,-0.1795044914124506,-0.07474258665054581,0.10620979430183514,0.2109716990637399,0.3252574133494542,0.38240027049231134,0.4109716990637399,0.4109716990637399,0.4109716990637399,0.4109716990637399,0.38240027049231134,0.3728764609685018,0.3252574133494542,0.2966859847780256,0.24906693715897799,0.23954312763516847,0.22049550858754943,0.19192408001612085,0.17287646096850182,0.15382884192088275,0.14430503239707324,0.14430503239707324,0.14430503239707324,0.14430503239707324,0.12525741334945417,0.11573360382564465,0.08716217525421609,0.049066937158977995,0.02049550858754942,0.02049550858754942,0.02049550858754942,0.02049550858754942,0.02049550858754942,0.02049550858754942,0.02049550858754942,0.02049550858754942,0.02049550858754942,0.02049550858754942,0.02049550858754942,0.02049550858754942,0.02049550858754942,0.02049550858754942,0.02049550858754942,0.02049550858754942,0.02049550858754942,0.02049550858754942,0.02049550858754942,0.02049550858754942,0.02049550858754942,0.02049550858754942,0.02049550858754942,0.02049550858754942,0.02049550858754942,0.02049550858754942,0.02049550858754942,0.02049550858754942,0.02049550858754942,0.02049550858754942,0.030019318111358946,0.05859074668278752,0.06811455620659704,0.07763836573040657,0.13478122287326372,0.17287646096850182,0.24906693715897799,0.27763836573040657,0.30620979430183515,0.31573360382564464,0.31573360382564464,0.31573360382564464,0.31573360382564464,0.31573360382564464,0.31573360382564464,0.31573360382564464,0.31573360382564464,0.31573360382564464,0.31573360382564464,0.31573360382564464,0.31573360382564464,0.31573360382564464,0.31573360382564464,0.31573360382564464,0.31573360382564464,0.30620979430183515,0.30620979430183515,0.30620979430183515,0.30620979430183515,0.24906693715897799,0.23954312763516847,0.23954312763516847,0.23954312763516847,0.23954312763516847,0.23954312763516847,0.23954312763516847,0.23954312763516847,0.23954312763516847,0.23954312763516847,0.23954312763516847,0.23954312763516847,0.23954312763516847,0.22049550858754943,0.20144788953993037,0.2109716990637399,0.2109716990637399,0.2109716990637399,0.20144788953993037,0.20144788953993037,0.20144788953993037,0.19192408001612085,0.19192408001612085,0.19192408001612085,0.19192408001612085,0.19192408001612085,0.19192408001612085,0.19192408001612085,0.19192408001612085,0.19192408001612085,0.19192408001612085,0.19192408001612085,0.17287646096850182,0.17287646096850182,0.17287646096850182,0.17287646096850182,0.17287646096850182,0.16335265144469227,0.14430503239707324,0.11573360382564465,0.09668598477802562,0.09668598477802562,0.08716217525421609,0.08716217525421609,0.08716217525421609,0.08716217525421609,0.08716217525421609,0.08716217525421609,0.08716217525421609,0.08716217525421609,0.08716217525421609,0.09668598477802562,0.10620979430183514,0.10620979430183514,0.10620979430183514,0.10620979430183514,0.10620979430183514,0.10620979430183514,0.10620979430183514,0.10620979430183514,0.10620979430183514,0.10620979430183514,0.10620979430183514,0.10620979430183514,0.10620979430183514,0.10620979430183514,0.10620979430183514,0.10620979430183514,0.10620979430183514,0.10620979430183514,0.10620979430183514,0.10620979430183514,0.10620979430183514,0.09668598477802562,0.09668598477802562,0.08716217525421609,0.06811455620659704,0.06811455620659704,0.06811455620659704,0.06811455620659704,0.06811455620659704,0.06811455620659704,0.06811455620659704,0.06811455620659704,0.06811455620659704,0.06811455620659704,0.06811455620659704,0.06811455620659704,0.06811455620659704,0.06811455620659704,0.06811455620659704,0.06811455620659704,0.06811455620659704,0.06811455620659704,0.07763836573040657,0.07763836573040657,0.09668598477802562,0.09668598477802562,0.12525741334945417,0.13478122287326372,0.15382884192088275,0.20144788953993037,0.23001931811135895,0.27763836573040657,0.31573360382564464,0.35382884192088276,0.39192408001612083,0.4109716990637399,0.43954312763516845,0.45859074668278754,0.46811455620659703,0.48716217525421607,0.48716217525421607,0.48716217525421607,0.48716217525421607,0.4966859847780256,0.4966859847780256,0.4966859847780256,0.48716217525421607,0.45859074668278754,0.43001931811135896,0.4014478895399304,0.4014478895399304,0.4014478895399304,0.4014478895399304,0.4014478895399304,0.4014478895399304,0.4014478895399304,0.4014478895399304,0.4109716990637399,0.43001931811135896,0.45859074668278754,0.46811455620659703,0.48716217525421607,0.48716217525421607,0.4966859847780256,0.4966859847780256,0.48716217525421607,0.43001931811135896,0.38240027049231134,0.35382884192088276,0.3252574133494542,0.2966859847780256,0.23954312763516847,0.22049550858754943,0.17287646096850182,0.14430503239707324,0.12525741334945417,0.09668598477802562,0.08716217525421609,0.06811455620659704,0.03954312763516847,0.03954312763516847,0.010971699063739898,0.010971699063739898,0.010971699063739898,0.010971699063739898,0.010971699063739898,0.010971699063739898,0.010971699063739898,0.010971699063739898,0.010971699063739898,0.010971699063739898,0.010971699063739898,0.010971699063739898,0.010971699063739898,0.010971699063739898,0.010971699063739898,0.010971699063739898,0.010971699063739898,0.010971699063739898,0.010971699063739898,0.010971699063739898,0.010971699063739898,0.010971699063739898,0.010971699063739898,0.010971699063739898,0.010971699063739898,0.010971699063739898,0.010971699063739898,0.010971699063739898,0.010971699063739898,0.010971699063739898,0.010971699063739898,0.010971699063739898,0.010971699063739898,0.010971699063739898,0.010971699063739898,0.010971699063739898,0.010971699063739898,0.010971699063739898,0.010971699063739898,0.010971699063739898,0.010971699063739898,0.010971699063739898,0.010971699063739898,0.010971699063739898,0.010971699063739898,0.02049550858754942,0.049066937158977995,0.07763836573040657,0.15382884192088275,0.17287646096850182,0.2109716990637399,0.23001931811135895,0.24906693715897799,0.24906693715897799,0.24906693715897799,0.24906693715897799,0.24906693715897799,0.24906693715897799,0.24906693715897799,0.24906693715897799,0.24906693715897799,0.24906693715897799,0.24906693715897799,0.24906693715897799,0.24906693715897799,0.24906693715897799,0.24906693715897799,0.24906693715897799,0.24906693715897799,0.24906693715897799,0.24906693715897799,0.24906693715897799,0.24906693715897799,0.24906693715897799,0.24906693715897799,0.24906693715897799,0.24906693715897799,0.24906693715897799,0.24906693715897799,0.24906693715897799,0.24906693715897799,0.24906693715897799,0.24906693715897799,0.24906693715897799,0.24906693715897799,0.24906693715897799,0.24906693715897799,0.24906693715897799,0.24906693715897799,0.24906693715897799,0.24906693715897799,0.24906693715897799,0.24906693715897799,0.24906693715897799,0.25859074668278753,0.2871621752542161,0.30620979430183515,0.2966859847780256,0.23001931811135895,0.23001931811135895,0.23954312763516847,0.23954312763516847,0.23954312763516847,0.23954312763516847,0.23954312763516847,0.23954312763516847,0.23954312763516847,0.23954312763516847,0.23954312763516847,0.23954312763516847,0.23954312763516847,0.23954312763516847,0.23954312763516847,0.23954312763516847,0.23954312763516847,0.23954312763516847,0.23954312763516847,0.23954312763516847,0.23954312763516847,0.23954312763516847,0.22049550858754943,0.22049550858754943,0.22049550858754943,0.22049550858754943,0.20144788953993037,0.19192408001612085,0.16335265144469227,0.16335265144469227,0.16335265144469227,0.17287646096850182,0.17287646096850182,0.16335265144469227,0.12525741334945417,0.06811455620659704,0.02049550858754942,-0.027123539031498195,-0.027123539031498195,-0.027123539031498195,-0.027123539031498195,-0.027123539031498195,-0.027123539031498195,-0.027123539031498195,-0.027123539031498195,-0.027123539031498195,-0.027123539031498195,-0.027123539031498195,-0.027123539031498195,-0.027123539031498195,-0.027123539031498195,-0.027123539031498195,-0.027123539031498195,-0.027123539031498195,-0.027123539031498195,-0.027123539031498195,-0.027123539031498195,-0.027123539031498195,-0.027123539031498195,-0.027123539031498195,-0.027123539031498195,-0.027123539031498195,-0.027123539031498195,-0.027123539031498195,-0.027123539031498195,-0.027123539031498195,-0.027123539031498195,-0.027123539031498195,-0.027123539031498195,-0.027123539031498195,-0.027123539031498195,-0.027123539031498195,-0.027123539031498195,-0.027123539031498195,-0.027123539031498195,-0.027123539031498195,-0.027123539031498195,-0.027123539031498195,-0.027123539031498195,-0.027123539031498195,-0.027123539031498195,-0.027123539031498195,-0.027123539031498195,-0.027123539031498195,-0.027123539031498195,-0.027123539031498195,-0.027123539031498195,-0.027123539031498195,-0.027123539031498195,-0.027123539031498195,-0.027123539031498195,-0.027123539031498195,-0.027123539031498195,-0.027123539031498195,-0.027123539031498195,-0.027123539031498195,-0.027123539031498195,-0.027123539031498195,-0.027123539031498195,-0.027123539031498195,-0.027123539031498195,-0.027123539031498195,-0.027123539031498195,-0.027123539031498195,-0.027123539031498195,-0.027123539031498195,-0.027123539031498195,-0.027123539031498195,-0.027123539031498195,-0.027123539031498195,-0.027123539031498195,-0.027123539031498195,-0.027123539031498195,-0.027123539031498195,-0.027123539031498195,-0.027123539031498195,-0.027123539031498195,-0.027123539031498195,-0.027123539031498195,-0.027123539031498195,-0.027123539031498195,-0.027123539031498195,-0.027123539031498195,-0.027123539031498195,-1.6937902056981649,-1.5985521104600697,-1.331885443793403,-1.150933062841022,-0.8461711580791172,-0.6175997295076887,-0.43664734855530773,-0.2271235390314982,-0.13188544379340295,-0.10331401522197439,-0.10331401522197439,-0.10331401522197439,-0.10331401522197439,-0.10331401522197439,-0.10331401522197439,-0.10331401522197439,-0.10331401522197439,-0.10331401522197439,-0.10331401522197439,-0.10331401522197439,-0.10331401522197439,-0.08426639617435534,-0.08426639617435534,-0.08426639617435534,-0.07474258665054581,-0.07474258665054581,-0.07474258665054581,-0.07474258665054581,-0.07474258665054581,-0.07474258665054581,-0.07474258665054581,-0.07474258665054581,-0.07474258665054581,-0.07474258665054581,-0.07474258665054581,-0.07474258665054581,-0.07474258665054581,0.02049550858754942,0.05859074668278752,0.12525741334945417,0.17287646096850182,0.23954312763516847,0.33478122287326373,0.4109716990637399,0.5157336038256447,0.5443050323970733,0.5633526514446923,0.5538288419208828,0.4966859847780256,0.48716217525421607,0.48716217525421607,0.48716217525421607,0.48716217525421607,0.48716217525421607,0.48716217525421607,0.48716217525421607,0.48716217525421607,0.48716217525421607,0.48716217525421607,0.48716217525421607,0.48716217525421607,0.4776383657304066,0.45859074668278754,0.449066937158978,0.449066937158978,0.43001931811135896,0.43001931811135896,0.43001931811135896,0.43001931811135896,0.43001931811135896,0.43001931811135896,0.43001931811135896,0.43001931811135896,0.43001931811135896,0.43001931811135896,0.43001931811135896,0.43001931811135896,0.43954312763516845,0.43954312763516845,0.46811455620659703,0.48716217525421607,0.5062097943018351,0.5633526514446923,0.5919240800161208,0.649066937158978,0.6871621752542161,0.7157336038256447,0.7443050323970732,0.7443050323970732,0.7443050323970732,0.7443050323970732,0.7443050323970732,0.7443050323970732,0.7443050323970732,0.7443050323970732,0.7443050323970732,0.7443050323970732,0.7443050323970732,0.7443050323970732,0.7443050323970732,0.7443050323970732,0.7443050323970732,0.7538288419208827,0.7347812228732638,0.7157336038256447,0.6871621752542161,0.6871621752542161,0.6776383657304066,0.668114556206597,0.668114556206597,0.668114556206597,0.668114556206597,0.6585907466827875,0.6585907466827875,0.6395431276351685,0.6395431276351685,0.6300193181113589,0.6109716990637399,0.5824002704923114,0.5252574133494542,0.45859074668278754,0.4014478895399304,0.2966859847780256,0.23954312763516847,0.17287646096850182,0.16335265144469227,0.14430503239707324,0.12525741334945417,0.12525741334945417,0.12525741334945417,0.12525741334945417,0.12525741334945417,0.12525741334945417,0.12525741334945417,0.13478122287326372,0.13478122287326372,0.15382884192088275,0.15382884192088275,0.15382884192088275,0.15382884192088275,0.15382884192088275,0.15382884192088275,0.15382884192088275,0.15382884192088275,0.15382884192088275,0.17287646096850182,0.17287646096850182,0.17287646096850182,0.17287646096850182,0.17287646096850182,0.17287646096850182,0.17287646096850182,0.17287646096850182,0.17287646096850182,0.17287646096850182,0.17287646096850182,0.17287646096850182,0.17287646096850182,0.17287646096850182,0.17287646096850182,0.17287646096850182,0.17287646096850182,0.17287646096850182,0.17287646096850182,0.17287646096850182,0.17287646096850182,0.17287646096850182,0.17287646096850182,0.17287646096850182,0.17287646096850182,0.18240027049231133,0.18240027049231133,0.20144788953993037,0.20144788953993037,0.20144788953993037,0.2109716990637399,0.2109716990637399,0.2109716990637399,0.2109716990637399,0.2109716990637399,0.2109716990637399,0.2109716990637399,0.2109716990637399,0.2109716990637399,0.23001931811135895,0.23001931811135895,0.23001931811135895,0.23001931811135895,0.23001931811135895,0.23001931811135895,0.22049550858754943,0.20144788953993037,0.17287646096850182,0.16335265144469227,0.15382884192088275,0.14430503239707324,0.14430503239707324,0.12525741334945417,0.11573360382564465,0.11573360382564465,0.11573360382564465,0.11573360382564465,0.11573360382564465,0.11573360382564465,0.11573360382564465,0.11573360382564465,0.11573360382564465,0.11573360382564465,0.11573360382564465,0.11573360382564465,0.11573360382564465,0.11573360382564465,0.09668598477802562,0.09668598477802562,0.09668598477802562,0.09668598477802562,0.09668598477802562,0.08716217525421609,0.08716217525421609,0.08716217525421609,0.08716217525421609,0.08716217525421609,0.06811455620659704,0.06811455620659704,0.06811455620659704,0.06811455620659704,0.06811455620659704,0.06811455620659704,0.06811455620659704,0.06811455620659704,0.06811455620659704,0.06811455620659704,0.06811455620659704,0.06811455620659704,0.06811455620659704,0.06811455620659704,0.06811455620659704,0.06811455620659704,0.06811455620659704,0.06811455620659704,0.06811455620659704,0.06811455620659704,0.06811455620659704,0.06811455620659704,0.06811455620659704,0.06811455620659704,0.06811455620659704,0.06811455620659704,0.06811455620659704,0.06811455620659704,0.06811455620659704,0.07763836573040657,0.10620979430183514,0.12525741334945417,0.15382884192088275,0.20144788953993037,0.23001931811135895,0.25859074668278753,0.27763836573040657,0.30620979430183515,0.35382884192088276,0.38240027049231134,0.45859074668278754,0.5062097943018351,0.5728764609685018,0.668114556206597,0.7157336038256447,0.7633526514446923,0.7919240800161208,0.8014478895399304,0.8204955085875494,0.8204955085875494,0.8204955085875494,0.8109716990637399,0.7824002704923113,0.7347812228732638,0.7062097943018352,0.6776383657304066,0.668114556206597,0.6585907466827875,0.6300193181113589,0.6014478895399303,0.5633526514446923,0.5062097943018351,0.48716217525421607,0.449066937158978,0.4204955085875494,0.4014478895399304,0.35382884192088276,0.3443050323970732,0.3252574133494542,0.3252574133494542,0.3252574133494542,0.30620979430183515,0.30620979430183515,0.2966859847780256,0.2966859847780256,0.27763836573040657,0.268114556206597,0.24906693715897799,0.23001931811135895,0.22049550858754943,0.22049550858754943,0.19192408001612085,0.17287646096850182,0.15382884192088275,0.12525741334945417,0.11573360382564465,0.08716217525421609,0.06811455620659704,0.06811455620659704,0.06811455620659704,0.049066937158977995,0.049066937158977995,0.049066937158977995,0.049066937158977995,0.03954312763516847,0.03954312763516847,0.03954312763516847,0.03954312763516847,0.03954312763516847,0.03954312763516847,0.03954312763516847,0.03954312763516847,0.03954312763516847,0.03954312763516847,0.03954312763516847,0.03954312763516847,0.03954312763516847,0.03954312763516847,0.02049550858754942,0.02049550858754942,0.02049550858754942,0.02049550858754942,0.030019318111358946,0.030019318111358946,0.049066937158977995,0.049066937158977995,0.05859074668278752,0.05859074668278752,0.06811455620659704,0.06811455620659704,0.07763836573040657,0.09668598477802562,0.10620979430183514,0.12525741334945417,0.15382884192088275,0.15382884192088275,0.17287646096850182,0.16335265144469227,0.16335265144469227,0.16335265144469227,0.16335265144469227,0.16335265144469227,0.16335265144469227,0.16335265144469227,0.16335265144469227,0.14430503239707324,0.11573360382564465,0.11573360382564465,0.08716217525421609,0.08716217525421609,0.06811455620659704,0.06811455620659704,0.04