success,trial_type,trial_index,time_elapsed,internal_node_id,protocol_sum,subject_identifier,subject_sum,subject_pair,STUDY_ID,PROLIFIC_PID,SESSION_ID,practice_instructions,leaderboard_instructions,bonus,reveal_word,self_rating,confidence,view_history,rt,responses,question_order,correct,test_part,word,click_log,final_keyboard_state,num_clicks,points,cheat,position_RT,position,player,i_game,true_position,distance,last_word,response,stimulus,confidence_slider_self_response
1.0,fullscreen,0,3105,0.0-0.0,,20,"[74, 68, 220, 21, 54, 66, 4, 168, 15, 232, 14, 144, 57, 69, 92, 193, 96, 130, 129, 130, 15, 226, 178, 79, 30, 82, 51, 173, 230, 175, 29, 213]",10,669a58f4f17d67c0aba4c4d3,5d4c78071b920f00198e8533,669a5c6f777f0ecd9e7b0369,1,0,0,False,3,0,,,,,,,,,,,,,,,,,,,,,,
,instructions,1,11527,0.0-1.0,,20,"[74, 68, 220, 21, 54, 66, 4, 168, 15, 232, 14, 144, 57, 69, 92, 193, 96, 130, 129, 130, 15, 226, 178, 79, 30, 82, 51, 173, 230, 175, 29, 213]",10,669a58f4f17d67c0aba4c4d3,5d4c78071b920f00198e8533,669a5c6f777f0ecd9e7b0369,1,0,0,False,3,0,"[{""page_index"":0,""viewing_time"":8420}]",8420.5,,,,,,,,,,,,,,,,,,,,
,instructions,2,25898,0.0-2.0-0.0,,20,"[74, 68, 220, 21, 54, 66, 4, 168, 15, 232, 14, 144, 57, 69, 92, 193, 96, 130, 129, 130, 15, 226, 178, 79, 30, 82, 51, 173, 230, 175, 29, 213]",10,669a58f4f17d67c0aba4c4d3,5d4c78071b920f00198e8533,669a5c6f777f0ecd9e7b0369,1,0,0,False,3,0,"[{""page_index"":0,""viewing_time"":14369.600000000093}]",14369.899999999909,,,,,,,,,,,,,,,,,,,,
,survey-multi-choice,3,36846,0.0-2.0-1.0,,20,"[74, 68, 220, 21, 54, 66, 4, 168, 15, 232, 14, 144, 57, 69, 92, 193, 96, 130, 129, 130, 15, 226, 178, 79, 30, 82, 51, 173, 230, 175, 29, 213]",10,669a58f4f17d67c0aba4c4d3,5d4c78071b920f00198e8533,669a5c6f777f0ecd9e7b0369,1,0,0,False,3,0,,10945.399999999909,"{""Q0"":""... reveal the word with as <b>few letter guesses</b> as possible""}",[0],1.0,multichoice_nonpretend,,,,,,,,,,,,,,,,
,instructions,4,39074,0.0-3.0,,20,"[74, 68, 220, 21, 54, 66, 4, 168, 15, 232, 14, 144, 57, 69, 92, 193, 96, 130, 129, 130, 15, 226, 178, 79, 30, 82, 51, 173, 230, 175, 29, 213]",10,669a58f4f17d67c0aba4c4d3,5d4c78071b920f00198e8533,669a5c6f777f0ecd9e7b0369,1,0,0,False,3,0,"[{""page_index"":0,""viewing_time"":2227}]",2227.2999999998137,,,,,,,,,,,,,,,,,,,,
,Hangman,5,84034,0.0-4.0,,20,"[74, 68, 220, 21, 54, 66, 4, 168, 15, 232, 14, 144, 57, 69, 92, 193, 96, 130, 129, 130, 15, 226, 178, 79, 30, 82, 51, 173, 230, 175, 29, 213]",10,669a58f4f17d67c0aba4c4d3,5d4c78071b920f00198e8533,669a5c6f777f0ecd9e7b0369,1,0,0,False,3,0,,,,,,,ZEBRA,"{'letter': ['', 'E', 'M', 'D', 'H', 'B', 'Z', 'R', 'A'], 't': [0, 8523.69999999972, 31800.599999999627, 33931.39999999991, 36372.69999999972, 38156.59999999963, 40414.19999999972, 41997.19999999972, 42936.89999999991], 'hit': [None, 1, 0, 0, 0, 1, 1, 1, 1], 'asked': ['', 'E', 'EM', 'EMD', 'EMDH', 'EMDHB', 'EMDHBZ', 'EMDHBZR', 'EMDHBZRA'], 'word_state': ['_____', '_E___', '_E___', '_E___', '_E___', '_EB__', 'ZEB__', 'ZEBR_', 'ZEBRA']}","['E', 'M', 'D', 'H', 'B', 'Z', 'R', 'A']",8.0,12.0,0.0,,,,,,,,,,
,instructions,6,96709,0.0-5.0,,20,"[74, 68, 220, 21, 54, 66, 4, 168, 15, 232, 14, 144, 57, 69, 92, 193, 96, 130, 129, 130, 15, 226, 178, 79, 30, 82, 51, 173, 230, 175, 29, 213]",10,669a58f4f17d67c0aba4c4d3,5d4c78071b920f00198e8533,669a5c6f777f0ecd9e7b0369,1,0,0,False,3,0,"[{""page_index"":0,""viewing_time"":1995.6000000000931},{""page_index"":1,""viewing_time"":10677}]",12673.399999999909,,,,,,,,,,,,,,,,,,,,
,survey-multi-choice,7,103211,0.0-6.0,,20,"[74, 68, 220, 21, 54, 66, 4, 168, 15, 232, 14, 144, 57, 69, 92, 193, 96, 130, 129, 130, 15, 226, 178, 79, 30, 82, 51, 173, 230, 175, 29, 213]",10,669a58f4f17d67c0aba4c4d3,5d4c78071b920f00198e8533,669a5c6f777f0ecd9e7b0369,1,0,0,False,3,0,,6500.0,"{""Q0"":""...from <b>a previous session</b> that is part of the upcoming tournament.""}",[0],0.0,multichoice_leaderboard,,,,,,,,,,,,,,,,
,instructions,8,105328,0.0-7.0-0.0,,20,"[74, 68, 220, 21, 54, 66, 4, 168, 15, 232, 14, 144, 57, 69, 92, 193, 96, 130, 129, 130, 15, 226, 178, 79, 30, 82, 51, 173, 230, 175, 29, 213]",10,669a58f4f17d67c0aba4c4d3,5d4c78071b920f00198e8533,669a5c6f777f0ecd9e7b0369,1,0,0,False,3,0,"[{""page_index"":0,""viewing_time"":2116}]",2116.2000000001863,,,,,,,,,,,,,,,,,,,,
,survey-multi-choice,9,111361,0.0-7.0-1.0,,20,"[74, 68, 220, 21, 54, 66, 4, 168, 15, 232, 14, 144, 57, 69, 92, 193, 96, 130, 129, 130, 15, 226, 178, 79, 30, 82, 51, 173, 230, 175, 29, 213]",10,669a58f4f17d67c0aba4c4d3,5d4c78071b920f00198e8533,669a5c6f777f0ecd9e7b0369,1,0,0,False,3,0,,6031.4000000003725,"{""Q0"":""...from <b>a previous session</b> that is part of the upcoming tournament.""}",[0],0.0,multichoice_leaderboard,,,,,,,,,,,,,,,,
,instructions,10,113209,0.0-7.1-0.1,,20,"[74, 68, 220, 21, 54, 66, 4, 168, 15, 232, 14, 144, 57, 69, 92, 193, 96, 130, 129, 130, 15, 226, 178, 79, 30, 82, 51, 173, 230, 175, 29, 213]",10,669a58f4f17d67c0aba4c4d3,5d4c78071b920f00198e8533,669a5c6f777f0ecd9e7b0369,1,0,0,False,3,0,"[{""page_index"":0,""viewing_time"":1845.2000000001863}]",1845.600000000093,,,,,,,,,,,,,,,,,,,,
,survey-multi-choice,11,117223,0.0-7.1-1.1,,20,"[74, 68, 220, 21, 54, 66, 4, 168, 15, 232, 14, 144, 57, 69, 92, 193, 96, 130, 129, 130, 15, 226, 178, 79, 30, 82, 51, 173, 230, 175, 29, 213]",10,669a58f4f17d67c0aba4c4d3,5d4c78071b920f00198e8533,669a5c6f777f0ecd9e7b0369,1,0,0,False,3,0,,4012.600000000093,"{""Q0"":""...from the <b>upcoming tournament</b>.""}",[0],0.0,multichoice_leaderboard,,,,,,,,,,,,,,,,
,instructions,12,118752,0.0-7.2-0.2,,20,"[74, 68, 220, 21, 54, 66, 4, 168, 15, 232, 14, 144, 57, 69, 92, 193, 96, 130, 129, 130, 15, 226, 178, 79, 30, 82, 51, 173, 230, 175, 29, 213]",10,669a58f4f17d67c0aba4c4d3,5d4c78071b920f00198e8533,669a5c6f777f0ecd9e7b0369,1,0,0,False,3,0,"[{""page_index"":0,""viewing_time"":1527.5}]",1527.7999999998135,,,,,,,,,,,,,,,,,,,,
,survey-multi-choice,13,121364,0.0-7.2-1.2,,20,"[74, 68, 220, 21, 54, 66, 4, 168, 15, 232, 14, 144, 57, 69, 92, 193, 96, 130, 129, 130, 15, 226, 178, 79, 30, 82, 51, 173, 230, 175, 29, 213]",10,669a58f4f17d67c0aba4c4d3,5d4c78071b920f00198e8533,669a5c6f777f0ecd9e7b0369,1,0,0,False,3,0,,2610.2000000001863,"{""Q0"":""...from <b>a previous session</b> that is not part of the upcoming tournament.""}",[0],1.0,multichoice_leaderboard,,,,,,,,,,,,,,,,
,instructions,14,131543,0.0-8.0,,20,"[74, 68, 220, 21, 54, 66, 4, 168, 15, 232, 14, 144, 57, 69, 92, 193, 96, 130, 129, 130, 15, 226, 178, 79, 30, 82, 51, 173, 230, 175, 29, 213]",10,669a58f4f17d67c0aba4c4d3,5d4c78071b920f00198e8533,669a5c6f777f0ecd9e7b0369,1,0,0,False,3,0,"[{""page_index"":0,""viewing_time"":10177.799999999814}]",10178.100000000091,,,,,,,,,,,,,,,,,,,,
,survey-multi-choice,15,135710,0.0-9.0,,20,"[74, 68, 220, 21, 54, 66, 4, 168, 15, 232, 14, 144, 57, 69, 92, 193, 96, 130, 129, 130, 15, 226, 178, 79, 30, 82, 51, 173, 230, 175, 29, 213]",10,669a58f4f17d67c0aba4c4d3,5d4c78071b920f00198e8533,669a5c6f777f0ecd9e7b0369,1,0,0,False,3,0,,4165.200000000186,"{""Q0"":""...players' leaderboard position (in terms of <b>points</b>) in an <b>upcoming tournament.</b>""}",[0],1.0,multichoice_tournament,,,,,,,,,,,,,,,,
,instructions,16,156615,0.0-11.0,,20,"[74, 68, 220, 21, 54, 66, 4, 168, 15, 232, 14, 144, 57, 69, 92, 193, 96, 130, 129, 130, 15, 226, 178, 79, 30, 82, 51, 173, 230, 175, 29, 213]",10,669a58f4f17d67c0aba4c4d3,5d4c78071b920f00198e8533,669a5c6f777f0ecd9e7b0369,1,0,0,False,3,0,"[{""page_index"":0,""viewing_time"":20902.399999999907}]",20902.799999999814,,,,,,,,,,,,,,,,,,,,
,instructions,17,168294,0.0-12.0-0.0,,20,"[74, 68, 220, 21, 54, 66, 4, 168, 15, 232, 14, 144, 57, 69, 92, 193, 96, 130, 129, 130, 15, 226, 178, 79, 30, 82, 51, 173, 230, 175, 29, 213]",10,669a58f4f17d67c0aba4c4d3,5d4c78071b920f00198e8533,669a5c6f777f0ecd9e7b0369,1,0,0,False,3,0,"[{""page_index"":0,""viewing_time"":11677.200000000186}]",11677.5,,,,,,,,,,,,,,,,,,,,
,Hangman_replay,18,226537,0.0-12.0-1.0,,20,"[74, 68, 220, 21, 54, 66, 4, 168, 15, 232, 14, 144, 57, 69, 92, 193, 96, 130, 129, 130, 15, 226, 178, 79, 30, 82, 51, 173, 230, 175, 29, 213]",10,669a58f4f17d67c0aba4c4d3,5d4c78071b920f00198e8533,669a5c6f777f0ecd9e7b0369,1,0,0,False,3,0,,,,,,,KENTUCKY,"{'letter': ['', 'A', 'I', 'E', 'K', 'N', 'T', 'U', 'C', 'Y'], 't': [0, 35332.10000000009, 41230.90000000037, 45697.700000000186, 48614.09999999963, 52047.5, 52764.09999999963, 53397.5, 54997.5, 56214], 'hit': [None, 0, 0, 1, 2, 1, 1, 1, 1, 1], 'asked': ['', 'A', 'AI', 'AIE', 'AIEK', 'AIEKN', 'AIEKNT', 'AIEKNTU', 'AIEKNTUC', 'AIEKNTUCY'], 'word_state': ['________', '________', '________', '_E______', 'KE____K_', 'KEN___K_', 'KENT__K_', 'KENTU_K_', 'KENTUCK_', 'KENTUCKY']}","['A', 'I', 'E', 'K', 'N', 'T', 'U', 'C', 'Y']",9.0,13.0,0.0,,,,,,,,,,
,instructions,19,230072,0.0-12.0-2.0,,20,"[74, 68, 220, 21, 54, 66, 4, 168, 15, 232, 14, 144, 57, 69, 92, 193, 96, 130, 129, 130, 15, 226, 178, 79, 30, 82, 51, 173, 230, 175, 29, 213]",10,669a58f4f17d67c0aba4c4d3,5d4c78071b920f00198e8533,669a5c6f777f0ecd9e7b0369,1,0,0,False,3,0,"[{""page_index"":0,""viewing_time"":3532.7999999998137}]",3533.9000000003725,,,,,,,,,,,,,,,,,,,,
,Guess_leaderboard,20,242400,0.0-12.0-3.0,,20,"[74, 68, 220, 21, 54, 66, 4, 168, 15, 232, 14, 144, 57, 69, 92, 193, 96, 130, 129, 130, 15, 226, 178, 79, 30, 82, 51, 173, 230, 175, 29, 213]",10,669a58f4f17d67c0aba4c4d3,5d4c78071b920f00198e8533,669a5c6f777f0ecd9e7b0369,1,0,0,False,3,0,,,,,,,KENTUCKY,,,,,,11562.099999999627,15.0,5.0,0.0,8.0,7.0,,,,
,instructions,21,247283,0.0-12.0-0.1,,20,"[74, 68, 220, 21, 54, 66, 4, 168, 15, 232, 14, 144, 57, 69, 92, 193, 96, 130, 129, 130, 15, 226, 178, 79, 30, 82, 51, 173, 230, 175, 29, 213]",10,669a58f4f17d67c0aba4c4d3,5d4c78071b920f00198e8533,669a5c6f777f0ecd9e7b0369,1,0,0,False,3,0,"[{""page_index"":0,""viewing_time"":4880.899999999441}]",4881.099999999628,,,,,,,,,,,,,,,,,,,,
,Hangman_replay,22,280335,0.0-12.0-1.1,,20,"[74, 68, 220, 21, 54, 66, 4, 168, 15, 232, 14, 144, 57, 69, 92, 193, 96, 130, 129, 130, 15, 226, 178, 79, 30, 82, 51, 173, 230, 175, 29, 213]",10,669a58f4f17d67c0aba4c4d3,5d4c78071b920f00198e8533,669a5c6f777f0ecd9e7b0369,1,0,0,False,3,0,,,,,,,SHAKIRA,"{'letter': ['', 'E', 'A', 'S', 'H', 'K', 'I', 'R'], 't': [0, 4080.2000000001863, 4997.5, 9697.299999999814, 16830.599999999627, 28963.799999999814, 30313.799999999814, 31047.200000000186], 'hit': [None, 0, 2, 1, 1, 1, 1, 1], 'asked': ['', 'E', 'EA', 'EAS', 'EASH', 'EASHK', 'EASHKI', 'EASHKIR'], 'word_state': ['_______', '_______', '__A___A', 'S_A___A', 'SHA___A', 'SHAK__A', 'SHAKI_A', 'SHAKIRA']}","['E', 'A', 'S', 'H', 'K', 'I', 'R']",7.0,14.0,0.0,,,,,,,,,,
,instructions,23,281671,0.0-12.0-2.1,,20,"[74, 68, 220, 21, 54, 66, 4, 168, 15, 232, 14, 144, 57, 69, 92, 193, 96, 130, 129, 130, 15, 226, 178, 79, 30, 82, 51, 173, 230, 175, 29, 213]",10,669a58f4f17d67c0aba4c4d3,5d4c78071b920f00198e8533,669a5c6f777f0ecd9e7b0369,1,0,0,False,3,0,"[{""page_index"":0,""viewing_time"":1334.3999999994412}]",1334.7999999998135,,,,,,,,,,,,,,,,,,,,
,Guess_leaderboard,24,285567,0.0-12.0-3.1,,20,"[74, 68, 220, 21, 54, 66, 4, 168, 15, 232, 14, 144, 57, 69, 92, 193, 96, 130, 129, 130, 15, 226, 178, 79, 30, 82, 51, 173, 230, 175, 29, 213]",10,669a58f4f17d67c0aba4c4d3,5d4c78071b920f00198e8533,669a5c6f777f0ecd9e7b0369,1,0,0,False,3,0,,,,,,,SHAKIRA,,,,,,3140.7999999998137,12.0,11.0,1.0,19.0,7.0,,,,
,instructions,25,290136,0.0-12.0-0.2,,20,"[74, 68, 220, 21, 54, 66, 4, 168, 15, 232, 14, 144, 57, 69, 92, 193, 96, 130, 129, 130, 15, 226, 178, 79, 30, 82, 51, 173, 230, 175, 29, 213]",10,669a58f4f17d67c0aba4c4d3,5d4c78071b920f00198e8533,669a5c6f777f0ecd9e7b0369,1,0,0,False,3,0,"[{""page_index"":0,""viewing_time"":4566.600000000559}]",4566.9000000003725,,,,,,,,,,,,,,,,,,,,
,Hangman_replay,26,333684,0.0-12.0-1.2,,20,"[74, 68, 220, 21, 54, 66, 4, 168, 15, 232, 14, 144, 57, 69, 92, 193, 96, 130, 129, 130, 15, 226, 178, 79, 30, 82, 51, 173, 230, 175, 29, 213]",10,669a58f4f17d67c0aba4c4d3,5d4c78071b920f00198e8533,669a5c6f777f0ecd9e7b0369,1,0,0,False,3,0,,,,,,,THIRTY FOUR,"{'letter': ['', 'E', 'A', 'S', 'N', 'I', 'R', 'T', 'H', 'Y', 'F', 'O', 'U'], 't': [0, 7378.299999999814, 8610.599999999627, 14360.599999999627, 20878.200000000186, 22578.200000000186, 25644.799999999814, 28928.099999999627, 31028, 32610.400000000373, 35094.700000000186, 40194.59999999963, 41528], 'hit': [None, 0, 0, 0, 0, 1, 2, 2, 1, 1, 1, 1, 1], 'asked': ['', 'E', 'EA', 'EAS', 'EASN', 'EASNI', 'EASNIR', 'EASNIRT', 'EASNIRTH', 'EASNIRTHY', 'EASNIRTHYF', 'EASNIRTHYFO', 'EASNIRTHYFOU'], 'word_state': ['______ ____', '______ ____', '______ ____', '______ ____', '______ ____', '__I___ ____', '__IR__ ___R', 'T_IRT_ ___R', 'THIRT_ ___R', 'THIRTY ___R', 'THIRTY F__R', 'THIRTY FO_R', 'THIRTY FOUR']}","['E', 'A', 'S', 'N', 'I', 'R', 'T', 'H', 'Y', 'F', 'O', 'U']",12.0,11.0,0.0,,,,,,,,,,
,instructions,27,334691,0.0-12.0-2.2,,20,"[74, 68, 220, 21, 54, 66, 4, 168, 15, 232, 14, 144, 57, 69, 92, 193, 96, 130, 129, 130, 15, 226, 178, 79, 30, 82, 51, 173, 230, 175, 29, 213]",10,669a58f4f17d67c0aba4c4d3,5d4c78071b920f00198e8533,669a5c6f777f0ecd9e7b0369,1,0,0,False,3,0,"[{""page_index"":0,""viewing_time"":1005.4000000003725}]",1005.9000000003724,,,,,,,,,,,,,,,,,,,,
,Guess_leaderboard,28,337201,0.0-12.0-3.2,,20,"[74, 68, 220, 21, 54, 66, 4, 168, 15, 232, 14, 144, 57, 69, 92, 193, 96, 130, 129, 130, 15, 226, 178, 79, 30, 82, 51, 173, 230, 175, 29, 213]",10,669a58f4f17d67c0aba4c4d3,5d4c78071b920f00198e8533,669a5c6f777f0ecd9e7b0369,1,0,0,False,3,0,,,,,,,THIRTY FOUR,,,,,,1754.7999999998135,30.0,81.0,2.0,65.0,35.0,,,,
,instructions,29,338418,0.0-12.0-0.3,,20,"[74, 68, 220, 21, 54, 66, 4, 168, 15, 232, 14, 144, 57, 69, 92, 193, 96, 130, 129, 130, 15, 226, 178, 79, 30, 82, 51, 173, 230, 175, 29, 213]",10,669a58f4f17d67c0aba4c4d3,5d4c78071b920f00198e8533,669a5c6f777f0ecd9e7b0369,1,0,0,False,3,0,"[{""page_index"":0,""viewing_time"":1215.699999999255}]",1216.0999999996277,,,,,,,,,,,,,,,,,,,,
,Hangman_replay,30,358338,0.0-12.0-1.3,,20,"[74, 68, 220, 21, 54, 66, 4, 168, 15, 232, 14, 144, 57, 69, 92, 193, 96, 130, 129, 130, 15, 226, 178, 79, 30, 82, 51, 173, 230, 175, 29, 213]",10,669a58f4f17d67c0aba4c4d3,5d4c78071b920f00198e8533,669a5c6f777f0ecd9e7b0369,1,0,0,False,3,0,,,,,,,NECTARINE,"{'letter': ['', 'B', 'A', 'N', 'R', 'S', 'T', 'L', 'E', 'C', 'I'], 't': [0, 3361.7999999998137, 4660.700000000186, 5543.9000000003725, 8927.299999999814, 10811.600000000559, 11761.700000000186, 12411.299999999814, 13711.600000000559, 15894.900000000373, 17894.900000000373], 'hit': [None, 0, 1, 2, 1, 0, 1, 0, 2, 1, 1], 'asked': ['', 'B', 'BA', 'BAN', 'BANR', 'BANRS', 'BANRST', 'BANRSTL', 'BANRSTLE', 'BANRSTLEC', 'BANRSTLECI'], 'word_state': ['_________', '_________', '____A____', 'N___A__N_', 'N___AR_N_', 'N___AR_N_', 'N__TAR_N_', 'N__TAR_N_', 'NE_TAR_NE', 'NECTAR_NE', 'NECTARINE']}","['B', 'A', 'N', 'R', 'S', 'T', 'L', 'E', 'C', 'I']",10.0,12.0,0.0,,,,,,,,,,
,instructions,31,359334,0.0-12.0-2.3,,20,"[74, 68, 220, 21, 54, 66, 4, 168, 15, 232, 14, 144, 57, 69, 92, 193, 96, 130, 129, 130, 15, 226, 178, 79, 30, 82, 51, 173, 230, 175, 29, 213]",10,669a58f4f17d67c0aba4c4d3,5d4c78071b920f00198e8533,669a5c6f777f0ecd9e7b0369,1,0,0,False,3,0,"[{""page_index"":0,""viewing_time"":993.7999999998137}]",994.2000000001864,,,,,,,,,,,,,,,,,,,,
,Guess_leaderboard,32,364068,0.0-12.0-3.3,,20,"[74, 68, 220, 21, 54, 66, 4, 168, 15, 232, 14, 144, 57, 69, 92, 193, 96, 130, 129, 130, 15, 226, 178, 79, 30, 82, 51, 173, 230, 175, 29, 213]",10,669a58f4f17d67c0aba4c4d3,5d4c78071b920f00198e8533,669a5c6f777f0ecd9e7b0369,1,0,0,False,3,0,,,,,,,NECTARINE,,,,,,3974.200000000186,19.0,33.0,3.0,72.0,53.0,,,,
,instructions,33,365601,0.0-12.0-0.4,,20,"[74, 68, 220, 21, 54, 66, 4, 168, 15, 232, 14, 144, 57, 69, 92, 193, 96, 130, 129, 130, 15, 226, 178, 79, 30, 82, 51, 173, 230, 175, 29, 213]",10,669a58f4f17d67c0aba4c4d3,5d4c78071b920f00198e8533,669a5c6f777f0ecd9e7b0369,1,0,0,False,3,0,"[{""page_index"":0,""viewing_time"":1530.7999999998137}]",1531.0999999996277,,,,,,,,,,,,,,,,,,,,
,Hangman_replay,34,417471,0.0-12.0-1.4,,20,"[74, 68, 220, 21, 54, 66, 4, 168, 15, 232, 14, 144, 57, 69, 92, 193, 96, 130, 129, 130, 15, 226, 178, 79, 30, 82, 51, 173, 230, 175, 29, 213]",10,669a58f4f17d67c0aba4c4d3,5d4c78071b920f00198e8533,669a5c6f777f0ecd9e7b0369,1,0,0,False,3,0,,,,,,,THUMB,"{'letter': ['', 'A', 'I', 'E', 'O', 'U', 'T', 'R', 'H', 'M', 'B'], 't': [0, 4579.700000000186, 7062.9000000003725, 8946.300000000745, 10545.300000000745, 16962.900000000373, 32196.10000000056, 40779.200000000186, 46544.90000000037, 49011.60000000056, 49861.60000000056], 'hit': [None, 0, 0, 0, 0, 1, 1, 0, 1, 1, 1], 'asked': ['', 'A', 'AI', 'AIE', 'AIEO', 'AIEOU', 'AIEOUT', 'AIEOUTR', 'AIEOUTRH', 'AIEOUTRHM', 'AIEOUTRHMB'], 'word_state': ['_____', '_____', '_____', '_____', '_____', '__U__', 'T_U__', 'T_U__', 'THU__', 'THUM_', 'THUMB']}","['A', 'I', 'E', 'O', 'U', 'T', 'R', 'H', 'M', 'B']",10.0,10.0,0.0,,,,,,,,,,
,instructions,35,419301,0.0-12.0-2.4,,20,"[74, 68, 220, 21, 54, 66, 4, 168, 15, 232, 14, 144, 57, 69, 92, 193, 96, 130, 129, 130, 15, 226, 178, 79, 30, 82, 51, 173, 230, 175, 29, 213]",10,669a58f4f17d67c0aba4c4d3,5d4c78071b920f00198e8533,669a5c6f777f0ecd9e7b0369,1,0,0,False,3,0,"[{""page_index"":0,""viewing_time"":1828.0999999996275}]",1828.5999999996277,,,,,,,,,,,,,,,,,,,,
,Guess_leaderboard,36,421552,0.0-12.0-3.4,,20,"[74, 68, 220, 21, 54, 66, 4, 168, 15, 232, 14, 144, 57, 69, 92, 193, 96, 130, 129, 130, 15, 226, 178, 79, 30, 82, 51, 173, 230, 175, 29, 213]",10,669a58f4f17d67c0aba4c4d3,5d4c78071b920f00198e8533,669a5c6f777f0ecd9e7b0369,1,0,0,False,3,0,,,,,,,THUMB,,,,,,1486.5,43.0,84.0,4.0,28.0,15.0,,,,
,survey-text,37,428257,0.0-13.0,,20,"[74, 68, 220, 21, 54, 66, 4, 168, 15, 232, 14, 144, 57, 69, 92, 193, 96, 130, 129, 130, 15, 226, 178, 79, 30, 82, 51, 173, 230, 175, 29, 213]",10,669a58f4f17d67c0aba4c4d3,5d4c78071b920f00198e8533,669a5c6f777f0ecd9e7b0369,1,0,0,False,3,0,,6701.200000000186,"{""Q0"":""thumb""}",,,,,,,,,,,,,,,,thumb,,,
,survey-multi-choice,38,436827,0.0-14.0,,20,"[74, 68, 220, 21, 54, 66, 4, 168, 15, 232, 14, 144, 57, 69, 92, 193, 96, 130, 129, 130, 15, 226, 178, 79, 30, 82, 51, 173, 230, 175, 29, 213]",10,669a58f4f17d67c0aba4c4d3,5d4c78071b920f00198e8533,669a5c6f777f0ecd9e7b0369,1,0,0,False,3,0,,8567.899999999441,"{""Q0"":""3. I would be <b>third</b> out of the six of us.""}",[0],,self-rating,,,,,,,,3.0,,,,,,,,
,html-slider-response,39,440881,0.0-15.0,,20,"[74, 68, 220, 21, 54, 66, 4, 168, 15, 232, 14, 144, 57, 69, 92, 193, 96, 130, 129, 130, 15, 226, 178, 79, 30, 82, 51, 173, 230, 175, 29, 213]",10,669a58f4f17d67c0aba4c4d3,5d4c78071b920f00198e8533,669a5c6f777f0ecd9e7b0369,1,0,0,False,3,0,,4050.5,,,,,,,,,,,,,,,,,,0.0,"<p>Overall, how confident were you in your answer to this last question?</p>",0.0
,survey-text,40,455174,0.0-16.0,,20,"[74, 68, 220, 21, 54, 66, 4, 168, 15, 232, 14, 144, 57, 69, 92, 193, 96, 130, 129, 130, 15, 226, 178, 79, 30, 82, 51, 173, 230, 175, 29, 213]",10,669a58f4f17d67c0aba4c4d3,5d4c78071b920f00198e8533,669a5c6f777f0ecd9e7b0369,1,0,0,False,3,0,,14289.199999999257,"{""Q0"":""how smart these players are ""}",,,,,,,,,,,,,,,,,,,
,survey-text,41,460576,0.0-17.0,,20,"[74, 68, 220, 21, 54, 66, 4, 168, 15, 232, 14, 144, 57, 69, 92, 193, 96, 130, 129, 130, 15, 226, 178, 79, 30, 82, 51, 173, 230, 175, 29, 213]",10,669a58f4f17d67c0aba4c4d3,5d4c78071b920f00198e8533,669a5c6f777f0ecd9e7b0369,1,0,0,False,3,0,,5400.200000000186,"{""Q0"":""no""}",,,,,,,,,,,,,,,,,,,
,instructions,42,490071,0.0-18.0,,20,"[74, 68, 220, 21, 54, 66, 4, 168, 15, 232, 14, 144, 57, 69, 92, 193, 96, 130, 129, 130, 15, 226, 178, 79, 30, 82, 51, 173, 230, 175, 29, 213]",10,669a58f4f17d67c0aba4c4d3,5d4c78071b920f00198e8533,669a5c6f777f0ecd9e7b0369,1,0,0,False,3,0,"[{""page_index"":0,""viewing_time"":29493.700000000186}]",29494.10000000056,,,,,,,,,,,,,,,,,,,,
1.0,fullscreen,0,5259,0.0-0.0,,21,"[74, 68, 220, 21, 54, 66, 4, 168, 15, 232, 14, 144, 57, 69, 92, 193, 96, 130, 129, 130, 15, 226, 178, 79, 30, 82, 51, 173, 230, 175, 29, 213]",10,669a58f4f17d67c0aba4c4d3,5589565cfdf99b6bd06016dc,669a5eba8f75d5d46fa21d4a,1,0,0,True,4,18,,,,,,,,,,,,,,,,,,,,,,
,instructions,1,9497,0.0-1.0,,21,"[74, 68, 220, 21, 54, 66, 4, 168, 15, 232, 14, 144, 57, 69, 92, 193, 96, 130, 129, 130, 15, 226, 178, 79, 30, 82, 51, 173, 230, 175, 29, 213]",10,669a58f4f17d67c0aba4c4d3,5589565cfdf99b6bd06016dc,669a5eba8f75d5d46fa21d4a,1,0,0,True,4,18,"[{""page_index"":0,""viewing_time"":4237.100000008941}]",4237.5,,,,,,,,,,,,,,,,,,,,
,instructions,2,36889,0.0-2.0-0.0,,21,"[74, 68, 220, 21, 54, 66, 4, 168, 15, 232, 14, 144, 57, 69, 92, 193, 96, 130, 129, 130, 15, 226, 178, 79, 30, 82, 51, 173, 230, 175, 29, 213]",10,669a58f4f17d67c0aba4c4d3,5589565cfdf99b6bd06016dc,669a5eba8f75d5d46fa21d4a,1,0,0,True,4,18,"[{""page_index"":0,""viewing_time"":27391}]",27391.29999999702,,,,,,,,,,,,,,,,,,,,
,survey-multi-choice,3,44353,0.0-2.0-1.0,,21,"[74, 68, 220, 21, 54, 66, 4, 168, 15, 232, 14, 144, 57, 69, 92, 193, 96, 130, 129, 130, 15, 226, 178, 79, 30, 82, 51, 173, 230, 175, 29, 213]",10,669a58f4f17d67c0aba4c4d3,5589565cfdf99b6bd06016dc,669a5eba8f75d5d46fa21d4a,1,0,0,True,4,18,,7463.5,"{""Q0"":""... reveal the word with as <b>few letter guesses</b> as possible""}",[0],1.0,multichoice_nonpretend,,,,,,,,,,,,,,,,
,instructions,4,46233,0.0-3.0,,21,"[74, 68, 220, 21, 54, 66, 4, 168, 15, 232, 14, 144, 57, 69, 92, 193, 96, 130, 129, 130, 15, 226, 178, 79, 30, 82, 51, 173, 230, 175, 29, 213]",10,669a58f4f17d67c0aba4c4d3,5589565cfdf99b6bd06016dc,669a5eba8f75d5d46fa21d4a,1,0,0,True,4,18,"[{""page_index"":0,""viewing_time"":1878.5999999940395}]",1878.79999999702,,,,,,,,,,,,,,,,,,,,
,Hangman,5,99552,0.0-4.0,,21,"[74, 68, 220, 21, 54, 66, 4, 168, 15, 232, 14, 144, 57, 69, 92, 193, 96, 130, 129, 130, 15, 226, 178, 79, 30, 82, 51, 173, 230, 175, 29, 213]",10,669a58f4f17d67c0aba4c4d3,5589565cfdf99b6bd06016dc,669a5eba8f75d5d46fa21d4a,1,0,0,True,4,18,,,,,,,ZEBRA,"{'letter': ['', 'A', 'E', 'H', 'N', 'S', 'T', 'C', 'O', 'R', 'P', 'L', 'F', 'W', 'J', 'B', 'Z'], 't': [0, 5883.79999999702, 11011.40000000596, 13571.29999999702, 19853.10000000894, 27355.5, 28923.20000000298, 31267.20000000298, 32939.40000000596, 34659.29999999702, 38475.29999999702, 40803.10000000894, 42619.40000000596, 45419.40000000596, 47643.29999999702, 49459.40000000596, 51307.20000000298], 'hit': [None, 1, 1, 0, 0, 0, 0, 0, 0, 1, 0, 0, 0, 0, 0, 1, 1], 'asked': ['', 'A', 'AE', 'AEH', 'AEHN', 'AEHNS', 'AEHNST', 'AEHNSTC', 'AEHNSTCO', 'AEHNSTCOR', 'AEHNSTCORP', 'AEHNSTCORPL', 'AEHNSTCORPLF', 'AEHNSTCORPLFW', 'AEHNSTCORPLFWJ', 'AEHNSTCORPLFWJB', 'AEHNSTCORPLFWJBZ'], 'word_state': ['_____', '____A', '_E__A', '_E__A', '_E__A', '_E__A', '_E__A', '_E__A', '_E__A', '_E_RA', '_E_RA', '_E_RA', '_E_RA', '_E_RA', '_E_RA', '_EBRA', 'ZEBRA']}","['A', 'E', 'H', 'N', 'S', 'T', 'C', 'O', 'R', 'P', 'L', 'F', 'W', 'J', 'B', 'Z']",16.0,4.0,0.0,,,,,,,,,,
,instructions,6,119697,0.0-5.0,,21,"[74, 68, 220, 21, 54, 66, 4, 168, 15, 232, 14, 144, 57, 69, 92, 193, 96, 130, 129, 130, 15, 226, 178, 79, 30, 82, 51, 173, 230, 175, 29, 213]",10,669a58f4f17d67c0aba4c4d3,5589565cfdf99b6bd06016dc,669a5eba8f75d5d46fa21d4a,1,0,0,True,4,18,"[{""page_index"":0,""viewing_time"":2543.5},{""page_index"":1,""viewing_time"":17599.90000000596}]",20143.90000000596,,,,,,,,,,,,,,,,,,,,
,survey-multi-choice,7,132857,0.0-6.0,,21,"[74, 68, 220, 21, 54, 66, 4, 168, 15, 232, 14, 144, 57, 69, 92, 193, 96, 130, 129, 130, 15, 226, 178, 79, 30, 82, 51, 173, 230, 175, 29, 213]",10,669a58f4f17d67c0aba4c4d3,5589565cfdf99b6bd06016dc,669a5eba8f75d5d46fa21d4a,1,0,0,True,4,18,,13159.20000000298,"{""Q0"":""...from <b>a previous session</b> that is part of the upcoming tournament.""}",[0],0.0,multichoice_leaderboard,,,,,,,,,,,,,,,,
,instructions,8,135201,0.0-7.0-0.0,,21,"[74, 68, 220, 21, 54, 66, 4, 168, 15, 232, 14, 144, 57, 69, 92, 193, 96, 130, 129, 130, 15, 226, 178, 79, 30, 82, 51, 173, 230, 175, 29, 213]",10,669a58f4f17d67c0aba4c4d3,5589565cfdf99b6bd06016dc,669a5eba8f75d5d46fa21d4a,1,0,0,True,4,18,"[{""page_index"":0,""viewing_time"":2343.1000000089407}]",2343.20000000298,,,,,,,,,,,,,,,,,,,,
,survey-multi-choice,9,150817,0.0-7.0-1.0,,21,"[74, 68, 220, 21, 54, 66, 4, 168, 15, 232, 14, 144, 57, 69, 92, 193, 96, 130, 129, 130, 15, 226, 178, 79, 30, 82, 51, 173, 230, 175, 29, 213]",10,669a58f4f17d67c0aba4c4d3,5589565cfdf99b6bd06016dc,669a5eba8f75d5d46fa21d4a,1,0,0,True,4,18,,15615.5,"{""Q0"":""...from <b>a previous session</b> that is not part of the upcoming tournament.""}",[0],1.0,multichoice_leaderboard,,,,,,,,,,,,,,,,
,instructions,10,164897,0.0-8.0,,21,"[74, 68, 220, 21, 54, 66, 4, 168, 15, 232, 14, 144, 57, 69, 92, 193, 96, 130, 129, 130, 15, 226, 178, 79, 30, 82, 51, 173, 230, 175, 29, 213]",10,669a58f4f17d67c0aba4c4d3,5589565cfdf99b6bd06016dc,669a5eba8f75d5d46fa21d4a,1,0,0,True,4,18,"[{""page_index"":0,""viewing_time"":14078.59999999404}]",14078.79999999702,,,,,,,,,,,,,,,,,,,,
,survey-multi-choice,11,179858,0.0-9.0,,21,"[74, 68, 220, 21, 54, 66, 4, 168, 15, 232, 14, 144, 57, 69, 92, 193, 96, 130, 129, 130, 15, 226, 178, 79, 30, 82, 51, 173, 230, 175, 29, 213]",10,669a58f4f17d67c0aba4c4d3,5589565cfdf99b6bd06016dc,669a5eba8f75d5d46fa21d4a,1,0,0,True,4,18,,14959.70000000298,"{""Q0"":""...players' leaderboard position (in terms of <b>points</b>) in an <b>upcoming tournament.</b>""}",[0],1.0,multichoice_tournament,,,,,,,,,,,,,,,,
,instructions,12,194929,0.0-11.0,,21,"[74, 68, 220, 21, 54, 66, 4, 168, 15, 232, 14, 144, 57, 69, 92, 193, 96, 130, 129, 130, 15, 226, 178, 79, 30, 82, 51, 173, 230, 175, 29, 213]",10,669a58f4f17d67c0aba4c4d3,5589565cfdf99b6bd06016dc,669a5eba8f75d5d46fa21d4a,1,0,0,True,4,18,"[{""page_index"":0,""viewing_time"":15070.60000000894}]",15070.70000000298,,,,,,,,,,,,,,,,,,,,
,instructions,13,224193,0.0-12.0-0.0,,21,"[74, 68, 220, 21, 54, 66, 4, 168, 15, 232, 14, 144, 57, 69, 92, 193, 96, 130, 129, 130, 15, 226, 178, 79, 30, 82, 51, 173, 230, 175, 29, 213]",10,669a58f4f17d67c0aba4c4d3,5589565cfdf99b6bd06016dc,669a5eba8f75d5d46fa21d4a,1,0,0,True,4,18,"[{""page_index"":0,""viewing_time"":29263.29999999702}]",29263.5,,,,,,,,,,,,,,,,,,,,
,type-this,14,232911,0.0-12.0-1.0,,21,"[74, 68, 220, 21, 54, 66, 4, 168, 15, 232, 14, 144, 57, 69, 92, 193, 96, 130, 129, 130, 15, 226, 178, 79, 30, 82, 51, 173, 230, 175, 29, 213]",10,669a58f4f17d67c0aba4c4d3,5589565cfdf99b6bd06016dc,669a5eba8f75d5d46fa21d4a,1,0,0,True,4,18,,8214.90000000596,['KENTUCKY'],,,,,,,,,,,,,,,,,KENTUCKY,,
,Hangman_replay,15,291142,0.0-12.0-2.0,,21,"[74, 68, 220, 21, 54, 66, 4, 168, 15, 232, 14, 144, 57, 69, 92, 193, 96, 130, 129, 130, 15, 226, 178, 79, 30, 82, 51, 173, 230, 175, 29, 213]",10,669a58f4f17d67c0aba4c4d3,5589565cfdf99b6bd06016dc,669a5eba8f75d5d46fa21d4a,1,0,0,True,4,18,,,,,,,KENTUCKY,"{'letter': ['', 'A', 'I', 'E', 'K', 'N', 'T', 'U', 'C', 'Y'], 't': [0, 35324.90000000596, 41224.79999999702, 45691.5, 48608.09999999404, 52041.5, 52758.29999999702, 53408.20000000298, 55008.40000000596, 56225.09999999404], 'hit': [None, 0, 0, 1, 2, 1, 1, 1, 1, 1], 'asked': ['', 'A', 'AI', 'AIE', 'AIEK', 'AIEKN', 'AIEKNT', 'AIEKNTU', 'AIEKNTUC', 'AIEKNTUCY'], 'word_state': ['________', '________', '________', '_E______', 'KE____K_', 'KEN___K_', 'KENT__K_', 'KENTU_K_', 'KENTUCK_', 'KENTUCKY']}","['A', 'I', 'E', 'K', 'N', 'T', 'U', 'C', 'Y']",9.0,13.0,0.0,,,,,,,,,,
,instructions,16,294825,0.0-12.0-3.0,,21,"[74, 68, 220, 21, 54, 66, 4, 168, 15, 232, 14, 144, 57, 69, 92, 193, 96, 130, 129, 130, 15, 226, 178, 79, 30, 82, 51, 173, 230, 175, 29, 213]",10,669a58f4f17d67c0aba4c4d3,5589565cfdf99b6bd06016dc,669a5eba8f75d5d46fa21d4a,1,0,0,True,4,18,"[{""page_index"":0,""viewing_time"":3682.4000000059605}]",3682.70000000298,,,,,,,,,,,,,,,,,,,,
,Guess_leaderboard,17,307157,0.0-12.0-4.0,,21,"[74, 68, 220, 21, 54, 66, 4, 168, 15, 232, 14, 144, 57, 69, 92, 193, 96, 130, 129, 130, 15, 226, 178, 79, 30, 82, 51, 173, 230, 175, 29, 213]",10,669a58f4f17d67c0aba4c4d3,5589565cfdf99b6bd06016dc,669a5eba8f75d5d46fa21d4a,1,0,0,True,4,18,,,,,,,KENTUCKY,,,,,,11564.59999999404,35.0,5.0,0.0,8.0,27.0,,,,
,instructions,18,317576,0.0-12.0-0.1,,21,"[74, 68, 220, 21, 54, 66, 4, 168, 15, 232, 14, 144, 57, 69, 92, 193, 96, 130, 129, 130, 15, 226, 178, 79, 30, 82, 51, 173, 230, 175, 29, 213]",10,669a58f4f17d67c0aba4c4d3,5589565cfdf99b6bd06016dc,669a5eba8f75d5d46fa21d4a,1,0,0,True,4,18,"[{""page_index"":0,""viewing_time"":10418.09999999404}]",10418.20000000298,,,,,,,,,,,,,,,,,,,,
,type-this,19,322933,0.0-12.0-1.1,,21,"[74, 68, 220, 21, 54, 66, 4, 168, 15, 232, 14, 144, 57, 69, 92, 193, 96, 130, 129, 130, 15, 226, 178, 79, 30, 82, 51, 173, 230, 175, 29, 213]",10,669a58f4f17d67c0aba4c4d3,5589565cfdf99b6bd06016dc,669a5eba8f75d5d46fa21d4a,1,0,0,True,4,18,,4855.199999988079,['SHAKIRA'],,,,,,,,,,,,,,,,,SHAKIRA,,
,Hangman_replay,20,355994,0.0-12.0-2.1,,21,"[74, 68, 220, 21, 54, 66, 4, 168, 15, 232, 14, 144, 57, 69, 92, 193, 96, 130, 129, 130, 15, 226, 178, 79, 30, 82, 51, 173, 230, 175, 29, 213]",10,669a58f4f17d67c0aba4c4d3,5589565cfdf99b6bd06016dc,669a5eba8f75d5d46fa21d4a,1,0,0,True,4,18,,,,,,,SHAKIRA,"{'letter': ['', 'E', 'A', 'S', 'H', 'K', 'I', 'R'], 't': [0, 4072.5999999940395, 5005.79999999702, 9689.20000000298, 16822.70000000298, 28973.09999999404, 30323, 31056.20000000298], 'hit': [None, 0, 2, 1, 1, 1, 1, 1], 'asked': ['', 'E', 'EA', 'EAS', 'EASH', 'EASHK', 'EASHKI', 'EASHKIR'], 'word_state': ['_______', '_______', '__A___A', 'S_A___A', 'SHA___A', 'SHAK__A', 'SHAKI_A', 'SHAKIRA']}","['E', 'A', 'S', 'H', 'K', 'I', 'R']",7.0,14.0,0.0,,,,,,,,,,
,instructions,21,357769,0.0-12.0-3.1,,21,"[74, 68, 220, 21, 54, 66, 4, 168, 15, 232, 14, 144, 57, 69, 92, 193, 96, 130, 129, 130, 15, 226, 178, 79, 30, 82, 51, 173, 230, 175, 29, 213]",10,669a58f4f17d67c0aba4c4d3,5589565cfdf99b6bd06016dc,669a5eba8f75d5d46fa21d4a,1,0,0,True,4,18,"[{""page_index"":0,""viewing_time"":1774.5999999940395}]",1774.8999999910593,,,,,,,,,,,,,,,,,,,,
,Guess_leaderboard,22,361409,0.0-12.0-4.1,,21,"[74, 68, 220, 21, 54, 66, 4, 168, 15, 232, 14, 144, 57, 69, 92, 193, 96, 130, 129, 130, 15, 226, 178, 79, 30, 82, 51, 173, 230, 175, 29, 213]",10,669a58f4f17d67c0aba4c4d3,5589565cfdf99b6bd06016dc,669a5eba8f75d5d46fa21d4a,1,0,0,True,4,18,,,,,,,SHAKIRA,,,,,,2886.4000000059605,15.0,11.0,1.0,19.0,4.0,,,,
,instructions,23,383049,0.0-12.0-0.2,,21,"[74, 68, 220, 21, 54, 66, 4, 168, 15, 232, 14, 144, 57, 69, 92, 193, 96, 130, 129, 130, 15, 226, 178, 79, 30, 82, 51, 173, 230, 175, 29, 213]",10,669a58f4f17d67c0aba4c4d3,5589565cfdf99b6bd06016dc,669a5eba8f75d5d46fa21d4a,1,0,0,True,4,18,"[{""page_index"":0,""viewing_time"":21639}]",21639.20000000298,,,,,,,,,,,,,,,,,,,,
,type-this,24,389110,0.0-12.0-1.2,,21,"[74, 68, 220, 21, 54, 66, 4, 168, 15, 232, 14, 144, 57, 69, 92, 193, 96, 130, 129, 130, 15, 226, 178, 79, 30, 82, 51, 173, 230, 175, 29, 213]",10,669a58f4f17d67c0aba4c4d3,5589565cfdf99b6bd06016dc,669a5eba8f75d5d46fa21d4a,1,0,0,True,4,18,,5559.5,['THIRTY FOUR'],,,,,,,,,,,,,,,,,THIRTY FOUR,,
,Hangman_replay,25,432646,0.0-12.0-2.2,,21,"[74, 68, 220, 21, 54, 66, 4, 168, 15, 232, 14, 144, 57, 69, 92, 193, 96, 130, 129, 130, 15, 226, 178, 79, 30, 82, 51, 173, 230, 175, 29, 213]",10,669a58f4f17d67c0aba4c4d3,5589565cfdf99b6bd06016dc,669a5eba8f75d5d46fa21d4a,1,0,0,True,4,18,,,,,,,THIRTY FOUR,"{'letter': ['', 'E', 'A', 'S', 'N', 'I', 'R', 'T', 'H', 'Y', 'F', 'O', 'U'], 't': [0, 7380.5, 8597.10000000894, 14347.300000011921, 20880.90000000596, 22564.20000000298, 25647.60000000894, 28930.90000000596, 31031.10000000894, 32614.40000000596, 35097.90000000596, 40198, 41531.30000001192], 'hit': [None, 0, 0, 0, 0, 1, 2, 2, 1, 1, 1, 1, 1], 'asked': ['', 'E', 'EA', 'EAS', 'EASN', 'EASNI', 'EASNIR', 'EASNIRT', 'EASNIRTH', 'EASNIRTHY', 'EASNIRTHYF', 'EASNIRTHYFO', 'EASNIRTHYFOU'], 'word_state': ['______ ____', '______ ____', '______ ____', '______ ____', '______ ____', '__I___ ____', '__IR__ ___R', 'T_IRT_ ___R', 'THIRT_ ___R', 'THIRTY ___R', 'THIRTY F__R', 'THIRTY FO_R', 'THIRTY FOUR']}","['E', 'A', 'S', 'N', 'I', 'R', 'T', 'H', 'Y', 'F', 'O', 'U']",12.0,11.0,0.0,,,,,,,,,,
,instructions,26,436177,0.0-12.0-3.2,,21,"[74, 68, 220, 21, 54, 66, 4, 168, 15, 232, 14, 144, 57, 69, 92, 193, 96, 130, 129, 130, 15, 226, 178, 79, 30, 82, 51, 173, 230, 175, 29, 213]",10,669a58f4f17d67c0aba4c4d3,5589565cfdf99b6bd06016dc,669a5eba8f75d5d46fa21d4a,1,0,0,True,4,18,"[{""page_index"":0,""viewing_time"":3530.2000000029802}]",3530.5,,,,,,,,,,,,,,,,,,,,
,Guess_leaderboard,27,441727,0.0-12.0-4.2,,21,"[74, 68, 220, 21, 54, 66, 4, 168, 15, 232, 14, 144, 57, 69, 92, 193, 96, 130, 129, 130, 15, 226, 178, 79, 30, 82, 51, 173, 230, 175, 29, 213]",10,669a58f4f17d67c0aba4c4d3,5589565cfdf99b6bd06016dc,669a5eba8f75d5d46fa21d4a,1,0,0,True,4,18,,,,,,,THIRTY FOUR,,,,,,4781.0,81.0,81.0,2.0,65.0,16.0,,,,
,instructions,28,454497,0.0-12.0-0.3,,21,"[74, 68, 220, 21, 54, 66, 4, 168, 15, 232, 14, 144, 57, 69, 92, 193, 96, 130, 129, 130, 15, 226, 178, 79, 30, 82, 51, 173, 230, 175, 29, 213]",10,669a58f4f17d67c0aba4c4d3,5589565cfdf99b6bd06016dc,669a5eba8f75d5d46fa21d4a,1,0,0,True,4,18,"[{""page_index"":0,""viewing_time"":12768.20000000298}]",12768.30000001192,,,,,,,,,,,,,,,,,,,,
,type-this,29,460853,0.0-12.0-1.3,,21,"[74, 68, 220, 21, 54, 66, 4, 168, 15, 232, 14, 144, 57, 69, 92, 193, 96, 130, 129, 130, 15, 226, 178, 79, 30, 82, 51, 173, 230, 175, 29, 213]",10,669a58f4f17d67c0aba4c4d3,5589565cfdf99b6bd06016dc,669a5eba8f75d5d46fa21d4a,1,0,0,True,4,18,,5855.0,['NECTARINE'],,,,,,,,,,,,,,,,,NECTARINE,,
,Hangman_replay,30,480746,0.0-12.0-2.3,,21,"[74, 68, 220, 21, 54, 66, 4, 168, 15, 232, 14, 144, 57, 69, 92, 193, 96, 130, 129, 130, 15, 226, 178, 79, 30, 82, 51, 173, 230, 175, 29, 213]",10,669a58f4f17d67c0aba4c4d3,5589565cfdf99b6bd06016dc,669a5eba8f75d5d46fa21d4a,1,0,0,True,4,18,,,,,,,NECTARINE,"{'letter': ['', 'B', 'A', 'N', 'R', 'S', 'T', 'L', 'E', 'C', 'I'], 't': [0, 3356.4000000059605, 4656.5999999940395, 5539.70000000298, 8923, 10823.09999999404, 11756.5, 12406.5, 13706.59999999404, 15906.59999999404, 17890], 'hit': [None, 0, 1, 2, 1, 0, 1, 0, 2, 1, 1], 'asked': ['', 'B', 'BA', 'BAN', 'BANR', 'BANRS', 'BANRST', 'BANRSTL', 'BANRSTLE', 'BANRSTLEC', 'BANRSTLECI'], 'word_state': ['_________', '_________', '____A____', 'N___A__N_', 'N___AR_N_', 'N___AR_N_', 'N__TAR_N_', 'N__TAR_N_', 'NE_TAR_NE', 'NECTAR_NE', 'NECTARINE']}","['B', 'A', 'N', 'R', 'S', 'T', 'L', 'E', 'C', 'I']",10.0,12.0,0.0,,,,,,,,,,
,instructions,31,482457,0.0-12.0-3.3,,21,"[74, 68, 220, 21, 54, 66, 4, 168, 15, 232, 14, 144, 57, 69, 92, 193, 96, 130, 129, 130, 15, 226, 178, 79, 30, 82, 51, 173, 230, 175, 29, 213]",10,669a58f4f17d67c0aba4c4d3,5589565cfdf99b6bd06016dc,669a5eba8f75d5d46fa21d4a,1,0,0,True,4,18,"[{""page_index"":0,""viewing_time"":1709.5999999940395}]",1709.7999999970198,,,,,,,,,,,,,,,,,,,,
,Guess_leaderboard,32,489978,0.0-12.0-4.3,,21,"[74, 68, 220, 21, 54, 66, 4, 168, 15, 232, 14, 144, 57, 69, 92, 193, 96, 130, 129, 130, 15, 226, 178, 79, 30, 82, 51, 173, 230, 175, 29, 213]",10,669a58f4f17d67c0aba4c4d3,5589565cfdf99b6bd06016dc,669a5eba8f75d5d46fa21d4a,1,0,0,True,4,18,,,,,,,NECTARINE,,,,,,6758.70000000298,33.0,33.0,3.0,72.0,39.0,,,,
,instructions,33,496448,0.0-12.0-0.4,,21,"[74, 68, 220, 21, 54, 66, 4, 168, 15, 232, 14, 144, 57, 69, 92, 193, 96, 130, 129, 130, 15, 226, 178, 79, 30, 82, 51, 173, 230, 175, 29, 213]",10,669a58f4f17d67c0aba4c4d3,5589565cfdf99b6bd06016dc,669a5eba8f75d5d46fa21d4a,1,0,0,True,4,18,"[{""page_index"":0,""viewing_time"":6469.20000000298}]",6469.4000000059605,,,,,,,,,,,,,,,,,,,,
,type-this,34,501127,0.0-12.0-1.4,,21,"[74, 68, 220, 21, 54, 66, 4, 168, 15, 232, 14, 144, 57, 69, 92, 193, 96, 130, 129, 130, 15, 226, 178, 79, 30, 82, 51, 173, 230, 175, 29, 213]",10,669a58f4f17d67c0aba4c4d3,5589565cfdf99b6bd06016dc,669a5eba8f75d5d46fa21d4a,1,0,0,True,4,18,,4175.20000000298,['THUMB'],,,,,,,,,,,,,,,,,THUMB,,
,Hangman_replay,35,552982,0.0-12.0-2.4,,21,"[74, 68, 220, 21, 54, 66, 4, 168, 15, 232, 14, 144, 57, 69, 92, 193, 96, 130, 129, 130, 15, 226, 178, 79, 30, 82, 51, 173, 230, 175, 29, 213]",10,669a58f4f17d67c0aba4c4d3,5589565cfdf99b6bd06016dc,669a5eba8f75d5d46fa21d4a,1,0,0,True,4,18,,,,,,,THUMB,"{'letter': ['', 'A', 'I', 'E', 'O', 'U', 'T', 'R', 'H', 'M', 'B'], 't': [0, 4583.70000000298, 7067, 8950.5, 10550.39999999106, 16967.29999999702, 32201, 40784.39999999106, 46551.20000000298, 49018, 49851.39999999106], 'hit': [None, 0, 0, 0, 0, 1, 1, 0, 1, 1, 1], 'asked': ['', 'A', 'AI', 'AIE', 'AIEO', 'AIEOU', 'AIEOUT', 'AIEOUTR', 'AIEOUTRH', 'AIEOUTRHM', 'AIEOUTRHMB'], 'word_state': ['_____', '_____', '_____', '_____', '_____', '__U__', 'T_U__', 'T_U__', 'THU__', 'THUM_', 'THUMB']}","['A', 'I', 'E', 'O', 'U', 'T', 'R', 'H', 'M', 'B']",10.0,10.0,0.0,,,,,,,,,,
,instructions,36,560249,0.0-12.0-3.4,,21,"[74, 68, 220, 21, 54, 66, 4, 168, 15, 232, 14, 144, 57, 69, 92, 193, 96, 130, 129, 130, 15, 226, 178, 79, 30, 82, 51, 173, 230, 175, 29, 213]",10,669a58f4f17d67c0aba4c4d3,5589565cfdf99b6bd06016dc,669a5eba8f75d5d46fa21d4a,1,0,0,True,4,18,"[{""page_index"":0,""viewing_time"":7265.9000000059605}]",7266.29999999702,,,,,,,,,,,,,,,,,,,,
,Guess_leaderboard,37,568897,0.0-12.0-4.4,,21,"[74, 68, 220, 21, 54, 66, 4, 168, 15, 232, 14, 144, 57, 69, 92, 193, 96, 130, 129, 130, 15, 226, 178, 79, 30, 82, 51, 173, 230, 175, 29, 213]",10,669a58f4f17d67c0aba4c4d3,5589565cfdf99b6bd06016dc,669a5eba8f75d5d46fa21d4a,1,0,0,True,4,18,,,,,,,THUMB,,,,,,7892.79999999702,81.0,84.0,4.0,28.0,53.0,,,,
,survey-text,38,574953,0.0-13.0,,21,"[74, 68, 220, 21, 54, 66, 4, 168, 15, 232, 14, 144, 57, 69, 92, 193, 96, 130, 129, 130, 15, 226, 178, 79, 30, 82, 51, 173, 230, 175, 29, 213]",10,669a58f4f17d67c0aba4c4d3,5589565cfdf99b6bd06016dc,669a5eba8f75d5d46fa21d4a,1,0,0,True,4,18,,6054.800000011921,"{""Q0"":""THUMB""}",,,,,,,,,,,,,,,,thumb,,,
,survey-multi-choice,39,590393,0.0-14.0,,21,"[74, 68, 220, 21, 54, 66, 4, 168, 15, 232, 14, 144, 57, 69, 92, 193, 96, 130, 129, 130, 15, 226, 178, 79, 30, 82, 51, 173, 230, 175, 29, 213]",10,669a58f4f17d67c0aba4c4d3,5589565cfdf99b6bd06016dc,669a5eba8f75d5d46fa21d4a,1,0,0,True,4,18,,15438.90000000596,"{""Q0"":""4. I would be <b>fourth</b> out of the six of us.""}",[0],,self-rating,,,,,,,,4.0,,,,,,,,
,html-slider-response,40,595833,0.0-15.0,,21,"[74, 68, 220, 21, 54, 66, 4, 168, 15, 232, 14, 144, 57, 69, 92, 193, 96, 130, 129, 130, 15, 226, 178, 79, 30, 82, 51, 173, 230, 175, 29, 213]",10,669a58f4f17d67c0aba4c4d3,5589565cfdf99b6bd06016dc,669a5eba8f75d5d46fa21d4a,1,0,0,True,4,18,,5438.29999999702,,,,,,,,,,,,,,,,,,18,"<p>Overall, how confident were you in your answer to this last question?</p>",18.0
,survey-text,41,619793,0.0-16.0,,21,"[74, 68, 220, 21, 54, 66, 4, 168, 15, 232, 14, 144, 57, 69, 92, 193, 96, 130, 129, 130, 15, 226, 178, 79, 30, 82, 51, 173, 230, 175, 29, 213]",10,669a58f4f17d67c0aba4c4d3,5589565cfdf99b6bd06016dc,669a5eba8f75d5d46fa21d4a,1,0,0,True,4,18,,23958.5,"{""Q0"":""I think to evaluate my performance compared to others?""}",,,,,,,,,,,,,,,,,,,
,survey-text,42,635760,0.0-17.0,,21,"[74, 68, 220, 21, 54, 66, 4, 168, 15, 232, 14, 144, 57, 69, 92, 193, 96, 130, 129, 130, 15, 226, 178, 79, 30, 82, 51, 173, 230, 175, 29, 213]",10,669a58f4f17d67c0aba4c4d3,5589565cfdf99b6bd06016dc,669a5eba8f75d5d46fa21d4a,1,0,0,True,4,18,,15966.70000000298,"{""Q0"":""I wish I could have played.  I enjoyed this task.  Thank you. ""}",,,,,,,,,,,,,,,,,,,
,instructions,43,645712,0.0-18.0,,21,"[74, 68, 220, 21, 54, 66, 4, 168, 15, 232, 14, 144, 57, 69, 92, 193, 96, 130, 129, 130, 15, 226, 178, 79, 30, 82, 51, 173, 230, 175, 29, 213]",10,669a58f4f17d67c0aba4c4d3,5589565cfdf99b6bd06016dc,669a5eba8f75d5d46fa21d4a,1,0,0,True,4,18,"[{""page_index"":0,""viewing_time"":9951.29999999702}]",9951.39999999106,,,,,,,,,,,,,,,,,,,,
1.0,fullscreen,0,5082,0.0-0.0,,22,"[79, 200, 43, 38, 174, 203, 71, 210, 134, 140, 78, 251, 227, 88, 23, 50, 163, 231, 203, 204, 108, 46, 251, 50, 6, 44, 8, 23, 10, 5, 238, 184]",11,669a58f4f17d67c0aba4c4d3,66743dc61dc3fc51cbb8fefd,669a62d962ae11699be55bf5,2,0,0,False,3,63,,,,,,,,,,,,,,,,,,,,,,
,instructions,1,6613,0.0-1.0,,22,"[79, 200, 43, 38, 174, 203, 71, 210, 134, 140, 78, 251, 227, 88, 23, 50, 163, 231, 203, 204, 108, 46, 251, 50, 6, 44, 8, 23, 10, 5, 238, 184]",11,669a58f4f17d67c0aba4c4d3,66743dc61dc3fc51cbb8fefd,669a62d962ae11699be55bf5,2,0,0,False,3,63,"[{""page_index"":0,""viewing_time"":1529.7000000029802}]",1529.9000000059605,,,,,,,,,,,,,,,,,,,,
,instructions,2,7573,0.0-2.0-0.0,,22,"[79, 200, 43, 38, 174, 203, 71, 210, 134, 140, 78, 251, 227, 88, 23, 50, 163, 231, 203, 204, 108, 46, 251, 50, 6, 44, 8, 23, 10, 5, 238, 184]",11,669a58f4f17d67c0aba4c4d3,66743dc61dc3fc51cbb8fefd,669a62d962ae11699be55bf5,2,0,0,False,3,63,"[{""page_index"":0,""viewing_time"":959.1999999880791}]",959.5,,,,,,,,,,,,,,,,,,,,
,survey-multi-choice,3,23005,0.0-2.0-1.0,,22,"[79, 200, 43, 38, 174, 203, 71, 210, 134, 140, 78, 251, 227, 88, 23, 50, 163, 231, 203, 204, 108, 46, 251, 50, 6, 44, 8, 23, 10, 5, 238, 184]",11,669a58f4f17d67c0aba4c4d3,66743dc61dc3fc51cbb8fefd,669a62d962ae11699be55bf5,2,0,0,False,3,63,,15431.19999998808,"{""Q0"":""... go <b>really fast</b> and finish the game as quickly as possible""}",[0],0.0,multichoice_nonpretend,,,,,,,,,,,,,,,,
,instructions,4,32949,0.0-2.1-0.1,,22,"[79, 200, 43, 38, 174, 203, 71, 210, 134, 140, 78, 251, 227, 88, 23, 50, 163, 231, 203, 204, 108, 46, 251, 50, 6, 44, 8, 23, 10, 5, 238, 184]",11,669a58f4f17d67c0aba4c4d3,66743dc61dc3fc51cbb8fefd,669a62d962ae11699be55bf5,2,0,0,False,3,63,"[{""page_index"":0,""viewing_time"":9942.800000011921}]",9943.0,,,,,,,,,,,,,,,,,,,,
,survey-multi-choice,5,37726,0.0-2.1-1.1,,22,"[79, 200, 43, 38, 174, 203, 71, 210, 134, 140, 78, 251, 227, 88, 23, 50, 163, 231, 203, 204, 108, 46, 251, 50, 6, 44, 8, 23, 10, 5, 238, 184]",11,669a58f4f17d67c0aba4c4d3,66743dc61dc3fc51cbb8fefd,669a62d962ae11699be55bf5,2,0,0,False,3,63,,4775.70000000298,"{""Q0"":""... reveal the word with as <b>few letter guesses</b> as possible""}",[0],1.0,multichoice_nonpretend,,,,,,,,,,,,,,,,
,instructions,6,38909,0.0-3.0,,22,"[79, 200, 43, 38, 174, 203, 71, 210, 134, 140, 78, 251, 227, 88, 23, 50, 163, 231, 203, 204, 108, 46, 251, 50, 6, 44, 8, 23, 10, 5, 238, 184]",11,669a58f4f17d67c0aba4c4d3,66743dc61dc3fc51cbb8fefd,669a62d962ae11699be55bf5,2,0,0,False,3,63,"[{""page_index"":0,""viewing_time"":1182.7000000029802}]",1182.9000000059605,,,,,,,,,,,,,,,,,,,,
,Hangman,7,88712,0.0-4.0,,22,"[79, 200, 43, 38, 174, 203, 71, 210, 134, 140, 78, 251, 227, 88, 23, 50, 163, 231, 203, 204, 108, 46, 251, 50, 6, 44, 8, 23, 10, 5, 238, 184]",11,669a58f4f17d67c0aba4c4d3,66743dc61dc3fc51cbb8fefd,669a62d962ae11699be55bf5,2,0,0,False,3,63,,,,,,,ZEBRA,"{'letter': ['', 'F', 'R', 'N', 'A', 'I', 'S', 'O', 'B', 'Z', 'E'], 't': [0, 9138.10000000894, 12288, 20736.30000001192, 23196.60000000894, 28444.60000000894, 31270, 39212.90000000596, 41996.70000000298, 46238.10000000894, 47796.70000000298], 'hit': [None, 0, 1, 0, 1, 0, 0, 0, 1, 1, 1], 'asked': ['', 'F', 'FR', 'FRN', 'FRNA', 'FRNAI', 'FRNAIS', 'FRNAISO', 'FRNAISOB', 'FRNAISOBZ', 'FRNAISOBZE'], 'word_state': ['_____', '_____', '___R_', '___R_', '___RA', '___RA', '___RA', '___RA', '__BRA', 'Z_BRA', 'ZEBRA']}","['F', 'R', 'N', 'A', 'I', 'S', 'O', 'B', 'Z', 'E']",10.0,10.0,0.0,,,,,,,,,,
,instructions,8,97374,0.0-5.0,,22,"[79, 200, 43, 38, 174, 203, 71, 210, 134, 140, 78, 251, 227, 88, 23, 50, 163, 231, 203, 204, 108, 46, 251, 50, 6, 44, 8, 23, 10, 5, 238, 184]",11,669a58f4f17d67c0aba4c4d3,66743dc61dc3fc51cbb8fefd,669a62d962ae11699be55bf5,2,0,0,False,3,63,"[{""page_index"":0,""viewing_time"":2037.2000000029802},{""page_index"":1,""viewing_time"":6623.79999999702}]",8661.59999999404,,,,,,,,,,,,,,,,,,,,
,survey-multi-choice,9,102638,0.0-6.0,,22,"[79, 200, 43, 38, 174, 203, 71, 210, 134, 140, 78, 251, 227, 88, 23, 50, 163, 231, 203, 204, 108, 46, 251, 50, 6, 44, 8, 23, 10, 5, 238, 184]",11,669a58f4f17d67c0aba4c4d3,66743dc61dc3fc51cbb8fefd,669a62d962ae11699be55bf5,2,0,0,False,3,63,,5263.29999999702,"{""Q0"":""...from <b>a previous session</b> that is not part of the upcoming tournament.""}",[0],1.0,multichoice_leaderboard,,,,,,,,,,,,,,,,
,instructions,10,106405,0.0-8.0,,22,"[79, 200, 43, 38, 174, 203, 71, 210, 134, 140, 78, 251, 227, 88, 23, 50, 163, 231, 203, 204, 108, 46, 251, 50, 6, 44, 8, 23, 10, 5, 238, 184]",11,669a58f4f17d67c0aba4c4d3,66743dc61dc3fc51cbb8fefd,669a62d962ae11699be55bf5,2,0,0,False,3,63,"[{""page_index"":0,""viewing_time"":3767.1000000089407}]",3767.20000000298,,,,,,,,,,,,,,,,,,,,
,survey-multi-choice,11,117990,0.0-9.0,,22,"[79, 200, 43, 38, 174, 203, 71, 210, 134, 140, 78, 251, 227, 88, 23, 50, 163, 231, 203, 204, 108, 46, 251, 50, 6, 44, 8, 23, 10, 5, 238, 184]",11,669a58f4f17d67c0aba4c4d3,66743dc61dc3fc51cbb8fefd,669a62d962ae11699be55bf5,2,0,0,False,3,63,,11583.59999999404,"{""Q0"":""...players' leaderboard position (in terms of <b>points</b>) in an <b>upcoming tournament.</b>""}",[0],1.0,multichoice_tournament,,,,,,,,,,,,,,,,
,instructions,12,121821,0.0-11.0,,22,"[79, 200, 43, 38, 174, 203, 71, 210, 134, 140, 78, 251, 227, 88, 23, 50, 163, 231, 203, 204, 108, 46, 251, 50, 6, 44, 8, 23, 10, 5, 238, 184]",11,669a58f4f17d67c0aba4c4d3,66743dc61dc3fc51cbb8fefd,669a62d962ae11699be55bf5,2,0,0,False,3,63,"[{""page_index"":0,""viewing_time"":3831.2000000029802}]",3831.400000005961,,,,,,,,,,,,,,,,,,,,
,instructions,13,125045,0.0-12.0-0.0,,22,"[79, 200, 43, 38, 174, 203, 71, 210, 134, 140, 78, 251, 227, 88, 23, 50, 163, 231, 203, 204, 108, 46, 251, 50, 6, 44, 8, 23, 10, 5, 238, 184]",11,669a58f4f17d67c0aba4c4d3,66743dc61dc3fc51cbb8fefd,669a62d962ae11699be55bf5,2,0,0,False,3,63,"[{""page_index"":0,""viewing_time"":3223.4000000059605}]",3223.6000000089407,,,,,,,,,,,,,,,,,,,,
,Hangman_replay,14,175281,0.0-12.0-1.0,,22,"[79, 200, 43, 38, 174, 203, 71, 210, 134, 140, 78, 251, 227, 88, 23, 50, 163, 231, 203, 204, 108, 46, 251, 50, 6, 44, 8, 23, 10, 5, 238, 184]",11,669a58f4f17d67c0aba4c4d3,66743dc61dc3fc51cbb8fefd,669a62d962ae11699be55bf5,2,0,0,False,3,63,,,,,,,USAIN BOLT,"{'letter': ['', 'A', 'E', 'I', 'O', 'R', 'P', 'T', 'S', 'U', 'N', 'B', 'L'], 't': [0, 6412.5999999940395, 8429.29999999702, 10761.39999999106, 12546.09999999404, 25462.29999999702, 27212.20000000298, 31378.59999999404, 38879.29999999702, 43629.29999999702, 45479.89999999106, 46979.59999999404, 48229], 'hit': [None, 1, 0, 1, 1, 0, 0, 1, 1, 1, 1, 1, 1], 'asked': ['', 'A', 'AE', 'AEI', 'AEIO', 'AEIOR', 'AEIORP', 'AEIORPT', 'AEIORPTS', 'AEIORPTSU', 'AEIORPTSUN', 'AEIORPTSUNB', 'AEIORPTSUNBL'], 'word_state': ['_____ ____', '__A__ ____', '__A__ ____', '__AI_ ____', '__AI_ _O__', '__AI_ _O__', '__AI_ _O__', '__AI_ _O_T', '_SAI_ _O_T', 'USAI_ _O_T', 'USAIN _O_T', 'USAIN BO_T', 'USAIN BOLT']}","['A', 'E', 'I', 'O', 'R', 'P', 'T', 'S', 'U', 'N', 'B', 'L']",12.0,12.0,0.0,,,,,,,,,,
,instructions,15,179670,0.0-12.0-2.0,,22,"[79, 200, 43, 38, 174, 203, 71, 210, 134, 140, 78, 251, 227, 88, 23, 50, 163, 231, 203, 204, 108, 46, 251, 50, 6, 44, 8, 23, 10, 5, 238, 184]",11,669a58f4f17d67c0aba4c4d3,66743dc61dc3fc51cbb8fefd,669a62d962ae11699be55bf5,2,0,0,False,3,63,"[{""page_index"":0,""viewing_time"":4388.5}]",4388.899999991059,,,,,,,,,,,,,,,,,,,,
,Guess_leaderboard,16,189995,0.0-12.0-3.0,,22,"[79, 200, 43, 38, 174, 203, 71, 210, 134, 140, 78, 251, 227, 88, 23, 50, 163, 231, 203, 204, 108, 46, 251, 50, 6, 44, 8, 23, 10, 5, 238, 184]",11,669a58f4f17d67c0aba4c4d3,66743dc61dc3fc51cbb8fefd,669a62d962ae11699be55bf5,2,0,0,False,3,63,,,,,,,USAIN BOLT,,,,,,9563.79999999702,13.0,22.0,0.0,16.0,3.0,,,,
,instructions,17,193647,0.0-12.0-0.1,,22,"[79, 200, 43, 38, 174, 203, 71, 210, 134, 140, 78, 251, 227, 88, 23, 50, 163, 231, 203, 204, 108, 46, 251, 50, 6, 44, 8, 23, 10, 5, 238, 184]",11,669a58f4f17d67c0aba4c4d3,66743dc61dc3fc51cbb8fefd,669a62d962ae11699be55bf5,2,0,0,False,3,63,"[{""page_index"":0,""viewing_time"":3650.9000000059605}]",3651.1000000089407,,,,,,,,,,,,,,,,,,,,
,Hangman_replay,18,224063,0.0-12.0-1.1,,22,"[79, 200, 43, 38, 174, 203, 71, 210, 134, 140, 78, 251, 227, 88, 23, 50, 163, 231, 203, 204, 108, 46, 251, 50, 6, 44, 8, 23, 10, 5, 238, 184]",11,669a58f4f17d67c0aba4c4d3,66743dc61dc3fc51cbb8fefd,669a62d962ae11699be55bf5,2,0,0,False,3,63,,,,,,,HAWAII,"{'letter': ['', 'O', 'H', 'A', 'W', 'I'], 't': [0, 13680.29999999702, 20063, 21846.20000000298, 24346.89999999106, 28397.09999999404], 'hit': [None, 0, 1, 2, 1, 2], 'asked': ['', 'O', 'OH', 'OHA', 'OHAW', 'OHAWI'], 'word_state': ['______', '______', 'H_____', 'HA_A__', 'HAWA__', 'HAWAII']}","['O', 'H', 'A', 'W', 'I']",5.0,14.0,0.0,,,,,,,,,,
,instructions,19,225591,0.0-12.0-2.1,,22,"[79, 200, 43, 38, 174, 203, 71, 210, 134, 140, 78, 251, 227, 88, 23, 50, 163, 231, 203, 204, 108, 46, 251, 50, 6, 44, 8, 23, 10, 5, 238, 184]",11,669a58f4f17d67c0aba4c4d3,66743dc61dc3fc51cbb8fefd,669a62d962ae11699be55bf5,2,0,0,False,3,63,"[{""page_index"":0,""viewing_time"":1526.699999988079}]",1526.8999999910593,,,,,,,,,,,,,,,,,,,,
,Guess_leaderboard,20,229329,0.0-12.0-3.1,,22,"[79, 200, 43, 38, 174, 203, 71, 210, 134, 140, 78, 251, 227, 88, 23, 50, 163, 231, 203, 204, 108, 46, 251, 50, 6, 44, 8, 23, 10, 5, 238, 184]",11,669a58f4f17d67c0aba4c4d3,66743dc61dc3fc51cbb8fefd,669a62d962ae11699be55bf5,2,0,0,False,3,63,,,,,,,HAWAII,,,,,,2972.9000000059605,3.0,9.0,1.0,56.0,53.0,,,,
,instructions,21,230630,0.0-12.0-0.2,,22,"[79, 200, 43, 38, 174, 203, 71, 210, 134, 140, 78, 251, 227, 88, 23, 50, 163, 231, 203, 204, 108, 46, 251, 50, 6, 44, 8, 23, 10, 5, 238, 184]",11,669a58f4f17d67c0aba4c4d3,66743dc61dc3fc51cbb8fefd,669a62d962ae11699be55bf5,2,0,0,False,3,63,"[{""page_index"":0,""viewing_time"":1300.6000000089407}]",1300.800000011921,,,,,,,,,,,,,,,,,,,,
,Hangman_replay,22,286664,0.0-12.0-1.2,,22,"[79, 200, 43, 38, 174, 203, 71, 210, 134, 140, 78, 251, 227, 88, 23, 50, 163, 231, 203, 204, 108, 46, 251, 50, 6, 44, 8, 23, 10, 5, 238, 184]",11,669a58f4f17d67c0aba4c4d3,66743dc61dc3fc51cbb8fefd,669a62d962ae11699be55bf5,2,0,0,False,3,63,,,,,,,WRIST,"{'letter': ['', 'T', 'O', 'A', 'E', 'S', 'I', 'W', 'R'], 't': [0, 8013.9000000059605, 25863.10000000894, 28612.80000001192, 35197.30000001192, 38813.40000000596, 44780.70000000298, 51380, 54013.40000000596], 'hit': [None, 1, 0, 0, 0, 1, 1, 1, 1], 'asked': ['', 'T', 'TO', 'TOA', 'TOAE', 'TOAES', 'TOAESI', 'TOAESIW', 'TOAESIWR'], 'word_state': ['_____', '____T', '____T', '____T', '____T', '___ST', '__IST', 'W_IST', 'WRIST']}","['T', 'O', 'A', 'E', 'S', 'I', 'W', 'R']",8.0,12.0,0.0,,,,,,,,,,
,instructions,23,288199,0.0-12.0-2.2,,22,"[79, 200, 43, 38, 174, 203, 71, 210, 134, 140, 78, 251, 227, 88, 23, 50, 163, 231, 203, 204, 108, 46, 251, 50, 6, 44, 8, 23, 10, 5, 238, 184]",11,669a58f4f17d67c0aba4c4d3,66743dc61dc3fc51cbb8fefd,669a62d962ae11699be55bf5,2,0,0,False,3,63,"[{""page_index"":0,""viewing_time"":1533.5999999940395}]",1533.7999999970198,,,,,,,,,,,,,,,,,,,,
,Guess_leaderboard,24,290912,0.0-12.0-3.2,,22,"[79, 200, 43, 38, 174, 203, 71, 210, 134, 140, 78, 251, 227, 88, 23, 50, 163, 231, 203, 204, 108, 46, 251, 50, 6, 44, 8, 23, 10, 5, 238, 184]",11,669a58f4f17d67c0aba4c4d3,66743dc61dc3fc51cbb8fefd,669a62d962ae11699be55bf5,2,0,0,False,3,63,,,,,,,WRIST,,,,,,1948.699999988079,51.0,36.0,2.0,87.0,36.0,,,,
,instructions,25,291775,0.0-12.0-0.3,,22,"[79, 200, 43, 38, 174, 203, 71, 210, 134, 140, 78, 251, 227, 88, 23, 50, 163, 231, 203, 204, 108, 46, 251, 50, 6, 44, 8, 23, 10, 5, 238, 184]",11,669a58f4f17d67c0aba4c4d3,66743dc61dc3fc51cbb8fefd,669a62d962ae11699be55bf5,2,0,0,False,3,63,"[{""page_index"":0,""viewing_time"":862.1000000089407}]",862.3000000119209,,,,,,,,,,,,,,,,,,,,
,Hangman_replay,26,333549,0.0-12.0-1.3,,22,"[79, 200, 43, 38, 174, 203, 71, 210, 134, 140, 78, 251, 227, 88, 23, 50, 163, 231, 203, 204, 108, 46, 251, 50, 6, 44, 8, 23, 10, 5, 238, 184]",11,669a58f4f17d67c0aba4c4d3,66743dc61dc3fc51cbb8fefd,669a62d962ae11699be55bf5,2,0,0,False,3,63,,,,,,,NECTARINE,"{'letter': ['', 'A', 'W', 'E', 'L', 'M', 'N', 'G', 'H', 'C', 'T', 'R', 'I'], 't': [0, 1736.4000000059605, 4319.5, 6319.79999999702, 12869.60000000894, 14102.20000000298, 14686.79999999702, 24403.29999999702, 25119.60000000894, 26470.40000000596, 32303.40000000596, 37187.10000000894, 39752.79999999702], 'hit': [None, 1, 0, 2, 0, 0, 2, 0, 0, 1, 1, 1, 1], 'asked': ['', 'A', 'AW', 'AWE', 'AWEL', 'AWELM', 'AWELMN', 'AWELMNG', 'AWELMNGH', 'AWELMNGHC', 'AWELMNGHCT', 'AWELMNGHCTR', 'AWELMNGHCTRI'], 'word_state': ['_________', '____A____', '____A____', '_E__A___E', '_E__A___E', '_E__A___E', 'NE__A__NE', 'NE__A__NE', 'NE__A__NE', 'NEC_A__NE', 'NECTA__NE', 'NECTAR_NE', 'NECTARINE']}","['A', 'W', 'E', 'L', 'M', 'N', 'G', 'H', 'C', 'T', 'R', 'I']",12.0,10.0,0.0,,,,,,,,,,
,instructions,27,335447,0.0-12.0-2.3,,22,"[79, 200, 43, 38, 174, 203, 71, 210, 134, 140, 78, 251, 227, 88, 23, 50, 163, 231, 203, 204, 108, 46, 251, 50, 6, 44, 8, 23, 10, 5, 238, 184]",11,669a58f4f17d67c0aba4c4d3,66743dc61dc3fc51cbb8fefd,669a62d962ae11699be55bf5,2,0,0,False,3,63,"[{""page_index"":0,""viewing_time"":1897}]",1897.20000000298,,,,,,,,,,,,,,,,,,,,
,Guess_leaderboard,28,338697,0.0-12.0-3.3,,22,"[79, 200, 43, 38, 174, 203, 71, 210, 134, 140, 78, 251, 227, 88, 23, 50, 163, 231, 203, 204, 108, 46, 251, 50, 6, 44, 8, 23, 10, 5, 238, 184]",11,669a58f4f17d67c0aba4c4d3,66743dc61dc3fc51cbb8fefd,669a62d962ae11699be55bf5,2,0,0,False,3,63,,,,,,,NECTARINE,,,,,,2491.5,24.0,95.0,3.0,65.0,41.0,,,,
,instructions,29,344679,0.0-12.0-0.4,,22,"[79, 200, 43, 38, 174, 203, 71, 210, 134, 140, 78, 251, 227, 88, 23, 50, 163, 231, 203, 204, 108, 46, 251, 50, 6, 44, 8, 23, 10, 5, 238, 184]",11,669a58f4f17d67c0aba4c4d3,66743dc61dc3fc51cbb8fefd,669a62d962ae11699be55bf5,2,0,0,False,3,63,"[{""page_index"":0,""viewing_time"":5981.899999991059}]",5982.09999999404,,,,,,,,,,,,,,,,,,,,
,Hangman_replay,30,383381,0.0-12.0-1.4,,22,"[79, 200, 43, 38, 174, 203, 71, 210, 134, 140, 78, 251, 227, 88, 23, 50, 163, 231, 203, 204, 108, 46, 251, 50, 6, 44, 8, 23, 10, 5, 238, 184]",11,669a58f4f17d67c0aba4c4d3,66743dc61dc3fc51cbb8fefd,669a62d962ae11699be55bf5,2,0,0,False,3,63,,,,,,,THIRTY FOUR,"{'letter': ['', 'E', 'A', 'I', 'T', 'H', 'R', 'Y', 'F', 'O', 'U'], 't': [0, 4382.20000000298, 8748.89999999106, 17983.29999999702, 24849.29999999702, 26765.29999999702, 29915.59999999404, 32016.39999999106, 35398.79999999702, 36065.70000000298, 36682.59999999404], 'hit': [None, 0, 0, 1, 2, 1, 2, 1, 1, 1, 1], 'asked': ['', 'E', 'EA', 'EAI', 'EAIT', 'EAITH', 'EAITHR', 'EAITHRY', 'EAITHRYF', 'EAITHRYFO', 'EAITHRYFOU'], 'word_state': ['______ ____', '______ ____', '______ ____', '__I___ ____', 'T_I_T_ ____', 'THI_T_ ____', 'THIRT_ ___R', 'THIRTY ___R', 'THIRTY F__R', 'THIRTY FO_R', 'THIRTY FOUR']}","['E', 'A', 'I', 'T', 'H', 'R', 'Y', 'F', 'O', 'U']",10.0,13.0,0.0,,,,,,,,,,
,instructions,31,384399,0.0-12.0-2.4,,22,"[79, 200, 43, 38, 174, 203, 71, 210, 134, 140, 78, 251, 227, 88, 23, 50, 163, 231, 203, 204, 108, 46, 251, 50, 6, 44, 8, 23, 10, 5, 238, 184]",11,669a58f4f17d67c0aba4c4d3,66743dc61dc3fc51cbb8fefd,669a62d962ae11699be55bf5,2,0,0,False,3,63,"[{""page_index"":0,""viewing_time"":1017.4000000059605}]",1017.5999999940396,,,,,,,,,,,,,,,,,,,,
,Guess_leaderboard,32,387612,0.0-12.0-3.4,,22,"[79, 200, 43, 38, 174, 203, 71, 210, 134, 140, 78, 251, 227, 88, 23, 50, 163, 231, 203, 204, 108, 46, 251, 50, 6, 44, 8, 23, 10, 5, 238, 184]",11,669a58f4f17d67c0aba4c4d3,66743dc61dc3fc51cbb8fefd,669a62d962ae11699be55bf5,2,0,0,False,3,63,,,,,,,THIRTY FOUR,,,,,,2452.0,9.0,29.0,4.0,11.0,2.0,,,,
,survey-text,33,398120,0.0-13.0,,22,"[79, 200, 43, 38, 174, 203, 71, 210, 134, 140, 78, 251, 227, 88, 23, 50, 163, 231, 203, 204, 108, 46, 251, 50, 6, 44, 8, 23, 10, 5, 238, 184]",11,669a58f4f17d67c0aba4c4d3,66743dc61dc3fc51cbb8fefd,669a62d962ae11699be55bf5,2,0,0,False,3,63,,10505.70000000298,"{""Q0"":""thrity four""}",,,,,,,,,,,,,,,,thirty four,,,
,survey-multi-choice,34,405240,0.0-14.0,,22,"[79, 200, 43, 38, 174, 203, 71, 210, 134, 140, 78, 251, 227, 88, 23, 50, 163, 231, 203, 204, 108, 46, 251, 50, 6, 44, 8, 23, 10, 5, 238, 184]",11,669a58f4f17d67c0aba4c4d3,66743dc61dc3fc51cbb8fefd,669a62d962ae11699be55bf5,2,0,0,False,3,63,,7118.899999991059,"{""Q0"":""3. I would be <b>third</b> out of the six of us.""}",[0],,self-rating,,,,,,,,3.0,,,,,,,,
,html-slider-response,35,408504,0.0-15.0,,22,"[79, 200, 43, 38, 174, 203, 71, 210, 134, 140, 78, 251, 227, 88, 23, 50, 163, 231, 203, 204, 108, 46, 251, 50, 6, 44, 8, 23, 10, 5, 238, 184]",11,669a58f4f17d67c0aba4c4d3,66743dc61dc3fc51cbb8fefd,669a62d962ae11699be55bf5,2,0,0,False,3,63,,3262.70000000298,,,,,,,,,,,,,,,,,,63.0,"<p>Overall, how confident were you in your answer to this last question?</p>",63.0
,survey-text,36,438632,0.0-16.0,,22,"[79, 200, 43, 38, 174, 203, 71, 210, 134, 140, 78, 251, 227, 88, 23, 50, 163, 231, 203, 204, 108, 46, 251, 50, 6, 44, 8, 23, 10, 5, 238, 184]",11,669a58f4f17d67c0aba4c4d3,66743dc61dc3fc51cbb8fefd,669a62d962ae11699be55bf5,2,0,0,False,3,63,,30126.90000000596,"{""Q0"":""very interesting to play and fun""}",,,,,,,,,,,,,,,,,,,
,survey-text,37,461488,0.0-17.0,,22,"[79, 200, 43, 38, 174, 203, 71, 210, 134, 140, 78, 251, 227, 88, 23, 50, 163, 231, 203, 204, 108, 46, 251, 50, 6, 44, 8, 23, 10, 5, 238, 184]",11,669a58f4f17d67c0aba4c4d3,66743dc61dc3fc51cbb8fefd,669a62d962ae11699be55bf5,2,0,0,False,3,63,,22854.40000000596,"{""Q0"":""nothing more""}",,,,,,,,,,,,,,,,,,,
,instructions,38,462672,0.0-18.0,,22,"[79, 200, 43, 38, 174, 203, 71, 210, 134, 140, 78, 251, 227, 88, 23, 50, 163, 231, 203, 204, 108, 46, 251, 50, 6, 44, 8, 23, 10, 5, 238, 184]",11,669a58f4f17d67c0aba4c4d3,66743dc61dc3fc51cbb8fefd,669a62d962ae11699be55bf5,2,0,0,False,3,63,"[{""page_index"":0,""viewing_time"":1183.1000000089407}]",1183.300000011921,,,,,,,,,,,,,,,,,,,,
1.0,fullscreen,0,19494,0.0-0.0,,23,"[79, 200, 43, 38, 174, 203, 71, 210, 134, 140, 78, 251, 227, 88, 23, 50, 163, 231, 203, 204, 108, 46, 251, 50, 6, 44, 8, 23, 10, 5, 238, 184]",11,669a58f4f17d67c0aba4c4d3,5e79340b6d9a624e3f39586d,669a64f4b494202208f297f3,1,0,0,True,3,70,,,,,,,,,,,,,,,,,,,,,,
,instructions,1,34868,0.0-1.0,,23,"[79, 200, 43, 38, 174, 203, 71, 210, 134, 140, 78, 251, 227, 88, 23, 50, 163, 231, 203, 204, 108, 46, 251, 50, 6, 44, 8, 23, 10, 5, 238, 184]",11,669a58f4f17d67c0aba4c4d3,5e79340b6d9a624e3f39586d,669a64f4b494202208f297f3,1,0,0,True,3,70,"[{""page_index"":0,""viewing_time"":15371.899999976158}]",15372.399999976158,,,,,,,,,,,,,,,,,,,,
,instructions,2,40588,0.0-2.0-0.0,,23,"[79, 200, 43, 38, 174, 203, 71, 210, 134, 140, 78, 251, 227, 88, 23, 50, 163, 231, 203, 204, 108, 46, 251, 50, 6, 44, 8, 23, 10, 5, 238, 184]",11,669a58f4f17d67c0aba4c4d3,5e79340b6d9a624e3f39586d,669a64f4b494202208f297f3,1,0,0,True,3,70,"[{""page_index"":0,""viewing_time"":5718.600000023842}]",5719.0,,,,,,,,,,,,,,,,,,,,
,survey-multi-choice,3,47945,0.0-2.0-1.0,,23,"[79, 200, 43, 38, 174, 203, 71, 210, 134, 140, 78, 251, 227, 88, 23, 50, 163, 231, 203, 204, 108, 46, 251, 50, 6, 44, 8, 23, 10, 5, 238, 184]",11,669a58f4f17d67c0aba4c4d3,5e79340b6d9a624e3f39586d,669a64f4b494202208f297f3,1,0,0,True,3,70,,7353.900000095367,"{""Q0"":""... reveal the word with as <b>few letter guesses</b> as possible""}",[0],1.0,multichoice_nonpretend,,,,,,,,,,,,,,,,
,instructions,4,49814,0.0-3.0,,23,"[79, 200, 43, 38, 174, 203, 71, 210, 134, 140, 78, 251, 227, 88, 23, 50, 163, 231, 203, 204, 108, 46, 251, 50, 6, 44, 8, 23, 10, 5, 238, 184]",11,669a58f4f17d67c0aba4c4d3,5e79340b6d9a624e3f39586d,669a64f4b494202208f297f3,1,0,0,True,3,70,"[{""page_index"":0,""viewing_time"":1868.2999999523163}]",1868.5,,,,,,,,,,,,,,,,,,,,
,Hangman,5,73075,0.0-4.0,,23,"[79, 200, 43, 38, 174, 203, 71, 210, 134, 140, 78, 251, 227, 88, 23, 50, 163, 231, 203, 204, 108, 46, 251, 50, 6, 44, 8, 23, 10, 5, 238, 184]",11,669a58f4f17d67c0aba4c4d3,5e79340b6d9a624e3f39586d,669a64f4b494202208f297f3,1,0,0,True,3,70,,,,,,,ZEBRA,"{'letter': ['', 'M', 'R', 'T', 'B', 'Z', 'E', 'A'], 't': [0, 3827.7999999523163, 7859.299999952316, 11374.899999976158, 14743.700000047684, 17277.299999952316, 19297.799999952316, 21247], 'hit': [None, 0, 1, 0, 1, 1, 1, 1], 'asked': ['', 'M', 'MR', 'MRT', 'MRTB', 'MRTBZ', 'MRTBZE', 'MRTBZEA'], 'word_state': ['_____', '_____', '___R_', '___R_', '__BR_', 'Z_BR_', 'ZEBR_', 'ZEBRA']}","['M', 'R', 'T', 'B', 'Z', 'E', 'A']",7.0,13.0,0.0,,,,,,,,,,
,instructions,6,84896,0.0-5.0,,23,"[79, 200, 43, 38, 174, 203, 71, 210, 134, 140, 78, 251, 227, 88, 23, 50, 163, 231, 203, 204, 108, 46, 251, 50, 6, 44, 8, 23, 10, 5, 238, 184]",11,669a58f4f17d67c0aba4c4d3,5e79340b6d9a624e3f39586d,669a64f4b494202208f297f3,1,0,0,True,3,70,"[{""page_index"":0,""viewing_time"":3068.3000000715256},{""page_index"":1,""viewing_time"":8750.199999928474}]",11819.400000095367,,,,,,,,,,,,,,,,,,,,
,survey-multi-choice,7,91942,0.0-6.0,,23,"[79, 200, 43, 38, 174, 203, 71, 210, 134, 140, 78, 251, 227, 88, 23, 50, 163, 231, 203, 204, 108, 46, 251, 50, 6, 44, 8, 23, 10, 5, 238, 184]",11,669a58f4f17d67c0aba4c4d3,5e79340b6d9a624e3f39586d,669a64f4b494202208f297f3,1,0,0,True,3,70,,7044.0,"{""Q0"":""...from <b>a previous session</b> that is not part of the upcoming tournament.""}",[0],1.0,multichoice_leaderboard,,,,,,,,,,,,,,,,
,instructions,8,99161,0.0-8.0,,23,"[79, 200, 43, 38, 174, 203, 71, 210, 134, 140, 78, 251, 227, 88, 23, 50, 163, 231, 203, 204, 108, 46, 251, 50, 6, 44, 8, 23, 10, 5, 238, 184]",11,669a58f4f17d67c0aba4c4d3,5e79340b6d9a624e3f39586d,669a64f4b494202208f297f3,1,0,0,True,3,70,"[{""page_index"":0,""viewing_time"":7218.599999904633}]",7218.899999976158,,,,,,,,,,,,,,,,,,,,
,survey-multi-choice,9,111488,0.0-9.0,,23,"[79, 200, 43, 38, 174, 203, 71, 210, 134, 140, 78, 251, 227, 88, 23, 50, 163, 231, 203, 204, 108, 46, 251, 50, 6, 44, 8, 23, 10, 5, 238, 184]",11,669a58f4f17d67c0aba4c4d3,5e79340b6d9a624e3f39586d,669a64f4b494202208f297f3,1,0,0,True,3,70,,12325.099999904633,"{""Q0"":""...players' leaderboard position (in terms of <b>points</b>) in an <b>upcoming tournament.</b>""}",[0],1.0,multichoice_tournament,,,,,,,,,,,,,,,,
,instructions,10,117124,0.0-11.0,,23,"[79, 200, 43, 38, 174, 203, 71, 210, 134, 140, 78, 251, 227, 88, 23, 50, 163, 231, 203, 204, 108, 46, 251, 50, 6, 44, 8, 23, 10, 5, 238, 184]",11,669a58f4f17d67c0aba4c4d3,5e79340b6d9a624e3f39586d,669a64f4b494202208f297f3,1,0,0,True,3,70,"[{""page_index"":0,""viewing_time"":5634.300000071526}]",5634.5,,,,,,,,,,,,,,,,,,,,
,instructions,11,139513,0.0-12.0-0.0,,23,"[79, 200, 43, 38, 174, 203, 71, 210, 134, 140, 78, 251, 227, 88, 23, 50, 163, 231, 203, 204, 108, 46, 251, 50, 6, 44, 8, 23, 10, 5, 238, 184]",11,669a58f4f17d67c0aba4c4d3,5e79340b6d9a624e3f39586d,669a64f4b494202208f297f3,1,0,0,True,3,70,"[{""page_index"":0,""viewing_time"":22388.600000023842}]",22388.900000095367,,,,,,,,,,,,,,,,,,,,
,type-this,12,144529,0.0-12.0-1.0,,23,"[79, 200, 43, 38, 174, 203, 71, 210, 134, 140, 78, 251, 227, 88, 23, 50, 163, 231, 203, 204, 108, 46, 251, 50, 6, 44, 8, 23, 10, 5, 238, 184]",11,669a58f4f17d67c0aba4c4d3,5e79340b6d9a624e3f39586d,669a64f4b494202208f297f3,1,0,0,True,3,70,,4510.800000071526,['usain bolt'],,,,,,,,,,,,,,,,,usain bolt,,
,Hangman_replay,13,194794,0.0-12.0-2.0,,23,"[79, 200, 43, 38, 174, 203, 71, 210, 134, 140, 78, 251, 227, 88, 23, 50, 163, 231, 203, 204, 108, 46, 251, 50, 6, 44, 8, 23, 10, 5, 238, 184]",11,669a58f4f17d67c0aba4c4d3,5e79340b6d9a624e3f39586d,669a64f4b494202208f297f3,1,0,0,True,3,70,,,,,,,USAIN BOLT,"{'letter': ['', 'A', 'E', 'I', 'O', 'R', 'P', 'T', 'S', 'U', 'N', 'B', 'L'], 't': [0, 6404.699999928474, 8420.5, 10754, 12536.899999976158, 25471.399999976158, 27220.5, 31387.399999976158, 38870.59999990463, 43620.59999990463, 45470.59999990463, 46970.59999990463, 48237.39999997616], 'hit': [None, 1, 0, 1, 1, 0, 0, 1, 1, 1, 1, 1, 1], 'asked': ['', 'A', 'AE', 'AEI', 'AEIO', 'AEIOR', 'AEIORP', 'AEIORPT', 'AEIORPTS', 'AEIORPTSU', 'AEIORPTSUN', 'AEIORPTSUNB', 'AEIORPTSUNBL'], 'word_state': ['_____ ____', '__A__ ____', '__A__ ____', '__AI_ ____', '__AI_ _O__', '__AI_ _O__', '__AI_ _O__', '__AI_ _O_T', '_SAI_ _O_T', 'USAI_ _O_T', 'USAIN _O_T', 'USAIN BO_T', 'USAIN BOLT']}","['A', 'E', 'I', 'O', 'R', 'P', 'T', 'S', 'U', 'N', 'B', 'L']",12.0,12.0,0.0,,,,,,,,,,
,instructions,14,198393,0.0-12.0-3.0,,23,"[79, 200, 43, 38, 174, 203, 71, 210, 134, 140, 78, 251, 227, 88, 23, 50, 163, 231, 203, 204, 108, 46, 251, 50, 6, 44, 8, 23, 10, 5, 238, 184]",11,669a58f4f17d67c0aba4c4d3,5e79340b6d9a624e3f39586d,669a64f4b494202208f297f3,1,0,0,True,3,70,"[{""page_index"":0,""viewing_time"":3596.600000023842}]",3597.399999976158,,,,,,,,,,,,,,,,,,,,
,Guess_leaderboard,15,204457,0.0-12.0-4.0,,23,"[79, 200, 43, 38, 174, 203, 71, 210, 134, 140, 78, 251, 227, 88, 23, 50, 163, 231, 203, 204, 108, 46, 251, 50, 6, 44, 8, 23, 10, 5, 238, 184]",11,669a58f4f17d67c0aba4c4d3,5e79340b6d9a624e3f39586d,669a64f4b494202208f297f3,1,0,0,True,3,70,,,,,,,USAIN BOLT,,,,,,5297.200000047684,20.0,22.0,0.0,16.0,4.0,,,,
,instructions,16,208677,0.0-12.0-0.1,,23,"[79, 200, 43, 38, 174, 203, 71, 210, 134, 140, 78, 251, 227, 88, 23, 50, 163, 231, 203, 204, 108, 46, 251, 50, 6, 44, 8, 23, 10, 5, 238, 184]",11,669a58f4f17d67c0aba4c4d3,5e79340b6d9a624e3f39586d,669a64f4b494202208f297f3,1,0,0,True,3,70,"[{""page_index"":0,""viewing_time"":4217.899999976158}]",4218.199999928474,,,,,,,,,,,,,,,,,,,,
,type-this,17,213787,0.0-12.0-1.1,,23,"[79, 200, 43, 38, 174, 203, 71, 210, 134, 140, 78, 251, 227, 88, 23, 50, 163, 231, 203, 204, 108, 46, 251, 50, 6, 44, 8, 23, 10, 5, 238, 184]",11,669a58f4f17d67c0aba4c4d3,5e79340b6d9a624e3f39586d,669a64f4b494202208f297f3,1,0,0,True,3,70,,4605.299999952316,['hawaii'],,,,,,,,,,,,,,,,,hawaii,,
,Hangman_replay,18,244195,0.0-12.0-2.1,,23,"[79, 200, 43, 38, 174, 203, 71, 210, 134, 140, 78, 251, 227, 88, 23, 50, 163, 231, 203, 204, 108, 46, 251, 50, 6, 44, 8, 23, 10, 5, 238, 184]",11,669a58f4f17d67c0aba4c4d3,5e79340b6d9a624e3f39586d,669a64f4b494202208f297f3,1,0,0,True,3,70,,,,,,,HAWAII,"{'letter': ['', 'O', 'H', 'A', 'W', 'I'], 't': [0, 13682.899999976158, 20066.100000023842, 21848.799999952316, 24348.700000047684, 28398], 'hit': [None, 0, 1, 2, 1, 2], 'asked': ['', 'O', 'OH', 'OHA', 'OHAW', 'OHAWI'], 'word_state': ['______', '______', 'H_____', 'HA_A__', 'HAWA__', 'HAWAII']}","['O', 'H', 'A', 'W', 'I']",5.0,14.0,0.0,,,,,,,,,,
,instructions,19,253446,0.0-12.0-3.1,,23,"[79, 200, 43, 38, 174, 203, 71, 210, 134, 140, 78, 251, 227, 88, 23, 50, 163, 231, 203, 204, 108, 46, 251, 50, 6, 44, 8, 23, 10, 5, 238, 184]",11,669a58f4f17d67c0aba4c4d3,5e79340b6d9a624e3f39586d,669a64f4b494202208f297f3,1,0,0,True,3,70,"[{""page_index"":0,""viewing_time"":9249.899999976158}]",9250.799999952316,,,,,,,,,,,,,,,,,,,,
,Guess_leaderboard,20,259274,0.0-12.0-4.1,,23,"[79, 200, 43, 38, 174, 203, 71, 210, 134, 140, 78, 251, 227, 88, 23, 50, 163, 231, 203, 204, 108, 46, 251, 50, 6, 44, 8, 23, 10, 5, 238, 184]",11,669a58f4f17d67c0aba4c4d3,5e79340b6d9a624e3f39586d,669a64f4b494202208f297f3,1,0,0,True,3,70,,,,,,,HAWAII,,,,,,5057.200000047684,42.0,9.0,1.0,56.0,14.0,,,,
,instructions,21,260990,0.0-12.0-0.2,,23,"[79, 200, 43, 38, 174, 203, 71, 210, 134, 140, 78, 251, 227, 88, 23, 50, 163, 231, 203, 204, 108, 46, 251, 50, 6, 44, 8, 23, 10, 5, 238, 184]",11,669a58f4f17d67c0aba4c4d3,5e79340b6d9a624e3f39586d,669a64f4b494202208f297f3,1,0,0,True,3,70,"[{""page_index"":0,""viewing_time"":1714.2999999523163}]",1714.5999999046326,,,,,,,,,,,,,,,,,,,,
,type-this,22,265225,0.0-12.0-1.2,,23,"[79, 200, 43, 38, 174, 203, 71, 210, 134, 140, 78, 251, 227, 88, 23, 50, 163, 231, 203, 204, 108, 46, 251, 50, 6, 44, 8, 23, 10, 5, 238, 184]",11,669a58f4f17d67c0aba4c4d3,5e79340b6d9a624e3f39586d,669a64f4b494202208f297f3,1,0,0,True,3,70,,3732.100000023842,['wrist'],,,,,,,,,,,,,,,,,wrist,,
,Hangman_replay,23,321245,0.0-12.0-2.2,,23,"[79, 200, 43, 38, 174, 203, 71, 210, 134, 140, 78, 251, 227, 88, 23, 50, 163, 231, 203, 204, 108, 46, 251, 50, 6, 44, 8, 23, 10, 5, 238, 184]",11,669a58f4f17d67c0aba4c4d3,5e79340b6d9a624e3f39586d,669a64f4b494202208f297f3,1,0,0,True,3,70,,,,,,,WRIST,"{'letter': ['', 'T', 'O', 'A', 'E', 'S', 'I', 'W', 'R'], 't': [0, 8010.899999976158, 25861, 28610.299999952316, 35194.199999928474, 38810.199999928474, 44777, 51377.60000002384, 54009.39999997616], 'hit': [None, 1, 0, 0, 0, 1, 1, 1, 1], 'asked': ['', 'T', 'TO', 'TOA', 'TOAE', 'TOAES', 'TOAESI', 'TOAESIW', 'TOAESIWR'], 'word_state': ['_____', '____T', '____T', '____T', '____T', '___ST', '__IST', 'W_IST', 'WRIST']}","['T', 'O', 'A', 'E', 'S', 'I', 'W', 'R']",8.0,12.0,0.0,,,,,,,,,,
,instructions,24,322727,0.0-12.0-3.2,,23,"[79, 200, 43, 38, 174, 203, 71, 210, 134, 140, 78, 251, 227, 88, 23, 50, 163, 231, 203, 204, 108, 46, 251, 50, 6, 44, 8, 23, 10, 5, 238, 184]",11,669a58f4f17d67c0aba4c4d3,5e79340b6d9a624e3f39586d,669a64f4b494202208f297f3,1,0,0,True,3,70,"[{""page_index"":0,""viewing_time"":1480.7000000476837}]",1481.100000023842,,,,,,,,,,,,,,,,,,,,
,Guess_leaderboard,25,325157,0.0-12.0-4.2,,23,"[79, 200, 43, 38, 174, 203, 71, 210, 134, 140, 78, 251, 227, 88, 23, 50, 163, 231, 203, 204, 108, 46, 251, 50, 6, 44, 8, 23, 10, 5, 238, 184]",11,669a58f4f17d67c0aba4c4d3,5e79340b6d9a624e3f39586d,669a64f4b494202208f297f3,1,0,0,True,3,70,,,,,,,WRIST,,,,,,1666.600000023842,35.0,36.0,2.0,87.0,52.0,,,,
,instructions,26,326949,0.0-12.0-0.3,,23,"[79, 200, 43, 38, 174, 203, 71, 210, 134, 140, 78, 251, 227, 88, 23, 50, 163, 231, 203, 204, 108, 46, 251, 50, 6, 44, 8, 23, 10, 5, 238, 184]",11,669a58f4f17d67c0aba4c4d3,5e79340b6d9a624e3f39586d,669a64f4b494202208f297f3,1,0,0,True,3,70,"[{""page_index"":0,""viewing_time"":1789.5}]",1789.899999976158,,,,,,,,,,,,,,,,,,,,
,type-this,27,335259,0.0-12.0-1.3,,23,"[79, 200, 43, 38, 174, 203, 71, 210, 134, 140, 78, 251, 227, 88, 23, 50, 163, 231, 203, 204, 108, 46, 251, 50, 6, 44, 8, 23, 10, 5, 238, 184]",11,669a58f4f17d67c0aba4c4d3,5e79340b6d9a624e3f39586d,669a64f4b494202208f297f3,1,0,0,True,3,70,,7806.299999952316,['nectarine'],,,,,,,,,,,,,,,,,nectarine,,
,Hangman_replay,28,377011,0.0-12.0-2.3,,23,"[79, 200, 43, 38, 174, 203, 71, 210, 134, 140, 78, 251, 227, 88, 23, 50, 163, 231, 203, 204, 108, 46, 251, 50, 6, 44, 8, 23, 10, 5, 238, 184]",11,669a58f4f17d67c0aba4c4d3,5e79340b6d9a624e3f39586d,669a64f4b494202208f297f3,1,0,0,True,3,70,,,,,,,NECTARINE,"{'letter': ['', 'A', 'W', 'E', 'L', 'M', 'N', 'G', 'H', 'C', 'T', 'R', 'I'], 't': [0, 1743.3999999761581, 4326.600000023842, 6326.299999952316, 12860.700000047684, 14109.100000023842, 14692.399999976158, 24393.700000047684, 25126.700000047684, 26459.799999952316, 32309.899999976158, 37193.200000047684, 39742.299999952316], 'hit': [None, 1, 0, 2, 0, 0, 2, 0, 0, 1, 1, 1, 1], 'asked': ['', 'A', 'AW', 'AWE', 'AWEL', 'AWELM', 'AWELMN', 'AWELMNG', 'AWELMNGH', 'AWELMNGHC', 'AWELMNGHCT', 'AWELMNGHCTR', 'AWELMNGHCTRI'], 'word_state': ['_________', '____A____', '____A____', '_E__A___E', '_E__A___E', '_E__A___E', 'NE__A__NE', 'NE__A__NE', 'NE__A__NE', 'NEC_A__NE', 'NECTA__NE', 'NECTAR_NE', 'NECTARINE']}","['A', 'W', 'E', 'L', 'M', 'N', 'G', 'H', 'C', 'T', 'R', 'I']",12.0,10.0,0.0,,,,,,,,,,
,instructions,29,381860,0.0-12.0-3.3,,23,"[79, 200, 43, 38, 174, 203, 71, 210, 134, 140, 78, 251, 227, 88, 23, 50, 163, 231, 203, 204, 108, 46, 251, 50, 6, 44, 8, 23, 10, 5, 238, 184]",11,669a58f4f17d67c0aba4c4d3,5e79340b6d9a624e3f39586d,669a64f4b494202208f297f3,1,0,0,True,3,70,"[{""page_index"":0,""viewing_time"":4846.799999952316}]",4847.299999952316,,,,,,,,,,,,,,,,,,,,
,Guess_leaderboard,30,385940,0.0-12.0-4.3,,23,"[79, 200, 43, 38, 174, 203, 71, 210, 134, 140, 78, 251, 227, 88, 23, 50, 163, 231, 203, 204, 108, 46, 251, 50, 6, 44, 8, 23, 10, 5, 238, 184]",11,669a58f4f17d67c0aba4c4d3,5e79340b6d9a624e3f39586d,669a64f4b494202208f297f3,1,0,0,True,3,70,,,,,,,NECTARINE,,,,,,3315.899999976158,51.0,95.0,3.0,65.0,14.0,,,,
,instructions,31,389972,0.0-12.0-0.4,,23,"[79, 200, 43, 38, 174, 203, 71, 210, 134, 140, 78, 251, 227, 88, 23, 50, 163, 231, 203, 204, 108, 46, 251, 50, 6, 44, 8, 23, 10, 5, 238, 184]",11,669a58f4f17d67c0aba4c4d3,5e79340b6d9a624e3f39586d,669a64f4b494202208f297f3,1,0,0,True,3,70,"[{""page_index"":0,""viewing_time"":4029.5}]",4029.799999952316,,,,,,,,,,,,,,,,,,,,
,type-this,32,395249,0.0-12.0-1.4,,23,"[79, 200, 43, 38, 174, 203, 71, 210, 134, 140, 78, 251, 227, 88, 23, 50, 163, 231, 203, 204, 108, 46, 251, 50, 6, 44, 8, 23, 10, 5, 238, 184]",11,669a58f4f17d67c0aba4c4d3,5e79340b6d9a624e3f39586d,669a64f4b494202208f297f3,1,0,0,True,3,70,,4772.5,['thirty four'],,,,,,,,,,,,,,,,,thirty four,,
,Hangman_replay,33,433923,0.0-12.0-2.4,,23,"[79, 200, 43, 38, 174, 203, 71, 210, 134, 140, 78, 251, 227, 88, 23, 50, 163, 231, 203, 204, 108, 46, 251, 50, 6, 44, 8, 23, 10, 5, 238, 184]",11,669a58f4f17d67c0aba4c4d3,5e79340b6d9a624e3f39586d,669a64f4b494202208f297f3,1,0,0,True,3,70,,,,,,,THIRTY FOUR,"{'letter': ['', 'E', 'A', 'I', 'T', 'H', 'R', 'Y', 'F', 'O', 'U'], 't': [0, 4387.700000047684, 8737.200000047684, 17987.800000071526, 24854.5, 26770.700000047684, 29920.600000023842, 32020.800000071526, 35402.89999997616, 36070.700000047684, 36686.39999997616], 'hit': [None, 0, 0, 1, 2, 1, 2, 1, 1, 1, 1], 'asked': ['', 'E', 'EA', 'EAI', 'EAIT', 'EAITH', 'EAITHR', 'EAITHRY', 'EAITHRYF', 'EAITHRYFO', 'EAITHRYFOU'], 'word_state': ['______ ____', '______ ____', '______ ____', '__I___ ____', 'T_I_T_ ____', 'THI_T_ ____', 'THIRT_ ___R', 'THIRTY ___R', 'THIRTY F__R', 'THIRTY FO_R', 'THIRTY FOUR']}","['E', 'A', 'I', 'T', 'H', 'R', 'Y', 'F', 'O', 'U']",10.0,13.0,0.0,,,,,,,,,,
,instructions,34,437295,0.0-12.0-3.4,,23,"[79, 200, 43, 38, 174, 203, 71, 210, 134, 140, 78, 251, 227, 88, 23, 50, 163, 231, 203, 204, 108, 46, 251, 50, 6, 44, 8, 23, 10, 5, 238, 184]",11,669a58f4f17d67c0aba4c4d3,5e79340b6d9a624e3f39586d,669a64f4b494202208f297f3,1,0,0,True,3,70,"[{""page_index"":0,""viewing_time"":3372.3000000715256}]",3373.100000023842,,,,,,,,,,,,,,,,,,,,
,Guess_leaderboard,35,441652,0.0-12.0-4.4,,23,"[79, 200, 43, 38, 174, 203, 71, 210, 134, 140, 78, 251, 227, 88, 23, 50, 163, 231, 203, 204, 108, 46, 251, 50, 6, 44, 8, 23, 10, 5, 238, 184]",11,669a58f4f17d67c0aba4c4d3,5e79340b6d9a624e3f39586d,669a64f4b494202208f297f3,1,0,0,True,3,70,,,,,,,THIRTY FOUR,,,,,,3601.6999999284744,15.0,29.0,4.0,11.0,4.0,,,,
,survey-text,36,453390,0.0-13.0,,23,"[79, 200, 43, 38, 174, 203, 71, 210, 134, 140, 78, 251, 227, 88, 23, 50, 163, 231, 203, 204, 108, 46, 251, 50, 6, 44, 8, 23, 10, 5, 238, 184]",11,669a58f4f17d67c0aba4c4d3,5e79340b6d9a624e3f39586d,669a64f4b494202208f297f3,1,0,0,True,3,70,,11736.0,"{""Q0"":""thirty four""}",,,,,,,,,,,,,,,,thirty four,,,
,survey-multi-choice,37,460811,0.0-14.0,,23,"[79, 200, 43, 38, 174, 203, 71, 210, 134, 140, 78, 251, 227, 88, 23, 50, 163, 231, 203, 204, 108, 46, 251, 50, 6, 44, 8, 23, 10, 5, 238, 184]",11,669a58f4f17d67c0aba4c4d3,5e79340b6d9a624e3f39586d,669a64f4b494202208f297f3,1,0,0,True,3,70,,7419.400000095367,"{""Q0"":""3. I would be <b>third</b> out of the six of us.""}",[0],,self-rating,,,,,,,,3.0,,,,,,,,
,html-slider-response,38,466463,0.0-15.0,,23,"[79, 200, 43, 38, 174, 203, 71, 210, 134, 140, 78, 251, 227, 88, 23, 50, 163, 231, 203, 204, 108, 46, 251, 50, 6, 44, 8, 23, 10, 5, 238, 184]",11,669a58f4f17d67c0aba4c4d3,5e79340b6d9a624e3f39586d,669a64f4b494202208f297f3,1,0,0,True,3,70,,5649.100000023842,,,,,,,,,,,,,,,,,,70,"<p>Overall, how confident were you in your answer to this last question?</p>",70.0
,survey-text,39,488152,0.0-16.0,,23,"[79, 200, 43, 38, 174, 203, 71, 210, 134, 140, 78, 251, 227, 88, 23, 50, 163, 231, 203, 204, 108, 46, 251, 50, 6, 44, 8, 23, 10, 5, 238, 184]",11,669a58f4f17d67c0aba4c4d3,5e79340b6d9a624e3f39586d,669a64f4b494202208f297f3,1,0,0,True,3,70,,21686.30000007153,"{""Q0"":""where I think I stand (average wise) in relation to others""}",,,,,,,,,,,,,,,,,,,
,survey-text,40,494071,0.0-17.0,,23,"[79, 200, 43, 38, 174, 203, 71, 210, 134, 140, 78, 251, 227, 88, 23, 50, 163, 231, 203, 204, 108, 46, 251, 50, 6, 44, 8, 23, 10, 5, 238, 184]",11,669a58f4f17d67c0aba4c4d3,5e79340b6d9a624e3f39586d,669a64f4b494202208f297f3,1,0,0,True,3,70,,5916.600000023842,"{""Q0"":""no ""}",,,,,,,,,,,,,,,,,,,
,instructions,41,496125,0.0-18.0,,23,"[79, 200, 43, 38, 174, 203, 71, 210, 134, 140, 78, 251, 227, 88, 23, 50, 163, 231, 203, 204, 108, 46, 251, 50, 6, 44, 8, 23, 10, 5, 238, 184]",11,669a58f4f17d67c0aba4c4d3,5e79340b6d9a624e3f39586d,669a64f4b494202208f297f3,1,0,0,True,3,70,"[{""page_index"":0,""viewing_time"":2052.7000000476837}]",2053.0,,,,,,,,,,,,,,,,,,,,
1.0,fullscreen,0,2929,0.0-0.0,,24,"[107, 81, 212, 49, 223, 93, 127, 20, 28, 190, 206, 204, 247, 158, 223, 61, 216, 97, 195, 180, 6, 159, 11, 17, 102, 26, 62, 239, 172, 187, 169, 24]",12,669a58f4f17d67c0aba4c4d3,667ff3711e30726d16f919c7,669a67461a84556efb35c34e,1,2,0,False,6,100,,,,,,,,,,,,,,,,,,,,,,
,instructions,1,4395,0.0-1.0,,24,"[107, 81, 212, 49, 223, 93, 127, 20, 28, 190, 206, 204, 247, 158, 223, 61, 216, 97, 195, 180, 6, 159, 11, 17, 102, 26, 62, 239, 172, 187, 169, 24]",12,669a58f4f17d67c0aba4c4d3,667ff3711e30726d16f919c7,669a67461a84556efb35c34e,1,2,0,False,6,100,"[{""page_index"":0,""viewing_time"":1465.2999999821186}]",1465.5,,,,,,,,,,,,,,,,,,,,
,instructions,2,23453,0.0-2.0-0.0,,24,"[107, 81, 212, 49, 223, 93, 127, 20, 28, 190, 206, 204, 247, 158, 223, 61, 216, 97, 195, 180, 6, 159, 11, 17, 102, 26, 62, 239, 172, 187, 169, 24]",12,669a58f4f17d67c0aba4c4d3,667ff3711e30726d16f919c7,669a67461a84556efb35c34e,1,2,0,False,6,100,"[{""page_index"":0,""viewing_time"":19057.09999999404}]",19057.19999998808,,,,,,,,,,,,,,,,,,,,
,survey-multi-choice,3,37469,0.0-2.0-1.0,,24,"[107, 81, 212, 49, 223, 93, 127, 20, 28, 190, 206, 204, 247, 158, 223, 61, 216, 97, 195, 180, 6, 159, 11, 17, 102, 26, 62, 239, 172, 187, 169, 24]",12,669a58f4f17d67c0aba4c4d3,667ff3711e30726d16f919c7,669a67461a84556efb35c34e,1,2,0,False,6,100,,14014.0,"{""Q0"":""... reveal the word with as <b>few letter guesses</b> as possible""}",[0],1.0,multichoice_nonpretend,,,,,,,,,,,,,,,,
,instructions,4,39076,0.0-3.0,,24,"[107, 81, 212, 49, 223, 93, 127, 20, 28, 190, 206, 204, 247, 158, 223, 61, 216, 97, 195, 180, 6, 159, 11, 17, 102, 26, 62, 239, 172, 187, 169, 24]",12,669a58f4f17d67c0aba4c4d3,667ff3711e30726d16f919c7,669a67461a84556efb35c34e,1,2,0,False,6,100,"[{""page_index"":0,""viewing_time"":1606.0999999940395}]",1606.199999988079,,,,,,,,,,,,,,,,,,,,
,Hangman,5,92395,0.0-4.0,,24,"[107, 81, 212, 49, 223, 93, 127, 20, 28, 190, 206, 204, 247, 158, 223, 61, 216, 97, 195, 180, 6, 159, 11, 17, 102, 26, 62, 239, 172, 187, 169, 24]",12,669a58f4f17d67c0aba4c4d3,667ff3711e30726d16f919c7,669a67461a84556efb35c34e,1,2,0,False,6,100,,,,,,,ZEBRA,"{'letter': ['', 'H', 'O', 'R', 'S', 'B', 'L', 'Y', 'D', 'K', 'F', 'M', 'N', 'T', 'W', 'Z', 'E', 'A'], 't': [0, 6997.5, 8387.700000017881, 10889.800000011921, 23403.80000001192, 26405.40000000596, 33255.5, 34735.80000001192, 35948, 38856.40000000596, 40862.40000000596, 42650.60000002384, 43394.80000001192, 44864.5, 45809.80000001192, 46970.40000000596, 48688.80000001192, 51300.20000001788], 'hit': [None, 0, 0, 1, 0, 1, 0, 0, 0, 0, 0, 0, 0, 0, 0, 1, 1, 1], 'asked': ['', 'H', 'HO', 'HOR', 'HORS', 'HORSB', 'HORSBL', 'HORSBLY', 'HORSBLYD', 'HORSBLYDK', 'HORSBLYDKF', 'HORSBLYDKFM', 'HORSBLYDKFMN', 'HORSBLYDKFMNT', 'HORSBLYDKFMNTW', 'HORSBLYDKFMNTWZ', 'HORSBLYDKFMNTWZE', 'HORSBLYDKFMNTWZEA'], 'word_state': ['_____', '_____', '_____', '___R_', '___R_', '__BR_', '__BR_', '__BR_', '__BR_', '__BR_', '__BR_', '__BR_', '__BR_', '__BR_', '__BR_', 'Z_BR_', 'ZEBR_', 'ZEBRA']}","['H', 'O', 'R', 'S', 'B', 'L', 'Y', 'D', 'K', 'F', 'M', 'N', 'T', 'W', 'Z', 'E', 'A']",17.0,3.0,0.0,,,,,,,,,,
,instructions,6,116546,0.0-5.0,,24,"[107, 81, 212, 49, 223, 93, 127, 20, 28, 190, 206, 204, 247, 158, 223, 61, 216, 97, 195, 180, 6, 159, 11, 17, 102, 26, 62, 239, 172, 187, 169, 24]",12,669a58f4f17d67c0aba4c4d3,667ff3711e30726d16f919c7,669a67461a84556efb35c34e,1,2,0,False,6,100,"[{""page_index"":0,""viewing_time"":6480.799999982119},{""page_index"":1,""viewing_time"":17668.100000023842}]",24149.59999999404,,,,,,,,,,,,,,,,,,,,
,survey-multi-choice,7,128493,0.0-6.0,,24,"[107, 81, 212, 49, 223, 93, 127, 20, 28, 190, 206, 204, 247, 158, 223, 61, 216, 97, 195, 180, 6, 159, 11, 17, 102, 26, 62, 239, 172, 187, 169, 24]",12,669a58f4f17d67c0aba4c4d3,667ff3711e30726d16f919c7,669a67461a84556efb35c34e,1,2,0,False,6,100,,11945.90000000596,"{""Q0"":""...from <b>a previous session</b> that is part of the upcoming tournament.""}",[0],0.0,multichoice_leaderboard,,,,,,,,,,,,,,,,
,instructions,8,130300,0.0-7.0-0.0,,24,"[107, 81, 212, 49, 223, 93, 127, 20, 28, 190, 206, 204, 247, 158, 223, 61, 216, 97, 195, 180, 6, 159, 11, 17, 102, 26, 62, 239, 172, 187, 169, 24]",12,669a58f4f17d67c0aba4c4d3,667ff3711e30726d16f919c7,669a67461a84556efb35c34e,1,2,0,False,6,100,"[{""page_index"":0,""viewing_time"":1806.5999999940395}]",1806.7999999821184,,,,,,,,,,,,,,,,,,,,
,survey-multi-choice,9,138991,0.0-7.0-1.0,,24,"[107, 81, 212, 49, 223, 93, 127, 20, 28, 190, 206, 204, 247, 158, 223, 61, 216, 97, 195, 180, 6, 159, 11, 17, 102, 26, 62, 239, 172, 187, 169, 24]",12,669a58f4f17d67c0aba4c4d3,667ff3711e30726d16f919c7,669a67461a84556efb35c34e,1,2,0,False,6,100,,8689.399999976158,"{""Q0"":""...from <b>a previous session</b> that is part of the upcoming tournament.""}",[0],0.0,multichoice_leaderboard,,,,,,,,,,,,,,,,
,instructions,10,141880,0.0-7.1-0.1,,24,"[107, 81, 212, 49, 223, 93, 127, 20, 28, 190, 206, 204, 247, 158, 223, 61, 216, 97, 195, 180, 6, 159, 11, 17, 102, 26, 62, 239, 172, 187, 169, 24]",12,669a58f4f17d67c0aba4c4d3,667ff3711e30726d16f919c7,669a67461a84556efb35c34e,1,2,0,False,6,100,"[{""page_index"":0,""viewing_time"":2888.0999999940395}]",2888.300000011921,,,,,,,,,,,,,,,,,,,,
,survey-multi-choice,11,163660,0.0-7.1-1.1,,24,"[107, 81, 212, 49, 223, 93, 127, 20, 28, 190, 206, 204, 247, 158, 223, 61, 216, 97, 195, 180, 6, 159, 11, 17, 102, 26, 62, 239, 172, 187, 169, 24]",12,669a58f4f17d67c0aba4c4d3,667ff3711e30726d16f919c7,669a67461a84556efb35c34e,1,2,0,False,6,100,,21778.69999998808,"{""Q0"":""...from <b>a previous session</b> that is part of the upcoming tournament.""}",[0],0.0,multichoice_leaderboard,,,,,,,,,,,,,,,,
,instructions,12,165656,0.0-7.2-0.2,,24,"[107, 81, 212, 49, 223, 93, 127, 20, 28, 190, 206, 204, 247, 158, 223, 61, 216, 97, 195, 180, 6, 159, 11, 17, 102, 26, 62, 239, 172, 187, 169, 24]",12,669a58f4f17d67c0aba4c4d3,667ff3711e30726d16f919c7,669a67461a84556efb35c34e,1,2,0,False,6,100,"[{""page_index"":0,""viewing_time"":1995.9000000059605}]",1996.0999999940395,,,,,,,,,,,,,,,,,,,,
,survey-multi-choice,13,169460,0.0-7.2-1.2,,24,"[107, 81, 212, 49, 223, 93, 127, 20, 28, 190, 206, 204, 247, 158, 223, 61, 216, 97, 195, 180, 6, 159, 11, 17, 102, 26, 62, 239, 172, 187, 169, 24]",12,669a58f4f17d67c0aba4c4d3,667ff3711e30726d16f919c7,669a67461a84556efb35c34e,1,2,0,False,6,100,,3802.699999988079,"{""Q0"":""...from the <b>upcoming tournament</b>.""}",[0],0.0,multichoice_leaderboard,,,,,,,,,,,,,,,,
,instructions,14,170840,0.0-7.3-0.3,,24,"[107, 81, 212, 49, 223, 93, 127, 20, 28, 190, 206, 204, 247, 158, 223, 61, 216, 97, 195, 180, 6, 159, 11, 17, 102, 26, 62, 239, 172, 187, 169, 24]",12,669a58f4f17d67c0aba4c4d3,667ff3711e30726d16f919c7,669a67461a84556efb35c34e,1,2,0,False,6,100,"[{""page_index"":0,""viewing_time"":1379.5999999940395}]",1379.7999999821186,,,,,,,,,,,,,,,,,,,,
,survey-multi-choice,15,173412,0.0-7.3-1.3,,24,"[107, 81, 212, 49, 223, 93, 127, 20, 28, 190, 206, 204, 247, 158, 223, 61, 216, 97, 195, 180, 6, 159, 11, 17, 102, 26, 62, 239, 172, 187, 169, 24]",12,669a58f4f17d67c0aba4c4d3,667ff3711e30726d16f919c7,669a67461a84556efb35c34e,1,2,0,False,6,100,,2570.9000000059605,"{""Q0"":""...from <b>a previous session</b> that is not part of the upcoming tournament.""}",[0],1.0,multichoice_leaderboard,,,,,,,,,,,,,,,,
,instructions,16,181576,0.0-8.0,,24,"[107, 81, 212, 49, 223, 93, 127, 20, 28, 190, 206, 204, 247, 158, 223, 61, 216, 97, 195, 180, 6, 159, 11, 17, 102, 26, 62, 239, 172, 187, 169, 24]",12,669a58f4f17d67c0aba4c4d3,667ff3711e30726d16f919c7,669a67461a84556efb35c34e,1,2,0,False,6,100,"[{""page_index"":0,""viewing_time"":8163.4000000059605}]",8163.5,,,,,,,,,,,,,,,,,,,,
,survey-multi-choice,17,187723,0.0-9.0,,24,"[107, 81, 212, 49, 223, 93, 127, 20, 28, 190, 206, 204, 247, 158, 223, 61, 216, 97, 195, 180, 6, 159, 11, 17, 102, 26, 62, 239, 172, 187, 169, 24]",12,669a58f4f17d67c0aba4c4d3,667ff3711e30726d16f919c7,669a67461a84556efb35c34e,1,2,0,False,6,100,,6146.299999982119,"{""Q0"":""...players' leaderboard position (in terms of <b>speed</b>) in an <b>upcoming tournament.</b>""}",[0],0.0,multichoice_tournament,,,,,,,,,,,,,,,,
,instructions,18,189283,0.0-10.0-0.0,,24,"[107, 81, 212, 49, 223, 93, 127, 20, 28, 190, 206, 204, 247, 158, 223, 61, 216, 97, 195, 180, 6, 159, 11, 17, 102, 26, 62, 239, 172, 187, 169, 24]",12,669a58f4f17d67c0aba4c4d3,667ff3711e30726d16f919c7,669a67461a84556efb35c34e,1,2,0,False,6,100,"[{""page_index"":0,""viewing_time"":1558.4000000059605}]",1558.5999999940395,,,,,,,,,,,,,,,,,,,,
,survey-multi-choice,19,190554,0.0-10.0-1.0,,24,"[107, 81, 212, 49, 223, 93, 127, 20, 28, 190, 206, 204, 247, 158, 223, 61, 216, 97, 195, 180, 6, 159, 11, 17, 102, 26, 62, 239, 172, 187, 169, 24]",12,669a58f4f17d67c0aba4c4d3,667ff3711e30726d16f919c7,669a67461a84556efb35c34e,1,2,0,False,6,100,,1270.9000000059605,"{""Q0"":""...how well players did (in terms of <b>points</b>) in <b>previous games.</b>""}",[0],0.0,multichoice_tournament,,,,,,,,,,,,,,,,
,instructions,20,191547,0.0-10.1-0.1,,24,"[107, 81, 212, 49, 223, 93, 127, 20, 28, 190, 206, 204, 247, 158, 223, 61, 216, 97, 195, 180, 6, 159, 11, 17, 102, 26, 62, 239, 172, 187, 169, 24]",12,669a58f4f17d67c0aba4c4d3,667ff3711e30726d16f919c7,669a67461a84556efb35c34e,1,2,0,False,6,100,"[{""page_index"":0,""viewing_time"":991.4000000059605}]",991.5999999940396,,,,,,,,,,,,,,,,,,,,
,survey-multi-choice,21,192660,0.0-10.1-1.1,,24,"[107, 81, 212, 49, 223, 93, 127, 20, 28, 190, 206, 204, 247, 158, 223, 61, 216, 97, 195, 180, 6, 159, 11, 17, 102, 26, 62, 239, 172, 187, 169, 24]",12,669a58f4f17d67c0aba4c4d3,667ff3711e30726d16f919c7,669a67461a84556efb35c34e,1,2,0,False,6,100,,1112.2999999821186,"{""Q0"":""...players' leaderboard position (in terms of <b>points</b>) in an <b>upcoming tournament.</b>""}",[0],1.0,multichoice_tournament,,,,,,,,,,,,,,,,
,instructions,22,195490,0.0-11.0,,24,"[107, 81, 212, 49, 223, 93, 127, 20, 28, 190, 206, 204, 247, 158, 223, 61, 216, 97, 195, 180, 6, 159, 11, 17, 102, 26, 62, 239, 172, 187, 169, 24]",12,669a58f4f17d67c0aba4c4d3,667ff3711e30726d16f919c7,669a67461a84556efb35c34e,1,2,0,False,6,100,"[{""page_index"":0,""viewing_time"":2829.7000000178814}]",2829.800000011921,,,,,,,,,,,,,,,,,,,,
,instructions,23,202451,0.0-12.0-0.0,,24,"[107, 81, 212, 49, 223, 93, 127, 20, 28, 190, 206, 204, 247, 158, 223, 61, 216, 97, 195, 180, 6, 159, 11, 17, 102, 26, 62, 239, 172, 187, 169, 24]",12,669a58f4f17d67c0aba4c4d3,667ff3711e30726d16f919c7,669a67461a84556efb35c34e,1,2,0,False,6,100,"[{""page_index"":0,""viewing_time"":6959.800000011921}]",6960.0,,,,,,,,,,,,,,,,,,,,
,Hangman_replay,24,238201,0.0-12.0-1.0,,24,"[107, 81, 212, 49, 223, 93, 127, 20, 28, 190, 206, 204, 247, 158, 223, 61, 216, 97, 195, 180, 6, 159, 11, 17, 102, 26, 62, 239, 172, 187, 169, 24]",12,669a58f4f17d67c0aba4c4d3,667ff3711e30726d16f919c7,669a67461a84556efb35c34e,1,2,0,False,6,100,,,,,,,SHAKIRA,"{'letter': ['', 'E', 'A', 'R', 'T', 'S', 'H', 'I', 'K'], 't': [0, 12184.399999976158, 13384.199999988079, 19098, 25978.5, 27827.59999999404, 31359.5, 31959.59999999404, 33725.5], 'hit': [None, 0, 2, 1, 0, 1, 1, 1, 1], 'asked': ['', 'E', 'EA', 'EAR', 'EART', 'EARTS', 'EARTSH', 'EARTSHI', 'EARTSHIK'], 'word_state': ['_______', '_______', '__A___A', '__A__RA', '__A__RA', 'S_A__RA', 'SHA__RA', 'SHA_IRA', 'SHAKIRA']}","['E', 'A', 'R', 'T', 'S', 'H', 'I', 'K']",8.0,13.0,0.0,,,,,,,,,,
,instructions,25,245955,0.0-12.0-2.0,,24,"[107, 81, 212, 49, 223, 93, 127, 20, 28, 190, 206, 204, 247, 158, 223, 61, 216, 97, 195, 180, 6, 159, 11, 17, 102, 26, 62, 239, 172, 187, 169, 24]",12,669a58f4f17d67c0aba4c4d3,667ff3711e30726d16f919c7,669a67461a84556efb35c34e,1,2,0,False,6,100,"[{""page_index"":0,""viewing_time"":7760.4000000059605}]",7760.599999994039,,,,,,,,,,,,,,,,,,,,
,Guess_leaderboard,26,248723,0.0-12.0-3.0,,24,"[107, 81, 212, 49, 223, 93, 127, 20, 28, 190, 206, 204, 247, 158, 223, 61, 216, 97, 195, 180, 6, 159, 11, 17, 102, 26, 62, 239, 172, 187, 169, 24]",12,669a58f4f17d67c0aba4c4d3,667ff3711e30726d16f919c7,669a67461a84556efb35c34e,1,2,0,False,6,100,,,,,,,SHAKIRA,,,,,,2004.7999999821184,1.0,53.0,0.0,31.0,30.0,,,,
,instructions,27,254436,0.0-12.0-0.1,,24,"[107, 81, 212, 49, 223, 93, 127, 20, 28, 190, 206, 204, 247, 158, 223, 61, 216, 97, 195, 180, 6, 159, 11, 17, 102, 26, 62, 239, 172, 187, 169, 24]",12,669a58f4f17d67c0aba4c4d3,667ff3711e30726d16f919c7,669a67461a84556efb35c34e,1,2,0,False,6,100,"[{""page_index"":0,""viewing_time"":5711.5}]",5711.59999999404,,,,,,,,,,,,,,,,,,,,
,Hangman_replay,28,294337,0.0-12.0-1.1,,24,"[107, 81, 212, 49, 223, 93, 127, 20, 28, 190, 206, 204, 247, 158, 223, 61, 216, 97, 195, 180, 6, 159, 11, 17, 102, 26, 62, 239, 172, 187, 169, 24]",12,669a58f4f17d67c0aba4c4d3,667ff3711e30726d16f919c7,669a67461a84556efb35c34e,1,2,0,False,6,100,,,,,,,WRIST,"{'letter': ['', 'A', 'E', 'I', 'O', 'U', 'Y', 'S', 'H', 'R', 'W', 'T'], 't': [0, 4044.4000000059605, 5876.100000023842, 7059.4000000059605, 9658.300000011921, 11191.40000000596, 12890.300000011921, 16889, 23535.90000000596, 34181.90000000596, 35897.40000000596, 37880.30000001192], 'hit': [None, 0, 0, 1, 0, 0, 0, 1, 0, 1, 1, 1], 'asked': ['', 'A', 'AE', 'AEI', 'AEIO', 'AEIOU', 'AEIOUY', 'AEIOUYS', 'AEIOUYSH', 'AEIOUYSHR', 'AEIOUYSHRW', 'AEIOUYSHRWT'], 'word_state': ['_____', '_____', '_____', '__I__', '__I__', '__I__', '__I__', '__IS_', '__IS_', '_RIS_', 'WRIS_', 'WRIST']}","['A', 'E', 'I', 'O', 'U', 'Y', 'S', 'H', 'R', 'W', 'T']",11.0,9.0,0.0,,,,,,,,,,
,instructions,29,296189,0.0-12.0-2.1,,24,"[107, 81, 212, 49, 223, 93, 127, 20, 28, 190, 206, 204, 247, 158, 223, 61, 216, 97, 195, 180, 6, 159, 11, 17, 102, 26, 62, 239, 172, 187, 169, 24]",12,669a58f4f17d67c0aba4c4d3,667ff3711e30726d16f919c7,669a67461a84556efb35c34e,1,2,0,False,6,100,"[{""page_index"":0,""viewing_time"":1850.699999988079}]",1850.7999999821184,,,,,,,,,,,,,,,,,,,,
,Guess_leaderboard,30,298449,0.0-12.0-3.1,,24,"[107, 81, 212, 49, 223, 93, 127, 20, 28, 190, 206, 204, 247, 158, 223, 61, 216, 97, 195, 180, 6, 159, 11, 17, 102, 26, 62, 239, 172, 187, 169, 24]",12,669a58f4f17d67c0aba4c4d3,667ff3711e30726d16f919c7,669a67461a84556efb35c34e,1,2,0,False,6,100,,,,,,,WRIST,,,,,,1489.5999999940395,1.0,9.0,1.0,51.0,50.0,,,,
,instructions,31,300011,0.0-12.0-0.2,,24,"[107, 81, 212, 49, 223, 93, 127, 20, 28, 190, 206, 204, 247, 158, 223, 61, 216, 97, 195, 180, 6, 159, 11, 17, 102, 26, 62, 239, 172, 187, 169, 24]",12,669a58f4f17d67c0aba4c4d3,667ff3711e30726d16f919c7,669a67461a84556efb35c34e,1,2,0,False,6,100,"[{""page_index"":0,""viewing_time"":1560.4000000059605}]",1560.5,,,,,,,,,,,,,,,,,,,,
,Hangman_replay,32,366548,0.0-12.0-1.2,,24,"[107, 81, 212, 49, 223, 93, 127, 20, 28, 190, 206, 204, 247, 158, 223, 61, 216, 97, 195, 180, 6, 159, 11, 17, 102, 26, 62, 239, 172, 187, 169, 24]",12,669a58f4f17d67c0aba4c4d3,667ff3711e30726d16f919c7,669a67461a84556efb35c34e,1,2,0,False,6,100,,,,,,,THIRTY FOUR,"{'letter': ['', 'N', 'F', 'O', 'U', 'R', 'T', 'H', 'I', 'Y'], 't': [0, 21760.70000001788, 32272.90000000596, 39437, 41985.10000002384, 46533.30000001192, 57928.5, 60110.30000001192, 61360.5, 64509.5], 'hit': [None, 0, 1, 1, 1, 2, 2, 1, 1, 1], 'asked': ['', 'N', 'NF', 'NFO', 'NFOU', 'NFOUR', 'NFOURT', 'NFOURTH', 'NFOURTHI', 'NFOURTHIY'], 'word_state': ['______ ____', '______ ____', '______ F___', '______ FO__', '______ FOU_', '___R__ FOUR', 'T__RT_ FOUR', 'TH_RT_ FOUR', 'THIRT_ FOUR', 'THIRTY FOUR']}","['N', 'F', 'O', 'U', 'R', 'T', 'H', 'I', 'Y']",9.0,14.0,0.0,,,,,,,,,,
,instructions,33,368417,0.0-12.0-2.2,,24,"[107, 81, 212, 49, 223, 93, 127, 20, 28, 190, 206, 204, 247, 158, 223, 61, 216, 97, 195, 180, 6, 159, 11, 17, 102, 26, 62, 239, 172, 187, 169, 24]",12,669a58f4f17d67c0aba4c4d3,667ff3711e30726d16f919c7,669a67461a84556efb35c34e,1,2,0,False,6,100,"[{""page_index"":0,""viewing_time"":1868}]",1868.2000000178812,,,,,,,,,,,,,,,,,,,,
,Guess_leaderboard,34,372043,0.0-12.0-3.2,,24,"[107, 81, 212, 49, 223, 93, 127, 20, 28, 190, 206, 204, 247, 158, 223, 61, 216, 97, 195, 180, 6, 159, 11, 17, 102, 26, 62, 239, 172, 187, 169, 24]",12,669a58f4f17d67c0aba4c4d3,667ff3711e30726d16f919c7,669a67461a84556efb35c34e,1,2,0,False,6,100,,,,,,,THIRTY FOUR,,,,,,2851.0999999940395,1.0,8.0,2.0,54.0,53.0,,,,
,instructions,35,374505,0.0-12.0-0.3,,24,"[107, 81, 212, 49, 223, 93, 127, 20, 28, 190, 206, 204, 247, 158, 223, 61, 216, 97, 195, 180, 6, 159, 11, 17, 102, 26, 62, 239, 172, 187, 169, 24]",12,669a58f4f17d67c0aba4c4d3,667ff3711e30726d16f919c7,669a67461a84556efb35c34e,1,2,0,False,6,100,"[{""page_index"":0,""viewing_time"":2460.699999988079}]",2460.800000011921,,,,,,,,,,,,,,,,,,,,
,Hangman_replay,36,401301,0.0-12.0-1.3,,24,"[107, 81, 212, 49, 223, 93, 127, 20, 28, 190, 206, 204, 247, 158, 223, 61, 216, 97, 195, 180, 6, 159, 11, 17, 102, 26, 62, 239, 172, 187, 169, 24]",12,669a58f4f17d67c0aba4c4d3,667ff3711e30726d16f919c7,669a67461a84556efb35c34e,1,2,0,False,6,100,,,,,,,FIG,"{'letter': ['', 'I', 'F', 'G'], 't': [0, 23408.59999999404, 24241, 24774.09999999404], 'hit': [None, 1, 1, 1], 'asked': ['', 'I', 'IF', 'IFG'], 'word_state': ['___', '_I_', 'FI_', 'FIG']}","['I', 'F', 'G']",3.0,15.0,0.0,,,,,,,,,,
,instructions,37,403039,0.0-12.0-2.3,,24,"[107, 81, 212, 49, 223, 93, 127, 20, 28, 190, 206, 204, 247, 158, 223, 61, 216, 97, 195, 180, 6, 159, 11, 17, 102, 26, 62, 239, 172, 187, 169, 24]",12,669a58f4f17d67c0aba4c4d3,667ff3711e30726d16f919c7,669a67461a84556efb35c34e,1,2,0,False,6,100,"[{""page_index"":0,""viewing_time"":1737.1000000238419}]",1737.300000011921,,,,,,,,,,,,,,,,,,,,
,Guess_leaderboard,38,404463,0.0-12.0-3.3,,24,"[107, 81, 212, 49, 223, 93, 127, 20, 28, 190, 206, 204, 247, 158, 223, 61, 216, 97, 195, 180, 6, 159, 11, 17, 102, 26, 62, 239, 172, 187, 169, 24]",12,669a58f4f17d67c0aba4c4d3,667ff3711e30726d16f919c7,669a67461a84556efb35c34e,1,2,0,False,6,100,,,,,,,FIG,,,,,,660.7999999821186,1.0,23.0,3.0,30.0,29.0,,,,
,instructions,39,408005,0.0-12.0-0.4,,24,"[107, 81, 212, 49, 223, 93, 127, 20, 28, 190, 206, 204, 247, 158, 223, 61, 216, 97, 195, 180, 6, 159, 11, 17, 102, 26, 62, 239, 172, 187, 169, 24]",12,669a58f4f17d67c0aba4c4d3,667ff3711e30726d16f919c7,669a67461a84556efb35c34e,1,2,0,False,6,100,"[{""page_index"":0,""viewing_time"":3540.5999999940395}]",3540.7999999821186,,,,,,,,,,,,,,,,,,,,
,Hangman_replay,40,428540,0.0-12.0-1.4,,24,"[107, 81, 212, 49, 223, 93, 127, 20, 28, 190, 206, 204, 247, 158, 223, 61, 216, 97, 195, 180, 6, 159, 11, 17, 102, 26, 62, 239, 172, 187, 169, 24]",12,669a58f4f17d67c0aba4c4d3,667ff3711e30726d16f919c7,669a67461a84556efb35c34e,1,2,0,False,6,100,,,,,,,HAWAII,"{'letter': ['', 'O', 'R', 'E', 'A', 'I', 'H', 'W'], 't': [0, 6935.800000011921, 7634.200000017881, 8251.200000017881, 9183.90000000596, 15082.300000011921, 17230.90000000596, 18513.70000001788], 'hit': [None, 0, 0, 0, 2, 2, 1, 1], 'asked': ['', 'O', 'OR', 'ORE', 'OREA', 'OREAI', 'OREAIH', 'OREAIHW'], 'word_state': ['______', '______', '______', '______', '_A_A__', '_A_AII', 'HA_AII', 'HAWAII']}","['O', 'R', 'E', 'A', 'I', 'H', 'W']",7.0,12.0,0.0,,,,,,,,,,
,instructions,41,430331,0.0-12.0-2.4,,24,"[107, 81, 212, 49, 223, 93, 127, 20, 28, 190, 206, 204, 247, 158, 223, 61, 216, 97, 195, 180, 6, 159, 11, 17, 102, 26, 62, 239, 172, 187, 169, 24]",12,669a58f4f17d67c0aba4c4d3,667ff3711e30726d16f919c7,669a67461a84556efb35c34e,1,2,0,False,6,100,"[{""page_index"":0,""viewing_time"":1790.4000000059605}]",1790.5,,,,,,,,,,,,,,,,,,,,
,Guess_leaderboard,42,431286,0.0-12.0-3.4,,24,"[107, 81, 212, 49, 223, 93, 127, 20, 28, 190, 206, 204, 247, 158, 223, 61, 216, 97, 195, 180, 6, 159, 11, 17, 102, 26, 62, 239, 172, 187, 169, 24]",12,669a58f4f17d67c0aba4c4d3,667ff3711e30726d16f919c7,669a67461a84556efb35c34e,1,2,0,False,6,100,,,,,,,HAWAII,,,,,,187.5,1.0,91.0,4.0,89.0,88.0,,,,
,survey-text,43,449251,0.0-13.0,,24,"[107, 81, 212, 49, 223, 93, 127, 20, 28, 190, 206, 204, 247, 158, 223, 61, 216, 97, 195, 180, 6, 159, 11, 17, 102, 26, 62, 239, 172, 187, 169, 24]",12,669a58f4f17d67c0aba4c4d3,667ff3711e30726d16f919c7,669a67461a84556efb35c34e,1,2,0,False,6,100,,17962.59999999404,"{""Q0"":""hawaii""}",,,,,,,,,,,,,,,,hawaii,,,
,survey-multi-choice,44,463006,0.0-14.0,,24,"[107, 81, 212, 49, 223, 93, 127, 20, 28, 190, 206, 204, 247, 158, 223, 61, 216, 97, 195, 180, 6, 159, 11, 17, 102, 26, 62, 239, 172, 187, 169, 24]",12,669a58f4f17d67c0aba4c4d3,667ff3711e30726d16f919c7,669a67461a84556efb35c34e,1,2,0,False,6,100,,13753.09999999404,"{""Q0"":""6. I would be <b>last</b> out of the six of us.""}",[0],,self-rating,,,,,,,,6.0,,,,,,,,
,html-slider-response,45,466124,0.0-15.0,,24,"[107, 81, 212, 49, 223, 93, 127, 20, 28, 190, 206, 204, 247, 158, 223, 61, 216, 97, 195, 180, 6, 159, 11, 17, 102, 26, 62, 239, 172, 187, 169, 24]",12,669a58f4f17d67c0aba4c4d3,667ff3711e30726d16f919c7,669a67461a84556efb35c34e,1,2,0,False,6,100,,3116.5,,,,,,,,,,,,,,,,,,100.0,"<p>Overall, how confident were you in your answer to this last question?</p>",100.0
,survey-text,46,478281,0.0-16.0,,24,"[107, 81, 212, 49, 223, 93, 127, 20, 28, 190, 206, 204, 247, 158, 223, 61, 216, 97, 195, 180, 6, 159, 11, 17, 102, 26, 62, 239, 172, 187, 169, 24]",12,669a58f4f17d67c0aba4c4d3,667ff3711e30726d16f919c7,669a67461a84556efb35c34e,1,2,0,False,6,100,,12155.19999998808,"{""Q0"":""I am not sure""}",,,,,,,,,,,,,,,,,,,
,survey-text,47,481458,0.0-17.0,,24,"[107, 81, 212, 49, 223, 93, 127, 20, 28, 190, 206, 204, 247, 158, 223, 61, 216, 97, 195, 180, 6, 159, 11, 17, 102, 26, 62, 239, 172, 187, 169, 24]",12,669a58f4f17d67c0aba4c4d3,667ff3711e30726d16f919c7,669a67461a84556efb35c34e,1,2,0,False,6,100,,3174.5,"{""Q0"":""no""}",,,,,,,,,,,,,,,,,,,
,instructions,48,491040,0.0-18.0,,24,"[107, 81, 212, 49, 223, 93, 127, 20, 28, 190, 206, 204, 247, 158, 223, 61, 216, 97, 195, 180, 6, 159, 11, 17, 102, 26, 62, 239, 172, 187, 169, 24]",12,669a58f4f17d67c0aba4c4d3,667ff3711e30726d16f919c7,669a67461a84556efb35c34e,1,2,0,False,6,100,"[{""page_index"":0,""viewing_time"":9582.699999988079}]",9582.79999998212,,,,,,,,,,,,,,,,,,,,
1.0,fullscreen,0,3961,0.0-0.0,,25,"[107, 81, 212, 49, 223, 93, 127, 20, 28, 190, 206, 204, 247, 158, 223, 61, 216, 97, 195, 180, 6, 159, 11, 17, 102, 26, 62, 239, 172, 187, 169, 24]",12,669a58f4f17d67c0aba4c4d3,65cba5290b9dca9291cd76ac,669a6953f0d486b10e4b9fc3,1,0,1,True,6,100,,,,,,,,,,,,,,,,,,,,,,
,instructions,1,9557,0.0-1.0,,25,"[107, 81, 212, 49, 223, 93, 127, 20, 28, 190, 206, 204, 247, 158, 223, 61, 216, 97, 195, 180, 6, 159, 11, 17, 102, 26, 62, 239, 172, 187, 169, 24]",12,669a58f4f17d67c0aba4c4d3,65cba5290b9dca9291cd76ac,669a6953f0d486b10e4b9fc3,1,0,1,True,6,100,"[{""page_index"":0,""viewing_time"":5593.899999976158}]",5594.299999952316,,,,,,,,,,,,,,,,,,,,
,instructions,2,31154,0.0-2.0-0.0,,25,"[107, 81, 212, 49, 223, 93, 127, 20, 28, 190, 206, 204, 247, 158, 223, 61, 216, 97, 195, 180, 6, 159, 11, 17, 102, 26, 62, 239, 172, 187, 169, 24]",12,669a58f4f17d67c0aba4c4d3,65cba5290b9dca9291cd76ac,669a6953f0d486b10e4b9fc3,1,0,1,True,6,100,"[{""page_index"":0,""viewing_time"":21595.200000047684}]",21595.60000002384,,,,,,,,,,,,,,,,,,,,
,survey-multi-choice,3,47312,0.0-2.0-1.0,,25,"[107, 81, 212, 49, 223, 93, 127, 20, 28, 190, 206, 204, 247, 158, 223, 61, 216, 97, 195, 180, 6, 159, 11, 17, 102, 26, 62, 239, 172, 187, 169, 24]",12,669a58f4f17d67c0aba4c4d3,65cba5290b9dca9291cd76ac,669a6953f0d486b10e4b9fc3,1,0,1,True,6,100,,16149.200000047684,"{""Q0"":""... reveal the word with as <b>few letter guesses</b> as possible""}",[0],1.0,multichoice_nonpretend,,,,,,,,,,,,,,,,
,instructions,4,50147,0.0-3.0,,25,"[107, 81, 212, 49, 223, 93, 127, 20, 28, 190, 206, 204, 247, 158, 223, 61, 216, 97, 195, 180, 6, 159, 11, 17, 102, 26, 62, 239, 172, 187, 169, 24]",12,669a58f4f17d67c0aba4c4d3,65cba5290b9dca9291cd76ac,669a6953f0d486b10e4b9fc3,1,0,1,True,6,100,"[{""page_index"":0,""viewing_time"":2834.5}]",2834.899999976158,,,,,,,,,,,,,,,,,,,,
