[{"success":true,"trial_type":"fullscreen","trial_index":0,"time_elapsed":6492,"internal_node_id":"0.0-0.0","protocol_sum":"","subject_identifier":134,"subject_sum":[73,209,128,236,245,97,50,129,149,113,191,57,217,183,179,66,82,42,42,198,210,60,20,24,211,51,130,81,191,228,105,200],"subject_pair":67,"STUDY_ID":"669a702db1122fc5150a13ce","PROLIFIC_PID":"5e00f9a211999fcea4169800","SESSION_ID":"669b3788b5cd9126ab099c72","practice_instructions":1,"leaderboard_instructions":0,"bonus":0,"reveal_word":false,"self_rating":"4","confidence":"32"},{"view_history":"[{\"page_index\":0,\"viewing_time\":8914.699999928474}]","rt":8916.799999952316,"trial_type":"instructions","trial_index":1,"time_elapsed":15414,"internal_node_id":"0.0-1.0","protocol_sum":"","subject_identifier":134,"subject_sum":[73,209,128,236,245,97,50,129,149,113,191,57,217,183,179,66,82,42,42,198,210,60,20,24,211,51,130,81,191,228,105,200],"subject_pair":67,"STUDY_ID":"669a702db1122fc5150a13ce","PROLIFIC_PID":"5e00f9a211999fcea4169800","SESSION_ID":"669b3788b5cd9126ab099c72","practice_instructions":1,"leaderboard_instructions":0,"bonus":0,"reveal_word":false,"self_rating":"4","confidence":"32"},{"view_history":"[{\"page_index\":0,\"viewing_time\":44944.199999928474}]","rt":44944.799999952316,"trial_type":"instructions","trial_index":2,"time_elapsed":60362,"internal_node_id":"0.0-2.0-0.0","protocol_sum":"","subject_identifier":134,"subject_sum":[73,209,128,236,245,97,50,129,149,113,191,57,217,183,179,66,82,42,42,198,210,60,20,24,211,51,130,81,191,228,105,200],"subject_pair":67,"STUDY_ID":"669a702db1122fc5150a13ce","PROLIFIC_PID":"5e00f9a211999fcea4169800","SESSION_ID":"669b3788b5cd9126ab099c72","practice_instructions":1,"leaderboard_instructions":0,"bonus":0,"reveal_word":false,"self_rating":"4","confidence":"32"},{"rt":17829.200000047684,"responses":"{\"Q0\":\"... reveal the word with as <b>few letter guesses</b> as possible\"}","question_order":"[0]","trial_type":"survey-multi-choice","trial_index":3,"time_elapsed":78196,"internal_node_id":"0.0-2.0-1.0","protocol_sum":"","subject_identifier":134,"subject_sum":[73,209,128,236,245,97,50,129,149,113,191,57,217,183,179,66,82,42,42,198,210,60,20,24,211,51,130,81,191,228,105,200],"subject_pair":67,"correct":true,"test_part":"multichoice_nonpretend","STUDY_ID":"669a702db1122fc5150a13ce","PROLIFIC_PID":"5e00f9a211999fcea4169800","SESSION_ID":"669b3788b5cd9126ab099c72","practice_instructions":1,"leaderboard_instructions":0,"bonus":0,"reveal_word":false,"self_rating":"4","confidence":"32"},{"view_history":"[{\"page_index\":0,\"viewing_time\":2750.2999999523163}]","rt":2751.600000023842,"trial_type":"instructions","trial_index":4,"time_elapsed":80951,"internal_node_id":"0.0-3.0","protocol_sum":"","subject_identifier":134,"subject_sum":[73,209,128,236,245,97,50,129,149,113,191,57,217,183,179,66,82,42,42,198,210,60,20,24,211,51,130,81,191,228,105,200],"subject_pair":67,"STUDY_ID":"669a702db1122fc5150a13ce","PROLIFIC_PID":"5e00f9a211999fcea4169800","SESSION_ID":"669b3788b5cd9126ab099c72","practice_instructions":1,"leaderboard_instructions":0,"bonus":0,"reveal_word":false,"self_rating":"4","confidence":"32"},{"word":"ZEBRA","click_log":{"letter":["","A","M","E","F","S","H","R","O","N","K","B","C","Z"],"t":[0,5440.100000023842,7487.899999976158,10016.399999976158,11518.799999952316,15382.600000023842,17806.5,20516.399999976158,22249.199999928474,23766.5,25403.299999952316,27530.600000023842,28962.199999928474,33686.799999952316],"hit":[null,1,0,1,0,0,0,1,0,0,0,1,0,1],"asked":["","A","AM","AME","AMEF","AMEFS","AMEFSH","AMEFSHR","AMEFSHRO","AMEFSHRON","AMEFSHRONK","AMEFSHRONKB","AMEFSHRONKBC","AMEFSHRONKBCZ"],"word_state":["_____","____A","____A","_E__A","_E__A","_E__A","_E__A","_E_RA","_E_RA","_E_RA","_E_RA","_EBRA","_EBRA","ZEBRA"]},"hover_log":{"letter":["S","S","S","S","S","S","S","S","S","?","T","?","?","?","?","?","?","?","?","?","?","?","?","?","?","?","?","?","?","?","?","?","?","?","?","?","?","?","?","?","?","?","?","?","?","?","?","?","?","?","?","?","?","?","?","?","?","?","?","?","?","?","?","?","?","?","?","?","?","?","?","?","?","?","?","?","?","?","?","?","?","?","?","?","?","?","?","?","?","?","?","?","?","?","?","?","?","?","?","?","?","?","?","?","?","?","?","?","?","?","?","?","?","?","?","?","?","?","?","?","?","?","?","?","?","?","?","?","?","?","?","?","?","?","?","?","?","?","?","?","?","?","?","?","?","?","?","?","?","?","?","?","?","?","?","?","?","?","?","?","?","?","?","?","?","?","?","?","?","?","?","?","?","?","?","?","?","?","?","?","?","?","?","?","?","?","?","?","?","?","?","?","?","?","?","?","P","O","O","?","N","N","N","N","N","N","N","N","N","N","N","N","N","N","?","M","M","?","B","B","B","B","B","B","B","B","B","B","B","B","B","B","B","B","B","B","?","?","?","?","A","A","A","A","A","A","A","A","A","A","A","A","A","A","A","A","A","A","A","A","A","A","A","A","A","A","A","A","A","A","A","A","A","A","A","A","A","A","A","A","A","A","A","A","A","A","A","A","A","A","A","A","A","A","A","A","A","A","A","A","A","A","A","A","A","A","A","A","A","A","A","A","A","A","A","A","A","A","A","A","A","A","A","A","A","A","A","A","A","A","A","A","A","A","A","A","?","B","B","B","B","B","B","B","B","B","B","B","B","B","B","?","?","?","?","?","?","?","?","?","L","L","?","?","M","M","M","M","M","M","M","M","M","M","M","M","M","M","M","M","M","?","?","?","?","?","?","?","?","?","?","?","?","?","M","M","M","M","M","M","M","M","M","M","M","M","M","M","M","M","M","M","M","M","M","M","M","M","M","M","M","M","M","M","M","M","M","M","M","M","M","M","M","M","M","M","M","M","M","M","M","M","M","M","M","M","M","M","M","M","M","M","M","M","M","M","M","M","M","M","M","M","M","M","M","M","M","M","M","M","M","M","M","?","?","?","?","?","?","?","?","?","?","?","?","?","?","N","N","N","N","N","N","N","N","N","N","N","N","N","N","N","N","N","N","N","N","N","N","N","N","N","N","N","N","N","N","N","N","N","?","?","E","E","E","E","E","E","E","E","E","E","E","E","E","E","E","E","E","E","E","E","E","E","E","E","E","E","E","E","E","E","E","E","E","E","E","E","E","E","E","E","E","E","E","E","E","E","E","E","E","E","E","E","E","E","E","E","E","E","E","E","E","E","E","E","E","E","E","E","E","E","E","E","E","E","E","E","E","E","E","E","E","E","?","?","?","?","?","?","?","F","F","F","F","F","F","F","F","F","F","F","F","F","F","F","F","F","F","F","F","F","F","F","F","F","F","F","F","F","F","F","F","F","F","F","F","F","F","F","F","F","F","F","F","F","F","F","F","F","F","F","F","F","F","F","F","F","F","F","F","F","F","F","F","F","F","F","F","F","F","F","F","F","F","F","F","F","F","F","F","F","F","F","F","F","?","E","D","?","?","?","?","?","?","?","?","?","?","?","?","?","?","?","?","?","?","?","?","?","?","?","K","K","K","K","K","K","K","K","K","K","K","K","K","K","K","K","K","K","K","K","K","K","K","?","?","?","?","?","?","?","?","?","J","J","J","J","J","J","J","J","J","J","J","J","J","J","J","J","J","J","J","J","J","J","J","J","J","?","K","K","K","K","K","?","?","?","?","?","?","?","S","S","S","S","S","S","S","S","S","S","S","S","S","S","S","S","S","S","S","S","S","S","S","S","S","S","S","S","S","S","S","S","S","S","S","S","S","S","S","S","S","S","S","S","S","S","S","S","S","S","S","S","S","S","S","S","S","S","S","S","S","S","S","S","S","S","S","S","S","S","S","S","S","S","S","S","S","S","S","S","S","S","S","S","S","S","S","S","S","S","S","S","S","S","S","S","S","S","S","S","S","S","S","S","S","S","S","S","S","S","S","S","S","S","S","S","S","S","S","S","S","S","S","S","S","S","S","S","S","S","S","S","S","S","S","?","T","U","U","V","V","?","?","?","?","?","?","?","?","?","?","?","?","?","N","?","?","G","G","G","G","G","G","G","G","G","G","G","G","G","G","G","G","G","G","G","G","G","G","?","?","H","H","H","H","H","H","H","H","H","H","H","H","H","H","H","H","H","H","H","H","H","H","H","H","H","H","H","H","H","H","H","H","H","H","H","H","H","H","H","H","H","H","H","H","H","H","H","H","H","H","H","H","H","H","H","H","H","H","H","H","H","H","H","H","H","H","H","H","H","H","H","H","H","H","H","H","H","H","H","H","H","H","H","H","H","H","?","?","?","?","?","?","?","?","?","?","?","?","?","?","?","?","?","?","?","?","?","?","?","I","I","I","I","I","I","I","I","I","I","I","I","I","I","I","I","I","I","I","I","I","I","I","I","I","I","I","I","I","I","I","I","I","I","I","I","I","I","I","?","?","?","?","?","?","?","?","?","?","R","R","R","R","R","R","R","R","R","R","R","R","R","R","R","R","R","R","R","R","R","R","R","R","R","R","R","R","R","R","R","R","R","R","R","R","R","R","R","R","R","R","R","R","R","R","R","R","R","R","R","R","R","R","R","R","R","R","R","R","R","R","R","R","R","R","R","R","R","R","Q","Q","?","P","P","P","P","P","P","P","P","P","P","P","P","?","?","?","O","O","O","O","O","O","O","O","O","O","O","O","O","O","O","O","O","O","O","O","O","O","O","O","O","O","O","O","O","O","O","O","O","O","O","O","O","O","O","O","O","O","O","O","O","O","O","O","O","O","O","O","O","O","O","O","O","O","O","O","O","O","O","O","O","O","O","O","O","O","O","O","O","O","O","O","O","O","O","O","O","O","O","?","N","N","N","N","N","N","N","N","N","N","?","?","?","?","?","?","?","?","?","?","N","N","N","N","N","N","N","N","N","N","N","N","N","N","N","N","N","N","N","N","N","N","N","N","N","N","N","N","N","N","N","N","N","N","N","N","N","N","N","N","N","N","N","N","N","N","N","N","N","N","N","N","N","N","N","N","N","N","N","N","N","N","N","N","N","N","?","?","M","M","M","M","?","L","L","?","?","K","K","K","K","K","K","K","K","K","K","K","K","K","K","K","K","K","K","K","K","K","K","K","K","K","K","K","K","K","K","K","K","K","K","K","K","K","K","K","K","K","K","K","K","K","K","K","K","K","K","K","K","K","K","K","K","K","K","K","K","K","K","K","K","K","K","K","K","K","K","K","K","K","K","?","L","L","?","M","M","M","M","M","M","M","M","M","M","M","M","M","M","M","M","M","M","M","M","?","?","?","?","C","C","C","C","C","C","C","C","C","C","C","C","C","?","?","B","B","B","B","B","B","B","B","B","B","B","B","B","B","B","B","B","B","B","B","B","B","B","B","B","B","B","B","B","B","B","B","B","B","B","B","B","B","B","B","B","B","B","B","B","B","B","B","B","B","B","B","B","B","B","B","B","B","B","B","B","B","B","B","B","B","B","B","B","B","B","B","B","B","B","B","B","B","B","B","B","B","B","B","B","B","B","B","C","C","C","C","C","C","C","C","C","C","C","C","C","C","C","C","C","C","C","C","C","C","C","C","C","C","C","C","C","C","C","C","C","C","C","C","C","C","C","C","C","C","C","C","C","C","C","C","C","C","C","C","C","C","C","C","C","C","C","C","C","C","C","C","C","C","C","C","C","C","C","C","C","C","C","C","?","?","?","?","M","M","M","M","M","M","M","M","N","N","N","?","?","?","?","?","?","?","?","?","?","?","?","?","?","?","?","?","O","O","O","O","O","O","O","O","O","O","O","O","O","O","O","O","O","O","O","O","O","?","N","N","N","N","?","E","E","E","E","E","E","E","E","E","E","E","E","E","E","E","?","?","?","M","M","?","?","?","T","T","T","T","T","T","T","T","T","T","T","T","T","T","T","T","T","T","T","?","U","U","V","V","W","W","?","X","X","X","X","X","X","X","X","X","X","X","X","?","?","?","?","?","?","?","?","?","?","?","?","?","?","?","?","?","?","?","?","?","?","?","?","?","?","?","?","?","?","?","P","P","P","P","P","P","P","P","P","P","P","P","P","P","P","?","?","?","Z","Z","Z","Z","Z","Z","Z","Z","Z","Z","Z","Z","Z","Z","Z","Z","Z","Z","Z","Z","Z","Z","Z","Z","Z","Z","Z","Z","Z","Z","Z","Z","Z","Z","Z","Z","Z","Z","Z","Z","Z","Z","Z","Z","Z","Z","Z","Z","Z","Z","Z","Z","Z","Z","Z","Z","Z","Z","Z","Z","Z","Z","Z","Z","Z","Z","Z","Z","Z","Z","Z","Z","Z","Z","Z","Z","Z","Z","Z","Z","Z","Z","Z","Z","Z","Z","Z","Z","Z","Z","Z","Z","?","?","?","?","?","?","?","?","?","?","?","?","?","?","?","?","?","?","?","?","?","?","?","?","?","?","?","?","?","?","?","?","?","?","?","?","?","?","?","?","?","?","?","?","?","?","?","?","?","?","?","?","?","?","?","?","?","?","?","?","?","?","?","?","?","?","?","?","?","?","?","?","?","?","?","?","?","?","?","?","?","?","?","?","?","?","?","?","?"],"t":[137,187,211,223,250,268,288,307,321,349,371,390,406,426,440,466,483,503,519,532,551,566,616,634,649,671,692,703,719,737,752,770,787,805,819,836,854,869,882,903,917,934,951,966,982,1001,1022,1039,1055,1078,1098,1112,1131,1150,1166,1179,1193,1208,1222,1249,1265,1283,1301,1315,1333,1349,1365,1382,1398,1414,1432,1448,1465,1482,1498,1515,1531,1548,1565,1582,1598,1615,1631,1649,1664,1681,1699,1715,1731,1748,1764,1782,1798,1812,1832,1847,1865,1882,1897,1914,1930,1947,1964,1982,1998,2014,2031,2047,2066,2080,2097,2121,2134,2163,2181,2195,2212,2229,2245,2262,2279,2294,2312,2329,2346,2363,2379,2395,2413,2430,2445,2462,2479,2496,2512,2529,2546,2562,2580,2597,2612,2629,2645,2662,2678,2695,2712,2730,2745,2762,2778,2795,2812,2828,2845,2862,2878,2896,2912,2928,2945,2962,2979,2995,3011,3028,3045,3063,3078,3095,3113,3132,3148,3166,3210,3231,3248,3264,3291,3313,3331,3348,3363,3377,3395,3412,3428,3445,3462,3478,3495,3512,3528,3551,3566,3582,3604,3620,3649,3693,3712,3728,3745,3762,3780,3795,3812,3829,3846,3863,3881,3902,3917,3934,3970,3984,3999,4018,4034,4051,4068,4083,4095,4112,4129,4145,4162,4178,4195,4213,4228,4246,4263,4285,4306,4329,4350,4368,4381,4398,4417,4432,4447,4461,4479,4496,4512,4530,4544,4568,4580,4596,4610,4630,4646,4663,4680,4694,4713,4729,4745,4762,4779,4797,4813,4829,4845,4861,4878,4895,4916,4932,4946,4966,4979,4997,5014,5035,5051,5064,5081,5097,5112,5155,5178,5198,5210,5225,5243,5259,5276,5295,5309,5340,5361,5378,5395,5411,5432,5452,5480,5489,5556,5568,5589,5600,5616,5631,5649,5662,5680,5698,5715,5731,5750,5764,5780,5797,5813,5828,5846,5862,5878,5895,5912,5928,5945,5962,5979,5996,6012,6027,6046,6066,6083,6101,6118,6142,6155,6174,6193,6211,6229,6244,6259,6274,6297,6316,6331,6346,6362,6380,6398,6416,6434,6450,6473,6492,6506,6525,6545,6562,6580,6592,6612,6623,6648,6660,6676,6694,6712,6725,6749,6774,6789,6808,6821,6831,6847,6865,6883,6898,6913,6931,6945,6962,6983,7008,7025,7041,7058,7076,7090,7111,7127,7146,7164,7180,7207,7225,7241,7259,7275,7291,7308,7325,7341,7358,7375,7391,7407,7428,7441,7457,7475,7499,7513,7525,7544,7561,7576,7596,7613,7631,7645,7660,7676,7695,7711,7725,7743,7760,7782,7795,7810,7826,7842,7861,7878,7893,7909,7926,7944,7960,7976,7993,8008,8026,8043,8059,8078,8094,8108,8128,8148,8166,8181,8197,8226,8240,8253,8292,8307,8322,8335,8356,8374,8391,8409,8425,8443,8461,8479,8497,8512,8528,8547,8561,8576,8593,8609,8627,8643,8658,8675,8694,8710,8729,8744,8769,8780,8808,8824,8841,8857,8874,8892,8907,8925,8941,8956,8974,8989,9006,9023,9039,9055,9074,9089,9111,9125,9143,9159,9175,9192,9210,9228,9248,9261,9281,9308,9321,9337,9355,9373,9386,9397,9408,9428,9442,9457,9474,9492,9507,9524,9539,9556,9574,9591,9607,9624,9641,9660,9690,9706,9723,9739,9773,9789,9804,9825,9843,9856,9876,9890,9905,9923,9940,9958,9972,9988,10010,10029,10044,10058,10076,10090,10108,10126,10142,10158,10176,10193,10212,10229,10243,10255,10274,10294,10306,10323,10340,10357,10373,10389,10406,10422,10439,10454,10471,10490,10506,10524,10542,10561,10577,10594,10611,10626,10642,10662,10675,10692,10709,10730,10745,10761,10778,10796,10814,10828,10846,10858,10878,10894,10908,10927,10945,10961,10980,10993,11006,11028,11044,11058,11074,11093,11111,11124,11150,11166,11177,11191,11208,11234,11254,11267,11283,11295,11320,11338,11360,11371,11390,11405,11421,11439,11453,11475,11488,11502,11527,11540,11555,11571,11587,11610,11638,11654,11670,11687,11704,11721,11737,11754,11770,11789,11806,11832,11850,11862,11878,11891,11904,11921,11939,11955,11971,11989,12006,12022,12040,12057,12071,12088,12106,12122,12137,12154,12172,12188,12203,12221,12236,12253,12287,12306,12320,12336,12355,12368,12384,12396,12416,12432,12443,12461,12475,12490,12507,12523,12544,12569,12585,12602,12619,12638,12656,12676,12693,12707,12724,12760,12776,12792,12810,12823,12837,12854,12875,12890,12906,12922,12937,12954,12970,12990,13007,13022,13041,13057,13075,13094,13108,13125,13143,13156,13170,13187,13205,13222,13240,13255,13274,13300,13320,13336,13355,13376,13404,13430,13444,13461,13487,13504,13522,13535,13552,13569,13585,13603,13628,13638,13657,13677,13691,13715,13726,13742,13771,13788,13806,13823,13838,13855,13877,13903,13921,13935,13952,13973,13987,14000,14014,14033,14052,14069,14084,14092,14106,14120,14138,14153,14170,14187,14207,14221,14252,14268,14301,14325,14343,14373,14401,14419,14432,14450,14464,14474,14488,14504,14520,14537,14554,14569,14591,14608,14624,14647,14661,14675,14692,14713,14724,14740,14756,14772,14787,14803,14819,14837,14857,14870,14886,14903,14921,14937,14953,14971,14988,15004,15019,15041,15068,15084,15102,15118,15134,15151,15168,15184,15201,15218,15234,15251,15272,15290,15320,15335,15351,15367,15391,15404,15416,15434,15451,15468,15484,15502,15518,15535,15551,15568,15584,15600,15617,15634,15650,15668,15688,15706,15728,15761,15780,15791,15811,15823,15838,15852,15868,15883,15905,15919,15939,15972,15986,15999,16021,16035,16054,16072,16088,16101,16116,16134,16151,16168,16184,16201,16217,16234,16251,16267,16285,16300,16318,16337,16355,16374,16389,16405,16424,16441,16458,16472,16485,16500,16518,16535,16550,16567,16583,16601,16618,16639,16657,16671,16690,16706,16724,16746,16765,16782,16799,16816,16832,16849,16865,16882,16898,16915,16932,16949,16967,16986,17002,17019,17036,17052,17072,17085,17104,17119,17151,17174,17211,17235,17249,17264,17282,17304,17320,17334,17350,17370,17388,17407,17434,17446,17456,17480,17498,17515,17531,17548,17564,17582,17599,17617,17632,17648,17670,17684,17697,17713,17731,17757,17767,17782,17800,17818,17835,17852,17864,17882,17899,17916,17932,17951,17967,17985,18003,18018,18032,18047,18064,18082,18097,18116,18134,18149,18164,18182,18199,18217,18232,18249,18265,18283,18298,18314,18332,18349,18366,18384,18402,18414,18432,18450,18470,18489,18512,18528,18547,18568,18585,18604,18617,18637,18687,18711,18731,18749,18770,18795,18813,18831,18846,18864,18880,18897,18912,18928,18947,18964,18980,19002,19017,19035,19053,19070,19084,19103,19121,19139,19152,19178,19197,19211,19231,19249,19267,19287,19299,19316,19333,19348,19366,19382,19400,19415,19431,19447,19463,19481,19496,19514,19531,19549,19563,19581,19598,19616,19637,19651,19668,19686,19702,19718,19736,19753,19768,19783,19801,19817,19835,19852,19870,19883,19900,19917,19937,19951,19968,19986,19999,20013,20031,20048,20078,20096,20114,20136,20167,20175,20194,20220,20232,20246,20264,20281,20299,20311,20330,20347,20364,20381,20409,20428,20445,20463,20478,20495,20515,20532,20547,20561,20579,20595,20611,20627,20645,20662,20680,20699,20720,20745,20762,20777,20795,20812,20827,20844,20861,20877,20894,20912,20926,20945,20966,20978,20993,21012,21028,21045,21061,21078,21093,21110,21128,21148,21164,21180,21196,21214,21232,21248,21264,21292,21303,21316,21345,21361,21379,21394,21412,21429,21447,21463,21482,21499,21518,21535,21553,21567,21584,21598,21613,21644,21662,21692,21712,21730,21743,21761,21778,21793,21812,21830,21847,21864,21878,21897,21912,21926,21943,21960,21977,21993,22011,22026,22042,22059,22077,22095,22110,22127,22143,22165,22191,22211,22227,22247,22261,22278,22293,22310,22328,22343,22360,22376,22393,22411,22425,22444,22461,22477,22493,22509,22528,22545,22561,22576,22595,22609,22626,22643,22660,22677,22693,22708,22726,22744,22762,22778,22792,22810,22827,22843,22860,22880,22898,22913,22931,22947,22965,22983,23014,23025,23044,23059,23068,23090,23110,23126,23147,23163,23182,23208,23228,23245,23260,23283,23298,23316,23331,23348,23363,23379,23396,23411,23426,23444,23461,23482,23497,23513,23526,23543,23560,23575,23593,23610,23626,23643,23661,23677,23692,23713,23728,23743,23764,23781,23795,23811,23827,23842,23860,23877,23895,23909,23926,23943,23959,23976,23993,24010,24027,24042,24060,24077,24095,24109,24127,24148,24164,24192,24209,24225,24242,24259,24275,24294,24309,24324,24342,24358,24373,24399,24416,24438,24459,24477,24495,24523,24545,24563,24581,24597,24615,24640,24664,24682,24699,24716,24741,24766,24788,24817,24829,24845,24864,24881,24896,24913,24930,24943,24961,24978,24994,25015,25030,25053,25066,25094,25110,25125,25140,25156,25175,25191,25209,25227,25244,25259,25283,25296,25323,25342,25359,25375,25399,25414,25430,25444,25460,25477,25492,25510,25527,25544,25574,25592,25608,25626,25641,25658,25675,25691,25707,25724,25742,25758,25775,25791,25808,25825,25841,25858,25874,25891,25908,25926,25946,25964,25980,25997,26014,26035,26051,26062,26075,26091,26107,26126,26146,26160,26175,26195,26209,26223,26248,26268,26294,26327,26340,26358,26376,26394,26413,26430,26454,26473,26495,26511,26524,26548,26563,26578,26593,26611,26629,26646,26660,26678,26697,26714,26729,26746,26764,26787,26798,26824,26840,26857,26873,26892,26910,26928,26943,26958,26976,26994,27010,27029,27048,27068,27078,27105,27121,27139,27156,27173,27191,27206,27223,27239,27256,27284,27294,27311,27326,27346,27360,27375,27404,27419,27439,27456,27472,27488,27505,27524,27543,27556,27570,27589,27605,27624,27642,27663,27689,27720,27729,27741,27774,27788,27803,27818,27834,27847,27871,27887,27906,27921,27939,27955,27971,27988,28004,28021,28038,28056,28076,28092,28109,28125,28139,28158,28176,28195,28210,28225,28252,28271,28295,28309,28325,28339,28355,28373,28390,28406,28423,28440,28458,28475,28493,28509,28527,28543,28559,28576,28593,28607,28627,28645,28658,28671,28688,28705,28726,28739,28755,28771,28789,28808,28824,28839,28854,28871,28900,28919,28937,28954,28972,28986,29003,29020,29036,29054,29078,29088,29103,29125,29138,29159,29187,29198,29223,29237,29251,29270,29289,29304,29321,29337,29353,29370,29386,29404,29421,29437,29454,29470,29486,29503,29520,29537,29557,29576,29594,29609,29626,29644,29662,29687,29707,29723,29737,29755,29771,29790,29809,29823,29840,29860,29876,29890,29904,29920,29940,29954,29971,29988,30003,30021,30038,30054,30071,30090,30105,30125,30143,30161,30181,30191,30208,30226,30242,30267,30291,30307,30324,30339,30358,30374,30389,30405,30418,30437,30456,30475,30493,30511,30549,30560,30575,30591,30621,30640,30656,30676,30689,30705,30718,30735,30752,30769,30784,30802,30818,30835,30852,30871,30893,30915,30934,30952,30971,30989,31007,31024,31039,31060,31085,31100,31118,31136,31152,31169,31184,31201,31218,31237,31251,31269,31287,31305,31325,31341,31360,31376,31392,31409,31426,31442,31460,31484,31507,31522,31537,31552,31569,31585,31602,31620,31636,31653,31669,31686,31707,31724,31740,31756,31771,31786,31804,31825,31848,31860,31874,31892,31907,31926,31942,31966,31984,32001,32018,32043,32059,32073,32087,32102,32120,32135,32154,32169,32189,32207,32225,32248,32258,32301,32317,32336,32359,32384,32401,32417,32433,32450,32467,32484,32501,32519,32537,32555,32574,32588,32606,32624,32642,32657,32675,32692,32715,32734,32749,32768,32783,32802,32819,32835,32851,32868,32883,32900,32918,32933,32950,32967,32983,33000,33018,33035,33051,33065,33083,33100,33118,33134,33151,33167,33182,33200,33220,33237,33256,33271,33295,33315,33335,33353,33368,33381,33400,33415,33438,33454,33472,33489,33513,33532,33545,33558,33580,33601,33616,33632,33650,33666,33684,33712,33723,33744,33768,33784,33801,33817,33835,33854,33869,33884,33900,33918,33933,33951,33965,33983,34000,34016,34032,34050,34067,34082,34098,34116,34133,34149,34169,34190,34211,34223,34242,34256,34273,34298,34318,34336,34351,34364,34382,34400,34418,34433,34447,34466,34485,34503,34522,34536,34553,34572,34595,34614,34627,34643,34655,34670,34685,34704,34718,34734,34751,34767,34782,34798,34818,34834,34854,34881,34900,34913,34929,34945,34962,34978,34997,35012,35032,35047,35066,35082,35099,35121,35136,35150,35166,35182,35198,35214,35233,35246,35266,35281,35302,35318,35334,35349,35367,35383,35399,35416,35432,35447,35465,35481,35499,35513,35532,35549,35566,35584,35599,35616,35633,35649,35665,35682,35702],"hit":[null],"x":[0.041496598649592625,0.041496598649592625,0.041496598649592625,0.041496598649592625,0.041496598649592625,0.041496598649592625,0.041496598649592625,0.041496598649592625,0.041496598649592625,0.055102040826463375,0.16734693878564705,0.34421768708496675,0.5687074830033341,0.6163265306223817,0.6741496598740824,0.7047619047720416,0.7183673469489124,0.7251700680373477,0.7251700680373477,0.7251700680373477,0.7251700680373477,0.7251700680373477,0.7251700680373477,0.7251700680373477,0.7251700680373477,0.7285714285815654,0.7387755102142185,0.7455782313026539,0.7591836734795246,0.7727891156563953,0.776190476200613,0.776190476200613,0.776190476200613,0.7727891156563953,0.7693877551121776,0.7693877551121776,0.7693877551121776,0.76598639456796,0.76598639456796,0.76598639456796,0.76598639456796,0.76598639456796,0.76598639456796,0.76598639456796,0.76598639456796,0.76598639456796,0.76598639456796,0.7829931972890484,0.820408163275443,0.864625850350273,0.9088435374251028,0.929251700690409,0.9496598639557151,0.9802721088536742,0.9836734693978919,0.9904761904863273,0.9904761904863273,0.993877551030545,0.993877551030545,0.993877551030545,0.993877551030545,0.993877551030545,0.9972789115747627,0.9972789115747627,0.9972789115747627,0.9972789115747627,0.9972789115747627,0.9972789115747627,0.9972789115747627,0.9972789115747627,0.9972789115747627,0.9972789115747627,0.9972789115747627,0.9972789115747627,0.9972789115747627,0.9972789115747627,0.9972789115747627,0.9972789115747627,0.9972789115747627,0.9972789115747627,0.9972789115747627,0.9972789115747627,0.9972789115747627,0.9972789115747627,0.9972789115747627,0.9972789115747627,0.9972789115747627,0.9972789115747627,0.9972789115747627,0.9972789115747627,0.9972789115747627,0.9972789115747627,0.9972789115747627,0.9972789115747627,0.9972789115747627,0.9972789115747627,0.9972789115747627,0.9972789115747627,0.9972789115747627,0.9972789115747627,0.9972789115747627,0.9972789115747627,0.9972789115747627,0.9972789115747627,0.9972789115747627,0.9972789115747627,0.9972789115747627,0.9972789115747627,0.9972789115747627,0.9972789115747627,0.9972789115747627,0.9972789115747627,0.9972789115747627,0.9972789115747627,0.9972789115747627,0.9972789115747627,0.9972789115747627,0.9972789115747627,0.9972789115747627,0.9972789115747627,0.9972789115747627,0.9972789115747627,0.9972789115747627,0.9972789115747627,0.9972789115747627,0.9972789115747627,0.9972789115747627,0.9972789115747627,0.9972789115747627,0.9972789115747627,0.9972789115747627,0.9972789115747627,0.9972789115747627,0.9972789115747627,0.9972789115747627,0.9972789115747627,0.9972789115747627,0.9972789115747627,0.9972789115747627,0.9972789115747627,0.9972789115747627,0.9972789115747627,0.9972789115747627,0.9972789115747627,0.9972789115747627,0.9972789115747627,0.9972789115747627,0.9972789115747627,0.9972789115747627,0.9972789115747627,0.9972789115747627,0.9972789115747627,0.9972789115747627,0.9972789115747627,0.9972789115747627,0.9972789115747627,0.9972789115747627,0.9972789115747627,0.9972789115747627,0.9972789115747627,0.9972789115747627,0.9972789115747627,0.9972789115747627,0.9972789115747627,0.9972789115747627,0.9972789115747627,0.9972789115747627,0.9972789115747627,0.9972789115747627,0.9972789115747627,0.9972789115747627,0.9972789115747627,1.0006802721189805,1.004081632663198,1.004081632663198,1.0006802721189805,1.0006802721189805,1.0006802721189805,1.004081632663198,1.092517006812858,1.157142857152994,1.201360544227824,1.211564625860477,1.211564625860477,1.211564625860477,1.211564625860477,1.211564625860477,1.211564625860477,1.211564625860477,1.211564625860477,1.211564625860477,1.211564625860477,1.211564625860477,1.2047619047720417,1.157142857152994,1.0857142857244226,0.8884353741597967,0.7523809523910893,0.6707482993298647,0.646938775520341,0.602721088445511,0.602721088445511,0.602721088445511,0.602721088445511,0.602721088445511,0.602721088445511,0.602721088445511,0.602721088445511,0.602721088445511,0.602721088445511,0.602721088445511,0.5959183673570756,0.5925170068128579,0.5857142857244225,0.49047619048632735,0.43265306123462666,0.38503401361557904,0.24897959184687155,0.19455782313938855,0.17414965987408243,0.14693877552034093,0.14013605443190555,0.14013605443190555,0.14013605443190555,0.14013605443190555,0.14013605443190555,0.14013605443190555,0.14013605443190555,0.14013605443190555,0.14013605443190555,0.14013605443190555,0.14013605443190555,0.14013605443190555,0.13333333334347017,0.11972789116659943,0.10612244898972868,0.07210884354755182,0.05850340137068106,0.055102040826463375,0.048299319738028,0.044897959193810316,0.044897959193810316,0.044897959193810316,0.044897959193810316,0.044897959193810316,0.044897959193810316,0.044897959193810316,0.044897959193810316,0.044897959193810316,0.041496598649592625,0.041496598649592625,0.041496598649592625,0.041496598649592625,0.041496598649592625,0.041496598649592625,0.041496598649592625,0.041496598649592625,0.041496598649592625,0.041496598649592625,0.041496598649592625,0.041496598649592625,0.041496598649592625,0.041496598649592625,0.041496598649592625,0.041496598649592625,0.041496598649592625,0.041496598649592625,0.041496598649592625,0.041496598649592625,0.041496598649592625,0.03809523810537494,0.03469387756115725,0.03469387756115725,0.03469387756115725,0.03129251701693957,0.03129251701693957,0.03129251701693957,0.024489795928504192,0.021088435384286505,0.021088435384286505,0.017687074840068817,0.017687074840068817,0.017687074840068817,0.01428571429585113,0.01428571429585113,0.01428571429585113,0.01428571429585113,0.01428571429585113,0.01428571429585113,0.01428571429585113,0.01428571429585113,0.01428571429585113,0.01428571429585113,0.01428571429585113,0.01428571429585113,0.01428571429585113,0.01428571429585113,0.01428571429585113,0.01428571429585113,0.01428571429585113,0.01428571429585113,0.01428571429585113,0.01428571429585113,0.01428571429585113,0.01428571429585113,0.01428571429585113,0.01428571429585113,0.01428571429585113,0.01428571429585113,0.01428571429585113,0.01428571429585113,0.01428571429585113,0.01428571429585113,0.01428571429585113,0.01428571429585113,0.01428571429585113,0.01428571429585113,0.01428571429585113,0.01428571429585113,0.01428571429585113,0.01428571429585113,0.01428571429585113,0.01428571429585113,0.01428571429585113,0.01428571429585113,0.01428571429585113,0.01428571429585113,0.01428571429585113,0.01428571429585113,0.01428571429585113,0.01428571429585113,0.01428571429585113,0.01428571429585113,0.01428571429585113,0.021088435384286505,0.03129251701693957,0.06870748300333412,0.09251700681285793,0.0993197279012933,0.11972789116659943,0.13333333334347017,0.13673469388768786,0.14013605443190555,0.14353741497612324,0.14693877552034093,0.15034013606455862,0.1537414966087763,0.16054421769721167,0.16394557824142936,0.16734693878564705,0.16734693878564705,0.17755102041830012,0.18095238096251778,0.18775510205095317,0.19455782313938855,0.20136054422782393,0.20476190477204162,0.22176870749313005,0.23537414967000078,0.2625850340237423,0.3034013605543545,0.3170068027312253,0.34421768708496675,0.3646258503502729,0.3714285714387083,0.38843537415979673,0.3918367347040144,0.3918367347040144,0.3918367347040144,0.3918367347040144,0.3918367347040144,0.3918367347040144,0.3918367347040144,0.3918367347040144,0.3918367347040144,0.3918367347040144,0.3918367347040144,0.3918367347040144,0.3918367347040144,0.3918367347040144,0.38843537415979673,0.38503401361557904,0.38503401361557904,0.38163265307136135,0.38163265307136135,0.38163265307136135,0.38163265307136135,0.38163265307136135,0.38163265307136135,0.38163265307136135,0.38163265307136135,0.38163265307136135,0.38163265307136135,0.38503401361557904,0.38843537415979673,0.39863945579244975,0.39863945579244975,0.40204081633666744,0.40544217688088513,0.40544217688088513,0.40544217688088513,0.40544217688088513,0.40544217688088513,0.40544217688088513,0.40544217688088513,0.40544217688088513,0.40544217688088513,0.40544217688088513,0.40544217688088513,0.40544217688088513,0.40544217688088513,0.40544217688088513,0.40544217688088513,0.40544217688088513,0.40544217688088513,0.40544217688088513,0.40544217688088513,0.40544217688088513,0.40544217688088513,0.40544217688088513,0.40544217688088513,0.40544217688088513,0.40544217688088513,0.4122448979693205,0.4122448979693205,0.4122448979693205,0.4122448979693205,0.4122448979693205,0.4122448979693205,0.4122448979693205,0.4122448979693205,0.4122448979693205,0.4122448979693205,0.4122448979693205,0.4122448979693205,0.4122448979693205,0.4122448979693205,0.4122448979693205,0.4122448979693205,0.4122448979693205,0.4122448979693205,0.4122448979693205,0.4122448979693205,0.4122448979693205,0.4122448979693205,0.4122448979693205,0.4122448979693205,0.4122448979693205,0.4122448979693205,0.4122448979693205,0.4122448979693205,0.4122448979693205,0.4122448979693205,0.4122448979693205,0.4190476190577559,0.42925170069040897,0.43605442177884435,0.44625850341149736,0.4632653061325858,0.4666666666768035,0.4700680272210212,0.4802721088536743,0.4802721088536743,0.4802721088536743,0.4802721088536743,0.4802721088536743,0.4802721088536743,0.4802721088536743,0.4802721088536743,0.4802721088536743,0.4802721088536743,0.48367346939789196,0.48707482994210965,0.49047619048632735,0.493877551030545,0.5006802721189804,0.504081632663198,0.5074829932074157,0.5074829932074157,0.5074829932074157,0.5074829932074157,0.5074829932074157,0.5074829932074157,0.5074829932074157,0.5074829932074157,0.5108843537516334,0.5108843537516334,0.5142857142958511,0.5142857142958511,0.5142857142958511,0.5142857142958511,0.5142857142958511,0.5142857142958511,0.5142857142958511,0.5142857142958511,0.5142857142958511,0.5176870748400688,0.5176870748400688,0.5176870748400688,0.5176870748400688,0.5176870748400688,0.5176870748400688,0.5176870748400688,0.5176870748400688,0.5176870748400688,0.5176870748400688,0.5176870748400688,0.5176870748400688,0.5176870748400688,0.5210884353842865,0.5244897959285042,0.5346938775611573,0.5414965986495927,0.5448979591938103,0.5448979591938103,0.548299319738028,0.548299319738028,0.5517006802822457,0.5517006802822457,0.5517006802822457,0.5517006802822457,0.5517006802822457,0.548299319738028,0.548299319738028,0.548299319738028,0.5551020408264634,0.5585034013706811,0.5585034013706811,0.5619047619148988,0.5619047619148988,0.5619047619148988,0.5619047619148988,0.5619047619148988,0.5619047619148988,0.5619047619148988,0.5619047619148988,0.5619047619148988,0.5619047619148988,0.5619047619148988,0.5619047619148988,0.5619047619148988,0.5619047619148988,0.5619047619148988,0.5619047619148988,0.5619047619148988,0.5619047619148988,0.5619047619148988,0.5619047619148988,0.5619047619148988,0.5619047619148988,0.5619047619148988,0.5619047619148988,0.5619047619148988,0.5619047619148988,0.5619047619148988,0.5619047619148988,0.5619047619148988,0.5619047619148988,0.5619047619148988,0.5619047619148988,0.5619047619148988,0.5619047619148988,0.5619047619148988,0.5619047619148988,0.5619047619148988,0.5619047619148988,0.5619047619148988,0.5619047619148988,0.5619047619148988,0.5619047619148988,0.5619047619148988,0.5619047619148988,0.5619047619148988,0.5619047619148988,0.5619047619148988,0.5619047619148988,0.5619047619148988,0.5619047619148988,0.5619047619148988,0.5619047619148988,0.5619047619148988,0.5619047619148988,0.5619047619148988,0.5619047619148988,0.5619047619148988,0.5619047619148988,0.5619047619148988,0.5619047619148988,0.5619047619148988,0.5619047619148988,0.5619047619148988,0.5619047619148988,0.5619047619148988,0.5619047619148988,0.5619047619148988,0.5619047619148988,0.5653061224591165,0.5721088435475518,0.5755102040917695,0.5755102040917695,0.5789115646359871,0.5823129251802048,0.5857142857244225,0.5925170068128579,0.5993197279012933,0.6163265306223817,0.6231292517108171,0.6435374149761233,0.657142857152994,0.6707482993298647,0.6741496598740824,0.6877551020509531,0.6945578231393885,0.6979591836836062,0.7013605442278239,0.7081632653162593,0.711564625860477,0.711564625860477,0.711564625860477,0.711564625860477,0.711564625860477,0.711564625860477,0.711564625860477,0.711564625860477,0.711564625860477,0.711564625860477,0.711564625860477,0.711564625860477,0.711564625860477,0.7081632653162593,0.7081632653162593,0.7081632653162593,0.7081632653162593,0.7081632653162593,0.7081632653162593,0.7081632653162593,0.7081632653162593,0.7081632653162593,0.7081632653162593,0.7081632653162593,0.7081632653162593,0.7081632653162593,0.7081632653162593,0.7081632653162593,0.7081632653162593,0.7081632653162593,0.7081632653162593,0.7081632653162593,0.7081632653162593,0.7081632653162593,0.7081632653162593,0.7081632653162593,0.7081632653162593,0.7081632653162593,0.7081632653162593,0.7081632653162593,0.7081632653162593,0.7081632653162593,0.7081632653162593,0.7081632653162593,0.7081632653162593,0.7081632653162593,0.7081632653162593,0.7081632653162593,0.7081632653162593,0.7081632653162593,0.7081632653162593,0.7081632653162593,0.7081632653162593,0.7081632653162593,0.7081632653162593,0.7081632653162593,0.7081632653162593,0.7081632653162593,0.7081632653162593,0.7081632653162593,0.7081632653162593,0.7081632653162593,0.7081632653162593,0.7081632653162593,0.7081632653162593,0.7081632653162593,0.7081632653162593,0.7081632653162593,0.7081632653162593,0.7081632653162593,0.7081632653162593,0.7081632653162593,0.7081632653162593,0.7081632653162593,0.7081632653162593,0.7081632653162593,0.7081632653162593,0.7081632653162593,0.7081632653162593,0.6979591836836062,0.6537414966087763,0.5551020408264634,0.4802721088536743,0.33061224490809604,0.24557823130265385,0.20816326531625928,0.16394557824142936,0.1265306122550348,0.12312925171081712,0.10952380953394637,0.10272108844551099,0.0993197279012933,0.0993197279012933,0.0993197279012933,0.0993197279012933,0.09591836735707562,0.09591836735707562,0.09591836735707562,0.09591836735707562,0.09591836735707562,0.09591836735707562,0.09591836735707562,0.09591836735707562,0.0993197279012933,0.0993197279012933,0.10272108844551099,0.11292517007816405,0.11292517007816405,0.11292517007816405,0.11292517007816405,0.11292517007816405,0.11292517007816405,0.11292517007816405,0.11292517007816405,0.11292517007816405,0.11292517007816405,0.11292517007816405,0.11292517007816405,0.11292517007816405,0.11292517007816405,0.11292517007816405,0.11292517007816405,0.11292517007816405,0.11292517007816405,0.10952380953394637,0.0993197279012933,0.09251700681285793,0.08571428572442256,0.08571428572442256,0.08231292518020487,0.07891156463598718,0.07891156463598718,0.07891156463598718,0.07891156463598718,0.07891156463598718,0.07551020409176949,0.07210884354755182,0.06870748300333412,0.05170068028224569,0.048299319738028,0.041496598649592625,0.03809523810537494,0.03469387756115725,0.02789115647272188,0.017687074840068817,0.01428571429585113,0.010884353751633442,0.010884353751633442,0.007482993207415756,0.0040816326631980685,0.0040816326631980685,0.0040816326631980685,0.0040816326631980685,0.0040816326631980685,0.0040816326631980685,0.0040816326631980685,0.0040816326631980685,0.007482993207415756,0.017687074840068817,0.021088435384286505,0.03129251701693957,0.048299319738028,0.055102040826463375,0.07551020409176949,0.08571428572442256,0.09251700681285793,0.09591836735707562,0.0993197279012933,0.0993197279012933,0.0993197279012933,0.0993197279012933,0.0993197279012933,0.08571428572442256,0.07891156463598718,0.05850340137068106,0.03469387756115725,0.010884353751633442,0.0006802721189803817,-0.01972789114632574,-0.029931972778978803,-0.040136054411631865,-0.040136054411631865,-0.04353741495584955,-0.04353741495584955,-0.04353741495584955,-0.04353741495584955,-0.04353741495584955,-0.04353741495584955,-0.04353741495584955,-0.04353741495584955,-0.04353741495584955,-0.04353741495584955,-0.04353741495584955,-0.04353741495584955,-0.036734693867414174,-0.016326530602108053,-0.006122448969454993,0.021088435384286505,0.03469387756115725,0.041496598649592625,0.044897959193810316,0.048299319738028,0.048299319738028,0.048299319738028,0.048299319738028,0.048299319738028,0.048299319738028,0.048299319738028,0.048299319738028,0.048299319738028,0.044897959193810316,0.03469387756115725,0.02789115647272188,0.01428571429585113,0.007482993207415756,-0.00952380951367268,-0.016326530602108053,-0.029931972778978803,-0.03333333332319649,-0.036734693867414174,-0.036734693867414174,-0.036734693867414174,-0.036734693867414174,-0.036734693867414174,-0.036734693867414174,-0.036734693867414174,-0.036734693867414174,-0.036734693867414174,-0.036734693867414174,-0.036734693867414174,-0.036734693867414174,-0.036734693867414174,-0.036734693867414174,-0.036734693867414174,-0.036734693867414174,-0.036734693867414174,-0.036734693867414174,-0.036734693867414174,-0.036734693867414174,-0.036734693867414174,-0.036734693867414174,-0.036734693867414174,-0.036734693867414174,-0.036734693867414174,-0.036734693867414174,-0.036734693867414174,-0.036734693867414174,-0.036734693867414174,-0.036734693867414174,-0.036734693867414174,-0.036734693867414174,-0.036734693867414174,-0.036734693867414174,-0.036734693867414174,-0.036734693867414174,-0.036734693867414174,-0.036734693867414174,-0.036734693867414174,-0.036734693867414174,-0.036734693867414174,-0.036734693867414174,-0.036734693867414174,-0.036734693867414174,-0.036734693867414174,-0.036734693867414174,-0.036734693867414174,-0.036734693867414174,-0.036734693867414174,-0.036734693867414174,-0.036734693867414174,-0.036734693867414174,-0.036734693867414174,-0.036734693867414174,-0.036734693867414174,-0.03333333332319649,-0.026530612234761115,-0.01972789114632574,-0.016326530602108053,-0.016326530602108053,-0.016326530602108053,-0.016326530602108053,-0.016326530602108053,-0.016326530602108053,-0.016326530602108053,-0.016326530602108053,-0.016326530602108053,-0.016326530602108053,-0.016326530602108053,-0.016326530602108053,-0.012925170057890366,-0.012925170057890366,-0.00952380951367268,-0.00952380951367268,-0.006122448969454993,0.007482993207415756,0.017687074840068817,0.017687074840068817,0.017687074840068817,0.017687074840068817,0.017687074840068817,0.017687074840068817,0.017687074840068817,0.017687074840068817,0.017687074840068817,0.017687074840068817,0.017687074840068817,0.017687074840068817,0.017687074840068817,0.017687074840068817,0.021088435384286505,0.041496598649592625,0.08231292518020487,0.16734693878564705,0.26598639456795997,0.3102040816427899,0.38503401361557904,0.44625850341149736,0.49047619048632735,0.493877551030545,0.493877551030545,0.493877551030545,0.493877551030545,0.493877551030545,0.493877551030545,0.493877551030545,0.493877551030545,0.493877551030545,0.493877551030545,0.504081632663198,0.5619047619148988,0.612925170078164,0.7387755102142185,0.8034013605543545,0.8238095238196607,0.8340136054523137,0.8340136054523137,0.8340136054523137,0.8340136054523137,0.8340136054523137,0.8340136054523137,0.8340136054523137,0.8340136054523137,0.8340136054523137,0.8340136054523137,0.8340136054523137,0.8340136054523137,0.8340136054523137,0.8340136054523137,0.8340136054523137,0.8442176870849668,0.8476190476291845,0.8612244898060553,0.8680272108944905,0.8918367347040144,0.9020408163366674,0.9088435374251028,0.9326530612346267,0.9530612244999328,0.9632653061325859,0.9700680272210211,0.9700680272210211,0.9734693877652388,0.9734693877652388,0.9734693877652388,0.9734693877652388,0.9802721088536742,0.9836734693978919,0.9836734693978919,0.9870748299421096,0.9904761904863273,1.0006802721189805,1.0108843537516334,1.0176870748400688,1.0176870748400688,1.0176870748400688,1.0176870748400688,1.0176870748400688,1.0176870748400688,1.0176870748400688,1.0176870748400688,1.0176870748400688,1.0176870748400688,1.0176870748400688,1.0176870748400688,1.0176870748400688,1.0176870748400688,1.0176870748400688,1.0176870748400688,1.0176870748400688,1.0176870748400688,1.0176870748400688,1.0176870748400688,1.0176870748400688,1.0176870748400688,1.0176870748400688,1.0176870748400688,1.0176870748400688,1.0176870748400688,1.0176870748400688,1.0176870748400688,1.0176870748400688,1.0176870748400688,1.0176870748400688,1.0176870748400688,1.0210884353842864,1.0244897959285042,1.0244897959285042,1.0244897959285042,1.0244897959285042,1.0244897959285042,1.0244897959285042,1.0244897959285042,1.0244897959285042,1.0244897959285042,1.0244897959285042,1.0244897959285042,1.0244897959285042,1.0244897959285042,1.0244897959285042,1.0244897959285042,1.0244897959285042,1.0244897959285042,1.0244897959285042,1.0244897959285042,1.0244897959285042,1.0244897959285042,1.0244897959285042,1.0244897959285042,1.0244897959285042,1.0244897959285042,1.0244897959285042,1.0244897959285042,1.0244897959285042,1.0244897959285042,1.0244897959285042,1.0244897959285042,1.0244897959285042,1.0278911564727218,1.0278911564727218,1.0312925170169396,1.0346938775611572,1.0346938775611572,1.038095238105375,1.0517006802822457,1.0619047619148987,1.0653061224591165,1.068707483003334,1.068707483003334,1.068707483003334,1.068707483003334,1.068707483003334,1.068707483003334,1.068707483003334,1.068707483003334,1.068707483003334,1.068707483003334,1.068707483003334,1.068707483003334,1.068707483003334,1.068707483003334,1.0755102040917695,1.0789115646359873,1.0789115646359873,1.0857142857244226,1.0891156462686402,1.0891156462686402,1.0891156462686402,1.092517006812858,1.092517006812858,1.092517006812858,1.092517006812858,1.0959183673570756,1.0959183673570756,1.0959183673570756,1.0959183673570756,1.0993197279012934,1.102721088445511,1.1061224489897288,1.1061224489897288,1.1095238095339464,1.1095238095339464,1.1095238095339464,1.1129251700781642,1.1163265306223817,1.1163265306223817,1.1163265306223817,1.1163265306223817,1.1163265306223817,1.1163265306223817,1.1163265306223817,1.1163265306223817,1.1163265306223817,1.1197278911665993,1.1197278911665993,1.1197278911665993,1.1197278911665993,1.1197278911665993,1.1197278911665993,1.1197278911665993,1.1197278911665993,1.1197278911665993,1.1197278911665993,1.1163265306223817,1.1163265306223817,1.1163265306223817,1.1163265306223817,1.1197278911665993,1.1231292517108171,1.1299319727992525,1.13333333334347,1.1367346938876879,1.1435374149761233,1.1435374149761233,1.1435374149761233,1.1469387755203408,1.1469387755203408,1.1469387755203408,1.1469387755203408,1.1469387755203408,1.1469387755203408,1.1469387755203408,1.1469387755203408,1.1469387755203408,1.1469387755203408,1.13333333334347,1.13333333334347,1.1299319727992525,1.1299319727992525,1.1299319727992525,1.1299319727992525,1.1299319727992525,1.1299319727992525,1.1299319727992525,1.1299319727992525,1.1299319727992525,1.1299319727992525,1.1299319727992525,1.1299319727992525,1.1299319727992525,1.1299319727992525,1.1299319727992525,1.1299319727992525,1.1299319727992525,1.1299319727992525,1.1299319727992525,1.1299319727992525,1.1299319727992525,1.1299319727992525,1.1299319727992525,1.1299319727992525,1.1299319727992525,1.1299319727992525,1.1299319727992525,1.1299319727992525,1.1299319727992525,1.1299319727992525,1.1299319727992525,1.1299319727992525,1.13333333334347,1.13333333334347,1.13333333334347,1.13333333334347,1.13333333334347,1.13333333334347,1.13333333334347,1.13333333334347,1.13333333334347,1.13333333334347,1.13333333334347,1.13333333334347,1.13333333334347,1.13333333334347,1.13333333334347,1.13333333334347,1.13333333334347,1.13333333334347,1.13333333334347,1.13333333334347,1.13333333334347,1.13333333334347,1.13333333334347,1.13333333334347,1.13333333334347,1.13333333334347,1.1197278911665993,1.0551020408264633,1.0142857142958512,0.9258503401461913,0.8612244898060553,0.8272108843638784,0.8170068027312253,0.8136054421870076,0.8068027210985722,0.8068027210985722,0.8068027210985722,0.8034013605543545,0.8034013605543545,0.8034013605543545,0.8034013605543545,0.8034013605543545,0.7965986394659191,0.7931972789217014,0.7795918367448307,0.7693877551121776,0.76598639456796,0.755782312935307,0.7489795918468716,0.7387755102142185,0.7387755102142185,0.7319727891257831,0.7319727891257831,0.7319727891257831,0.7285714285815654,0.7285714285815654,0.7251700680373477,0.7251700680373477,0.7251700680373477,0.7251700680373477,0.7251700680373477,0.7183673469489124,0.7183673469489124,0.7183673469489124,0.711564625860477,0.711564625860477,0.7013605442278239,0.7013605442278239,0.6945578231393885,0.6945578231393885,0.6945578231393885,0.6945578231393885,0.6945578231393885,0.6945578231393885,0.6945578231393885,0.6945578231393885,0.6945578231393885,0.6945578231393885,0.6945578231393885,0.6945578231393885,0.6945578231393885,0.6945578231393885,0.6945578231393885,0.6945578231393885,0.6945578231393885,0.6945578231393885,0.6945578231393885,0.6945578231393885,0.6945578231393885,0.6945578231393885,0.6945578231393885,0.6945578231393885,0.6945578231393885,0.6945578231393885,0.6945578231393885,0.6945578231393885,0.6945578231393885,0.6945578231393885,0.6945578231393885,0.6945578231393885,0.6945578231393885,0.6945578231393885,0.6945578231393885,0.6945578231393885,0.6945578231393885,0.6945578231393885,0.6945578231393885,0.6945578231393885,0.6945578231393885,0.6945578231393885,0.6945578231393885,0.6945578231393885,0.6945578231393885,0.6945578231393885,0.6945578231393885,0.6945578231393885,0.6945578231393885,0.6945578231393885,0.6945578231393885,0.6945578231393885,0.6945578231393885,0.6945578231393885,0.6945578231393885,0.6945578231393885,0.6945578231393885,0.6945578231393885,0.6911564625951708,0.6707482993298647,0.6367346938876879,0.6163265306223817,0.5891156462686402,0.5789115646359871,0.5585034013706811,0.548299319738028,0.5346938775611573,0.5346938775611573,0.5210884353842865,0.5210884353842865,0.5176870748400688,0.5108843537516334,0.5108843537516334,0.5074829932074157,0.5074829932074157,0.5074829932074157,0.5074829932074157,0.5074829932074157,0.5074829932074157,0.5074829932074157,0.5074829932074157,0.5176870748400688,0.5210884353842865,0.5244897959285042,0.5278911564727219,0.5312925170169396,0.5312925170169396,0.5346938775611573,0.5346938775611573,0.5346938775611573,0.5346938775611573,0.5346938775611573,0.5346938775611573,0.5346938775611573,0.5346938775611573,0.5346938775611573,0.5346938775611573,0.5346938775611573,0.5346938775611573,0.5346938775611573,0.5346938775611573,0.5346938775611573,0.5346938775611573,0.5346938775611573,0.5346938775611573,0.5346938775611573,0.5346938775611573,0.5346938775611573,0.5346938775611573,0.5346938775611573,0.5346938775611573,0.5346938775611573,0.5346938775611573,0.5346938775611573,0.5346938775611573,0.5346938775611573,0.5346938775611573,0.5346938775611573,0.5346938775611573,0.5346938775611573,0.5346938775611573,0.5346938775611573,0.5346938775611573,0.5346938775611573,0.5346938775611573,0.5346938775611573,0.5346938775611573,0.5346938775611573,0.5346938775611573,0.5346938775611573,0.5346938775611573,0.5346938775611573,0.5346938775611573,0.5346938775611573,0.5346938775611573,0.5346938775611573,0.5346938775611573,0.5346938775611573,0.5346938775611573,0.5346938775611573,0.5346938775611573,0.5346938775611573,0.5346938775611573,0.5346938775611573,0.5346938775611573,0.5346938775611573,0.5210884353842865,0.5074829932074157,0.49047619048632735,0.4802721088536743,0.4666666666768035,0.4666666666768035,0.43605442177884435,0.37482993198292597,0.32380952381966066,0.27959183674483074,0.23537414967000078,0.21836734694891236,0.18775510205095317,0.17074829932986474,0.16054421769721167,0.16054421769721167,0.16054421769721167,0.16054421769721167,0.16054421769721167,0.16054421769721167,0.16054421769721167,0.16054421769721167,0.16054421769721167,0.16054421769721167,0.16054421769721167,0.16054421769721167,0.16054421769721167,0.16054421769721167,0.16054421769721167,0.16054421769721167,0.16054421769721167,0.16054421769721167,0.16054421769721167,0.16054421769721167,0.16054421769721167,0.16054421769721167,0.15714285715299398,0.15714285715299398,0.15714285715299398,0.15714285715299398,0.15714285715299398,0.15714285715299398,0.15714285715299398,0.15714285715299398,0.15714285715299398,0.15714285715299398,0.15714285715299398,0.15714285715299398,0.15714285715299398,0.15714285715299398,0.15714285715299398,0.15714285715299398,0.15714285715299398,0.15714285715299398,0.15714285715299398,0.15714285715299398,0.15714285715299398,0.15714285715299398,0.15714285715299398,0.15714285715299398,0.15714285715299398,0.15714285715299398,0.15714285715299398,0.15714285715299398,0.15714285715299398,0.15714285715299398,0.15714285715299398,0.15714285715299398,0.15714285715299398,0.15714285715299398,0.15714285715299398,0.15714285715299398,0.15714285715299398,0.15714285715299398,0.15714285715299398,0.15714285715299398,0.15714285715299398,0.15714285715299398,0.15714285715299398,0.15714285715299398,0.15714285715299398,0.15714285715299398,0.15714285715299398,0.15714285715299398,0.15714285715299398,0.17414965987408243,0.21836734694891236,0.24557823130265385,0.3000000000101368,0.34761904762918444,0.38843537415979673,0.40544217688088513,0.40544217688088513,0.40544217688088513,0.40544217688088513,0.40544217688088513,0.40544217688088513,0.40544217688088513,0.40544217688088513,0.40544217688088513,0.40544217688088513,0.40544217688088513,0.40544217688088513,0.40544217688088513,0.40544217688088513,0.40544217688088513,0.40544217688088513,0.40544217688088513,0.40544217688088513,0.39523809524823206,0.3680272108944906,0.3544217687176198,0.32721088436387835,0.3034013605543545,0.3034013605543545,0.29319727892170144,0.2897959183774838,0.2897959183774838,0.2897959183774838,0.2897959183774838,0.2863945578332661,0.2863945578332661,0.2829931972890484,0.27619047620061304,0.2625850340237423,0.24897959184687155,0.23877551021421847,0.22176870749313005,0.20816326531625928,0.19795918368360624,0.19455782313938855,0.18775510205095317,0.18095238096251778,0.18095238096251778,0.18095238096251778,0.18095238096251778,0.17755102041830012,0.17755102041830012,0.17414965987408243,0.17414965987408243,0.17074829932986474,0.16734693878564705,0.16734693878564705,0.16734693878564705,0.16054421769721167,0.16054421769721167,0.1537414966087763,0.14353741497612324,0.13673469388768786,0.1299319727992525,0.12312925171081712,0.12312925171081712,0.12312925171081712,0.12312925171081712,0.12312925171081712,0.12312925171081712,0.12312925171081712,0.12312925171081712,0.12312925171081712,0.12312925171081712,0.12312925171081712,0.12312925171081712,0.12312925171081712,0.12312925171081712,0.12312925171081712,0.12312925171081712,0.12312925171081712,0.12312925171081712,0.12312925171081712,0.12312925171081712,0.12312925171081712,0.12312925171081712,0.12312925171081712,0.12312925171081712,0.12312925171081712,0.12312925171081712,0.12312925171081712,0.12312925171081712,0.12312925171081712,0.12312925171081712,0.12312925171081712,0.12312925171081712,0.1265306122550348,0.1265306122550348,0.1265306122550348,0.1265306122550348,0.1265306122550348,0.1265306122550348,0.1265306122550348,0.1265306122550348,0.1265306122550348,0.1265306122550348,0.1265306122550348,0.1265306122550348,0.1265306122550348,0.1265306122550348,0.1265306122550348,0.1265306122550348,0.1265306122550348,0.1265306122550348,0.1265306122550348,0.1265306122550348,0.1265306122550348,0.1265306122550348,0.1265306122550348,0.13673469388768786,0.14693877552034093,0.15034013606455862,0.16054421769721167,0.16054421769721167,0.17074829932986474,0.18095238096251778,0.18095238096251778,0.18095238096251778,0.18095238096251778,0.18095238096251778,0.18095238096251778,0.23537414967000078,0.24217687075843616,0.24897959184687155,0.24897959184687155,0.24897959184687155,0.24897959184687155,0.2523809523910892,0.2523809523910892,0.2557823129353069,0.2557823129353069,0.2625850340237423,0.2625850340237423,0.26938775511217766,0.26938775511217766,0.27278911565639535,0.27619047620061304,0.2829931972890484,0.2863945578332661,0.2897959183774838,0.2897959183774838,0.29659863946591913,0.29659863946591913,0.29659863946591913,0.29659863946591913,0.29659863946591913,0.29659863946591913,0.29659863946591913,0.29659863946591913,0.29659863946591913,0.29659863946591913,0.29659863946591913,0.29659863946591913,0.29659863946591913,0.29659863946591913,0.29659863946591913,0.29659863946591913,0.29659863946591913,0.29659863946591913,0.29659863946591913,0.29659863946591913,0.29659863946591913,0.29659863946591913,0.29659863946591913,0.29659863946591913,0.29659863946591913,0.29659863946591913,0.29659863946591913,0.29659863946591913,0.29659863946591913,0.29659863946591913,0.29659863946591913,0.29659863946591913,0.29659863946591913,0.29659863946591913,0.29659863946591913,0.29659863946591913,0.29659863946591913,0.29659863946591913,0.29659863946591913,0.29659863946591913,0.29659863946591913,0.29659863946591913,0.29659863946591913,0.29659863946591913,0.29659863946591913,0.29659863946591913,0.29659863946591913,0.29659863946591913,0.29659863946591913,0.29659863946591913,0.29659863946591913,0.29659863946591913,0.29659863946591913,0.29659863946591913,0.3000000000101368,0.3136054421870076,0.3374149659965314,0.35102040817340213,0.3714285714387083,0.38163265307136135,0.38503401361557904,0.38843537415979673,0.39523809524823206,0.40544217688088513,0.4258503401461913,0.43945578232306204,0.4632653061325858,0.4768707483094566,0.5210884353842865,0.5346938775611573,0.5789115646359871,0.6367346938876879,0.657142857152994,0.657142857152994,0.657142857152994,0.657142857152994,0.657142857152994,0.657142857152994,0.657142857152994,0.657142857152994,0.657142857152994,0.657142857152994,0.657142857152994,0.657142857152994,0.657142857152994,0.657142857152994,0.657142857152994,0.6605442176972117,0.6741496598740824,0.6843537415067354,0.6843537415067354,0.6877551020509531,0.6877551020509531,0.6911564625951708,0.6945578231393885,0.7013605442278239,0.7047619047720416,0.711564625860477,0.711564625860477,0.7149659864046947,0.7251700680373477,0.7251700680373477,0.7251700680373477,0.7251700680373477,0.7251700680373477,0.7251700680373477,0.7251700680373477,0.711564625860477,0.6707482993298647,0.6231292517108171,0.6061224489897287,0.5653061224591165,0.5585034013706811,0.5448979591938103,0.5244897959285042,0.5210884353842865,0.5210884353842865,0.5210884353842865,0.5210884353842865,0.5210884353842865,0.5210884353842865,0.5210884353842865,0.5210884353842865,0.5210884353842865,0.5210884353842865,0.5210884353842865,0.5210884353842865,0.5210884353842865,0.5210884353842865,0.5210884353842865,0.5074829932074157,0.4768707483094566,0.43945578232306204,0.40204081633666744,0.38163265307136135,0.3068027210985722,0.24897959184687155,0.18435374150673547,0.15714285715299398,0.14013605443190555,0.13673469388768786,0.13673469388768786,0.13673469388768786,0.13673469388768786,0.13673469388768786,0.13673469388768786,0.13673469388768786,0.13673469388768786,0.13673469388768786,0.13673469388768786,0.13673469388768786,0.13333333334347017,0.13333333334347017,0.13333333334347017,0.13333333334347017,0.13673469388768786,0.1537414966087763,0.20476190477204162,0.23537414967000078,0.3102040816427899,0.39523809524823206,0.48707482994210965,0.5210884353842865,0.6061224489897287,0.657142857152994,0.6843537415067354,0.6843537415067354,0.6843537415067354,0.6843537415067354,0.6843537415067354,0.6843537415067354,0.6843537415067354,0.6843537415067354,0.6843537415067354,0.6843537415067354,0.6843537415067354,0.6775510204183001,0.6707482993298647,0.6707482993298647,0.6673469387856471,0.6639455782414294,0.6639455782414294,0.6639455782414294,0.6673469387856471,0.6809523809625178,0.6843537415067354,0.6945578231393885,0.6979591836836062,0.7013605442278239,0.7081632653162593,0.711564625860477,0.711564625860477,0.711564625860477,0.711564625860477,0.711564625860477,0.711564625860477,0.711564625860477,0.711564625860477,0.711564625860477,0.711564625860477,0.711564625860477,0.711564625860477,0.711564625860477,0.711564625860477,0.711564625860477,0.7353741496700008,0.7693877551121776,0.8034013605543545,0.8136054421870076,0.8238095238196607,0.8238095238196607,0.8238095238196607,0.8476190476291845,0.8476190476291845,0.8476190476291845,0.8476190476291845,0.8476190476291845,0.8476190476291845,0.8476190476291845,0.8476190476291845,0.8476190476291845,0.8476190476291845,0.8612244898060553,0.8952380952482321,0.9326530612346267,0.9564625850441505,0.9904761904863273,1.0108843537516334,1.0244897959285042,1.0244897959285042,1.0312925170169396,1.0346938775611572,1.0346938775611572,1.0346938775611572,1.0346938775611572,1.0312925170169396,1.0312925170169396,1.0278911564727218,1.0278911564727218,1.0244897959285042,1.0244897959285042,1.0244897959285042,1.0244897959285042,1.0244897959285042,1.0244897959285042,1.0244897959285042,1.0244897959285042,1.0244897959285042,1.0244897959285042,1.0244897959285042,1.0244897959285042,1.0244897959285042,1.0244897959285042,1.0244897959285042,1.0244897959285042,1.0244897959285042,1.0244897959285042,1.0244897959285042,1.0244897959285042,1.0244897959285042,1.0244897959285042,1.0244897959285042,1.0244897959285042,1.0244897959285042,1.0142857142958512,1.0142857142958512,1.0074829932074159,1.004081632663198,1.004081632663198,1.0006802721189805,1.0006802721189805,1.0006802721189805,1.0006802721189805,1.0006802721189805,1.0006802721189805,1.0006802721189805,1.0006802721189805,1.0006802721189805,1.0006802721189805,1.0006802721189805,1.0006802721189805,1.0006802721189805,1.0006802721189805,1.0006802721189805,1.0006802721189805,1.0006802721189805,1.0006802721189805,1.0006802721189805,1.0006802721189805,1.0006802721189805,1.0006802721189805,1.0006802721189805,1.0006802721189805,1.0006802721189805,1.0006802721189805,1.0006802721189805,1.0006802721189805,1.0006802721189805,1.0006802721189805,1.0006802721189805,1.0006802721189805,1.0006802721189805,1.0006802721189805,1.0006802721189805,1.0006802721189805,1.0006802721189805,1.0006802721189805,1.0006802721189805,1.0006802721189805,1.0006802721189805,1.0006802721189805,1.0006802721189805,1.0006802721189805,1.0006802721189805,1.0006802721189805,1.0006802721189805,1.0006802721189805,1.0006802721189805,1.1197278911665993,1.1741496598740824,1.2625850340237423,1.2931972789217014,1.351020408173402,1.3782312925271436,1.3782312925271436,1.3782312925271436,1.3782312925271436,1.3782312925271436,1.3782312925271436,1.3782312925271436,1.3782312925271436,1.3782312925271436,1.3782312925271436,1.3782312925271436,1.3782312925271436,1.3544217687176199,1.2829931972890485,1.2421768707584362,1.1469387755203408,1.0789115646359873,1.0278911564727218,0.993877551030545,0.993877551030545,0.993877551030545,0.993877551030545,0.993877551030545,0.993877551030545,0.993877551030545,0.993877551030545,0.993877551030545,0.993877551030545,0.993877551030545,0.993877551030545,0.993877551030545,0.993877551030545,0.993877551030545,0.993877551030545,0.993877551030545,0.993877551030545,0.993877551030545,0.993877551030545,0.993877551030545,0.993877551030545,0.993877551030545,0.993877551030545,0.993877551030545,0.993877551030545,0.993877551030545,0.993877551030545,0.993877551030545,0.993877551030545,0.993877551030545,0.993877551030545,0.993877551030545,0.993877551030545,0.993877551030545,0.993877551030545,0.993877551030545,0.993877551030545,0.993877551030545,0.993877551030545,0.993877551030545,0.993877551030545,0.993877551030545,0.993877551030545,0.993877551030545,0.993877551030545,0.993877551030545,0.993877551030545,0.993877551030545,0.993877551030545,0.993877551030545,0.993877551030545,0.993877551030545,0.993877551030545,0.993877551030545,0.993877551030545,0.993877551030545,0.993877551030545,0.993877551030545,0.993877551030545,0.993877551030545,0.993877551030545,0.993877551030545,0.993877551030545,0.993877551030545,0.993877551030545],"y":[0.9871428571286656,0.8919047618905703,0.8919047618905703,0.8919047618905703,0.8919047618905703,0.8919047618905703,0.8919047618905703,0.8919047618905703,0.8919047618905703,0.8919047618905703,0.9490476190334275,1.0538095237953322,1.2061904761762845,1.2538095237953322,1.3204761904619988,1.377619047604856,1.4252380952239037,1.4538095237953321,1.4538095237953321,1.4538095237953321,1.4538095237953321,1.4538095237953321,1.4538095237953321,1.4538095237953321,1.4538095237953321,1.4823809523667608,1.5490476190334275,1.5966666666524751,1.7014285714143798,1.8347619047477133,1.939523809509618,1.977619047604856,2.0252380952239037,2.0633333333191417,2.072857142842951,2.09190476189057,2.09190476189057,2.09190476189057,2.09190476189057,2.1014285714143797,2.1014285714143797,2.110952380938189,2.110952380938189,2.110952380938189,2.110952380938189,2.110952380938189,2.1299999999858086,2.1490476190334276,2.1871428571286655,2.215714285700094,2.234761904747713,2.244285714271523,2.244285714271523,2.244285714271523,2.244285714271523,2.244285714271523,2.244285714271523,2.244285714271523,2.244285714271523,2.244285714271523,2.244285714271523,2.244285714271523,2.244285714271523,2.244285714271523,2.244285714271523,2.244285714271523,2.244285714271523,2.244285714271523,2.244285714271523,2.244285714271523,2.244285714271523,2.244285714271523,2.244285714271523,2.244285714271523,2.244285714271523,2.244285714271523,2.244285714271523,2.244285714271523,2.244285714271523,2.244285714271523,2.244285714271523,2.244285714271523,2.244285714271523,2.244285714271523,2.244285714271523,2.244285714271523,2.244285714271523,2.244285714271523,2.244285714271523,2.244285714271523,2.244285714271523,2.244285714271523,2.244285714271523,2.244285714271523,2.244285714271523,2.244285714271523,2.244285714271523,2.244285714271523,2.244285714271523,2.244285714271523,2.244285714271523,2.244285714271523,2.244285714271523,2.244285714271523,2.244285714271523,2.244285714271523,2.244285714271523,2.244285714271523,2.244285714271523,2.244285714271523,2.244285714271523,2.244285714271523,2.244285714271523,2.244285714271523,2.244285714271523,2.244285714271523,2.244285714271523,2.244285714271523,2.244285714271523,2.244285714271523,2.244285714271523,2.244285714271523,2.244285714271523,2.244285714271523,2.244285714271523,2.244285714271523,2.244285714271523,2.244285714271523,2.244285714271523,2.244285714271523,2.244285714271523,2.244285714271523,2.244285714271523,2.244285714271523,2.244285714271523,2.244285714271523,2.244285714271523,2.244285714271523,2.244285714271523,2.244285714271523,2.244285714271523,2.244285714271523,2.244285714271523,2.244285714271523,2.244285714271523,2.244285714271523,2.244285714271523,2.244285714271523,2.244285714271523,2.244285714271523,2.244285714271523,2.244285714271523,2.244285714271523,2.244285714271523,2.244285714271523,2.244285714271523,2.244285714271523,2.244285714271523,2.244285714271523,2.244285714271523,2.244285714271523,2.244285714271523,2.244285714271523,2.244285714271523,2.244285714271523,2.244285714271523,2.244285714271523,2.244285714271523,2.244285714271523,2.244285714271523,2.244285714271523,2.196666666652475,2.177619047604856,2.139523809509618,2.0823809523667607,1.977619047604856,1.90142857141438,1.8728571428429512,1.7871428571286656,1.4061904761762847,1.2157142857000942,1.1109523809381894,1.0919047618905704,1.0919047618905704,1.0919047618905704,1.0919047618905704,1.0919047618905704,1.0919047618905704,1.0919047618905704,1.0919047618905704,1.0919047618905704,1.0919047618905704,1.0919047618905704,1.0728571428429512,0.9776190476048561,0.8633333333191417,0.5871428571286655,0.4728571428429513,0.4347619047477132,0.4157142857000941,0.4061904761762846,0.4061904761762846,0.4061904761762846,0.4061904761762846,0.4061904761762846,0.4061904761762846,0.4061904761762846,0.4061904761762846,0.4061904761762846,0.4061904761762846,0.4061904761762846,0.42523809522390366,0.4347619047477132,0.4633333333191417,0.4919047618905703,0.4823809523667608,0.4347619047477132,0.2061904761762846,0.06333333331914175,0.015714285700094133,-0.0795238095380011,-0.09857142858562015,-0.09857142858562015,-0.09857142858562015,-0.09857142858562015,-0.09857142858562015,-0.09857142858562015,-0.09857142858562015,-0.09857142858562015,-0.09857142858562015,-0.09857142858562015,-0.09857142858562015,-0.09857142858562015,-0.09857142858562015,-0.10809523810942968,-0.1176190476332392,-0.1176190476332392,-0.1176190476332392,-0.1176190476332392,-0.10809523810942968,-0.10809523810942968,-0.10809523810942968,-0.10809523810942968,-0.10809523810942968,-0.10809523810942968,-0.10809523810942968,-0.10809523810942968,-0.10809523810942968,-0.10809523810942968,-0.10809523810942968,-0.10809523810942968,-0.10809523810942968,-0.10809523810942968,-0.10809523810942968,-0.10809523810942968,-0.10809523810942968,-0.10809523810942968,-0.10809523810942968,-0.10809523810942968,-0.10809523810942968,-0.10809523810942968,-0.10809523810942968,-0.10809523810942968,-0.10809523810942968,-0.10809523810942968,-0.10809523810942968,-0.10809523810942968,-0.10809523810942968,-0.10809523810942968,-0.10809523810942968,-0.09857142858562015,-0.08904761906181063,-0.08904761906181063,-0.0795238095380011,-0.0795238095380011,-0.07000000001419159,-0.07000000001419159,-0.06047619049038206,-0.050952380966572536,-0.050952380966572536,-0.04142857144276301,-0.04142857144276301,-0.04142857144276301,-0.031904761918953486,-0.031904761918953486,-0.031904761918953486,-0.031904761918953486,-0.031904761918953486,-0.031904761918953486,-0.031904761918953486,-0.031904761918953486,-0.031904761918953486,-0.031904761918953486,-0.031904761918953486,-0.031904761918953486,-0.031904761918953486,-0.031904761918953486,-0.031904761918953486,-0.031904761918953486,-0.031904761918953486,-0.031904761918953486,-0.031904761918953486,-0.031904761918953486,-0.031904761918953486,-0.031904761918953486,-0.031904761918953486,-0.031904761918953486,-0.031904761918953486,-0.031904761918953486,-0.031904761918953486,-0.031904761918953486,-0.031904761918953486,-0.031904761918953486,-0.031904761918953486,-0.031904761918953486,-0.031904761918953486,-0.031904761918953486,-0.031904761918953486,-0.031904761918953486,-0.031904761918953486,-0.031904761918953486,-0.031904761918953486,-0.031904761918953486,-0.031904761918953486,-0.031904761918953486,-0.031904761918953486,-0.031904761918953486,-0.031904761918953486,-0.031904761918953486,-0.031904761918953486,-0.031904761918953486,-0.031904761918953486,-0.031904761918953486,-0.022380952395143962,-0.0033333333475249155,0.015714285700094133,0.03476190474771318,0.06333333331914175,0.07285714284295128,0.0823809523667608,0.11095238093818938,0.11095238093818938,0.11095238093818938,0.1204761904619989,0.1299999999858084,0.1299999999858084,0.13952380950961793,0.14904761903342748,0.14904761903342748,0.14904761903342748,0.14904761903342748,0.158571428557237,0.158571428557237,0.17761904760485603,0.18714285712866557,0.2061904761762846,0.21571428570009413,0.2538095237953322,0.30142857141437984,0.33952380950961797,0.4157142857000941,0.42523809522390366,0.45380952379533224,0.45380952379533224,0.45380952379533224,0.4442857142715227,0.4157142857000941,0.4157142857000941,0.4157142857000941,0.4157142857000941,0.4157142857000941,0.4157142857000941,0.4157142857000941,0.4157142857000941,0.4157142857000941,0.4157142857000941,0.4157142857000941,0.4157142857000941,0.4157142857000941,0.3966666666524751,0.3871428571286656,0.37761904760485604,0.37761904760485604,0.37761904760485604,0.37761904760485604,0.37761904760485604,0.3680952380810465,0.3680952380810465,0.3680952380810465,0.3680952380810465,0.3680952380810465,0.3680952380810465,0.3680952380810465,0.37761904760485604,0.3871428571286656,0.3966666666524751,0.4157142857000941,0.4157142857000941,0.4157142857000941,0.4157142857000941,0.4157142857000941,0.4157142857000941,0.4157142857000941,0.4157142857000941,0.4157142857000941,0.4157142857000941,0.4157142857000941,0.4157142857000941,0.4157142857000941,0.4157142857000941,0.4157142857000941,0.4157142857000941,0.4157142857000941,0.4157142857000941,0.4157142857000941,0.4157142857000941,0.4157142857000941,0.4157142857000941,0.4157142857000941,0.4157142857000941,0.4157142857000941,0.4157142857000941,0.3966666666524751,0.37761904760485604,0.37761904760485604,0.37761904760485604,0.37761904760485604,0.37761904760485604,0.37761904760485604,0.37761904760485604,0.37761904760485604,0.37761904760485604,0.37761904760485604,0.37761904760485604,0.37761904760485604,0.37761904760485604,0.37761904760485604,0.37761904760485604,0.37761904760485604,0.37761904760485604,0.37761904760485604,0.37761904760485604,0.37761904760485604,0.37761904760485604,0.37761904760485604,0.37761904760485604,0.37761904760485604,0.37761904760485604,0.37761904760485604,0.37761904760485604,0.37761904760485604,0.37761904760485604,0.37761904760485604,0.37761904760485604,0.3871428571286656,0.4157142857000941,0.42523809522390366,0.4442857142715227,0.4633333333191417,0.4633333333191417,0.4728571428429513,0.4728571428429513,0.4728571428429513,0.4728571428429513,0.4728571428429513,0.4728571428429513,0.4728571428429513,0.4728571428429513,0.4728571428429513,0.4728571428429513,0.4728571428429513,0.4728571428429513,0.4728571428429513,0.4728571428429513,0.4823809523667608,0.4823809523667608,0.4919047618905703,0.4919047618905703,0.4919047618905703,0.4919047618905703,0.4919047618905703,0.4919047618905703,0.4919047618905703,0.4919047618905703,0.4919047618905703,0.4919047618905703,0.4919047618905703,0.4823809523667608,0.4823809523667608,0.4728571428429513,0.4728571428429513,0.4633333333191417,0.4633333333191417,0.4633333333191417,0.4633333333191417,0.4633333333191417,0.4633333333191417,0.4633333333191417,0.4633333333191417,0.4633333333191417,0.4633333333191417,0.4633333333191417,0.4633333333191417,0.4633333333191417,0.4633333333191417,0.4633333333191417,0.4633333333191417,0.4633333333191417,0.4633333333191417,0.45380952379533224,0.45380952379533224,0.4442857142715227,0.4442857142715227,0.4442857142715227,0.4442857142715227,0.4442857142715227,0.4347619047477132,0.4157142857000941,0.4061904761762846,0.37761904760485604,0.30142857141437984,0.2061904761762846,0.1299999999858084,0.11095238093818938,0.07285714284295128,0.044285714271522704,0.03476190474771318,0.03476190474771318,0.025238095223903655,0.025238095223903655,0.025238095223903655,0.025238095223903655,0.025238095223903655,0.025238095223903655,0.025238095223903655,0.025238095223903655,0.025238095223903655,0.025238095223903655,0.025238095223903655,0.025238095223903655,0.025238095223903655,0.025238095223903655,0.025238095223903655,0.025238095223903655,0.025238095223903655,0.025238095223903655,0.025238095223903655,0.025238095223903655,0.025238095223903655,0.025238095223903655,0.025238095223903655,0.05380952379533223,0.025238095223903655,0.025238095223903655,0.03476190474771318,0.03476190474771318,0.044285714271522704,0.05380952379533223,0.06333333331914175,0.06333333331914175,0.06333333331914175,0.044285714271522704,0.044285714271522704,0.044285714271522704,0.044285714271522704,0.044285714271522704,0.044285714271522704,0.044285714271522704,0.044285714271522704,0.044285714271522704,0.044285714271522704,0.03476190474771318,0.03476190474771318,0.025238095223903655,0.015714285700094133,0.015714285700094133,0.015714285700094133,0.015714285700094133,0.015714285700094133,0.015714285700094133,0.015714285700094133,0.015714285700094133,0.015714285700094133,0.015714285700094133,0.015714285700094133,0.015714285700094133,0.015714285700094133,0.015714285700094133,0.015714285700094133,0.015714285700094133,0.015714285700094133,0.015714285700094133,0.015714285700094133,0.015714285700094133,0.025238095223903655,0.03476190474771318,0.044285714271522704,0.07285714284295128,0.0823809523667608,0.09190476189057033,0.10142857141437985,0.11095238093818938,0.1299999999858084,0.14904761903342748,0.17761904760485603,0.18714285712866557,0.18714285712866557,0.18714285712866557,0.18714285712866557,0.17761904760485603,0.1680952380810465,0.14904761903342748,0.14904761903342748,0.13952380950961793,0.1299999999858084,0.1204761904619989,0.1204761904619989,0.11095238093818938,0.10142857141437985,0.09190476189057033,0.0823809523667608,0.0823809523667608,0.07285714284295128,0.06333333331914175,0.06333333331914175,0.06333333331914175,0.044285714271522704,0.03476190474771318,0.025238095223903655,0.006190476176284609,-0.0033333333475249155,-0.0033333333475249155,-0.0033333333475249155,-0.0033333333475249155,-0.0033333333475249155,-0.0033333333475249155,-0.0033333333475249155,-0.0033333333475249155,-0.0033333333475249155,-0.0033333333475249155,-0.0033333333475249155,-0.0033333333475249155,-0.0033333333475249155,-0.0033333333475249155,-0.0033333333475249155,-0.0033333333475249155,-0.0033333333475249155,-0.0033333333475249155,-0.0033333333475249155,-0.0033333333475249155,-0.0033333333475249155,-0.0033333333475249155,-0.0033333333475249155,-0.0033333333475249155,-0.0033333333475249155,-0.0033333333475249155,-0.0033333333475249155,-0.0033333333475249155,-0.0033333333475249155,-0.0033333333475249155,-0.0033333333475249155,-0.0033333333475249155,-0.0033333333475249155,-0.0033333333475249155,-0.0033333333475249155,-0.0033333333475249155,-0.0033333333475249155,-0.0033333333475249155,-0.0033333333475249155,-0.0033333333475249155,-0.0033333333475249155,-0.0033333333475249155,-0.0033333333475249155,-0.0033333333475249155,-0.0033333333475249155,-0.0033333333475249155,-0.0033333333475249155,-0.0033333333475249155,-0.0033333333475249155,-0.0033333333475249155,-0.0033333333475249155,-0.0033333333475249155,-0.0033333333475249155,-0.0033333333475249155,-0.0033333333475249155,-0.0033333333475249155,-0.0033333333475249155,-0.0033333333475249155,-0.0033333333475249155,-0.0033333333475249155,-0.0033333333475249155,-0.0033333333475249155,-0.0033333333475249155,-0.0033333333475249155,-0.0033333333475249155,-0.0033333333475249155,0.03476190474771318,0.07285714284295128,0.0823809523667608,0.1204761904619989,0.14904761903342748,0.158571428557237,0.1680952380810465,0.17761904760485603,0.17761904760485603,0.17761904760485603,0.17761904760485603,0.17761904760485603,0.17761904760485603,0.17761904760485603,0.17761904760485603,0.17761904760485603,0.17761904760485603,0.17761904760485603,0.17761904760485603,0.17761904760485603,0.17761904760485603,0.1966666666524751,0.22523809522390364,0.27285714284295126,0.30142857141437984,0.33952380950961797,0.45380952379533224,0.45380952379533224,0.4728571428429513,0.4919047618905703,0.4919047618905703,0.4919047618905703,0.4919047618905703,0.5014285714143798,0.5014285714143798,0.5109523809381894,0.5109523809381894,0.5109523809381894,0.5109523809381894,0.5109523809381894,0.5109523809381894,0.5014285714143798,0.5014285714143798,0.4919047618905703,0.4919047618905703,0.4919047618905703,0.4823809523667608,0.4823809523667608,0.4823809523667608,0.4823809523667608,0.4823809523667608,0.4823809523667608,0.4823809523667608,0.4823809523667608,0.4823809523667608,0.4823809523667608,0.4823809523667608,0.4823809523667608,0.4823809523667608,0.4823809523667608,0.4823809523667608,0.4823809523667608,0.4823809523667608,0.4728571428429513,0.4728571428429513,0.4633333333191417,0.4633333333191417,0.4633333333191417,0.4633333333191417,0.4633333333191417,0.4633333333191417,0.4633333333191417,0.4633333333191417,0.4633333333191417,0.4633333333191417,0.45380952379533224,0.45380952379533224,0.45380952379533224,0.45380952379533224,0.45380952379533224,0.45380952379533224,0.45380952379533224,0.45380952379533224,0.45380952379533224,0.4919047618905703,0.5014285714143798,0.5299999999858084,0.5490476190334275,0.577619047604856,0.6157142857000941,0.6538095237953322,0.6728571428429513,0.7109523809381894,0.7299999999858084,0.7966666666524751,0.8347619047477132,0.8823809523667608,0.9014285714143798,0.9395238095096179,0.9490476190334275,0.9490476190334275,0.9490476190334275,0.958571428557237,0.958571428557237,0.958571428557237,0.958571428557237,0.958571428557237,0.958571428557237,0.958571428557237,0.958571428557237,0.958571428557237,0.958571428557237,0.958571428557237,0.958571428557237,0.958571428557237,0.958571428557237,0.958571428557237,0.958571428557237,0.958571428557237,0.958571428557237,0.958571428557237,0.958571428557237,0.958571428557237,0.958571428557237,0.958571428557237,0.958571428557237,0.958571428557237,0.958571428557237,0.958571428557237,0.958571428557237,0.958571428557237,0.958571428557237,0.958571428557237,0.958571428557237,0.958571428557237,0.958571428557237,0.958571428557237,0.958571428557237,0.958571428557237,0.958571428557237,0.958571428557237,0.958571428557237,0.958571428557237,0.958571428557237,0.958571428557237,0.958571428557237,0.958571428557237,0.958571428557237,0.958571428557237,0.958571428557237,0.958571428557237,0.958571428557237,0.958571428557237,0.958571428557237,0.958571428557237,0.958571428557237,0.958571428557237,0.958571428557237,0.958571428557237,0.958571428557237,0.958571428557237,0.958571428557237,0.958571428557237,0.958571428557237,0.958571428557237,0.958571428557237,0.958571428557237,0.958571428557237,0.958571428557237,0.958571428557237,0.958571428557237,0.958571428557237,0.958571428557237,0.958571428557237,0.958571428557237,0.958571428557237,0.958571428557237,0.958571428557237,0.958571428557237,0.958571428557237,0.958571428557237,0.958571428557237,0.958571428557237,0.958571428557237,0.958571428557237,0.958571428557237,0.958571428557237,0.958571428557237,0.958571428557237,0.958571428557237,0.958571428557237,0.958571428557237,0.958571428557237,0.958571428557237,0.958571428557237,0.9680952380810465,0.9680952380810465,0.9680952380810465,0.9680952380810465,0.9680952380810465,0.9680952380810465,0.9680952380810465,0.9680952380810465,0.9680952380810465,0.9680952380810465,0.9680952380810465,0.9680952380810465,0.9680952380810465,0.9680952380810465,0.9680952380810465,0.9680952380810465,0.9680952380810465,0.9680952380810465,0.9680952380810465,0.9680952380810465,0.958571428557237,0.958571428557237,0.958571428557237,0.958571428557237,0.958571428557237,0.958571428557237,0.958571428557237,0.958571428557237,0.958571428557237,0.958571428557237,0.958571428557237,0.958571428557237,0.958571428557237,0.958571428557237,0.9490476190334275,0.9299999999858084,0.9109523809381894,0.8919047618905703,0.8919047618905703,0.9014285714143798,0.9014285714143798,0.8823809523667608,0.8538095237953323,0.8538095237953323,0.8538095237953323,0.8538095237953323,0.8538095237953323,0.8538095237953323,0.8538095237953323,0.8538095237953323,0.8538095237953323,0.8538095237953323,0.8538095237953323,0.8442857142715227,0.7014285714143799,0.5871428571286655,0.2919047618905703,0.11095238093818938,0.06333333331914175,0.03476190474771318,0.03476190474771318,0.03476190474771318,0.03476190474771318,0.03476190474771318,0.03476190474771318,0.03476190474771318,0.03476190474771318,0.03476190474771318,0.03476190474771318,0.03476190474771318,0.03476190474771318,0.03476190474771318,0.03476190474771318,0.044285714271522704,0.06333333331914175,0.07285714284295128,0.0823809523667608,0.09190476189057033,0.10142857141437985,0.10142857141437985,0.10142857141437985,0.10142857141437985,0.10142857141437985,0.0823809523667608,0.07285714284295128,0.07285714284295128,0.07285714284295128,0.07285714284295128,0.07285714284295128,0.06333333331914175,0.05380952379533223,0.03476190474771318,0.03476190474771318,0.006190476176284609,-0.0033333333475249155,-0.022380952395143962,-0.04142857144276301,-0.06047619049038206,-0.06047619049038206,-0.06047619049038206,-0.06047619049038206,-0.06047619049038206,-0.06047619049038206,-0.06047619049038206,-0.06047619049038206,-0.06047619049038206,-0.06047619049038206,-0.06047619049038206,-0.06047619049038206,-0.06047619049038206,-0.04142857144276301,-0.07000000001419159,-0.07000000001419159,-0.07000000001419159,-0.07000000001419159,-0.07000000001419159,-0.07000000001419159,-0.07000000001419159,-0.07000000001419159,-0.07000000001419159,-0.07000000001419159,-0.07000000001419159,-0.07000000001419159,-0.07000000001419159,-0.07000000001419159,-0.07000000001419159,-0.07000000001419159,-0.0795238095380011,-0.0795238095380011,-0.08904761906181063,-0.09857142858562015,-0.10809523810942968,-0.10809523810942968,-0.10809523810942968,-0.10809523810942968,-0.10809523810942968,-0.10809523810942968,-0.10809523810942968,-0.10809523810942968,-0.10809523810942968,-0.10809523810942968,-0.10809523810942968,-0.10809523810942968,-0.10809523810942968,-0.10809523810942968,-0.10809523810942968,-0.10809523810942968,-0.10809523810942968,-0.10809523810942968,-0.10809523810942968,-0.10809523810942968,-0.10809523810942968,-0.10809523810942968,-0.10809523810942968,-0.10809523810942968,-0.10809523810942968,-0.10809523810942968,-0.10809523810942968,-0.08904761906181063,-0.050952380966572536,-0.022380952395143962,0.006190476176284609,0.03476190474771318,0.044285714271522704,0.05380952379533223,0.07285714284295128,0.07285714284295128,0.09190476189057033,0.1204761904619989,0.13952380950961793,0.13952380950961793,0.13952380950961793,0.13952380950961793,0.13952380950961793,0.13952380950961793,0.13952380950961793,0.13952380950961793,0.13952380950961793,0.13952380950961793,0.13952380950961793,0.13952380950961793,0.13952380950961793,0.13952380950961793,0.13952380950961793,0.13952380950961793,0.1299999999858084,0.1299999999858084,0.11095238093818938,0.10142857141437985,0.0823809523667608,0.07285714284295128,0.05380952379533223,0.03476190474771318,0.025238095223903655,0.015714285700094133,-0.0033333333475249155,-0.0033333333475249155,-0.022380952395143962,-0.022380952395143962,-0.031904761918953486,-0.04142857144276301,-0.050952380966572536,-0.06047619049038206,-0.06047619049038206,-0.0795238095380011,-0.0795238095380011,-0.0795238095380011,-0.0795238095380011,-0.0795238095380011,-0.0795238095380011,-0.0795238095380011,-0.0795238095380011,-0.0795238095380011,-0.0795238095380011,-0.0795238095380011,-0.0795238095380011,-0.0795238095380011,-0.0795238095380011,-0.0795238095380011,-0.0795238095380011,-0.0795238095380011,-0.0795238095380011,-0.07000000001419159,-0.04142857144276301,-0.022380952395143962,0.015714285700094133,0.05380952379533223,0.07285714284295128,0.10142857141437985,0.1299999999858084,0.1680952380810465,0.18714285712866557,0.22523809522390364,0.2442857142715227,0.26333333331914177,0.2919047618905703,0.30142857141437984,0.30142857141437984,0.3109523809381894,0.3299999999858084,0.33952380950961797,0.33952380950961797,0.34904761903342746,0.358571428557237,0.358571428557237,0.358571428557237,0.358571428557237,0.358571428557237,0.358571428557237,0.4347619047477132,0.4442857142715227,0.4728571428429513,0.4919047618905703,0.4919047618905703,0.4919047618905703,0.4919047618905703,0.4919047618905703,0.4919047618905703,0.4919047618905703,0.4919047618905703,0.4919047618905703,0.4919047618905703,0.4919047618905703,0.4919047618905703,0.4919047618905703,0.4919047618905703,0.4919047618905703,0.4919047618905703,0.4919047618905703,0.4919047618905703,0.4919047618905703,0.4919047618905703,0.4919047618905703,0.4919047618905703,0.4919047618905703,0.4919047618905703,0.4919047618905703,0.4919047618905703,0.4919047618905703,0.4919047618905703,0.4919047618905703,0.4919047618905703,0.4919047618905703,0.4919047618905703,0.4919047618905703,0.4919047618905703,0.4919047618905703,0.4919047618905703,0.4919047618905703,0.4919047618905703,0.4919047618905703,0.4919047618905703,0.4919047618905703,0.4919047618905703,0.4919047618905703,0.4919047618905703,0.4919047618905703,0.4919047618905703,0.4919047618905703,0.4919047618905703,0.4919047618905703,0.4919047618905703,0.4919047618905703,0.4919047618905703,0.4919047618905703,0.4919047618905703,0.4919047618905703,0.4919047618905703,0.4919047618905703,0.4919047618905703,0.4919047618905703,0.4919047618905703,0.4919047618905703,0.4919047618905703,0.4919047618905703,0.4919047618905703,0.4919047618905703,0.4919047618905703,0.4919047618905703,0.4919047618905703,0.4919047618905703,0.4919047618905703,0.4919047618905703,0.4919047618905703,0.4919047618905703,0.4919047618905703,0.4919047618905703,0.4919047618905703,0.4919047618905703,0.4919047618905703,0.4919047618905703,0.4919047618905703,0.4919047618905703,0.4919047618905703,0.4919047618905703,0.4919047618905703,0.4919047618905703,0.4919047618905703,0.4919047618905703,0.4919047618905703,0.4919047618905703,0.4919047618905703,0.4919047618905703,0.4919047618905703,0.4919047618905703,0.4919047618905703,0.4919047618905703,0.4823809523667608,0.4728571428429513,0.45380952379533224,0.45380952379533224,0.45380952379533224,0.4442857142715227,0.4442857142715227,0.4442857142715227,0.4442857142715227,0.4442857142715227,0.4442857142715227,0.4442857142715227,0.4442857142715227,0.4442857142715227,0.4442857142715227,0.4442857142715227,0.4442857142715227,0.4442857142715227,0.4442857142715227,0.4442857142715227,0.4442857142715227,0.4442857142715227,0.4442857142715227,0.4442857142715227,0.4442857142715227,0.4442857142715227,0.4442857142715227,0.4442857142715227,0.4442857142715227,0.4442857142715227,0.4442857142715227,0.4442857142715227,0.4442857142715227,0.4442857142715227,0.4442857142715227,0.4442857142715227,0.4442857142715227,0.4442857142715227,0.4442857142715227,0.4442857142715227,0.4442857142715227,0.4442857142715227,0.4442857142715227,0.4442857142715227,0.4442857142715227,0.4442857142715227,0.4442857142715227,0.4442857142715227,0.4442857142715227,0.4442857142715227,0.4442857142715227,0.4442857142715227,0.4442857142715227,0.4442857142715227,0.4442857142715227,0.4442857142715227,0.4442857142715227,0.4442857142715227,0.4442857142715227,0.4442857142715227,0.4442857142715227,0.4442857142715227,0.4442857142715227,0.4442857142715227,0.4442857142715227,0.45380952379533224,0.4728571428429513,0.4728571428429513,0.4919047618905703,0.4919047618905703,0.4919047618905703,0.4919047618905703,0.4919047618905703,0.4919047618905703,0.4919047618905703,0.4919047618905703,0.4919047618905703,0.4919047618905703,0.4919047618905703,0.4823809523667608,0.4823809523667608,0.4823809523667608,0.4728571428429513,0.4728571428429513,0.4728571428429513,0.4633333333191417,0.4633333333191417,0.4633333333191417,0.4633333333191417,0.4633333333191417,0.4633333333191417,0.4633333333191417,0.4633333333191417,0.4633333333191417,0.4633333333191417,0.4633333333191417,0.4633333333191417,0.4633333333191417,0.4633333333191417,0.4633333333191417,0.4633333333191417,0.4633333333191417,0.4633333333191417,0.4633333333191417,0.4633333333191417,0.4633333333191417,0.4633333333191417,0.4633333333191417,0.4633333333191417,0.4633333333191417,0.4633333333191417,0.4633333333191417,0.4633333333191417,0.4633333333191417,0.4633333333191417,0.4633333333191417,0.4633333333191417,0.4633333333191417,0.4633333333191417,0.4633333333191417,0.4633333333191417,0.4633333333191417,0.4633333333191417,0.4633333333191417,0.4633333333191417,0.4633333333191417,0.4633333333191417,0.4633333333191417,0.4633333333191417,0.4633333333191417,0.4633333333191417,0.4633333333191417,0.4633333333191417,0.4633333333191417,0.4633333333191417,0.4633333333191417,0.4633333333191417,0.4633333333191417,0.4633333333191417,0.4633333333191417,0.4633333333191417,0.4633333333191417,0.4633333333191417,0.4633333333191417,0.4633333333191417,0.4633333333191417,0.4633333333191417,0.4633333333191417,0.4633333333191417,0.4633333333191417,0.4633333333191417,0.4728571428429513,0.4919047618905703,0.4919047618905703,0.4919047618905703,0.5109523809381894,0.5490476190334275,0.6061904761762846,0.6252380952239036,0.6252380952239036,0.6157142857000941,0.6061904761762846,0.5680952380810466,0.5299999999858084,0.5204761904619989,0.5204761904619989,0.5204761904619989,0.5204761904619989,0.5204761904619989,0.5204761904619989,0.5204761904619989,0.5204761904619989,0.5204761904619989,0.5204761904619989,0.5204761904619989,0.5204761904619989,0.5204761904619989,0.5204761904619989,0.5204761904619989,0.5204761904619989,0.5204761904619989,0.5204761904619989,0.5204761904619989,0.5204761904619989,0.5109523809381894,0.5014285714143798,0.4919047618905703,0.4919047618905703,0.4919047618905703,0.4919047618905703,0.4919047618905703,0.4919047618905703,0.4919047618905703,0.4919047618905703,0.4919047618905703,0.4919047618905703,0.4919047618905703,0.4919047618905703,0.4919047618905703,0.4919047618905703,0.4919047618905703,0.4919047618905703,0.4919047618905703,0.4919047618905703,0.4919047618905703,0.4919047618905703,0.4919047618905703,0.4919047618905703,0.4919047618905703,0.4919047618905703,0.4919047618905703,0.4919047618905703,0.4919047618905703,0.4728571428429513,0.4728571428429513,0.4728571428429513,0.4728571428429513,0.4728571428429513,0.4728571428429513,0.4728571428429513,0.4728571428429513,0.4728571428429513,0.4728571428429513,0.4728571428429513,0.4728571428429513,0.4728571428429513,0.4728571428429513,0.4728571428429513,0.4728571428429513,0.4728571428429513,0.4728571428429513,0.4728571428429513,0.4728571428429513,0.4728571428429513,0.4728571428429513,0.4728571428429513,0.4728571428429513,0.4728571428429513,0.4728571428429513,0.4633333333191417,0.4347619047477132,0.4347619047477132,0.4347619047477132,0.4347619047477132,0.4347619047477132,0.4347619047477132,0.4347619047477132,0.4347619047477132,0.4347619047477132,0.4347619047477132,0.4347619047477132,0.4347619047477132,0.4347619047477132,0.45380952379533224,0.4633333333191417,0.4919047618905703,0.5014285714143798,0.5014285714143798,0.5014285714143798,0.4919047618905703,0.4061904761762846,0.358571428557237,0.2823809523667608,0.18714285712866557,0.14904761903342748,0.11095238093818938,0.11095238093818938,0.11095238093818938,0.09190476189057033,0.0823809523667608,0.07285714284295128,0.06333333331914175,0.05380952379533223,0.044285714271522704,0.03476190474771318,0.03476190474771318,0.025238095223903655,0.015714285700094133,-0.0033333333475249155,-0.0033333333475249155,-0.0033333333475249155,-0.012857142871334439,-0.012857142871334439,-0.022380952395143962,-0.022380952395143962,-0.031904761918953486,-0.031904761918953486,-0.031904761918953486,-0.031904761918953486,-0.04142857144276301,-0.04142857144276301,-0.04142857144276301,-0.04142857144276301,-0.050952380966572536,-0.06047619049038206,-0.06047619049038206,-0.07000000001419159,-0.0795238095380011,-0.0795238095380011,-0.08904761906181063,-0.09857142858562015,-0.09857142858562015,-0.09857142858562015,-0.09857142858562015,-0.09857142858562015,-0.09857142858562015,-0.09857142858562015,-0.09857142858562015,-0.09857142858562015,-0.09857142858562015,-0.0795238095380011,-0.07000000001419159,-0.06047619049038206,-0.09857142858562015,-0.09857142858562015,-0.09857142858562015,-0.09857142858562015,-0.09857142858562015,-0.09857142858562015,-0.09857142858562015,-0.09857142858562015,-0.09857142858562015,-0.09857142858562015,-0.09857142858562015,-0.09857142858562015,-0.09857142858562015,-0.09857142858562015,-0.09857142858562015,-0.09857142858562015,-0.09857142858562015,-0.1176190476332392,-0.13666666668085825,-0.1557142857284773,-0.1557142857284773,-0.1557142857284773,-0.1557142857284773,-0.1557142857284773,-0.1557142857284773,-0.1557142857284773,-0.1557142857284773,-0.1557142857284773,-0.1557142857284773,-0.1557142857284773,-0.1557142857284773,-0.1557142857284773,-0.1557142857284773,-0.1557142857284773,-0.1557142857284773,-0.1557142857284773,-0.1557142857284773,-0.1557142857284773,-0.1557142857284773,-0.1557142857284773,-0.1557142857284773,-0.1557142857284773,-0.1557142857284773,-0.14619047620466777,-0.13666666668085825,-0.12714285715704873,-0.12714285715704873,-0.1176190476332392,-0.1176190476332392,-0.1176190476332392,-0.1176190476332392,-0.1176190476332392,-0.1176190476332392,-0.1176190476332392,-0.0795238095380011,-0.07000000001419159,-0.07000000001419159,-0.06047619049038206,-0.06047619049038206,-0.06047619049038206,-0.06047619049038206,-0.06047619049038206,-0.06047619049038206,-0.06047619049038206,-0.06047619049038206,-0.050952380966572536,-0.050952380966572536,-0.050952380966572536,-0.04142857144276301,-0.04142857144276301,-0.04142857144276301,-0.031904761918953486,-0.022380952395143962,-0.022380952395143962,-0.012857142871334439,-0.012857142871334439,-0.012857142871334439,-0.012857142871334439,-0.012857142871334439,-0.012857142871334439,-0.012857142871334439,-0.012857142871334439,-0.012857142871334439,-0.012857142871334439,-0.012857142871334439,-0.0033333333475249155,-0.0033333333475249155,-0.0033333333475249155,-0.0033333333475249155,-0.0033333333475249155,-0.0033333333475249155,-0.0033333333475249155,-0.0033333333475249155,-0.0033333333475249155,-0.0033333333475249155,-0.0033333333475249155,-0.0033333333475249155,-0.0033333333475249155,-0.0033333333475249155,-0.0033333333475249155,-0.0033333333475249155,-0.0033333333475249155,-0.0033333333475249155,-0.0033333333475249155,-0.0033333333475249155,-0.0033333333475249155,-0.0033333333475249155,-0.022380952395143962,-0.031904761918953486,-0.031904761918953486,-0.031904761918953486,-0.031904761918953486,-0.031904761918953486,-0.031904761918953486,-0.031904761918953486,-0.031904761918953486,-0.031904761918953486,-0.031904761918953486,-0.031904761918953486,-0.031904761918953486,-0.031904761918953486,-0.031904761918953486,-0.031904761918953486,-0.031904761918953486,-0.031904761918953486,-0.031904761918953486,-0.031904761918953486,-0.031904761918953486,-0.022380952395143962,0.044285714271522704,0.1680952380810465,0.2347619047477132,0.33952380950961797,0.3871428571286656,0.4157142857000941,0.4157142857000941,0.42523809522390366,0.4347619047477132,0.45380952379533224,0.45380952379533224,0.4919047618905703,0.4919047618905703,0.5109523809381894,0.5109523809381894,0.5109523809381894,0.4347619047477132,0.4157142857000941,0.4157142857000941,0.4157142857000941,0.4157142857000941,0.4157142857000941,0.4157142857000941,0.4157142857000941,0.4157142857000941,0.4157142857000941,0.4157142857000941,0.4157142857000941,0.4157142857000941,0.4157142857000941,0.4157142857000941,0.4157142857000941,0.4157142857000941,0.4157142857000941,0.4157142857000941,0.4157142857000941,0.4157142857000941,0.4157142857000941,0.4157142857000941,0.4157142857000941,0.45380952379533224,0.4728571428429513,0.4919047618905703,0.5204761904619989,0.5299999999858084,0.5490476190334275,0.5680952380810466,0.5680952380810466,0.5680952380810466,0.5680952380810466,0.5680952380810466,0.577619047604856,0.5871428571286655,0.5871428571286655,0.5871428571286655,0.5680952380810466,0.5299999999858084,0.5204761904619989,0.4347619047477132,0.158571428557237,0.0823809523667608,0.07285714284295128,0.07285714284295128,0.07285714284295128,0.07285714284295128,0.07285714284295128,0.07285714284295128,0.07285714284295128,0.07285714284295128,0.07285714284295128,0.07285714284295128,0.07285714284295128,0.07285714284295128,0.07285714284295128,0.07285714284295128,0.0823809523667608,0.158571428557237,0.27285714284295126,0.4157142857000941,0.4823809523667608,0.6823809523667608,0.7871428571286656,0.8442857142715227,0.8538095237953323,0.8538095237953323,0.8538095237953323,0.8538095237953323,0.8538095237953323,0.8538095237953323,0.8538095237953323,0.8538095237953323,0.8538095237953323,0.8538095237953323,0.8538095237953323,0.8633333333191417,0.8633333333191417,0.8633333333191417,0.8728571428429512,0.8728571428429512,0.9014285714143798,0.9109523809381894,0.9490476190334275,1.0061904761762845,1.0252380952239037,1.0347619047477132,1.0252380952239037,0.9871428571286656,0.9776190476048561,0.9204761904619989,0.8919047618905703,0.8823809523667608,0.8823809523667608,0.8823809523667608,0.8823809523667608,0.8823809523667608,0.8823809523667608,0.8823809523667608,0.8823809523667608,0.8823809523667608,0.8823809523667608,0.8823809523667608,0.8823809523667608,0.8823809523667608,0.8823809523667608,0.8823809523667608,0.8823809523667608,0.8823809523667608,0.8823809523667608,0.8538095237953323,0.8252380952239037,0.8061904761762846,0.7871428571286656,0.777619047604856,0.7680952380810465,0.758571428557237,0.758571428557237,0.758571428557237,0.758571428557237,0.758571428557237,0.758571428557237,0.758571428557237,0.758571428557237,0.758571428557237,0.758571428557237,0.758571428557237,0.758571428557237,0.758571428557237,0.758571428557237,0.758571428557237,0.758571428557237,0.7109523809381894,0.6347619047477132,0.5871428571286655,0.5680952380810466,0.5490476190334275,0.5490476190334275,0.5490476190334275,0.5299999999858084,0.5299999999858084,0.5299999999858084,0.5299999999858084,0.5299999999858084,0.5299999999858084,0.5299999999858084,0.5299999999858084,0.5299999999858084,0.5299999999858084,0.558571428557237,0.6633333333191418,0.7680952380810465,0.8347619047477132,0.9490476190334275,1.0252380952239037,1.0633333333191417,1.082380952366761,1.1014285714143799,1.1109523809381894,1.1109523809381894,1.1109523809381894,1.1109523809381894,1.1109523809381894,1.1109523809381894,1.1109523809381894,1.1109523809381894,1.1109523809381894,1.1109523809381894,1.1109523809381894,1.1109523809381894,1.1109523809381894,1.1109523809381894,1.1109523809381894,1.1109523809381894,1.1109523809381894,1.1109523809381894,1.1109523809381894,1.1109523809381894,1.1109523809381894,1.1109523809381894,1.1109523809381894,1.1109523809381894,1.1109523809381894,1.1109523809381894,1.1109523809381894,1.1109523809381894,1.1109523809381894,1.1109523809381894,1.1109523809381894,1.1014285714143799,1.0633333333191417,1.0252380952239037,0.996666666652475,0.95857142