[{"success":true,"trial_type":"fullscreen","trial_index":0,"time_elapsed":4279,"internal_node_id":"0.0-0.0","protocol_sum":"","subject_identifier":224,"subject_sum":[177,85,109,234,50,233,208,205,191,237,3,143,215,120,114,117,119,94,164,9,57,193,70,166,78,32,91,203,52,154,208,47],"subject_pair":112,"STUDY_ID":"669eec2e4270c76bc184a38e","PROLIFIC_PID":"62cd43d66c2dd7ae9ab53ae7","SESSION_ID":"669fd61daab7d519a2b90962","practice_instructions":1,"leaderboard_instructions":1,"bonus":0,"reveal_word":false,"self_rating":"4","confidence":"73"},{"view_history":"[{\"page_index\":0,\"viewing_time\":6350.5}]","rt":6350.599999904633,"trial_type":"instructions","trial_index":1,"time_elapsed":10631,"internal_node_id":"0.0-1.0","protocol_sum":"","subject_identifier":224,"subject_sum":[177,85,109,234,50,233,208,205,191,237,3,143,215,120,114,117,119,94,164,9,57,193,70,166,78,32,91,203,52,154,208,47],"subject_pair":112,"STUDY_ID":"669eec2e4270c76bc184a38e","PROLIFIC_PID":"62cd43d66c2dd7ae9ab53ae7","SESSION_ID":"669fd61daab7d519a2b90962","practice_instructions":1,"leaderboard_instructions":1,"bonus":0,"reveal_word":false,"self_rating":"4","confidence":"73"},{"view_history":"[{\"page_index\":0,\"viewing_time\":26412.699999809265}]","rt":26413,"trial_type":"instructions","trial_index":2,"time_elapsed":37044,"internal_node_id":"0.0-2.0-0.0","protocol_sum":"","subject_identifier":224,"subject_sum":[177,85,109,234,50,233,208,205,191,237,3,143,215,120,114,117,119,94,164,9,57,193,70,166,78,32,91,203,52,154,208,47],"subject_pair":112,"STUDY_ID":"669eec2e4270c76bc184a38e","PROLIFIC_PID":"62cd43d66c2dd7ae9ab53ae7","SESSION_ID":"669fd61daab7d519a2b90962","practice_instructions":1,"leaderboard_instructions":1,"bonus":0,"reveal_word":false,"self_rating":"4","confidence":"73"},{"rt":8447.599999904633,"responses":"{\"Q0\":\"... reveal the word with as <b>few letter guesses</b> as possible\"}","question_order":"[0]","trial_type":"survey-multi-choice","trial_index":3,"time_elapsed":45493,"internal_node_id":"0.0-2.0-1.0","protocol_sum":"","subject_identifier":224,"subject_sum":[177,85,109,234,50,233,208,205,191,237,3,143,215,120,114,117,119,94,164,9,57,193,70,166,78,32,91,203,52,154,208,47],"subject_pair":112,"correct":true,"test_part":"multichoice_nonpretend","STUDY_ID":"669eec2e4270c76bc184a38e","PROLIFIC_PID":"62cd43d66c2dd7ae9ab53ae7","SESSION_ID":"669fd61daab7d519a2b90962","practice_instructions":1,"leaderboard_instructions":1,"bonus":0,"reveal_word":false,"self_rating":"4","confidence":"73"},{"view_history":"[{\"page_index\":0,\"viewing_time\":1536.9000000953674}]","rt":1537,"trial_type":"instructions","trial_index":4,"time_elapsed":47030,"internal_node_id":"0.0-3.0","protocol_sum":"","subject_identifier":224,"subject_sum":[177,85,109,234,50,233,208,205,191,237,3,143,215,120,114,117,119,94,164,9,57,193,70,166,78,32,91,203,52,154,208,47],"subject_pair":112,"STUDY_ID":"669eec2e4270c76bc184a38e","PROLIFIC_PID":"62cd43d66c2dd7ae9ab53ae7","SESSION_ID":"669fd61daab7d519a2b90962","practice_instructions":1,"leaderboard_instructions":1,"bonus":0,"reveal_word":false,"self_rating":"4","confidence":"73"},{"word":"ZEBRA","click_log":{"letter":["","E","L","S","T","V","W","N","M","D","C","B","A","J","K","U","F","G","Y","X","R","Q","P","H","I","O","Z"],"t":[0,10764.199999809265,12720.799999713898,14945.599999904633,15607.099999904633,28050.900000095367,29005.199999809265,29666.699999809265,30138.599999904633,30610.199999809265,31049.099999904633,31553.199999809265,32159.5,32691,33226.7999997139,33788.699999809265,37393.2999997139,38736,39906.90000009537,40793.90000009537,54428.90000009537,54820.09999990463,55006.199999809265,55994.09999990463,56385.09999990463,58784,62838.09999990463],"hit":[null,1,0,0,0,0,0,0,0,0,0,1,1,0,0,0,0,0,0,0,1,0,0,0,0,0,1],"asked":["","E","EL","ELS","ELST","ELSTV","ELSTVW","ELSTVWN","ELSTVWNM","ELSTVWNMD","ELSTVWNMDC","ELSTVWNMDCB","ELSTVWNMDCBA","ELSTVWNMDCBAJ","ELSTVWNMDCBAJK","ELSTVWNMDCBAJKU","ELSTVWNMDCBAJKUF","ELSTVWNMDCBAJKUFG","ELSTVWNMDCBAJKUFGY","ELSTVWNMDCBAJKUFGYX","ELSTVWNMDCBAJKUFGYXR","ELSTVWNMDCBAJKUFGYXRQ","ELSTVWNMDCBAJKUFGYXRQP","ELSTVWNMDCBAJKUFGYXRQPH","ELSTVWNMDCBAJKUFGYXRQPHI","ELSTVWNMDCBAJKUFGYXRQPHIO","ELSTVWNMDCBAJKUFGYXRQPHIOZ"],"word_state":["_____","_E___","_E___","_E___","_E___","_E___","_E___","_E___","_E___","_E___","_E___","_EB__","_EB_A","_EB_A","_EB_A","_EB_A","_EB_A","_EB_A","_EB_A","_EB_A","_EBRA","_EBRA","_EBRA","_EBRA","_EBRA","_EBRA","ZEBRA"]},"hover_log":{"letter":["?","?","?","?","?","?","?","?","?","?","?","?","?","?","?","?","?","?","?","?","?","?","?","?","?","?","?","?","?","?","?","?","?","?","?","?","?","?","?","?","?","?","?","?","?","?","?","?","?","?","?","?","?","?","?","?","?","?","?","?","?","J","J","J","J","J","J","J","J","J","J","J","J","J","J","J","J","J","J","J","J","J","J","J","J","J","J","J","J","J","J","J","J","J","J","J","J","J","J","J","J","J","J","J","J","J","J","J","J","J","J","J","J","J","J","J","J","J","J","J","J","J","J","J","J","J","J","J","J","J","J","J","J","J","J","?","K","K","K","K","K","K","?","?","?","?","C","C","C","C","C","C","C","C","C","C","C","?","?","?","?","?","?","?","?","?","?","?","?","?","?","?","?","?","?","D","D","D","D","D","D","D","D","D","D","D","D","D","D","D","D","D","D","D","D","D","D","D","D","D","D","D","D","D","D","D","D","D","D","D","D","D","D","D","D","D","D","D","D","D","D","D","D","D","D","D","D","D","D","D","D","D","D","D","D","D","D","D","D","D","D","D","D","D","D","D","D","D","D","D","D","D","D","D","D","D","D","D","D","D","D","D","D","D","D","D","D","D","D","D","D","D","D","D","D","D","D","D","D","D","D","D","D","D","D","D","D","D","D","D","D","D","D","D","D","D","D","D","D","D","D","D","D","D","D","D","D","D","D","D","D","D","D","D","D","D","D","D","D","D","D","D","D","D","D","D","D","D","D","D","D","D","D","D","D","D","D","D","D","D","D","D","D","D","D","D","D","D","D","D","D","D","D","D","D","D","D","D","D","D","D","D","D","D","D","D","D","D","D","D","D","D","D","D","D","D","D","D","D","D","D","D","D","D","D","D","D","D","D","D","D","D","D","D","D","D","D","D","D","D","D","D","D","D","D","D","D","D","D","D","D","D","D","D","D","D","D","D","D","D","D","D","D","D","D","D","D","D","D","D","D","D","D","D","D","D","D","D","D","D","D","D","D","D","D","D","D","D","D","D","D","D","D","D","D","D","D","D","D","D","D","D","D","D","D","D","D","D","D","D","D","D","D","D","D","D","D","D","D","D","D","D","D","D","D","D","D","D","D","D","D","D","D","D","D","D","D","D","D","D","D","D","D","D","D","D","D","D","D","D","D","D","D","C","?","D","D","D","D","D","D","D","D","D","D","D","D","D","?","?","?","?","?","?","?","?","?","E","E","E","E","E","E","E","E","E","E","E","E","E","E","E","E","E","E","E","E","E","E","E","E","E","E","E","E","E","E","E","E","E","E","E","E","E","E","E","E","E","E","E","E","E","E","E","E","E","E","E","E","E","E","E","E","E","E","E","E","E","E","E","E","E","E","E","E","E","E","E","E","E","E","E","E","E","E","E","E","E","E","E","E","E","E","E","E","E","E","E","E","E","E","E","E","E","E","E","E","E","E","E","E","E","E","E","E","E","E","E","E","E","E","E","E","E","E","E","E","E","E","E","E","E","E","E","E","E","E","E","E","E","E","E","E","E","E","E","E","E","E","E","E","E","E","E","E","E","E","E","E","E","E","E","?","?","?","?","?","?","M","M","M","M","M","M","M","?","?","?","?","?","?","?","?","?","?","?","?","?","?","?","?","?","L","L","L","L","L","L","L","L","L","L","L","L","L","L","L","L","L","L","L","L","L","L","L","L","L","L","L","L","L","L","L","L","L","L","L","L","L","L","L","L","L","L","L","L","L","L","L","L","L","L","L","L","L","L","L","L","L","L","L","L","L","L","L","L","L","L","L","L","L","L","L","L","L","L","L","L","L","L","L","L","L","L","L","L","L","L","L","L","L","L","L","L","L","L","L","L","L","L","L","L","L","L","L","L","?","?","?","?","?","?","?","?","?","?","U","U","U","U","U","U","U","U","U","U","U","U","U","U","U","U","U","U","U","U","U","U","U","U","U","U","U","U","U","U","U","U","U","U","?","T","T","T","?","?","S","S","S","S","S","S","S","S","S","S","S","S","S","S","S","S","S","S","S","S","S","S","S","S","S","S","S","S","S","S","S","?","?","T","T","T","T","T","T","T","T","T","T","T","T","T","T","T","T","T","T","T","T","T","T","T","T","T","T","T","T","T","T","T","T","T","T","T","T","T","T","T","T","T","T","T","T","T","T","T","T","T","T","T","T","T","T","T","T","T","T","T","T","T","T","T","T","T","T","T","T","T","T","T","T","T","T","T","T","T","T","T","T","T","J","A","?","?","?","?","?","?","?","?","?","?","?","?","?","?","?","?","?","?","?","?","?","?","?","?","?","?","?","?","?","?","?","?","?","?","?","?","?","?","?","?","?","?","?","?","?","?","?","?","?","?","?","?","?","?","?","?","?","?","?","?","?","?","?","?","?","?","?","?","?","?","?","?","?","?","?","?","?","?","?","?","?","?","?","?","?","?","?","?","?","?","?","?","?","?","?","?","?","?","?","?","?","?","?","?","?","?","?","?","?","?","?","?","?","?","?","?","?","?","?","?","?","?","?","?","?","?","?","?","?","?","?","?","?","?","?","?","?","?","?","?","?","?","?","?","?","?","?","?","?","?","?","?","?","?","?","?","?","?","?","?","?","?","?","?","?","?","?","?","?","?","?","?","?","?","?","?","?","?","?","?","?","?","?","?","?","?","?","?","?","?","?","?","?","?","?","?","?","?","?","?","?","?","?","?","?","?","?","?","?","?","?","?","?","?","?","?","?","?","?","?","?","?","?","?","?","?","?","?","?","?","?","?","?","?","?","?","?","?","?","?","?","?","?","?","?","?","?","?","?","?","?","?","?","?","?","?","?","?","?","?","?","?","?","?","?","?","?","?","?","?","?","?","?","?","?","?","?","?","?","?","?","?","?","?","?","?","?","?","?","?","?","?","?","?","?","?","?","?","?","?","?","?","?","?","?","?","?","?","?","?","?","?","?","?","?","?","?","?","?","?","?","?","?","?","?","?","?","?","?","?","?","?","?","?","?","?","?","?","?","?","?","?","?","?","?","?","?","?","?","?","?","?","?","?","?","?","?","?","?","?","?","?","?","?","?","?","?","?","?","?","?","?","?","?","?","?","?","?","?","?","?","?","?","?","?","?","?","?","?","?","?","?","?","?","?","?","?","?","?","?","?","?","?","?","?","?","?","?","?","?","?","?","?","?","?","?","?","?","?","?","?","?","?","?","?","?","?","?","?","?","?","?","?","B","?","?","?","?","?","?","?","?","?","?","?","?","?","?","?","?","?","?","?","?","?","?","?","?","?","?","?","?","?","?","?","?","?","?","?","?","?","?","?","?","?","?","?","?","?","?","?","?","?","?","?","?","?","?","?","?","?","?","?","?","?","?","?","?","?","?","?","?","?","?","?","?","?","?","?","?","?","?","?","?","?","?","?","?","?","?","?","?","?","?","?","?","?","?","?","?","?","?","?","?","?","?","?","?","?","?","?","?","?","?","?","?","?","?","?","?","?","?","?","?","?","?","?","?","?","?","?","?","?","?","?","?","?","?","?","?","?","?","?","?","?","?","?","?","?","?","?","?","?","?","?","?","?","?","?","?","?","?","?","?","?","A","?","?","?","?","?","?","?","?","?","?","?","?","?","?","?","?","?","?","?","?","?","?","?","?","?","?","?","?","?","?","?","?","?","?","?","?","?","?","?","?","?","?","?","?","?","C","C","?","?","?","?","?","?","?","?","?","?","M","M","M","M","M","M","M","M","M","M","?","?","?","?","?","V","V","V","V","V","V","V","V","V","V","V","V","V","V","V","V","V","V","V","V","V","V","V","V","V","V","V","V","V","V","V","V","V","V","V","V","V","V","V","V","V","V","V","V","V","V","V","?","?","W","W","W","W","W","W","W","W","W","W","W","W","W","W","W","W","W","W","W","W","W","W","W","W","W","W","W","W","W","W","W","W","W","W","W","W","W","W","W","W","W","W","W","W","W","W","?","?","?","?","?","?","?","?","?","N","N","N","N","N","N","N","N","N","N","N","N","N","N","N","N","N","N","N","N","N","N","N","N","N","N","N","?","M","M","M","M","M","M","M","M","M","M","M","M","M","M","M","M","M","M","M","M","M","M","?","?","?","?","?","?","?","D","D","D","D","D","D","D","D","D","D","D","D","D","D","D","D","D","D","D","D","D","?","?","C","C","C","C","C","C","C","C","C","C","C","C","C","C","C","C","C","C","C","C","C","C","C","C","C","C","C","C","C","C","?","?","B","B","B","B","B","B","B","B","B","B","B","B","B","B","B","B","B","B","B","B","B","B","B","B","B","B","B","B","?","?","?","?","A","A","A","A","A","A","A","A","A","A","A","A","A","A","A","A","A","A","A","A","A","A","A","A","A","A","A","A","A","A","?","?","?","?","?","J","J","J","J","J","J","J","J","J","J","J","J","J","J","J","J","J","J","J","J","J","J","J","J","J","J","?","?","K","K","K","K","K","K","K","K","K","K","K","K","K","K","K","K","K","K","K","K","K","K","K","K","K","K","K","K","K","K","K","K","K","?","?","?","?","U","U","U","U","U","U","U","U","U","U","U","U","U","U","U","U","U","U","U","U","U","U","U","U","U","U","U","U","U","U","U","U","U","U","U","U","U","U","U","U","U","U","U","U","U","U","U","U","U","U","U","U","U","U","U","U","U","U","?","?","?","?","?","?","?","?","?","?","?","?","?","?","?","?","?","?","?","?","?","?","?","?","?","?","?","?","?","?","?","?","?","?","?","?","?","?","?","?","?","?","?","?","?","?","?","?","?","?","?","?","?","?","?","?","?","?","?","?","?","?","?","?","?","?","?","?","?","?","?","?","?","?","?","?","?","?","?","?","?","?","?","?","?","?","?","?","N","N","N","N","N","N","N","N","N","N","N","N","N","N","N","N","N","N","N","N","N","N","N","N","N","N","N","N","N","N","N","N","N","N","N","N","N","N","N","N","N","N","N","N","N","N","N","N","?","?","?","?","?","?","?","?","?","?","?","?","?","?","?","?","?","?","?","?","?","?","?","?","?","?","?","?","?","?","?","?","F","F","F","F","F","F","F","F","F","?","?","?","?","?","?","?","?","?","?","?","?","?","?","?","?","?","?","?","?","?","F","F","F","F","F","F","F","F","F","F","?","?","?","?","?","?","?","?","?","?","?","?","?","?","?","?","?","F","F","F","F","F","F","F","F","F","F","F","F","F","F","F","F","F","F","F","F","?","?","?","G","G","G","G","G","G","G","G","G","G","G","G","G","G","G","G","G","G","G","G","G","G","G","G","G","G","?","?","?","?","?","?","?","?","?","?","?","?","?","?","?","?","?","?","?","?","?","?","?","?","?","?","?","?","?","?","?","?","?","?","?","?","?","?","?","?","?","?","?","?","?","?","?","?","Y","Y","Y","Y","Y","Y","Y","Y","Y","Y","Y","Y","Y","Y","?","?","?","?","?","?","?","?","?","?","?","?","?","?","?","?","?","?","?","?","X","X","X","X","X","X","X","X","X","X","X","X","X","X","X","X","X","X","X","X","X","X","X","X","X","X","X","X","X","X","X","X","X","X","X","X","X","X","X","X","X","X","X","X","X","X","X","X","X","X","X","X","X","X","X","X","X","X","X","X","X","X","X","X","X","X","X","X","X","X","X","X","X","X","X","X","X","X","X","X","X","X","X","X","X","X","X","X","X","X","X","X","X","?","?","?","?","?","?","?","?","?","?","?","?","?","?","?","?","?","?","?","?","?","?","?","?","?","?","?","?","?","?","?","?","?","?","O","O","O","?","?","?","P","P","P","P","P","P","P","P","P","P","P","P","P","P","P","P","?","?","?","?","?","?","?","?","?","?","?","?","?","?","?","?","?","?","P","P","P","P","P","?","?","?","?","?","X","X","X","X","X","X","X","X","X","X","X","X","X","X","X","X","X","X","X","X","X","X","X","X","X","X","X","X","X","X","X","X","X","X","X","X","X","X","X","X","X","X","X","X","X","X","X","X","X","X","X","X","X","X","X","X","X","X","?","N","?","D","?","?","?","?","?","?","?","?","?","?","?","?","?","?","?","?","?","?","?","?","?","?","?","?","?","?","?","?","?","?","?","?","?","?","?","?","?","?","?","?","?","?","?","?","?","?","?","?","?","?","?","?","?","?","?","?","?","?","?","?","?","?","?","?","?","?","?","?","?","?","?","?","?","?","?","?","?","?","?","?","?","?","?","?","?","?","?","?","?","?","?","?","?","?","?","?","?","?","?","?","?","?","?","?","?","?","?","?","?","?","?","?","?","?","?","?","?","H","H","H","?","?","I","I","I","I","I","I","?","?","?","?","?","?","?","?","?","?","?","?","?","?","?","?","?","?","?","?","?","?","?","?","?","?","?","?","?","?","?","?","?","?","?","?","?","?","?","?","?","?","?","?","?","?","?","?","?","?","?","?","?","?","?","?","?","?","?","?","?","?","?","?","?","?","?","?","?","?","?","?","?","?","?","?","?","?","?","?","?","?","?","?","?","?","?","?","?","?","?","?","?","?","?","?","?","?","?","?","?","?","?","?","?","?","?","?","?","?","?","?","?","?","?","?","?","?","?","?","?","?","?","?","?","?","?","?","?","?","?","?","?","?","?","?","?","?","?","?","?","?","?","?","?","?","?","?","?","?","?","?","?","?","?","?","?","?","?","?","?","?","?","?","?","?","?","?","?","?","?","?","?","?","?","?","?","?","?","?","?","?","?","?","?","?","?","?","?","?","?","?","?","?","?","?","?","?","?","?","?","?","?","?","?","?","?","?","?","?","?","?","?","?","?","?","?","?","?","?","?","?","?","?","?","?","?","?","?","?","?","?","?","?","?","?","?","?","?","?","?","?","?","?","?","?","?","?","?","?","?","?","?","?","?","?","?","?","?","?","?","?","?","?","?","?","?","?","?","?","?","?","?","?","?","?","?","?","?","?","?","?","?","?","?","?","?","?","?","?","?","?","?","?","?","?","?","?","?","?","?","?","?","?","?","?","?","?","?","?","?","?","?","?","?","?","?","?","?","?","?","?","?","?","?","?","?","?","?","?","?","?","?","?","?","?","?","?","?","?","?","?","?","?","?","?","?","?","Z","Z","Z","Z","Z","Z","Z","Z","Z","Z","Z","Z","Z","Z","Z","Z","?","?","?","?","?","?","?","?","?","?","?","?","?","?","?","?","?","?","?","?","?","?","?","?","?","?","?","?","?","?","?","?","?","?","?","?","?","?","?","?","?","?","?","?","?","?","?","?","?","?","?","?","?","?","?","?","?","?","?","?","?","?","?","?","?","?","?","?","?","?","?","?","?","?","?","?","?","?","?","?","?","?","?","?","?","?","?","?","?","?","?","?","?","?","?","?","?","?","?","?","?","?","?","?","R","R","R","R","R","R","R","R","R","R","R","R","R","R","R","R","R","R","R","R","R","?","Q","Q","Q","Q","Q","Q","Q","Q","Q","Q","Q","Q","?","?","?","P","P","P","P","P","P","P","P","P","P","P","P","P","P","P","P","P","P","?","?","?","?","?","?","?","?","?","?","?","?","?","?","?","?","?","?","?","?","?","?","?","?","?","?","?","?","?","G","G","G","G","G","G","G","G","?","?","?","?","?","H","H","H","H","H","H","H","H","H","H","H","H","H","H","H","H","H","H","H","?","?","?","I","I","I","I","I","I","I","I","I","I","I","I","I","I","I","I","I","I","I","I","I","?","?","?","?","?","?","?","?","?","?","?","?","?","?","?","?","?","?","?","?","?","?","?","?","?","?","?","?","?","?","?","?","?","?","?","?","?","?","?","?","?","?","?","?","?","?","?","?","?","?","?","?","?","?","?","?","?","?","?","?","?","?","?","?","?","?","?","?","?","?","?","?","?","?","?","?","?","?","Z","Z","Z","Z","Z","Z","?","?","?","?","?","?","?","Y","?","?","?","?","?","?","?","?","?","?","?","?","?","?","?","?","?","?","?","?","?","?","?","?","?","?","?","O","O","O","O","O","O","O","O","O","O","O","O","O","O","O","O","?","?","?","?","?","?","?","?","?","?","?","?","?","E","E","E","E","E","E","E","?","?","?","?","?","?","?","?","?","?","?","?","?","?","?","?","?","?","?","?","?","?","?","?","?","?","?","?","G","G","G","G","G","?","?","?","?","?","?","?","?","?","?","O","O","O","O","O","O","O","O","O","O","O","O","O","O","?","?","?","?","?","?","?","?","?","?","X","X","X","X","X","X","X","X","X","X","X","X","X","X","X","X","X","X","X","X","X","X","X","X","X","X","X","X","X","X","X","X","X","X","X","X","X","X","X","X","X","X","X","X","X","X","X","X","X","X","X","X","?","?","?","?","?","?","?","?","?","?","?","?","?","?","?","?","?","?","?","?","?","?","?","?","?","?","?","?","?","?","?","X","X","X","X","X","X","X","X","X","X","X","X","X","X","X","X","X","X","X","X","X","X","X","X","X","X","X","?","?","?","?","Y","Y","Y","Y","Y","Y","Y","Y","Y","Y","Y","Y","Y","Y","Y","Y","Y","Y","Y","Y","Y","Y","Y","Y","Y","Y","?","?","?","?","?","Z","Z","Z","Z","Z","Z","Z","Z","Z","Z","Z","Z","Z","Z","Z","Z","Z","Z","Z","?","?","?","?","?","?","?","?","?","?","?","?","?","?","?","?","?","?","?","?","?","?","?","?","?","?","?","?","?","?","?","?","?","?","?","?","?","?","?","?","?","?","?","?","?","?","?","?","?","?","?","?","?","?","?","?","?","?","?","?","?","?","?","?","?","?","?","?","?","?","?","?","?","?","?","?","?","?","?","?","?","?","?","?","?","?","?","?","?","?","?","?","?","Y","?","?","M","L","K","J","J","J","J","J","J","J","J"],"t":[31,39,55,72,88,105,122,139,155,172,188,205,222,238,255,272,289,305,322,338,355,372,388,405,422,438,455,472,488,505,522,538,555,572,588,605,622,638,655,672,688,705,722,740,755,772,789,805,822,838,855,872,888,905,922,938,955,972,989,1005,1022,1039,1055,1072,1088,1105,1122,1139,1155,1172,1188,1205,1222,1238,1255,1272,1288,1305,1322,1338,1355,1371,1388,1405,1422,1438,1455,1472,1488,1505,1521,1539,1555,1572,1588,1605,1621,1638,1656,1672,1689,1705,1722,1738,1755,1772,1789,1805,1822,1838,1855,1872,1888,1905,1922,1938,1955,1972,1988,2005,2021,2038,2055,2071,2088,2105,2122,2139,2155,2172,2189,2205,2222,2238,2255,2271,2288,2305,2322,2338,2355,2372,2388,2405,2422,2438,2455,2472,2488,2505,2521,2538,2555,2572,2588,2605,2621,2639,2655,2672,2688,2705,2721,2738,2755,2771,2788,2806,2821,2838,2855,2871,2888,2905,2921,2938,2955,2971,2988,3005,3021,3038,3055,3071,3088,3105,3122,3138,3154,3171,3188,3205,3221,3238,3255,3271,3288,3305,3321,3338,3354,3372,3388,3405,3421,3438,3454,3471,3488,3504,3521,3538,3554,3571,3588,3604,3621,3638,3654,3671,3688,3704,3721,3738,3754,3771,3788,3804,3821,3838,3854,3871,3888,3904,3921,3938,3954,3971,3988,4004,4021,4038,4054,4071,4088,4104,4121,4138,4154,4171,4188,4204,4221,4238,4254,4271,4288,4305,4321,4338,4354,4371,4388,4404,4421,4438,4454,4471,4488,4504,4521,4538,4554,4571,4588,4604,4621,4638,4654,4671,4688,4704,4721,4738,4754,4771,4788,4804,4821,4838,4854,4871,4888,4904,4921,4938,4955,4971,4988,5004,5021,5038,5055,5071,5088,5105,5121,5138,5154,5171,5188,5204,5221,5238,5254,5271,5288,5305,5321,5338,5354,5371,5388,5404,5421,5438,5454,5471,5488,5506,5521,5538,5555,5571,5588,5605,5622,5638,5655,5672,5688,5705,5722,5738,5754,5771,5788,5804,5821,5838,5855,5871,5888,5904,5921,5938,5954,5971,5988,6004,6021,6038,6054,6071,6088,6104,6121,6138,6155,6171,6188,6205,6221,6238,6255,6271,6287,6304,6321,6338,6354,6371,6388,6404,6421,6438,6454,6471,6487,6504,6521,6538,6554,6571,6588,6604,6621,6638,6654,6671,6688,6704,6721,6738,6754,6771,6788,6804,6821,6838,6855,6871,6888,6904,6921,6937,6954,6971,6987,7004,7022,7038,7054,7071,7087,7104,7122,7137,7154,7171,7188,7204,7221,7237,7254,7271,7287,7304,7321,7337,7354,7371,7388,7404,7421,7437,7454,7471,7487,7504,7521,7538,7554,7571,7587,7604,7621,7637,7654,7671,7687,7704,7721,7737,7754,7771,7787,7804,7821,7837,7854,7871,7887,7904,7921,7937,7954,7971,7987,8004,8021,8037,8054,8071,8087,8104,8121,8138,8154,8171,8187,8204,8221,8238,8254,8271,8287,8305,8321,8337,8354,8371,8387,8404,8421,8437,8454,8471,8487,8504,8521,8537,8554,8571,8590,8604,8621,8637,8654,8671,8687,8704,8721,8737,8754,8771,8787,8805,8821,8837,8854,8871,8887,8904,8921,8937,8954,8971,8987,9004,9021,9038,9054,9071,9087,9104,9121,9138,9154,9171,9188,9205,9221,9238,9254,9271,9287,9304,9321,9337,9354,9371,9387,9404,9421,9438,9454,9471,9487,9504,9521,9537,9554,9571,9587,9604,9621,9637,9654,9671,9687,9704,9721,9737,9754,9771,9787,9804,9821,9837,9854,9871,9887,9904,9920,9937,9954,9971,9987,10004,10021,10037,10054,10072,10087,10104,10121,10137,10154,10170,10188,10204,10221,10237,10254,10270,10287,10304,10320,10338,10354,10370,10388,10404,10421,10437,10454,10471,10487,10504,10520,10537,10554,10570,10587,10604,10620,10637,10654,10670,10687,10704,10720,10737,10754,10771,10787,10804,10821,10837,10854,10871,10887,10904,10921,10938,10954,10971,10988,11004,11020,11037,11054,11071,11087,11104,11120,11137,11154,11170,11187,11204,11220,11237,11254,11270,11287,11304,11320,11337,11354,11370,11387,11404,11420,11437,11454,11470,11487,11504,11522,11537,11554,11570,11587,11604,11621,11637,11654,11670,11687,11704,11720,11737,11754,11770,11787,11804,11820,11837,11854,11870,11887,11904,11920,11937,11954,11970,11987,12004,12020,12037,12054,12070,12087,12104,12121,12137,12154,12170,12187,12204,12220,12237,12254,12270,12287,12304,12320,12337,12354,12370,12387,12404,12420,12437,12454,12470,12487,12504,12520,12537,12554,12571,12587,12604,12620,12637,12654,12670,12687,12703,12720,12738,12754,12770,12787,12804,12820,12837,12853,12870,12887,12904,12921,12937,12954,12970,12987,13004,13020,13037,13054,13070,13087,13104,13120,13137,13154,13170,13187,13203,13220,13237,13254,13270,13287,13304,13320,13337,13354,13370,13388,13404,13420,13437,13453,13470,13487,13504,13520,13537,13553,13570,13587,13604,13620,13637,13654,13670,13687,13704,13720,13737,13754,13771,13787,13804,13821,13837,13854,13870,13887,13904,13920,13937,13954,13970,13987,14004,14020,14037,14054,14070,14087,14103,14120,14137,14154,14170,14187,14203,14220,14237,14254,14270,14287,14303,14320,14337,14354,14370,14387,14403,14420,14437,14454,14470,14487,14504,14520,14537,14554,14570,14587,14604,14620,14637,14653,14670,14687,14703,14720,14737,14753,14770,14787,14803,14820,14837,14853,14870,14887,14903,14920,14937,14954,14971,14987,15003,15020,15037,15053,15070,15087,15104,15120,15137,15153,15170,15187,15203,15220,15237,15253,15270,15287,15304,15320,15337,15353,15370,15387,15403,15420,15437,15453,15470,15487,15503,15520,15536,15553,15570,15587,15603,15620,15637,15653,15670,15687,15703,15720,15737,15753,15770,15787,15803,15820,15837,15853,15870,15887,15903,15920,15937,15953,15970,15987,16003,16020,16037,16053,16070,16086,16103,16120,16137,16153,16170,16187,16203,16220,16237,16253,16270,16286,16303,16320,16336,16353,16370,16387,16404,16420,16437,16453,16470,16487,16503,16520,16537,16554,16570,16587,16603,16620,16637,16653,16670,16687,16703,16720,16737,16753,16770,16786,16803,16820,16836,16853,16870,16886,16903,16920,16936,16953,16970,16986,17003,17020,17037,17053,17070,17087,17104,17120,17136,17153,17172,17187,17203,17220,17236,17253,17270,17286,17303,17320,17336,17353,17370,17386,17403,17420,17437,17453,17470,17486,17503,17520,17536,17553,17570,17586,17603,17620,17637,17653,17670,17686,17704,17720,17743,17771,17787,17803,17820,17836,17854,17870,17887,17903,17920,17937,17954,17970,17987,18003,18020,18037,18054,18071,18087,18104,18121,18137,18154,18170,18187,18204,18220,18237,18253,18270,18287,18304,18321,18337,18354,18371,18387,18403,18420,18437,18453,18470,18487,18504,18520,18537,18553,18570,18587,18604,18621,18637,18653,18670,18686,18703,18720,18737,18753,18770,18786,18803,18820,18836,18854,18870,18887,18903,18920,18936,18953,18970,18986,19003,19020,19036,19053,19070,19087,19103,19120,19137,19153,19169,19186,19203,19222,19236,19253,19270,19286,19303,19320,19336,19353,19370,19386,19403,19420,19436,19453,19470,19486,19503,19520,19536,19553,19570,19586,19603,19620,19636,19653,19670,19686,19703,19719,19736,19753,19770,19786,19803,19819,19836,19853,19869,19886,19903,19920,19936,19953,19970,19986,20003,20020,20036,20054,20069,20086,20103,20119,20136,20153,20169,20186,20203,20220,20236,20253,20270,20286,20303,20320,20336,20353,20370,20386,20403,20420,20436,20453,20470,20486,20503,20520,20537,20553,20570,20586,20603,20619,20636,20653,20669,20686,20703,20720,20736,20753,20770,20786,20803,20820,20836,20853,20870,20886,20903,20919,20937,20953,20970,20986,21003,21019,21036,21053,21069,21086,21103,21119,21136,21153,21170,21186,21203,21219,21236,21253,21269,21286,21303,21319,21336,21353,21369,21386,21403,21419,21436,21453,21469,21486,21503,21521,21536,21553,21569,21586,21603,21619,21636,21653,21670,21686,21703,21720,21737,21753,21769,21786,21803,21819,21836,21853,21870,21886,21903,21919,21936,21953,21969,21986,22003,22019,22036,22053,22069,22086,22103,22120,22137,22153,22169,22186,22203,22219,22236,22253,22269,22287,22303,22319,22336,22353,22369,22386,22403,22419,22436,22453,22469,22486,22503,22520,22536,22553,22569,22586,22603,22619,22636,22653,22669,22686,22703,22720,22736,22753,22770,22786,22802,22819,22836,22853,22869,22886,22903,22919,22936,22954,22969,22986,23002,23019,23036,23052,23069,23086,23102,23119,23136,23153,23169,23186,23203,23221,23237,23254,23270,23287,23304,23320,23337,23354,23370,23387,23404,23420,23437,23453,23470,23487,23503,23520,23537,23554,23570,23587,23603,23620,23637,23653,23670,23686,23703,23720,23737,23753,23770,23787,23803,23820,23837,23853,23870,23887,23903,23920,23936,23953,23970,23986,24003,24020,24036,24053,24069,24087,24103,24120,24136,24153,24170,24186,24203,24219,24236,24252,24269,24286,24303,24320,24336,24353,24370,24388,24403,24419,24436,24453,24470,24486,24503,24520,24536,24553,24570,24586,24603,24620,24636,24653,24669,24686,24703,24720,24736,24752,24769,24787,24803,24820,24836,24853,24870,24887,24904,24921,24937,24953,24971,24986,25003,25020,25036,25053,25070,25087,25103,25120,25137,25153,25171,25186,25203,25219,25236,25252,25270,25287,25303,25321,25337,25353,25370,25387,25404,25420,25436,25453,25469,25486,25503,25519,25536,25553,25569,25586,25602,25619,25636,25653,25669,25686,25702,25719,25736,25752,25769,25786,25803,25819,25836,25853,25869,25886,25902,25919,25936,25953,25969,25986,26002,26019,26036,26053,26069,26086,26103,26119,26136,26152,26169,26186,26202,26219,26236,26253,26269,26286,26303,26319,26336,26352,26369,26386,26403,26419,26436,26453,26469,26486,26503,26519,26536,26552,26570,26586,26603,26619,26636,26652,26669,26686,26703,26719,26736,26753,26769,26786,26803,26819,26836,26852,26869,26886,26903,26919,26936,26953,26969,26986,27002,27019,27036,27052,27069,27086,27103,27119,27136,27152,27169,27186,27202,27219,27236,27253,27270,27286,27303,27320,27336,27353,27370,27386,27403,27420,27436,27453,27470,27486,27503,27519,27536,27553,27569,27586,27603,27620,27636,27653,27669,27686,27703,27719,27736,27753,27769,27786,27803,27819,27836,27852,27869,27886,27903,27919,27936,27952,27970,27986,28003,28019,28036,28052,28069,28086,28103,28119,28136,28152,28169,28186,28203,28219,28236,28253,28269,28285,28302,28319,28335,28353,28369,28386,28403,28419,28436,28453,28469,28486,28503,28520,28536,28552,28569,28586,28602,28619,28636,28653,28669,28686,28702,28719,28736,28753,28769,28786,28803,28819,28836,28852,28869,28885,28902,28919,28936,28952,28969,28985,29002,29019,29035,29052,29069,29085,29103,29119,29136,29153,29169,29186,29203,29219,29236,29252,29269,29286,29302,29319,29336,29353,29369,29386,29403,29419,29436,29452,29469,29486,29502,29519,29536,29552,29569,29586,29602,29619,29635,29652,29669,29685,29702,29719,29735,29752,29769,29786,29802,29819,29836,29852,29869,29886,29902,29919,29936,29952,29969,29985,30003,30019,30035,30052,30069,30085,30102,30119,30135,30152,30169,30185,30202,30219,30235,30252,30269,30286,30303,30319,30336,30353,30369,30386,30402,30419,30436,30452,30469,30485,30502,30519,30535,30552,30569,30585,30602,30619,30635,30652,30669,30686,30702,30719,30735,30753,30769,30786,30802,30819,30836,30853,30869,30885,30903,30919,30935,30952,30969,30985,31002,31019,31035,31052,31069,31086,31102,31119,31136,31152,31169,31186,31202,31219,31236,31252,31269,31286,31303,31319,31336,31353,31369,31386,31402,31420,31437,31453,31469,31486,31502,31519,31535,31552,31570,31585,31602,31619,31636,31653,31669,31686,31702,31719,31736,31752,31769,31786,31803,31819,31836,31852,31870,31885,31902,31919,31936,31952,31969,31985,32002,32019,32036,32052,32069,32085,32102,32119,32136,32152,32168,32186,32202,32219,32235,32252,32269,32286,32302,32319,32336,32352,32369,32386,32402,32419,32436,32453,32469,32486,32502,32519,32535,32552,32569,32585,32602,32619,32635,32652,32669,32685,32702,32721,32735,32752,32769,32785,32802,32818,32835,32852,32869,32886,32902,32919,32935,32952,32969,32985,33002,33019,33035,33052,33069,33085,33102,33119,33135,33152,33169,33185,33202,33219,33235,33252,33269,33285,33302,33319,33335,33352,33368,33386,33402,33418,33436,33452,33469,33486,33502,33519,33535,33552,33569,33585,33602,33618,33635,33652,33668,33685,33702,33718,33735,33752,33768,33785,33801,33818,33835,33852,33868,33885,33902,33918,33935,33952,33969,33985,34002,34019,34035,34052,34069,34085,34102,34119,34135,34152,34169,34185,34202,34219,34235,34252,34268,34285,34302,34318,34335,34352,34369,34385,34402,34418,34435,34452,34469,34486,34502,34519,34535,34552,34569,34585,34602,34619,34635,34652,34668,34685,34702,34718,34735,34752,34768,34786,34802,34818,34835,34852,34868,34885,34902,34918,34935,34952,34969,34985,35002,35019,35036,35052,35069,35085,35102,35118,35135,35152,35169,35185,35202,35219,35235,35252,35269,35286,35302,35319,35335,35352,35369,35385,35402,35419,35436,35452,35468,35485,35502,35519,35535,35552,35569,35585,35602,35618,35635,35652,35669,35685,35702,35719,35735,35752,35768,35785,35802,35819,35835,35852,35868,35885,35902,35919,35935,35951,35968,35986,36002,36018,36035,36052,36069,36085,36101,36119,36135,36152,36168,36185,36202,36219,36235,36252,36269,36285,36301,36319,36335,36351,36369,36385,36402,36419,36435,36452,36468,36485,36502,36518,36535,36551,36568,36585,36602,36619,36635,36652,36669,36685,36702,36718,36735,36751,36768,36785,36802,36818,36835,36851,36868,36885,36901,36918,36935,36952,36968,36985,37002,37018,37035,37052,37069,37085,37102,37118,37135,37151,37168,37185,37202,37218,37235,37251,37269,37285,37301,37318,37335,37352,37368,37385,37401,37418,37435,37451,37468,37485,37501,37518,37535,37552,37568,37585,37601,37618,37635,37651,37668,37685,37701,37718,37735,37751,37768,37785,37801,37818,37834,37852,37868,37885,37902,37918,37935,37951,37968,37985,38001,38018,38035,38052,38068,38085,38102,38118,38135,38152,38168,38185,38201,38218,38235,38251,38268,38285,38301,38318,38334,38352,38368,38385,38401,38418,38435,38452,38468,38485,38501,38518,38535,38552,38569,38585,38602,38618,38635,38651,38668,38685,38702,38718,38735,38752,38768,38785,38802,38819,38835,38852,38868,38885,38901,38918,38935,38952,38968,38984,39001,39018,39035,39052,39068,39085,39101,39118,39135,39152,39168,39185,39201,39218,39235,39252,39269,39285,39302,39319,39336,39352,39368,39386,39402,39419,39435,39452,39468,39485,39502,39518,39535,39551,39568,39585,39601,39619,39635,39652,39668,39685,39701,39718,39735,39751,39768,39785,39802,39818,39835,39852,39869,39885,39902,39918,39935,39951,39969,39985,40002,40018,40035,40052,40069,40085,40102,40118,40135,40151,40168,40185,40201,40218,40234,40251,40268,40284,40302,40318,40335,40352,40368,40385,40401,40418,40435,40451,40468,40485,40502,40518,40535,40551,40568,40584,40601,40618,40634,40651,40670,40684,40701,40718,40735,40752,40768,40785,40801,40818,40835,40851,40868,40885,40901,40918,40935,40951,40968,40984,41001,41018,41034,41051,41068,41084,41101,41118,41135,41151,41168,41184,41201,41218,41234,41251,41268,41284,41301,41318,41335,41351,41368,41384,41401,41417,41435,41451,41467,41485,41501,41518,41535,41551,41567,41585,41601,41617,41635,41651,41668,41684,41701,41718,41734,41751,41768,41784,41801,41817,41834,41851,41867,41884,41901,41917,41934,41951,41968,41984,42002,42018,42036,42051,42068,42085,42101,42118,42134,42151,42168,42185,42201,42217,42234,42251,42268,42285,42301,42317,42335,42351,42368,42384,42401,42418,42434,42451,42468,42484,42501,42518,42534,42551,42567,42584,42601,42618,42635,42651,42668,42684,42701,42717,42734,42751,42768,42784,42801,42817,42834,42851,42868,42884,42901,42917,42934,42951,42967,42984,43002,43018,43034,43051,43068,43085,43101,43118,43134,43151,43168,43184,43201,43218,43235,43252,43268,43284,43301,43318,43335,43352,43368,43384,43401,43418,43434,43452,43468,43485,43501,43518,43535,43551,43568,43585,43601,43618,43634,43651,43668,43685,43701,43718,43735,43751,43768,43785,43801,43818,43835,43851,43868,43885,43901,43918,43935,43951,43968,43984,44001,44018,44034,44051,44068,44084,44101,44118,44135,44151,44168,44184,44201,44218,44234,44251,44268,44285,44301,44317,44334,44351,44367,44384,44401,44418,44434,44451,44467,44484,44501,44517,44534,44550,44567,44584,44601,44617,44634,44651,44668,44684,44701,44719,44734,44751,44767,44784,44800,44818,44834,44851,44867,44884,44900,44917,44934,44951,44967,44984,45000,45017,45034,45051,45068,45084,45100,45117,45134,45150,45167,45184,45201,45218,45234,45251,45267,45284,45301,45317,45334,45350,45367,45384,45401,45417,45434,45451,45467,45484,45500,45518,45534,45550,45567,45584,45601,45617,45634,45650,45667,45684,45701,45717,45734,45750,45767,45783,45800,45817,45834,45851,45867,45884,45900,45917,45934,45950,45967,45983,46000,46017,46034,46050,46067,46083,46102,46117,46134,46150,46167,46184,46201,46217,46234,46250,46267,46284,46301,46317,46334,46351,46367,46384,46402,46418,46434,46451,46467,46484,46501,46517,46534,46551,46567,46584,46600,46617,46634,46651,46667,46684,46701,46717,46734,46751,46767,46783,46800,46817,46834,46851,46867,46884,46900,46917,46934,46951,46967,46984,47000,47017,47034,47051,47067,47084,47100,47117,47134,47150,47167,47184,47200,47217,47233,47250,47267,47284,47301,47317,47334,47351,47367,47384,47401,47417,47434,47450,47468,47484,47500,47517,47534,47551,47567,47584,47600,47617,47634,47650,47667,47684,47701,47717,47734,47751,47767,47784,47800,47817,47834,47850,47867,47884,47901,47917,47934,47950,47967,47984,48001,48017,48034,48051,48068,48084,48100,48117,48134,48151,48167,48184,48201,48217,48234,48251,48267,48283,48301,48317,48334,48350,48367,48384,48401,48417,48434,48450,48467,48484,48501,48517,48533,48550,48567,48583,48600,48618,48634,48650,48667,48684,48700,48717,48734,48751,48767,48784,48800,48817,48833,48850,48867,48883,48900,48917,48933,48950,48967,48984,49000,49017,49033,49050,49067,49084,49100,49117,49133,49150,49167,49183,49200,49217,49234,49250,49267,49284,49300,49317,49334,49350,49367,49384,49400,49417,49434,49450,49467,49484,49500,49517,49534,49550,49567,49584,49600,49617,49634,49650,49667,49684,49700,49716,49733,49750,49767,49784,49800,49817,49834,49850,49867,49884,49900,49916,49933,49950,49967,49983,50000,50017,50033,50050,50067,50083,50100,50117,50133,50150,50167,50183,50200,50217,50233,50250,50267,50283,50300,50317,50333,50350,50366,50383,50400,50416,50433,50450,50466,50483,50500,50517,50533,50550,50566,50583,50600,50616,50633,50650,50667,50683,50700,50717,50733,50753,50767,50784,50800,50817,50834,50851,50867,50884,50900,50917,50934,50950,50968,50983,51000,51017,51033,51050,51067,51083,51100,51117,51134,51150,51167,51184,51200,51217,51233,51250,51267,51284,51300,51317,51334,51350,51367,51383,51400,51417,51433,51450,51467,51483,51500,51517,51533,51550,51567,51583,51600,51617,51633,51650,51667,51683,51700,51717,51733,51750,51767,51783,51800,51817,51833,51850,51866,51883,51900,51917,51933,51950,51967,51984,52000,52017,52033,52050,52067,52083,52100,52117,52134,52150,52167,52184,52200,52217,52233,52250,52267,52283,52300,52317,52333,52350,52367,52383,52400,52417,52434,52450,52467,52483,52500,52516,52533,52550,52566,52583,52600,52617,52633,52650,52667,52683,52700,52717,52733,52750,52767,52783,52800,52819,52833,52850,52867,52884,52900,52917,52933,52950,52967,52983,53000,53017,53033,53050,53067,53083,53100,53117,53133,53150,53167,53183,53200,53217,53233,53250,53268,53283,53300,53316,53333,53350,53366,53383,53400,53416,53433,53450,53467,53483,53500,53516,53533,53550,53566,53583,53600,53616,53633,53650,53666,53683,53700,53716,53733,53750,53766,53783,53800,53816,53834,53850,53866,53883,53900,53916,53933,53950,53966,53983,54000,54016,54033,54050,54066,54083,54100,54116,54133,54150,54166,54183,54200,54217,54233,54250,54266,54283,54300,54317,54333,54350,54366,54383,54400,54416,54433,54450,54466,54483,54500,54516,54533,54550,54566,54583,54600,54616,54633,54650,54666,54683,54700,54716,54733,54750,54766,54784,54800,54816,54833,54850,54867,54883,54900,54917,54933,54950,54967,54983,55000,55016,55033,55050,55066,55083,55100,55116,55133,55150,55166,55183,55200,55216,55233,55250,55267,55283,55300,55316,55333,55350,55366,55385,55399,55417,55433,55450,55467,55483,55500,55516,55533,55550,55567,55583,55600,55617,55633,55650,55667,55683,55700,55716,55734,55750,55767,55783,55800,55817,55833,55850,55866,55883,55900,55916,55933,55950,55966,55983,55999,56016,56033,56050,56066,56083,56100,56117,56133,56150,56166,56184,56200,56217,56233,56250,56266,56283,56299,56316,56333,56350,56366,56383,56399,56416,56433,56450,56466,56483,56500,56517,56533,56549,56566,56584,56600,56616,56633,56649,56666,56683,56700,56716,56733,56750,56766,56783,56799,56816,56833,56850,56866,56883,56899,56916,56933,56950,56966,56983,57000,57016,57033,57049,57066,57083,57099,57116,57133,57150,57167,57183,57199,57216,57233,57249,57266,57283,57300,57316,57333,57350,57366,57383,57399,57416,57433,57449,57466,57483,57500,57516,57533,57550,57566,57583,57599,57616,57633,57649,57666,57683,57700,57716,57733,57749,57766,57783,57799,57816,57833,57850,57866,57883,57900,57916,57933,57949,57966,57983,57999,58016,58033,58049,58066,58083,58099,58116,58133,58149,58166,58183,58199,58216,58233,58249,58266,58282,58299,58316,58333,58349,58366,58383,58399,58416,58433,58449,58466,58483,58499,58516,58532,58549,58566,58583,58599,58616,58633,58649,58666,58683,58700,58716,58732,58749,58766,58783,58799,58816,58833,58850,58866,58883,58899,58916,58932,58949,58966,58983,58999,59016,59033,59049,59066,59083,59099,59116,59133,59150,59166,59183,59199,59216,59233,59249,59266,59283,59300,59316,59332,59349,59366,59383,59399,59416,59433,59449,59466,59483,59499,59516,59533,59549,59566,59583,59599,59616,59633,59649,59666,59682,59699,59716,59733,59749,59766,59782,59800,59816,59833,59849,59866,59883,59899,59916,59933,59949,59966,59983,60000,60016,60033,60049,60066,60082,60099,60116,60132,60149,60166,60183,60199,60216,60233,60249,60266,60282,60299,60316,60332,60349,60366,60383,60400,60418,60432,60449,60466,60482,60499,60516,60533,60549,60566,60582,60599,60616,60633,60649,60666,60682,60699,60716,60732,60749,60766,60783,60799,60815,60832,60849,60866,60882,60899,60916,60932,60949,60966,60983,60999,61016,61032,61050,61066,61082,61099,61116,61132,61149,61166,61183,61199,61216,61232,61249,61265,61282,61299,61316,61332,61349,61366,61382,61399,61416,61432,61449,61466,61483,61499,61515,61532,61549,61566,61582,61599,61616,61632,61649,61665,61682,61699,61716,61733,61749,61765,61782,61799,61816,61832,61849,61866,61882,61899,61916,61932,61949,61966,61982,61999,62016,62032,62049,62066,62082,62099,62116,62132,62149,62165,62182,62199,62215,62232,62249,62266,62282,62299,62315,62332,62349,62366,62382,62399,62416,62433,62449,62466,62482,62499,62516,62532,62549,62565,62582,62599,62616,62632,62649,62665,62682,62699,62715,62732,62749,62766,62783,62799,62816,62832,62851,62866,62883,62899,62916,62933,62949,62966,62983,62999,63016,63034,63049,63066,63082,63099,63115,63132,63149,63165,63182,63199,63216,63232,63249,63265,63282,63299,63315,63332,63349,63365,63382,63399,63416,63432,63449,63465,63482,63499,63515,63532,63549,63565,63582,63599,63615,63632,63649,63665,63682,63699,63715,63732,63749,63765,63782,63799,63815,63832,63849,63865,63882,63899,63915,63932,63949,63966,63982,63999,64015,64032,64049,64065,64082,64099,64115,64132,64149,64165,64182,64199,64215,64232,64249,64265,64282,64298,64315,64332,64349,64365,64383,64399,64415,64432,64449,64465,64482,64499,64515,64532,64548,64565,64582,64599,64615,64632,64649,64666,64682,64699,64715,64732,64749,64766,64782,64799,64815,64832,64850],"hit":[null],"x":[-1.3333333333333333,-1.3333333333333333,-1.3333333333333333,-1.3333333333333333,-1.3333333333333333,-1.3333333333333333,-1.3333333333333333,-1.3333333333333333,-1.3333333333333333,-1.3333333333333333,-1.3333333333333333,-1.3333333333333333,-1.3333333333333333,-1.3333333333333333,-1.3333333333333333,-1.3333333333333333,-1.3333333333333333,-1.3333333333333333,-1.3333333333333333,-1.3333333333333333,-1.3333333333333333,-1.3333333333333333,-1.3333333333333333,-1.3333333333333333,-1.3333333333333333,-1.3333333333333333,-1.3333333333333333,-1.3333333333333333,-1.3333333333333333,-1.3333333333333333,-1.3333333333333333,-1.3333333333333333,-1.3333333333333333,-0.935374149659864,-0.9285714285714286,-0.9251700680272109,-0.9183673469387755,-0.9081632653061225,-0.9013605442176871,-0.8843537414965986,-0.8605442176870748,-0.826530612244898,-0.8095238095238095,-0.7789115646258503,-0.7517006802721088,-0.7142857142857143,-0.673469387755102,-0.6428571428571429,-0.6020408163265306,-0.5782312925170068,-0.5544217687074829,-0.5272108843537415,-0.4931972789115646,-0.42517006802721086,-0.391156462585034,-0.3401360544217687,-0.29591836734693877,-0.24829931972789115,-0.1836734693877551,-0.11904761904761904,-0.07482993197278912,-0.030612244897959183,0,0.01020408163265306,0.013605442176870748,0.013605442176870748,0.013605442176870748,0.013605442176870748,0.013605442176870748,0.013605442176870748,0.013605442176870748,0.013605442176870748,0.013605442176870748,0.013605442176870748,0.013605442176870748,0.013605442176870748,0.013605442176870748,0.013605442176870748,0.013605442176870748,0.013605442176870748,0.013605442176870748,0.013605442176870748,0.013605442176870748,0.013605442176870748,0.013605442176870748,0.013605442176870748,0.013605442176870748,0.013605442176870748,0.013605442176870748,0.013605442176870748,0.013605442176870748,0.013605442176870748,0.013605442176870748,0.013605442176870748,0.013605442176870748,0.013605442176870748,0.013605442176870748,0.013605442176870748,0.013605442176870748,0.013605442176870748,0.013605442176870748,0.013605442176870748,0.013605442176870748,0.013605442176870748,0.013605442176870748,0.013605442176870748,0.013605442176870748,0.013605442176870748,0.013605442176870748,0.013605442176870748,0.013605442176870748,0.013605442176870748,0.013605442176870748,0.013605442176870748,0.013605442176870748,0.013605442176870748,0.013605442176870748,0.013605442176870748,0.013605442176870748,0.013605442176870748,0.013605442176870748,0.013605442176870748,0.013605442176870748,0.013605442176870748,0.013605442176870748,0.013605442176870748,0.013605442176870748,0.013605442176870748,0.013605442176870748,0.013605442176870748,0.013605442176870748,0.013605442176870748,0.013605442176870748,0.02040816326530612,0.04421768707482993,0.07142857142857142,0.09183673469387756,0.1054421768707483,0.11224489795918367,0.11904761904761904,0.1326530612244898,0.14285714285714285,0.16326530612244897,0.18027210884353742,0.21428571428571427,0.25510204081632654,0.282312925170068,0.30272108843537415,0.30952380952380953,0.3231292517006803,0.3231292517006803,0.3231292517006803,0.3231292517006803,0.3231292517006803,0.3231292517006803,0.32653061224489793,0.3299319727891156,0.336734693877551,0.3435374149659864,0.3469387755102041,0.3469387755102041,0.3469387755102041,0.3469387755102041,0.3469387755102041,0.3469387755102041,0.35034013605442177,0.35034013605442177,0.35034013605442177,0.35034013605442177,0.35034013605442177,0.35034013605442177,0.35374149659863946,0.36054421768707484,0.36394557823129253,0.3707482993197279,0.37755102040816324,0.38095238095238093,0.3843537414965986,0.3877551020408163,0.391156462585034,0.391156462585034,0.3945578231292517,0.3945578231292517,0.3979591836734694,0.3979591836734694,0.4013605442176871,0.4013605442176871,0.40476190476190477,0.40476190476190477,0.40476190476190477,0.40476190476190477,0.40476190476190477,0.40476190476190477,0.40476190476190477,0.40476190476190477,0.40476190476190477,0.40476190476190477,0.40476190476190477,0.40476190476190477,0.40476190476190477,0.40476190476190477,0.40476190476190477,0.40476190476190477,0.40476190476190477,0.40476190476190477,0.40476190476190477,0.40476190476190477,0.40476190476190477,0.40476190476190477,0.40476190476190477,0.40476190476190477,0.40476190476190477,0.40476190476190477,0.40476190476190477,0.40476190476190477,0.4013605442176871,0.4013605442176871,0.4013605442176871,0.4013605442176871,0.3979591836734694,0.3979591836734694,0.3979591836734694,0.3979591836734694,0.3979591836734694,0.3979591836734694,0.3979591836734694,0.3979591836734694,0.3979591836734694,0.3979591836734694,0.3979591836734694,0.3979591836734694,0.3979591836734694,0.3979591836734694,0.3979591836734694,0.3979591836734694,0.3979591836734694,0.3979591836734694,0.3979591836734694,0.3979591836734694,0.3979591836734694,0.3979591836734694,0.3979591836734694,0.3979591836734694,0.3979591836734694,0.3979591836734694,0.3979591836734694,0.3979591836734694,0.3979591836734694,0.3979591836734694,0.3979591836734694,0.3979591836734694,0.3979591836734694,0.3979591836734694,0.3979591836734694,0.3979591836734694,0.3979591836734694,0.3979591836734694,0.3979591836734694,0.3979591836734694,0.3979591836734694,0.4013605442176871,0.4013605442176871,0.4013605442176871,0.4013605442176871,0.4013605442176871,0.40476190476190477,0.40476190476190477,0.40476190476190477,0.40476190476190477,0.40816326530612246,0.41156462585034015,0.41156462585034015,0.41156462585034015,0.41156462585034015,0.41156462585034015,0.41156462585034015,0.41156462585034015,0.41156462585034015,0.41156462585034015,0.41156462585034015,0.41156462585034015,0.41156462585034015,0.41156462585034015,0.41156462585034015,0.41156462585034015,0.41156462585034015,0.41156462585034015,0.41156462585034015,0.41156462585034015,0.41156462585034015,0.41156462585034015,0.41156462585034015,0.41156462585034015,0.41156462585034015,0.41156462585034015,0.41156462585034015,0.41156462585034015,0.41156462585034015,0.41156462585034015,0.41156462585034015,0.41156462585034015,0.41156462585034015,0.41156462585034015,0.41156462585034015,0.41156462585034015,0.41156462585034015,0.41156462585034015,0.41156462585034015,0.41156462585034015,0.41156462585034015,0.41156462585034015,0.41156462585034015,0.41156462585034015,0.41156462585034015,0.41156462585034015,0.41156462585034015,0.41156462585034015,0.41156462585034015,0.41156462585034015,0.41156462585034015,0.41156462585034015,0.41156462585034015,0.41156462585034015,0.41156462585034015,0.41156462585034015,0.41156462585034015,0.41156462585034015,0.41156462585034015,0.41156462585034015,0.41156462585034015,0.41156462585034015,0.41156462585034015,0.41156462585034015,0.41156462585034015,0.41156462585034015,0.41156462585034015,0.41156462585034015,0.41156462585034015,0.41156462585034015,0.41156462585034015,0.41156462585034015,0.41156462585034015,0.41156462585034015,0.41156462585034015,0.41156462585034015,0.41156462585034015,0.41156462585034015,0.41156462585034015,0.41156462585034015,0.41156462585034015,0.41156462585034015,0.41156462585034015,0.41156462585034015,0.41156462585034015,0.41156462585034015,0.41156462585034015,0.41156462585034015,0.41156462585034015,0.41156462585034015,0.41156462585034015,0.41156462585034015,0.41156462585034015,0.41156462585034015,0.41156462585034015,0.41156462585034015,0.41156462585034015,0.41156462585034015,0.41156462585034015,0.41156462585034015,0.41156462585034015,0.41156462585034015,0.41156462585034015,0.41156462585034015,0.41156462585034015,0.41156462585034015,0.41156462585034015,0.41156462585034015,0.41156462585034015,0.41156462585034015,0.41156462585034015,0.41156462585034015,0.41156462585034015,0.41156462585034015,0.41156462585034015,0.41156462585034015,0.41156462585034015,0.41156462585034015,0.41156462585034015,0.41156462585034015,0.41156462585034015,0.41156462585034015,0.41156462585034015,0.41156462585034015,0.41156462585034015,0.41156462585034015,0.41156462585034015,0.41156462585034015,0.41156462585034015,0.41156462585034015,0.41156462585034015,0.41156462585034015,0.41156462585034015,0.41156462585034015,0.41156462585034015,0.41156462585034015,0.41156462585034015,0.41156462585034015,0.41156462585034015,0.41156462585034015,0.41156462585034015,0.41156462585034015,0.41156462585034015,0.41156462585034015,0.41156462585034015,0.41156462585034015,0.41156462585034015,0.41156462585034015,0.41156462585034015,0.41156462585034015,0.41156462585034015,0.41156462585034015,0.41156462585034015,0.41156462585034015,0.41156462585034015,0.41156462585034015,0.41156462585034015,0.41156462585034015,0.41156462585034015,0.41156462585034015,0.41156462585034015,0.41156462585034015,0.41156462585034015,0.41156462585034015,0.41156462585034015,0.41156462585034015,0.41156462585034015,0.41156462585034015,0.41156462585034015,0.41156462585034015,0.41156462585034015,0.41156462585034015,0.41156462585034015,0.41156462585034015,0.41156462585034015,0.41156462585034015,0.41156462585034015,0.41156462585034015,0.41156462585034015,0.41156462585034015,0.41156462585034015,0.41156462585034015,0.41156462585034015,0.41156462585034015,0.41156462585034015,0.41156462585034015,0.41156462585034015,0.41156462585034015,0.41156462585034015,0.41156462585034015,0.41156462585034015,0.41156462585034015,0.41156462585034015,0.41156462585034015,0.41156462585034015,0.41156462585034015,0.41156462585034015,0.41156462585034015,0.41156462585034015,0.41156462585034015,0.41156462585034015,0.41156462585034015,0.41156462585034015,0.41156462585034015,0.41156462585034015,0.41156462585034015,0.41156462585034015,0.41156462585034015,0.41156462585034015,0.41156462585034015,0.41156462585034015,0.41156462585034015,0.41156462585034015,0.41156462585034015,0.41156462585034015,0.41156462585034015,0.41156462585034015,0.41156462585034015,0.41156462585034015,0.41156462585034015,0.41156462585034015,0.41156462585034015,0.41156462585034015,0.41156462585034015,0.41156462585034015,0.41156462585034015,0.41156462585034015,0.41156462585034015,0.41156462585034015,0.41156462585034015,0.41156462585034015,0.41156462585034015,0.41156462585034015,0.41156462585034015,0.41156462585034015,0.41156462585034015,0.41156462585034015,0.41156462585034015,0.41156462585034015,0.41156462585034015,0.41156462585034015,0.41156462585034015,0.41156462585034015,0.41156462585034015,0.3432153714757387,0.36702489528526255,0.37382761637369794,0.3976371401832217,0.4112425823600925,0.42484802453696324,0.4316507456253986,0.43505210616961626,0.44185482725805164,0.4520589088907047,0.4622629905233578,0.4656643510675755,0.47926979324444624,0.4826711537886639,0.48607251433288157,0.49287523542131695,0.49627659596553464,0.49967795650975233,0.49967795650975233,0.49967795650975233,0.50307931705397,0.50307931705397,0.50307931705397,0.50307931705397,0.5132833986866231,0.5132833986866231,0.5166847592308408,0.5234874803192762,0.5234874803192762,0.5234874803192762,0.5302902014077115,0.5336915619519292,0.5336915619519292,0.5336915619519292,0.5404942830403646,0.5404942830403646,0.5404942830403646,0.5404942830403646,0.5472970041288,0.5472970041288,0.5472970041288,0.5472970041288,0.5472970041288,0.5472970041288,0.5472970041288,0.5472970041288,0.5472970041288,0.5472970041288,0.5472970041288,0.5472970041288,0.5472970041288,0.5472970041288,0.5472970041288,0.5472970041288,0.5472970041288,0.5472970041288,0.5472970041288,0.5472970041288,0.5472970041288,0.5472970041288,0.5472970041288,0.5472970041288,0.5472970041288,0.5472970041288,0.5472970041288,0.5472970041288,0.5472970041288,0.5472970041288,0.5472970041288,0.5472970041288,0.5472970041288,0.5472970041288,0.5472970041288,0.5472970041288,0.5472970041288,0.5472970041288,0.5472970041288,0.5472970041288,0.5472970041288,0.5472970041288,0.5472970041288,0.5472970041288,0.5472970041288,0.5472970041288,0.5472970041288,0.5472970041288,0.5472970041288,0.5472970041288,0.5472970041288,0.5472970041288,0.5472970041288,0.5472970041288,0.5472970041288,0.5472970041288,0.5472970041288,0.5472970041288,0.5472970041288,0.5472970041288,0.5472970041288,0.5472970041288,0.5472970041288,0.5472970041288,0.5472970041288,0.5472970041288,0.5472970041288,0.5472970041288,0.5472970041288,0.5472970041288,0.5472970041288,0.5472970041288,0.5472970041288,0.5472970041288,0.5472970041288,0.5472970041288,0.5472970041288,0.5472970041288,0.5472970041288,0.5472970041288,0.5472970041288,0.5472970041288,0.5472970041288,0.5472970041288,0.5472970041288,0.5472970041288,0.5472970041288,0.5472970041288,0.5472970041288,0.5472970041288,0.5472970041288,0.5472970041288,0.5472970041288,0.5472970041288,0.5472970041288,0.5472970041288,0.5472970041288,0.5472970041288,0.5472970041288,0.5472970041288,0.5472970041288,0.5472970041288,0.5472970041288,0.5472970041288,0.5472970041288,0.5472970041288,0.5472970041288,0.5472970041288,0.5472970041288,0.5472970041288,0.5472970041288,0.5472970041288,0.5472970041288,0.5472970041288,0.5472970041288,0.5472970041288,0.5472970041288,0.5472970041288,0.5472970041288,0.5472970041288,0.5472970041288,0.5472970041288,0.5472970041288,0.5472970041288,0.5472970041288,0.5472970041288,0.5472970041288,0.5472970041288,0.5472970041288,0.5472970041288,0.5472970041288,0.5472970041288,0.5472970041288,0.5472970041288,0.5472970041288,0.5472970041288,0.5472970041288,0.5472970041288,0.5472970041288,0.5472970041288,0.5438956435845823,0.5234874803192762,0.5064806775981877,0.48947387487709926,0.47926979324444624,0.4656643510675755,0.4520589088907047,0.43845346671383395,0.42144666399274555,0.4112425823600925,0.4010385007274394,0.39083441909478633,0.38403169800635095,0.3772289769179156,0.37382761637369794,0.37042625582948024,0.37042625582948024,0.37042625582948024,0.36702489528526255,0.36702489528526255,0.36702489528526255,0.36702489528526255,0.36702489528526255,0.36362353474104486,0.36362353474104486,0.36362353474104486,0.36362353474104486,0.3568208136526095,0.3568208136526095,0.3534194531083918,0.3466167320199564,0.33641265038730334,0.32280720821043263,0.30920176603356186,0.2989976844009088,0.2955963238566911,0.2887936027682557,0.2819908816798204,0.2819908816798204,0.2785895211356027,0.2785895211356027,0.2785895211356027,0.275188160591385,0.2717868000471673,0.2717868000471673,0.2717868000471673,0.2717868000471673,0.2717868000471673,0.2717868000471673,0.2717868000471673,0.2717868000471673,0.2717868000471673,0.2717868000471673,0.2717868000471673,0.2717868000471673,0.2717868000471673,0.2717868000471673,0.2717868000471673,0.2717868000471673,0.2717868000471673,0.2717868000471673,0.2717868000471673,0.2717868000471673,0.2717868000471673,0.2717868000471673,0.2717868000471673,0.2717868000471673,0.2717868000471673,0.2717868000471673,0.2717868000471673,0.2717868000471673,0.2717868000471673,0.2717868000471673,0.2717868000471673,0.2717868000471673,0.2717868000471673,0.2717868000471673,0.2717868000471673,0.2717868000471673,0.2717868000471673,0.2717868000471673,0.2717868000471673,0.2717868000471673,0.2717868000471673,0.2717868000471673,0.2717868000471673,0.2717868000471673,0.2717868000471673,0.2717868000471673,0.2717868000471673,0.2717868000471673,0.2717868000471673,0.2717868000471673,0.2717868000471673,0.2717868000471673,0.2717868000471673,0.2717868000471673,0.2717868000471673,0.2717868000471673,0.2717868000471673,0.2717868000471673,0.2717868000471673,0.2717868000471673,0.2717868000471673,0.2717868000471673,0.2717868000471673,0.2717868000471673,0.2717868000471673,0.2717868000471673,0.2717868000471673,0.2717868000471673,0.2717868000471673,0.2717868000471673,0.2717868000471673,0.2717868000471673,0.2717868000471673,0.2717868000471673,0.2717868000471673,0.2717868000471673,0.2717868000471673,0.2717868000471673,0.2717868000471673,0.2717868000471673,0.2717868000471673,0.2717868000471673,0.2717868000471673,0.2717868000471673,0.2717868000471673,0.2717868000471673,0.2717868000471673,0.2717868000471673,0.26838543950294963,0.26838543950294963,0.26838543950294963,0.26838543950294963,0.26838543950294963,0.26838543950294963,0.2785895211356027,0.28539224222403803,0.2887936027682557,0.2887936027682557,0.2921949633124734,0.2921949633124734,0.2921949633124734,0.2921949633124734,0.2955963238566911,0.2989976844009088,0.2989976844009088,0.2989976844009088,0.2989976844009088,0.2989976844009088,0.3023990449451265,0.3023990449451265,0.3058004054893442,0.3058004054893442,0.3058004054893442,0.3058004054893442,0.3058004054893442,0.3058004054893442,0.3058004054893442,0.3058004054893442,0.3058004054893442,0.3058004054893442,0.3058004054893442,0.3023990449451265,0.3023990449451265,0.3023990449451265,0.2989976844009088,0.2989976844009088,0.2955963238566911,0.2955963238566911,0.2921949633124734,0.2921949633124734,0.2887936027682557,0.2887936027682557,0.28539224222403803,0.275188160591385,0.25477999732607887,0.22756911297233737,0.20716094970703125,0.16974598372063668,0.1425350993668952,0.10852149392471833,0.07450788848254146,0.0609024463056707,0.040494283040364586,0.026888840863493836,0.02348748031927615,0.02348748031927615,0.02348748031927615,0.02348748031927615,0.02348748031927615,0.02348748031927615,0.02348748031927615,0.02348748031927615,0.02348748031927615,0.02348748031927615,0.02348748031927615,0.02348748031927615,0.02348748031927615,0.02348748031927615,0.02348748031927615,0.02348748031927615,0.02348748031927615,0.02348748031927615,0.02348748031927615,0.026888840863493836,0.026888840863493836,0.026888840863493836,0.026888840863493836,0.026888840863493836,0.026888840863493836,0.026888840863493836,0.026888840863493836,0.03369156195192921,0.04729700412879996,0.06430380684988839,0.07110652793832377,0.08471197011519452,0.08811333065941221,0.09151469120362989,0.10171877283628294,0.10171877283628294,0.10852149392471833,0.10852149392471833,0.1153242150131537,0.12212693610158908,0.12552829664580675,0.12552829664580675,0.12892965719002444,0.13233101773424213,0.13233101773424213,0.13913373882267752,0.13913373882267752,0.13913373882267752,0.13913373882267752,0.13913373882267752,0.13913373882267752,0.13913373882267752,0.13913373882267752,0.13913373882267752,0.13913373882267752,0.13913373882267752,0.13913373882267752,0.13913373882267752,0.13913373882267752,0.13913373882267752,0.13913373882267752,0.13913373882267752,0.13913373882267752,0.13913373882267752,0.13913373882267752,0.13913373882267752,0.13913373882267752,0.13913373882267752,0.13913373882267752,0.13913373882267752,0.13913373882267752,0.13913373882267752,0.13913373882267752,0.13913373882267752,0.13913373882267752,0.13913373882267752,0.13913373882267752,0.13913373882267752,0.13913373882267752,0.1425350993668952,0.1425350993668952,0.1425350993668952,0.1425350993668952,0.1425350993668952,0.1425350993668952,0.1425350993668952,0.1425350993668952,0.1425350993668952,0.1425350993668952,0.1425350993668952,0.1425350993668952,0.1425350993668952,0.1425350993668952,0.1425350993668952,0.1425350993668952,0.1425350993668952,0.1425350993668952,0.1425350993668952,0.1425350993668952,0.1425350993668952,0.1425350993668952,0.1425350993668952,0.1425350993668952,0.1425350993668952,0.1425350993668952,0.1425350993668952,0.1425350993668952,0.1425350993668952,0.1425350993668952,0.1425350993668952,0.1425350993668952,0.13913373882267752,0.04729700412879996,-0.041138370020859905,-0.0989614992725606,-0.18059415233378506,-0.22141047886439733,-0.23161456049705037,-0.23501592104126806,-0.2282131999528327,-0.22481183940861502,-0.22141047886439733,-0.22141047886439733,-0.22141047886439733,-0.22141047886439733,-0.22141047886439733,-0.22141047886439733,-0.22141047886439733,-0.22141047886439733,-0.22141047886439733,-0.22141047886439733,-0.22141047886439733,-0.22141047886439733,-0.22141047886439733,-0.22141047886439733,-0.22141047886439733,-0.22141047886439733,-0.22141047886439733,-0.2656281659392273,-0.34385945845623406,-0.34385945845623406,-0.34385945845623406,-0.34385945845623406,-0.34385945845623406,-0.34385945845623406,-0.34385945845623406,-0.34385945845623406,-0.34385945845623406,-0.34385945845623406,-0.34385945845623406,-0.34385945845623406,-0.34385945845623406,-0.34385945845623406,-0.34385945845623406,-0.49692068294603,-0.4629070775038531,-0.4322948326058939,-0.4254921115174585,-0.4254921115174585,-0.4254921115174585,-0.4254921115174585,-0.4254921115174585,-0.4254921115174585,-0.4254921115174585,-0.4254921115174585,-0.4254921115174585,-0.4254921115174585,-0.4254921115174585,-0.4254921115174585,-0.4254921115174585,-0.4254921115174585,-0.4254921115174585,-0.4254921115174585,-0.4254921115174585,-0.4254921115174585,-0.4254921115174585,-0.4254921115174585,-0.4254921115174585,-0.4254921115174585,-0.4254921115174585,-0.4254921115174585,-0.4254921115174585,-0.4254921115174585,-0.4254921115174585,-0.4254921115174585,-0.4254921115174585,-0.4254921115174585,-0.4254921115174585,-0.4254921115174585,-0.4254921115174585,-0.4254921115174585,-0.4254921115174585,-0.4254921115174585,-0.4254921115174585,-0.4254921115174585,-0.4254921115174585,-0.4254921115174585,-0.4254921115174585,-0.4254921115174585,-0.4254921115174585,-0.4254921115174585,-0.4254921115174585,-0.4254921115174585,-0.4254921115174585,-0.4254921115174585,-0.4254921115174585,-0.4254921115174585,-0.4254921115174585,-0.4254921115174585,-0.4254921115174585,-0.4254921115174585,-0.4254921115174585,-0.4254921115174585,-0.4254921115174585,-0.4254921115174585,-0.4254921115174585,-0.4254921115174585,-0.4254921115174585,-0.4254921115174585,-0.4254921115174585,-0.4254921115174585,-0.4254921115174585,-0.4254921115174585,-0.4254921115174585,-0.4254921115174585,-0.4254921115174585,-0.4254921115174585,-0.4254921115174585,-0.4254921115174585,-0.4254921115174585,-0.4254921115174585,-0.4254921115174585,-0.4254921115174585,-0.4254921115174585,-0.4254921115174585,-0.4254921115174585,-0.4254921115174585,-0.4254921115174585,-0.4254921115174585,-0.4254921115174585,-0.4254921115174585,-0.4254921115174585,-0.4254921115174585,-0.4254921115174585,-0.4254921115174585,-0.4254921115174585,-0.4254921115174585,-0.4254921115174585,-0.4254921115174585,-0.4254921115174585,-0.4254921115174585,-0.4254921115174585,-0.4254921115174585,-0.4254921115174585,-0.4254921115174585,-0.4254921115174585,-0.4254921115174585,-0.4254921115174585,-0.4254921115174585,-0.4254921115174585,-0.4254921115174585,-0.4254921115174585,-0.4254921115174585,-0.4254921115174585,-0.4254921115174585,-0.4254921115174585,-0.4254921115174585,-0.4254921115174585,-0.4254921115174585,-0.4254921115174585,-0.4254921115174585,-0.4254921115174585,-0.4254921115174585,-0.4254921115174585,-0.4254921115174585,-0.4254921115174585,-0.4254921115174585,-0.4254921115174585,-0.4254921115174585,-0.4254921115174585,-0.4254921115174585,-0.4254921115174585,-0.4254921115174585,-0.4254921115174585,-0.4254921115174585,-0.4254921115174585,-0.4254921115174585,-0.4254921115174585,-0.4254921115174585,-0.4254921115174585,-0.4254921115174585,-0.4254921115174585,-0.4254921115174585,-0.4254921115174585,-0.4254921115174585,-0.4254921115174585,-0.4254921115174585,-0.4254921115174585,-0.4254921115174585,-0.4254921115174585,-0.4254921115174585,-0.4254921115174585,-0.4254921115174585,-0.4254921115174585,-0.4254921115174585,-0.4254921115174585,-0.4254921115174585,-0.4254921115174585,-0.4254921115174585,-0.4254921115174585,-0.4254921115174585,-0.4254921115174585,-0.4254921115174585,-0.4254921115174585,-0.4254921115174585,-0.4254921115174585,-0.4254921115174585,-0.4254921115174585,-0.4254921115174585,-0.4254921115174585,-0.4254921115174585,-0.4254921115174585,-0.4254921115174585,-0.4254921115174585,-0.4254921115174585,-0.4254921115174585,-0.4254921115174585,-0.4254921115174585,-0.4254921115174585,-0.4254921115174585,-0.4254921115174585,-0.4254921115174585,-0.4254921115174585,-0.4254921115174585,-0.4254921115174585,-0.4254921115174585,-0.4254921115174585,-0.4254921115174585,-0.4254921115174585,-0.4254921115174585,-0.4254921115174585,-0.4254921115174585,-0.4254921115174585,-0.4254921115174585,-0.4254921115174585,-0.4254921115174585,-0.4254921115174585,-0.4254921115174585,-0.4254921115174585,-0.4254921115174585,-0.4254921115174585,-0.4254921115174585,-0.4254921115174585,-0.4254921115174585,-0.4254921115174585,-0.4254921115174585,-0.4254921115174585,-0.4254921115174585,-0.4254921115174585,-0.4254921115174585,-0.4254921115174585,-0.4254921115174585,-0.4254921115174585,-0.4254921115174585,-0.4254921115174585,-0.4254921115174585,-0.4254921115174585,-0.4254921115174585,-0.4254921115174585,-0.4254921115174585,-0.4254921115174585,-0.4254921115174585,-0.4254921115174585,-0.4254921115174585,-0.4254921115174585,-0.4254921115174585,-0.4254921115174585,-0.4254921115174585,-0.4254921115174585,-0.4254921115174585,-0.4254921115174585,-0.4254921115174585,-0.4254921115174585,-0.4254921115174585,-0.4254921115174585,-0.4254921115174585,-0.4254921115174585,-0.4254921115174585,-0.4254921115174585,-0.4254921115174585,-0.4254921115174585,-0.4254921115174585,-0.4254921115174585,-0.4254921115174585,-0.4254921115174585,-0.4254921115174585,-0.4254921115174585,-0.4254921115174585,-0.4254921115174585,-0.4254921115174585,-0.4254921115174585,-0.4254921115174585,-0.4254921115174585,-0.4254921115174585,-0.4254921115174585,-0.4254921115174585,-0.4254921115174585,-0.4254921115174585,-0.4254921115174585,-0.4254921115174585,-0.4254921115174585,-0.4254921115174585,-0.4254921115174585,-0.4254921115174585,-0.4254921115174585,-0.4254921115174585,-0.4254921115174585,-0.4254921115174585,-0.4254921115174585,0.18871115340667516,0.4336091125903486,0.5900716976243623,0.6615002690529337,0.7057179561277636,0.7159220377604166,0.7193233983046343,0.7193233983046343,0.7193233983046343,0.7193233983046343,0.7193233983046343,0.7193233983046343,0.7193233983046343,0.7193233983046343,0.7193233983046343,0.7193233983046343,0.7193233983046343,0.7193233983046343,0.7193233983046343,0.7193233983046343,0.7193233983046343,0.7193233983046343,0.7193233983046343,0.7193233983046343,0.6546975479644983,0.5900716976243623,0.4880308812978316,0.3689832622502126,0.2839492486447704,0.21932339830463435,0.15129618742028061,0.10027577925701531,0.08667033708014456,0.08667033708014456,0.08667033708014456,0.08667033708014456,0.08667033708014456,0.08667033708014456,0.08667033708014456,0.08667033708014456,0.08667033708014456,0.08667033708014456,0.08667033708014456,0.08667033708014456,0.08667033708014456,0.08667033708014456,0.08667033708014456,0.08667033708014456,0.08667033708014456,0.08667033708014456,0.08667033708014456,0.08667033708014456,0.08667033708014456,0.08667033708014456,0.08667033708014456,0.08667033708014456,0.08667033708014456,0.08667033708014456,0.08667033708014456,0.08667033708014456,0.08667033708014456,0.08667033708014456,0.08667033708014456,0.08667033708014456,0.08667033708014456,0.08667033708014456,0.08667033708014456,0.08667033708014456,0.08667033708014456,0.08667033708014456,0.08667033708014456,0.08667033708014456,0.08667033708014456,0.08667033708014456,0.08667033708014456,0.08667033708014456,0.08667033708014456,0.08667033708014456,0.08667033708014456,0.08667033708014456,0.08667033708014456,0.08667033708014456,0.08667033708014456,0.08667033708014456,0.08667033708014456,0.08667033708014456,0.08667033708014456,0.08667033708014456,0.08667033708014456,0.08667033708014456,0.08667033708014456,0.08667033708014456,0.08667033708014456,0.08667033708014456,0.08667033708014456,0.08667033708014456,0.08667033708014456,0.08667033708014456,0.08667033708014456,0.08667033708014456,0.08667033708014456,0.08667033708014456,0.08667033708014456,0.08667033708014456,0.08667033708014456,0.08667033708014456,0.08667033708014456,0.08667033708014456,0.08667033708014456,0.08667033708014456,0.08667033708014456,0.08667033708014456,0.08667033708014456,0.08667033708014456,0.08667033708014456,0.08667033708014456,0.08667033708014456,0.08667033708014456,0.08667033708014456,0.08667033708014456,0.08667033708014456,0.08667033708014456,0.08667033708014456,0.08667033708014456,0.08667033708014456,0.103677139801233,0.1546975479644983,0.1785070717740221,0.19551387449511054,0.2057179561277636,0.2057179561277636,0.2091193166719813,0.2091193166719813,0.2091193166719813,0.2091193166719813,0.2091193166719813,0.2057179561277636,0.2057179561277636,0.2057179561277636,0.2057179561277636,0.2057179561277636,0.20231659558354592,0.19891523503932823,0.19891523503932823,0.19891523503932823,0.19891523503932823,0.19551387449511054,0.19551387449511054,0.19551387449511054,0.19551387449511054,0.19551387449511054,0.19551387449511054,0.19551387449511054,0.19551387449511054,0.19551387449511054,0.19551387449511054,0.19551387449511054,0.19551387449511054,0.19551387449511054,0.19551387449511054,0.19551387449511054,0.19551387449511054,0.19551387449511054,0.19551387449511054,0.19551387449511054,0.19551387449511054,0.19551387449511054,0.19551387449511054,0.19551387449511054,0.19551387449511054,0.19551387449511054,0.19551387449511054,0.19551387449511054,0.19551387449511054,0.19551387449511054,0.19551387449511054,0.19551387449511054,0.19551387449511054,0.19551387449511054,0.19551387449511054,0.19551387449511054,0.19551387449511054,0.19551387449511054,0.19551387449511054,0.19551387449511054,0.19551387449511054,0.19551387449511054,0.19551387449511054,0.19551387449511054,0.19551387449511054,0.19551387449511054,0.19551387449511054,0.19551387449511054,0.19551387449511054,0.19551387449511054,0.19551387449511054,0.19551387449511054,0.19551387449511054,0.19551387449511054,0.19551387449511054,0.19551387449511054,0.19551387449511054,0.19551387449511054,0.19551387449511054,0.19551387449511054,0.19551387449511054,0.19551387449511054,0.19551387449511054,0.19551387449511054,0.19551387449511054,0.19551387449511054,0.19551387449511054,0.19551387449511054,0.19551387449511054,0.19551387449511054,0.19551387449511054,0.19551387449511054,0.19551387449511054,0.19551387449511054,0.19551387449511054,0.19551387449511054,0.19551387449511054,0.19551387449511054,0.19551387449511054,0.19551387449511054,0.19551387449511054,0.19551387449511054,0.19551387449511054,0.19551387449511054,0.19551387449511054,0.19551387449511054,0.19551387449511054,0.19551387449511054,0.19551387449511054,0.19551387449511054,0.19551387449511054,0.19551387449511054,0.19551387449511054,0.19551387449511054,0.19551387449511054,0.19551387449511054,0.19551387449511054,0.19551387449511054,0.19551387449511054,0.19551387449511054,0.19551387449511054,0.19551387449511054,0.19551387449511054,0.19551387449511054,0.19551387449511054,0.19551387449511054,0.19551387449511054,0.19551387449511054,0.19551387449511054,0.19551387449511054,0.19551387449511054,0.19551387449511054,0.19551387449511054,0.19551387449511054,0.19551387449511054,0.19551387449511054,0.19551387449511054,0.19551387449511054,0.19551387449511054,0.19551387449511054,0.19551387449511054,0.19551387449511054,0.19551387449511054,0.19551387449511054,0.19551387449511054,0.19551387449511054,0.19551387449511054,0.19551387449511054,0.19551387449511054,0.19551387449511054,0.19551387449511054,0.19551387449511054,0.19551387449511054,0.19551387449511054,0.19551387449511054,0.19551387449511054,0.19551387449511054,0.19551387449511054,0.19551387449511054,0.19551387449511054,0.19551387449511054,0.19551387449511054,0.19551387449511054,0.16830299014136904,0.08326897653592687,0.011840405107355442,-0.0561868057769983,-0.07659496904230442,-0.09360177176339286,-0.09700313230761054,-0.09700313230761054,-0.09700313230761054,-0.09700313230761054,-0.09700313230761054,-0.09700313230761054,-0.09700313230761054,-0.09700313230761054,-0.09700313230761054,-0.09700313230761054,-0.09700313230761054,-0.09700313230761054,-0.09700313230761054,-0.09700313230761054,-0.09700313230761054,-0.09700313230761054,-0.09700313230761054,-0.09700313230761054,-0.09700313230761054,-0.09700313230761054,-0.09700313230761054,-0.09700313230761054,-0.09700313230761054,-0.09700313230761054,-0.09700313230761054,-0.09700313230761054,-0.09700313230761054,-0.09700313230761054,-0.09360177176339286,-0.09360177176339286,-0.09360177176339286,-0.09020041121917517,-0.09020041121917517,-0.08679905067495748,-0.07659496904230442,-0.06639088740965136,-0.03237728196747449,0.001636323474702381,0.042452650005314625,0.08667033708014456,0.11388122143388606,0.18871115340667516,0.2567383642910289,0.3111601329985119,0.3383710173522534,0.35537782007334184,0.3621805411617772,0.3689832622502126,0.3723846227944303,0.3791873438828656,0.3791873438828656,0.3893914255155187,0.3961941466039541,0.40299686769238946,0.40979958878082484,0.4166023098692602,0.4200036704134779,0.4234050309576956,0.43020775204613093,0.43020775204613093,0.4370104731345663,0.440411833678784,0.4472145547672194,0.45401727585565477,0.46081999694409015,0.46762271803252553,0.46762271803252553,0.46762271803252553,0.46762271803252553,0.46762271803252553,0.46422135748830784,0.46422135748830784,0.46422135748830784,0.46422135748830784,0.46422135748830784,0.46422135748830784,0.46081999694409015,0.45741863639987246,0.45741863639987246,0.45401727585565477,0.4506159153114371,0.4506159153114371,0.4506159153114371,0.4472145547672194,0.4472145547672194,0.4472145547672194,0.4472145547672194,0.4472145547672194,0.4472145547672194,0.4472145547672194,0.4472145547672194,0.4472145547672194,0.4472145547672194,0.4472145547672194,0.4472145547672194,0.4472145547672194,0.4472145547672194,0.4472145547672194,0.4472145547672194,0.4472145547672194,0.4472145547672194,0.4472145547672194,0.4472145547672194,0.4472145547672194,0.4472145547672194,0.4472145547672194,0.4472145547672194,0.4472145547672194,0.4472145547672194,0.4472145547672194,0.4472145547672194,0.4472145547672194,0.4472145547672194,0.4472145547672194,0.4472145547672194,0.46762271803252553,0.4914322418420493,0.5084390445631377,0.5152417656515731,0.5220444867400085,0.5288472078284439,0.5288472078284439,0.5356499289168792,0.5424526500053146,0.5424526500053146,0.5458540105495323,0.54925537109375,0.54925537109375,0.54925537109375,0.54925537109375,0.54925537109375,0.54925537109375,0.54925537109375,0.54925537109375,0.54925537109375,0.54925537109375,0.54925537109375,0.54925537109375,0.54925537109375,0.54925537109375,0.54925537109375,0.54925537109375,0.54925537109375,0.54925537109375,0.54925537109375,0.54925537109375,0.54925537109375,0.54925537109375,0.54925537109375,0.54925537109375,0.54925537109375,0.54925537109375,0.54925537109375,0.54925537109375,0.54925537109375,0.54925537109375,0.54925537109375,0.54925537109375,0.54925537109375,0.54925537109375,0.54925537109375,0.54925537109375,0.54925537109375,0.54925537109375,0.5424526500053146,0.5424526500053146,0.5424526500053146,0.5390512894610969,0.5390512894610969,0.5390512894610969,0.5390512894610969,0.5390512894610969,0.5390512894610969,0.5390512894610969,0.5390512894610969,0.5390512894610969,0.5390512894610969,0.5390512894610969,0.5390512894610969,0.5390512894610969,0.5390512894610969,0.5390512894610969,0.5390512894610969,0.5390512894610969,0.5390512894610969,0.5390512894610969,0.5390512894610969,0.5390512894610969,0.5390512894610969,0.5390512894610969,0.5390512894610969,0.5390512894610969,0.5390512894610969,0.5390512894610969,0.5390512894610969,0.5390512894610969,0.5322485683726615,0.5254458472842262,0.5152417656515731,0.5152417656515731,0.494833602386267,0.48122816020939624,0.4710240785767432,0.46422135748830784,0.46081999694409015,0.45741863639987246,0.45741863639987246,0.45401727585565477,0.45401727585565477,0.4506159153114371,0.4506159153114371,0.4506159153114371,0.4506159153114371,0.4506159153114371,0.4506159153114371,0.4506159153114371,0.4506159153114371,0.4506159153114371,0.4506159153114371,0.4506159153114371,0.4506159153114371,0.4472145547672194,0.4472145547672194,0.440411833678784,0.4370104731345663,0.43020775204613093,0.43020775204613093,0.42680639150191324,0.4234050309576956,0.4234050309576956,0.4200036704134779,0.4200036704134779,0.4166023098692602,0.4166023098692602,0.4166023098692602,0.4166023098692602,0.4166023098692602,0.4166023098692602,0.4166023098692602,0.4166023098692602,0.4166023098692602,0.4166023098692602,0.4166023098692602,0.4166023098692602,0.4166023098692602,0.4166023098692602,0.4166023098692602,0.41320094932504253,0.40979958878082484,0.39959550714817177,0.3825887044270833,0.3655819017059949,0.35197645952912415,0.3383710173522534,0.3281669357196003,0.3179628540869473,0.3111601329985119,0.30435741191007654,0.30095605136585885,0.29755469082164115,0.29415333027742346,0.2907519697332058,0.2907519697332058,0.2907519697332058,0.2907519697332058,0.2907519697332058,0.2907519697332058,0.2907519697332058,0.2907519697332058,0.2907519697332058,0.2907519697332058,0.2907519697332058,0.2907519697332058,0.2907519697332058,0.2907519697332058,0.2839492486447704,0.277146527556335,0.2737451670121174,0.266942445923682,0.25333700374681123,0.24653428265837585,0.24313292211415816,0.2329288404815051,0.22272475884885204,0.2091193166719813,0.19551387449511054,0.18871115340667516,0.1785070717740221,0.17510571122980442,0.17510571122980442,0.16830299014136904,0.16830299014136904,0.16490162959715135,0.158098908508716,0.158098908508716,0.158098908508716,0.1546975479644983,0.1546975479644983,0.1546975479644983,0.15129618742028061,0.15129618742028061,0.15129618742028061,0.15129618742028061,0.15129618742028061,0.15129618742028061,0.14789482687606292,0.13769074524340985,0.1308880241549745,0.12408530306653912,0.11388122143388606,0.10707850034545068,0.10027577925701531,0.09007169762436225,0.07986761599170919,0.07306489490327381,0.06966353435905612,0.05945945272640306,0.056058092182185375,0.052656731637967684,0.04925537109375,0.042452650005314625,0.042452650005314625,0.03905128946109694,0.03905128946109694,0.03905128946109694,0.03224856837266157,0.02884720782844388,0.025445847284226192,0.022044486740008504,0.018643126195790817,0.01524176565157313,0.011840405107355442,0.011840405107355442,0.005037684018920068,0.005037684018920068,0.005037684018920068,0.005037684018920068,0.005037684018920068,0.005037684018920068,0.005037684018920068,0.005037684018920068,0.005037684018920068,0.005037684018920068,0.005037684018920068,0.005037684018920068,0.001636323474702381,0.001636323474702381,0.001636323474702381,0.001636323474702381,0.001636323474702381,0.001636323474702381,0.001636323474702381,0.001636323474702381,0.001636323474702381,0.001636323474702381,0.001636323474702381,0.001636323474702381,0.001636323474702381,0.001636323474702381,0.001636323474702381,0.001636323474702381,0.001636323474702381,0.001636323474702381,0.001636323474702381,0.001636323474702381,0.001636323474702381,0.001636323474702381,0.001636323474702381,0.001636323474702381,0.001636323474702381,0.001636323474702381,0.001636323474702381,0.005037684018920068,0.005037684018920068,0.008439044563137755,0.01524176565157313,0.03224856837266157,0.04925537109375,0.06966353435905612,0.08667033708014456,0.09687441871279762,0.103677139801233,0.11388122143388606,0.11728258197810375,0.12068394252232142,0.12068394252232142,0.12068394252232142,0.12068394252232142,0.12408530306653912,0.12408530306653912,0.1274866636107568,0.1274866636107568,0.1274866636107568,0.1274866636107568,0.1274866636107568,0.1274866636107568,0.1274866636107568,0.1274866636107568,0.1274866636107568,0.1274866636107568,0.1274866636107568,0.1274866636107568,0.1274866636107568,0.1274866636107568,0.1274866636107568,0.1274866636107568,0.1274866636107568,0.1274866636107568,0.1274866636107568,0.1308880241549745,0.14109210578762754,0.14789482687606292,0.16490162959715135,0.1853097928624575,0.21592203776041666,0.22952747993728742,0.24653428265837585,0.2635410853794643,0.277146527556335,0.2873506091889881,0.29415333027742346,0.29755469082164115,0.29755469082164115,0.30095605136585885,0.30095605136585885,0.30095605136585885,0.30435741191007654,0.30435741191007654,0.30435741191007654,0.30435741191007654,0.30435741191007654,0.30435741191007654,0.30435741191007654,0.30435741191007654,0.30435741191007654,0.30435741191007654,0.30435741191007654,0.30435741191007654,0.30435741191007654,0.30435741191007654,0.30435741191007654,0.30435741191007654,0.30435741191007654,0.30435741191007654,0.30435741191007654,0.30435741191007654,0.30435741191007654,0.30435741191007654,0.30435741191007654,0.30435741191007654,0.30435741191007654,0.30435741191007654,0.30435741191007654,0.30435741191007654,0.30435741191007654,0.30435741191007654,0.30435741191007654,0.30435741191007654,0.30435741191007654,0.30435741191007654,0.30435741191007654,0.30435741191007654,0.30435741191007654,0.30435741191007654,0.30435741191007654,0.30435741191007654,0.30435741191007654,0.30435741191007654,0.30435741191007654,0.30435741191007654,0.3111601329985119,0.3145614935427296,0.3247655751753826,0.331568296263818,0.3349696568080357,0.34517373844068877,0.35537782007334184,0.3655819017059949,0.3723846227944303,0.3825887044270833,0.3927927860597364,0.40299686769238946,0.41320094932504253,0.4166023098692602,0.4200036704134779,0.43020775204613093,0.43020775204613093,0.43020775204613093,0.43020775204613093,0.43020775204613093,0.43020775204613093,0.43020775204613093,0.43020775204613093,0.43020775204613093,0.43020775204613093,0.43020775204613093,0.43020775204613093,0.43020775204613093,0.43020775204613093,0.43020775204613093,0.43020775204613093,0.43020775204613093,0.43020775204613093,0.43020775204613093,0.43020775204613093,0.43020775204613093,0.43020775204613093,0.43020775204613093,0.43020775204613093,0.43020775204613093,0.43020775204613093,0.43020775204613093,0.43020775204613093,0.43020775204613093,0.43020775204613093,0.43020775204613093,0.43020775204613093,0.43020775204613093,0.43020775204613093,0.43020775204613093,0.43020775204613093,0.43020775204613093,0.43020775204613093,0.43020775204613093,0.43020775204613093,0.43020775204613093,0.43020775204613093,0.43020775204613093,0.43020775204613093,0.43020775204613093,0.43020775204613093,0.43020775204613093,0.43020775204613093,0.43020775204613093,0.43020775204613093,0.43020775204613093,0.43020775204613093,0.43020775204613093,0.43020775204613093,0.43020775204613093,0.43020775204613093,0.43020775204613093,0.43020775204613093,0.440411833678784,0.47442543912096086,0.50503768401892,0.5186431261957908,0.5288472078284439,0.5356499289168792,0.5424526500053146,0.5458540105495323,0.54925537109375,0.54925537109375,0.54925537109375,0.54925537109375,0.54925537109375,0.54925537109375,0.54925537109375,0.54925537109375,0.54925537109375,0.54925537109375,0.5458540105495323,0.5458540105495323,0.5356499289168792,0.5322485683726615,0.5254458472842262,0.5220444867400085,0.5220444867400085,0.5220444867400085,0.5220444867400085,0.5220444867400085,0.5220444867400085,0.5254458472842262,0.5254458472842262,0.5288472078284439,0.5288472078284439,0.5288472078284439,0.5288472078284439,0.5356499289168792,0.5390512894610969,0.5424526500053146,0.5424526500053146,0.5458540105495323,0.54925537109375,0.54925537109375,0.5526567316379677,0.5560580921821854,0.5594594527264031,0.5594594527264031,0.5594594527264031,0.5594594527264031,0.5662621738148385,0.5662621738148385,0.5662621738148385,0.5730648949032738,0.5730648949032738,0.5764662554474915,0.5798676159917092,0.5798676159917092,0.5832689765359269,0.5866703370801446,0.5866703370801446,0.5900716976243623,0.5900716976243623,0.59347305816858,0.59347305816858,0.5968744187127977,0.6002757792570153,0.6070785003454506,0.6070785003454506,0.613881221433886,0.6172825819781037,0.6274866636107568,0.6342893846991922,0.6410921057876275,0.6410921057876275,0.6478948268760629,0.6478948268760629,0.6478948268760629,0.6478948268760629,0.6512961874202806,0.6546975479644983,0.6615002690529337,0.6649016295971514,0.6819084323182398,0.6989152350393283,0.7125206772161989,0.7159220377604166,0.722724758848852,0.7261261193930697,0.7295274799372874,0.7295274799372874,0.7295274799372874,0.7295274799372874,0.7295274799372874,0.7295274799372874,0.7329288404815051,0.7329288404815051,0.7397315615699405,0.7397315615699405,0.7397315615699405,0.7397315615699405,0.7397315615699405,0.7397315615699405,0.7397315615699405,0.7397315615699405,0.7397315615699405,0.7397315615699405,0.7397315615699405,0.7397315615699405,0.7397315615699405,0.7397315615699405,0.7431329221141582,0.7431329221141582,0.7431329221141582,0.7431329221141582,0.7431329221141582,0.7431329221141582,0.7431329221141582,0.7431329221141582,0.7431329221141582,0.7431329221141582,0.7431329221141582,0.7431329221141582,0.7431329221141582,0.7431329221141582,0.7431329221141582,0.7431329221141582,0.7431329221141582,0.7431329221141582,0.7431329221141582,0.7431329221141582,0.7431329221141582,0.7431329221141582,0.7431329221141582,0.7431329221141582,0.7431329221141582,0.7431329221141582,0.7431329221141582,0.7431329221141582,0.7261261193930697,0.7125206772161989,0.6819084323182398,0.6615002690529337,0.6546975479644983,0.6512961874202806,0.6512961874202806,0.6512961874202806,0.6512961874202806,0.6512961874202806,0.6512961874202806,0.6546975479644983,0.6546975479644983,0.6546975479644983,0.6546975479644983,0.6546975479644983,0.6546975479644983,0.6546975479644983,0.6546975479644983,0.658098908508716,0.6615002690529337,0.6615002690529337,0.6615002690529337,0.6615002690529337,0.6649016295971514,0.6649016295971514,0.6683029901413691,0.6717043506855868,0.6751057112298045,0.6751057112298045,0.6751057112298045,0.6751057112298045,0.6785070717740221,0.6819084323182398,0.6853097928624575,0.6887111534066752,0.6921125139508929,0.7023165955835459,0.722724758848852,0.7465342826583758,0.7703438064678997,0.7805478881005528,0.7975546908216412,0.8077587724542942,0.8145614935427296,0.8179628540869472,0.8213642146311649,0.8213642146311649,0.8213642146311649,0.8247655751753826,0.8247655751753826,0.8247655751753826,0.8281669357196003,0.8281669357196003,0.831568296263818,0.8383710173522534,0.8451737384406888,0.8451737384406888,0.8553778200733418,0.8553778200733418,0.8587791806175595,0.8587791806175595,0.8621805411617772,0.8621805411617772,0.8655819017059949,0.875785983338648,0.8859900649713011,0.8927927860597364,0.9063982282366071,0.9132009493250425,0.9166023098692602,0.9200036704134779,0.9200036704134779,0.9234050309576955,0.9234050309576955,0.9234050309576955,0.9234050309576955,0.9234050309576955,0.9234050309576955,0.9268063915019132,0.9268063915019132,0.9268063915019132,0.9268063915019132,0.9302077520461309,0.9302077520461309,0.9336091125903486,0.9336091125903486,0.9336091125903486,0.9336091125903486,0.9268063915019132,0.9234050309576955,0.9200036704134779,0.9166023098692602,0.9166023098692602,0.9132009493250425,0.9132009493250425,0.9132009493250425,0.9132009493250425,0.9132009493250425,0.9132009493250425,0.9132009493250425,0.9132009493250425,0.9097995887808248,0.9097995887808248,0.9063982282366071,0.9029968676923894,0.8995955071481717,0.8995955071481717,0.8995955071481717,0.8995955071481717,0.8961941466039541,0.8893914255155188,0.8893914255155188,0.8859900649713011,0.8859900649713011,0.8859900649713011,0.8791873438828657,0.8791873438828657,0.8791873438828657,0.875785983338648,0.875785983338648,0.875785983338648,0.8723846227944303,0.8723846227944303,0.8689832622502126,0.8655819017059949,0.8587791806175595,0.8485750989849065,0.8383710173522534,0.831568296263818,0.8281669357196003,0.8213642146311649,0.8179628540869472,0.8179628540869472,0.8111601329985119,0.8111601329985119,0.8111601329985119,0.8111601329985119,0.8077587724542942,0.8043574119100765,0.8009560513658588,0.7975546908216412,0.7907519697332058,0.7907519697332058,0.7873506091889881,0.7839492486447704,0.7805478881005528,0.7771465275563351,0.7737451670121174,0.766942445923682,0.7601397248352466,0.7499356432025935,0.7397315615699405,0.722724758848852,0.7193233983046343,0.7159220377604166,0.7091193166719812,0.7091193166719812,0.7057179561277636,0.7057179561277636,0.7057179561277636,0.7057179561277636,0.7057179561277636,0.7057179561277636,0.7057179561277636,0.7057179561277636,0.7057179561277636,0.7057179561277636,0.7057179561277636,0.7057179561277636,0.7057179561277636,0.7023165955835459,0.7023165955835459,0.6989152350393283,0.6989152350393283,0.6955138744951106,0.6955138744951106,0.6921125139508929,0.6853097928624575,0.6853097928624575,0.6819084323182398,0.6819084323182398,0.6751057112298045,0.6751057112298045,0.6717043506855868,0.6717043506855868,0.6717043506855868,0.6717043506855868,0.6717043506855868,0.6717043506855868,0.6717043506855868,0.6717043506855868,0.6717043506855868,0.6717043506855868,0.6717043506855868,0.6717043506855868,0.6717043506855868,0.6717043506855868,0.6717043506855868,0.6717043506855868,0.6717043506855868,0.6717043506855868,0.6717043506855868,0.6785070717740221,0.6785070717740221,0.6785070717740221,0.6785070717740221,0.6785070717740221,0.6785070717740221,0.6785070717740221,0.6785070717740221,0.6785070717740221,0.6785070717740221,0.6785070717740221,0.6785070717740221,0.6785070717740221,0.6785070717740221,0.6785070717740221,0.6785070717740221,0.6785070717740221,0.6785070717740221,0.6785070717740221,0.6785070717740221,0.6785070717740221,0.6785070717740221,0.6785070717740221,0.6785070717740221,0.6785070717740221,0.6785070717740221,0.6785070717740221,0.6785070717740221,0.6785070717740221,0.6785070717740221,0.6785070717740221,0.6785070717740221,0.6785070717740221,0.6785070717740221,0.6785070717740221,0.6785070717740221,0.6785070717740221,0.6785070717740221,0.6785070717740221,0.6785070717740221,0.6751057112298045,0.6717043506855868,0.6649016295971514,0.658098908508716,0.6546975479644983,0.6546975479644983,0.6512961874202806,0.6512961874202806,0.6512961874202806,0.6512961874202806,0.6512961874202806,0.6512961874202806,0.6512961874202806,0.6512961874202806,0.6478948268760629,0.6478948268760629,0.6478948268760629,0.6478948268760629,0.6478948268760629,0.6478948268760629,0.6478948268760629,0.6478948268760629,0.6478948268760629,0.6478948268760629,0.6478948268760629,0.6478948268760629,0.6478948268760629,0.6478948268760629,0.6478948268760629,0.6512961874202806,0.6512961874202806,0.6512961874202806,0.6546975479644983,0.658098908508716,0.6717043506855868,0.6819084323182398,0.7091193166719812,0.7363302010257228,0.7601397248352466,0.7805478881005528,0.7941533302774235,0.8111601329985119,0.8247655751753826,0.8383710173522534,0.8451737384406888,0.8587791806175595,0.8655819017059949,0.875785983338648,0.8791873438828657,0.8825887044270834,0.8961941466039541,0.8961941466039541,0.8995955071481717,0.9063982282366071,0.9063982282366071,0.9132009493250425,0.9132009493250425,0.9166023098692602,0.9200036704134779,0.9234050309576955,0.9234050309576955,0.9234050309576955,0.9234050309576955,0.9234050309576955,0.9234050309576955,0.9234050309576955,0.9234050309576955,0.9234050309576955,0.9234050309576955,0.9166023098692602,0.9166023098692602,0.9166023098692602,0.9166023098692602,0.9166023098692602,0.9166023098692602,0.9132009493250425,0.9132009493250425,0.9097995887808248,0.8961941466039541,0.875785983338648,0.8655819017059949,0.8451737384406888,0.8247655751753826,0.8009560513658588,0.7805478881005528,0.7703438064678997,0.7567383642910289,0.7567383642910289,0.7567383642910289,0.7567383642910289,0.7567383642910289,0.7567383642910289,0.7567383642910289,0.7567383642910289,0.7567383642910289,0.7567383642910289,0.7567383642910289,0.7567383642910289,0.7567383642910289,0.7567383642910289,0.7567383642910289,0.7567383642910289,0.7567383642910289,0.7567383642910289,0.7567383642910289,0.7567383642910289,0.7567383642910289,0.7567383642910289,0.7567383642910289,0.7567383642910289,0.7567383642910289,0.7567383642910289,0.7567383642910289,0.7567383642910289,0.7567383642910289,0.7567383642910289,0.7567383642910289,0.7567383642910289,0.7567383642910289,0.7567383642910289,0.7567383642910289,0.7567383642910289,0.7567383642910289,0.7567383642910289,0.7567383642910289,0.7567383642910289,0.7567383642910289,0.7567383642910289,0.7567383642910289,0.7567383642910289,0.7567383642910289,0.7567383642910289,0.7567383642910289,0.7567383642910289,0.7567383642910289,0.7567383642910289,0.7567383642910289,0.7567383642910289,0.7567383642910289,0.7567383642910289,0.7567383642910289,0.7567383642910289,0.7567383642910289,0.6512961874202806,0.5560580921821854,0.4880308812978316,0.40979958878082484,0.3655819017059949,0.34517373844068877,0.3349696568080357,0.331568296263818,0.331568296263818,0.3281669357196003,0.3247655751753826,0.321364214631165,0.3179628540869473,0.3145614935427296,0.3111601329985119,0.3077587724542942,0.30435741191007654,0.30435741191007654,0.29755469082164115,0.29415333027742346,0.2873506091889881,0.2839492486447704,0.277146527556335,0.2703438064678997,0.2635410853794643,0.2601397248352466,0.2567383642910289,0.25333700374681123,0.25333700374681123,0.25333700374681123,0.25333700374681123,0.25333700374681123,0.25333700374681123,0.25333700374681123,0.25333700374681123,0.25333700374681123,0.25333700374681123,0.25333700374681123,0.25333700374681123,0.25333700374681123,0.25333700374681123,0.25333700374681123,0.25333700374681123,0.25333700374681123,0.25333700374681123,0.25333700374681123,0.25333700374681123,0.25333700374681123,0.25333700374681123,0.25333700374681123,0.25333700374681123,0.25333700374681123,0.24993564320259354,0.24993564320259354,0.24993564320259354,0.24993564320259354,0.24993564320259354,0.24993564320259354,0.24993564320259354,0.24993564320259354,0.24993564320259354,0.24993564320259354,0.24653428265837585,0.24653428265837585,0.24653428265837585,0.24653428265837585,0.24653428265837585,0.24653428265837585,0.24653428265837585,0.24653428265837585,0.24653428265837585,0.24653428265837585,0.24653428265837585,0.24653428265837585,0.24653428265837585,0.24653428265837585,0.24653428265837585,0.24653428265837585,0.24653428265837585,0.24653428265837585,0.24653428265837585,0.24653428265837585,0.24653428265837585,0.24653428265837585,0.24653428265837585,0.24653428265837585,0.24653428265837585,0.24653428265837585,0.24653428265837585,0.24653428265837585,0.24653428265837585,0.24653428265837585,0.24653428265837585,0.24653428265837585,0.24653428265837585,0.24653428265837585,0.24653428265837585,0.24653428265837585,0.24653428265837585,0.24653428265837585,0.24653428265837585,0.24653428265837585,0.24653428265837585,0.24653428265837585,0.24653428265837585,0.24653428265837585,0.24653428265837585,0.24653428265837585,0.24653428265837585,0.24653428265837585,0.266942445923682,0.3077587724542942,0.3655819017059949,0.43020775204613093,0.48122816020939624,0.5696635343590561,0.6649016295971514,0.7567383642910289,0.8383710173522534,0.8825887044270834,0.9336091125903486,0.9710240785767432,1.0016363234747023,1.0424526500053146,1.0696635343590561,1.0900716976243623,1.113881221433886,1.1308880241549746,1.147894826876063,1.1615002690529337,1.1853097928624574,1.1955138744951106,1.2091193166719814,1.2091193166719814,1.2091193166719814,1.2091193166719814,1.2091193166719814,1.2091193166719814,1.2091193166719814,1.2091193166719814,1.2091193166719814,1.2091193166719814,1.2091193166719814,1.2091193166719814,1.2091193166719814,1.2091193166719814,1.2091193166719814,1.2091193166719814,1.2091193166719814,1.2091193166719814,1.2091193166719814,1.2091193166719814,1.2091193166719814,1.2091193166719814,1.2091193166719814,1.2091193166719814,1.2091193166719814,1.2091193166719814,1.2091193166719814,1.2091193166719814,1.2091193166719814,1.2091193166719814,1.2091193166719814,1.2091193166719814,1.2091193166719814,1.2091193166719814,1.2091193166719814,1.2091193166719814,1.2091193166719814,1.2091193166719814,1.2091193166719814,1.2091193166719814,1.2091193166719814,1.2091193166719814,1.2091193166719814,1.2091193166719814,1.2091193166719814,1.2091193166719814,1.2091193166719814,1.2091193166719814,1.2091193166719814,1.2091193166719814,1.2091193166719814,1.2091193166719814,1.2159220377604167,1.2261261193930697,1.2295274799372875,1.2363302010257229,1.2363302010257229,1.2397315615699405,1.2465342826583758,1.2465342826583758,1.2465342826583758,1.2533370037468112,1.2533370037468112,1.2533370037468112,1.2533370037468112,1.2567383642910288,1.2601397248352466,1.2601397248352466,1.2601397248352466,1.2635410853794642,1.2635410853794642,1.266942445923682,1.266942445923682,1.2737451670121174,1.2737451670121174,1.277146527556335,1.277146527556335,1.277146527556335,1.277146527556335,1.277146527556335,1.277146527556335,1.2839492486447703,1.2839492486447703,1.2839492486447703,1.2907519697332057,1.2907519697332057,1.2907519697332057,1.2907519697332057,1.2907519697332057,1.2907519697332057,1.2907519697332057,1.2907519697332057,1.2907519697332057,1.2907519697332057,1.2941533302774235,1.2941533302774235,1.2941533302774235,1.2941533302774235,1.2941533302774235,1.2941533302774235,1.2941533302774235,1.2941533302774235,1.2941533302774235,1.2941533302774235,1.2941533302774235,1.2941533302774235,1.2941533302774235,1.297554690821641,1.297554690821641,1.297554690821641,1.297554690821641,1.297554690821641,1.297554690821641,1.297554690821641,1.297554690821641,1.297554690821641,1.297554690821641,1.297554690821641,1.297554690821641,1.297554690821641,1.297554690821641,1.297554690821641,1.297554690821641,1.3043574119100765,1.3043574119100765,1.3043574119100765,1.3043574119100765,1.3077587724542943,1.3077587724542943,1.3077587724542943,1.3077587724542943,1.3077587724542943,1.3077587724542943,1.3077587724542943,1.3077587724542943,1.3077587724542943,1.3077587724542943,1.3077587724542943,1.3077587724542943,1.3077587724542943,1.3077587724542943,1.3077587724542943,1.3077587724542943,1.3077587724542943,1.3077587724542943,1.3077587724542943,1.3077587724542943,1.3077587724542943,1.3077587724542943,1.3077587724542943,1.3077587724542943,1.3077587724542943,1.3077587724542943,1.3077587724542943,1.3077587724542943,1.3077587724542943,1.3077587724542943,1.3077587724542943,1.277146527556335,1.2193233983046343,1.1615002690529337,1.1274866636107568,1.079867615991709,1.0526567316379676,1.0322485683726617,1.0254458472842263,1.0220444867400085,1.0220