[{"success":true,"trial_type":"fullscreen","trial_index":0,"time_elapsed":3727,"internal_node_id":"0.0-0.0","protocol_sum":"","subject_identifier":331,"subject_sum":[188,82,221,99,66,119,196,163,74,45,98,16,153,74,154,94,42,182,211,59,180,163,168,150,52,16,224,12,166,193,90,2],"subject_pair":165,"STUDY_ID":"66a0b3911f23dfc7665bb169","PROLIFIC_PID":"608841496e9715786abdcd13","SESSION_ID":"66a1676fdd78c88e22eafc12","practice_instructions":1,"leaderboard_instructions":0,"bonus":1,"reveal_word":true,"self_rating":"5","confidence":"11"},{"view_history":"[{\"page_index\":0,\"viewing_time\":5228.799999952316}]","rt":5229.600000023842,"trial_type":"instructions","trial_index":1,"time_elapsed":8958,"internal_node_id":"0.0-1.0","protocol_sum":"","subject_identifier":331,"subject_sum":[188,82,221,99,66,119,196,163,74,45,98,16,153,74,154,94,42,182,211,59,180,163,168,150,52,16,224,12,166,193,90,2],"subject_pair":165,"STUDY_ID":"66a0b3911f23dfc7665bb169","PROLIFIC_PID":"608841496e9715786abdcd13","SESSION_ID":"66a1676fdd78c88e22eafc12","practice_instructions":1,"leaderboard_instructions":0,"bonus":1,"reveal_word":true,"self_rating":"5","confidence":"11"},{"view_history":"[{\"page_index\":0,\"viewing_time\":17469}]","rt":17469.5,"trial_type":"instructions","trial_index":2,"time_elapsed":26429,"internal_node_id":"0.0-2.0-0.0","protocol_sum":"","subject_identifier":331,"subject_sum":[188,82,221,99,66,119,196,163,74,45,98,16,153,74,154,94,42,182,211,59,180,163,168,150,52,16,224,12,166,193,90,2],"subject_pair":165,"STUDY_ID":"66a0b3911f23dfc7665bb169","PROLIFIC_PID":"608841496e9715786abdcd13","SESSION_ID":"66a1676fdd78c88e22eafc12","practice_instructions":1,"leaderboard_instructions":0,"bonus":1,"reveal_word":true,"self_rating":"5","confidence":"11"},{"rt":7907.199999928474,"responses":"{\"Q0\":\"... reveal the word with as <b>few letter guesses</b> as possible\"}","question_order":"[0]","trial_type":"survey-multi-choice","trial_index":3,"time_elapsed":34339,"internal_node_id":"0.0-2.0-1.0","protocol_sum":"","subject_identifier":331,"subject_sum":[188,82,221,99,66,119,196,163,74,45,98,16,153,74,154,94,42,182,211,59,180,163,168,150,52,16,224,12,166,193,90,2],"subject_pair":165,"correct":true,"test_part":"multichoice_nonpretend","STUDY_ID":"66a0b3911f23dfc7665bb169","PROLIFIC_PID":"608841496e9715786abdcd13","SESSION_ID":"66a1676fdd78c88e22eafc12","practice_instructions":1,"leaderboard_instructions":0,"bonus":1,"reveal_word":true,"self_rating":"5","confidence":"11"},{"view_history":"[{\"page_index\":0,\"viewing_time\":1760.6000000238419}]","rt":1760.8999999761581,"trial_type":"instructions","trial_index":4,"time_elapsed":36101,"internal_node_id":"0.0-3.0","protocol_sum":"","subject_identifier":331,"subject_sum":[188,82,221,99,66,119,196,163,74,45,98,16,153,74,154,94,42,182,211,59,180,163,168,150,52,16,224,12,166,193,90,2],"subject_pair":165,"STUDY_ID":"66a0b3911f23dfc7665bb169","PROLIFIC_PID":"608841496e9715786abdcd13","SESSION_ID":"66a1676fdd78c88e22eafc12","practice_instructions":1,"leaderboard_instructions":0,"bonus":1,"reveal_word":true,"self_rating":"5","confidence":"11"},{"word":"ZEBRA","click_log":{"letter":["","E","O","M","N","F","L","S","P","I","H","D","W","B","U","V","R","Z","A"],"t":[0,3936.5,16243.600000023842,18629.5,20364.199999928474,27346.100000023842,33985.199999928474,36280.10000002384,39070.5,40612.199999928474,43850.699999928474,50804,54976,58071.299999952316,71538.19999992847,75417.39999997616,81717.89999997616,84151.69999992847,85171.79999995232],"hit":[null,1,0,0,0,0,0,0,0,0,0,0,0,1,0,0,1,1,1],"asked":["","E","EO","EOM","EOMN","EOMNF","EOMNFL","EOMNFLS","EOMNFLSP","EOMNFLSPI","EOMNFLSPIH","EOMNFLSPIHD","EOMNFLSPIHDW","EOMNFLSPIHDWB","EOMNFLSPIHDWBU","EOMNFLSPIHDWBUV","EOMNFLSPIHDWBUVR","EOMNFLSPIHDWBUVRZ","EOMNFLSPIHDWBUVRZA"],"word_state":["_____","_E___","_E___","_E___","_E___","_E___","_E___","_E___","_E___","_E___","_E___","_E___","_E___","_EB__","_EB__","_EB__","_EBR_","ZEBR_","ZEBRA"]},"hover_log":{"letter":["?","?","?","?","?","?","?","?","?","?","?","?","?","?","?","?","?","?","?","?","?","?","?","?","?","?","?","?","?","W","W","N","N","E","?","?","?","?","?","?","?","?","?","?","?","?","?","?","?","?","?","?","?","?","?","?","?","?","?","?","?","?","?","?","?","?","?","?","?","?","?","?","?","?","?","?","?","?","?","?","?","?","?","?","?","?","?","?","?","?","?","?","?","?","?","?","?","?","?","?","?","?","?","?","?","?","?","?","?","?","?","?","?","?","?","?","?","?","?","?","?","?","?","?","?","?","?","?","?","?","?","?","?","?","?","?","?","?","?","?","?","?","?","?","?","?","?","?","?","?","?","?","?","?","?","?","?","?","?","?","?","?","?","?","?","?","?","?","?","?","?","D","D","D","D","D","?","?","?","?","?","?","?","?","?","?","?","M","M","M","M","M","M","M","M","M","M","M","M","M","M","M","?","?","?","?","?","C","C","C","C","C","C","C","C","C","C","C","C","C","C","C","C","C","C","C","C","C","C","C","?","D","?","E","E","?","F","F","F","F","F","F","F","F","F","F","F","F","F","F","F","F","F","F","F","F","?","?","?","?","E","E","E","E","E","E","E","E","E","E","E","E","E","E","E","E","E","E","E","E","E","E","E","E","E","E","E","E","E","E","E","E","E","?","?","N","N","?","?","?","?","?","?","?","?","?","?","?","?","?","?","?","?","?","?","?","?","?","?","?","?","?","?","?","?","?","?","?","?","?","?","?","?","?","?","?","?","?","?","?","?","?","?","?","?","?","?","?","?","?","?","?","?","?","?","?","?","?","?","?","?","?","?","?","?","?","?","?","?","?","?","?","?","?","?","?","?","?","?","?","?","?","?","?","?","?","?","?","?","?","?","?","?","?","?","?","?","?","?","?","?","?","?","?","?","?","?","?","?","?","?","?","?","?","?","?","?","?","?","?","?","?","?","?","?","W","W","W","W","W","W","W","W","W","W","W","W","W","W","W","W","W","W","W","W","W","W","W","W","W","W","W","W","W","W","W","W","W","W","W","W","W","W","W","W","W","W","W","W","W","W","W","W","W","W","W","W","W","W","W","?","?","?","?","?","?","?","?","?","?","?","?","?","?","?","?","?","?","?","?","?","?","M","?","L","L","L","K","K","K","K","?","?","?","?","?","?","?","?","?","?","?","?","?","?","?","?","?","?","B","B","B","B","B","B","B","B","?","?","C","C","C","?","?","D","D","D","D","D","D","D","D","D","D","D","D","D","D","D","D","D","D","D","D","D","D","D","D","D","D","D","?","?","?","?","?","?","?","?","?","M","M","M","M","N","N","?","O","?","P","?","?","?","?","?","?","?","?","?","?","?","?","?","?","?","?","?","?","?","I","I","I","I","I","I","I","I","I","I","I","I","I","I","I","I","I","I","I","I","I","I","I","I","I","I","I","I","I","I","I","I","I","I","I","I","I","I","I","I","I","I","I","I","I","I","I","I","I","I","I","I","I","I","I","I","I","I","I","I","I","I","I","I","I","I","I","I","I","I","I","I","I","I","I","I","I","I","I","I","I","I","I","I","I","I","I","I","I","I","I","I","I","I","I","I","I","I","I","I","I","I","I","I","I","I","I","I","I","I","I","I","I","I","I","I","I","I","I","I","I","I","I","I","I","I","I","I","I","I","I","I","I","I","I","I","I","I","I","I","I","I","I","I","I","I","I","I","I","I","I","I","I","I","I","I","I","I","I","I","I","I","I","I","I","I","I","I","I","I","I","I","I","I","I","I","I","I","I","I","I","I","I","I","I","I","I","I","I","I","I","I","I","I","I","I","I","I","I","I","I","I","I","I","I","I","I","I","I","I","I","I","I","I","I","I","I","I","I","I","I","I","I","I","I","I","I","I","I","I","I","I","I","I","I","I","I","I","I","I","I","I","I","I","I","I","I","I","I","I","I","I","I","I","I","I","I","I","I","I","I","I","I","I","I","I","I","I","I","I","I","I","I","I","I","I","I","I","I","I","I","I","I","I","I","I","I","I","I","I","I","I","I","I","I","I","I","I","I","I","I","I","I","I","I","I","I","I","I","I","I","I","I","I","I","I","I","I","I","I","I","I","I","I","I","I","I","I","?","?","H","H","H","?","?","?","?","P","P","?","?","O","O","O","O","O","O","O","O","O","O","O","O","O","O","O","?","?","?","?","?","?","?","?","?","?","?","?","?","?","?","?","?","?","?","?","?","?","?","?","?","?","?","?","?","?","?","?","?","?","?","?","?","?","?","?","?","O","O","O","O","O","O","O","O","O","O","O","O","?","?","P","P","P","P","P","P","P","P","P","P","P","P","P","P","P","P","P","P","P","P","P","P","P","P","P","P","P","P","P","?","?","O","O","O","O","O","O","O","O","O","O","O","O","O","O","O","O","O","O","O","O","O","O","O","O","O","O","O","O","O","O","O","O","O","O","O","O","O","O","O","O","O","O","O","O","O","O","O","O","O","O","O","O","O","O","O","O","O","O","O","O","O","O","O","O","O","O","O","O","O","O","O","O","O","O","O","O","O","O","O","O","O","O","O","O","O","O","O","O","O","O","O","O","O","O","O","O","O","O","O","O","O","O","O","O","O","O","O","O","O","O","O","O","O","O","O","O","O","O","O","O","O","O","O","O","O","O","O","O","O","O","O","O","O","O","O","O","O","O","?","?","?","?","?","?","?","?","?","?","?","?","?","?","?","?","?","?","?","?","?","?","?","?","?","?","?","?","?","?","?","?","?","?","?","?","?","?","?","?","?","?","?","?","?","?","?","?","?","?","?","?","?","?","?","?","?","?","?","?","?","?","?","?","?","?","?","?","?","?","?","?","?","?","?","?","?","?","?","?","?","?","?","?","?","?","?","?","?","?","?","?","?","?","?","?","?","?","?","?","?","?","?","?","?","?","?","?","?","?","?","?","?","W","W","?","?","?","?","?","M","M","M","M","M","M","M","M","M","M","M","M","M","M","M","M","M","M","M","M","M","M","M","M","M","M","M","M","M","M","M","M","M","M","M","M","M","M","?","?","?","?","W","W","W","W","W","W","W","W","W","W","W","W","W","W","W","W","W","W","W","W","W","W","W","W","W","W","W","W","W","W","W","W","W","W","W","W","W","W","W","W","W","W","W","W","?","?","?","?","?","?","?","?","?","?","?","?","?","?","?","?","?","?","?","N","N","N","N","N","N","N","N","N","N","N","N","N","N","N","N","N","N","N","N","N","N","N","N","N","N","N","N","N","N","N","N","N","N","N","N","N","N","N","N","N","N","N","N","N","N","N","N","N","N","N","N","N","N","N","N","N","N","N","N","?","W","W","W","W","?","?","?","?","?","?","?","?","?","?","?","?","?","?","?","?","?","?","?","?","?","?","?","?","?","?","?","?","?","?","?","?","?","?","?","?","?","?","?","?","?","?","?","?","?","?","?","?","?","?","?","?","?","?","?","?","?","?","?","?","?","?","?","?","?","?","?","?","?","?","?","?","?","?","?","?","?","?","?","?","?","?","?","?","?","?","?","?","?","?","?","?","?","?","?","?","?","?","?","?","?","?","?","?","?","?","?","?","?","?","?","?","?","?","?","?","?","?","?","?","?","?","?","?","?","?","?","?","?","?","?","?","?","?","?","?","?","?","?","?","?","?","?","?","?","?","?","?","?","?","?","?","?","?","?","?","?","?","?","?","?","?","?","?","?","?","?","?","?","?","?","?","?","?","?","?","?","?","?","?","?","?","?","?","?","?","?","?","?","?","?","?","?","?","?","?","?","?","?","?","?","?","?","?","?","?","?","?","?","?","?","?","?","?","?","?","?","?","?","?","?","?","?","?","?","?","?","?","?","?","?","?","?","?","?","?","?","?","?","?","?","?","?","?","?","?","?","?","?","?","?","?","?","?","?","?","?","?","?","?","?","?","?","?","?","?","?","?","?","?","?","?","?","?","?","?","?","?","?","?","?","?","?","?","?","?","?","?","?","?","?","?","?","?","?","?","?","?","?","?","?","?","?","?","?","?","?","?","?","?","?","?","?","?","?","?","?","?","?","?","?","?","?","?","?","?","?","?","?","?","?","?","?","?","?","?","?","?","?","?","?","?","?","?","?","?","?","?","?","?","?","?","?","?","?","?","?","?","?","?","?","?","?","?","?","?","?","?","?","?","?","?","?","?","?","?","?","?","?","?","?","?","?","?","?","?","?","?","?","?","?","?","?","?","?","?","?","?","?","?","?","?","?","X","X","X","X","?","?","?","?","P","P","?","Q","Q","Q","Q","Q","?","?","?","?","?","?","?","?","?","?","?","?","?","?","?","?","?","G","G","G","G","G","G","G","G","G","G","G","G","G","G","G","G","G","G","G","G","G","G","?","F","F","F","F","F","F","F","F","F","F","F","F","F","F","F","F","F","F","F","F","F","F","F","F","F","F","F","F","F","F","F","F","F","F","F","F","F","?","?","O","O","O","?","?","?","?","?","?","?","?","?","?","?","?","?","?","?","?","?","?","?","?","?","?","?","?","?","?","?","?","?","?","?","?","?","?","?","?","?","?","?","?","?","?","?","?","?","?","P","P","P","?","?","?","?","?","?","?","?","?","?","?","?","?","?","?","?","?","?","?","?","?","?","?","?","?","?","?","?","?","?","?","?","?","?","?","?","?","?","?","?","?","?","?","?","?","?","?","?","?","?","?","?","?","?","?","?","?","?","?","?","?","?","?","?","?","?","?","?","?","?","?","?","?","?","?","?","?","?","?","?","?","?","?","?","?","?","?","?","?","?","?","?","?","?","?","?","?","?","?","?","?","?","?","?","?","?","?","?","?","?","?","?","?","?","?","?","?","?","?","?","?","?","?","?","?","?","?","?","?","?","?","?","?","?","?","?","?","?","?","D","D","?","C","C","C","C","C","C","C","C","C","C","C","C","?","?","?","?","?","?","?","?","?","B","B","B","B","B","B","B","B","B","B","B","B","B","B","B","B","B","B","B","B","B","B","B","B","B","B","B","B","B","B","B","B","B","B","B","B","B","B","B","B","B","B","B","B","B","B","B","B","B","B","B","B","B","B","B","B","B","B","B","B","B","B","B","B","?","?","?","?","?","?","?","?","?","?","?","?","?","?","?","?","?","?","?","?","?","?","?","?","?","?","?","?","?","?","?","?","?","?","?","?","?","?","?","?","?","?","K","K","K","K","K","K","K","K","K","K","K","K","K","K","K","K","K","?","?","L","L","L","L","L","L","L","L","L","L","L","L","L","L","L","L","L","L","L","L","L","L","L","L","L","L","L","L","L","L","L","L","L","L","L","L","L","L","L","L","L","L","L","L","L","L","L","L","L","L","L","L","L","L","L","L","L","L","L","L","L","L","L","L","L","L","L","L","L","L","L","L","L","L","L","L","L","L","L","L","L","L","L","L","L","L","L","L","L","L","L","L","L","L","L","L","L","L","L","L","L","L","L","L","L","L","L","L","L","L","L","L","L","L","L","L","L","L","L","L","L","L","L","L","L","L","L","L","L","L","L","L","L","L","L","L","L","L","L","L","L","L","L","L","L","L","L","L","L","L","?","?","V","V","?","?","?","?","?","?","?","?","?","?","?","?","?","?","?","?","?","?","?","?","?","?","?","?","?","?","?","?","?","?","?","?","?","?","?","?","?","?","?","?","?","?","?","?","?","?","?","?","?","?","?","?","?","?","?","?","?","?","?","?","?","?","?","?","?","?","?","?","?","?","?","?","?","?","?","?","?","?","?","?","?","?","?","?","?","?","?","?","?","S","S","S","S","S","S","S","S","S","S","S","S","S","S","S","S","S","S","S","S","S","S","S","S","S","S","S","S","S","S","S","S","S","S","S","S","S","S","S","S","S","S","S","S","S","S","S","S","S","S","S","S","S","S","S","S","S","?","?","?","?","?","?","?","?","?","?","?","?","?","?","?","?","?","?","?","?","?","?","?","?","?","?","?","?","?","?","?","?","?","?","?","?","?","?","?","?","?","?","?","?","?","?","?","?","?","?","?","?","?","?","?","?","?","?","?","?","?","?","?","?","?","?","?","?","?","?","?","?","?","?","?","?","?","?","?","?","?","?","?","?","?","?","?","?","?","?","?","?","?","?","?","?","?","?","?","?","?","?","?","?","?","?","?","?","?","?","?","?","?","?","?","?","?","?","?","?","?","?","?","?","?","?","?","?","?","?","?","?","?","?","?","?","?","?","?","?","Y","Y","Y","Y","?","?","?","P","P","P","P","P","P","P","P","P","P","P","P","P","P","P","P","P","P","P","P","P","P","P","P","P","P","P","P","P","P","P","P","P","P","P","P","P","P","P","P","P","P","P","P","P","P","P","P","P","P","P","P","?","?","Z","Z","?","?","?","?","?","?","?","?","?","?","?","?","?","?","?","?","?","?","?","?","?","?","?","?","?","?","?","?","?","?","?","?","?","?","?","?","?","?","?","?","?","?","?","?","?","?","?","?","?","?","?","?","?","?","?","?","?","?","?","?","?","?","R","R","R","R","R","?","?","?","?","I","I","I","I","I","I","I","I","I","I","I","I","I","I","I","I","I","I","I","I","I","I","I","I","I","I","I","I","I","I","I","I","I","I","I","I","I","I","I","I","I","I","I","I","I","I","I","I","I","I","I","I","I","I","I","I","I","?","?","R","R","?","?","?","?","?","?","?","?","?","?","?","?","?","?","?","?","?","?","?","?","?","?","?","?","?","?","?","?","?","?","?","?","?","?","?","?","?","?","?","?","?","?","?","?","?","?","?","?","?","?","?","?","?","?","?","?","?","?","?","?","?","?","?","?","?","?","?","?","?","?","?","?","?","?","?","?","?","?","?","?","?","?","?","?","?","?","?","?","?","?","?","?","?","?","?","?","?","?","?","?","?","?","?","?","?","?","?","?","?","?","?","?","?","?","?","?","?","?","?","?","?","?","?","?","?","?","?","?","?","?","?","?","?","?","?","?","?","?","Z","Z","?","?","?","?","?","?","?","?","?","?","?","H","H","?","?","?","?","?","?","?","?","?","?","?","?","?","?","?","?","?","?","?","?","?","?","H","H","H","H","H","H","H","H","H","H","H","H","H","H","H","H","H","H","H","H","H","H","H","H","H","H","H","H","H","H","H","H","H","H","H","H","H","H","H","H","?","?","?","P","P","P","?","?","?","Y","Y","Y","Y","Y","Y","Y","Y","?","?","?","?","?","?","?","?","?","?","?","?","?","?","?","?","?","?","?","?","?","?","?","?","?","?","?","?","?","?","?","?","?","?","?","?","?","?","?","?","?","?","?","?","V","?","?","?","U","U","?","T","T","T","T","T","T","T","?","?","?","?","?","?","?","?","?","?","?","?","?","?","?","?","?","?","?","?","?","?","?","?","?","?","?","?","?","?","?","?","?","?","?","J","J","J","J","J","J","J","J","J","J","J","J","J","J","J","J","J","J","J","J","J","J","J","J","J","J","J","J","J","J","J","J","J","J","J","J","J","J","J","J","J","J","J","J","J","J","J","J","J","J","J","J","J","?","?","?","K","K","K","K","K","K","K","K","K","K","K","K","K","K","K","K","K","K","K","K","K","K","K","K","?","?","?","?","?","?","?","?","C","C","C","C","C","C","C","C","C","C","C","C","C","C","C","C","C","C","C","C","C","C","C","C","C","C","C","C","C","C","C","C","C","C","C","C","C","C","C","C","C","C","C","C","C","C","C","C","C","C","C","C","C","C","C","C","C","C","C","C","C","C","C","C","C","C","C","C","C","C","C","C","C","C","C","C","C","C","C","C","C","C","C","C","C","C","C","C","C","C","C","C","C","C","C","C","C","C","C","C","C","C","C","C","C","C","C","C","C","?","?","D","D","D","D","D","D","D","D","D","D","D","D","D","D","D","D","D","D","D","D","D","D","D","D","D","D","D","D","D","D","D","D","D","D","D","D","D","D","D","D","D","D","D","D","D","D","D","D","D","D","D","D","D","D","D","D","D","D","D","D","D","D","D","D","D","D","D","D","D","D","D","D","D","D","D","D","D","D","D","D","D","D","D","D","D","D","D","D","D","D","D","D","D","D","D","D","D","D","D","D","D","D","D","D","D","D","D","D","D","D","D","D","D","D","D","D","D","D","D","D","D","D","D","D","D","D","D","D","D","D","D","D","D","D","D","D","D","D","D","D","D","D","D","D","D","D","D","D","D","D","D","D","D","D","D","D","D","D","D","D","D","D","D","D","D","D","D","D","D","D","D","D","D","D","D","D","D","D","D","D","D","D","D","D","D","D","D","D","D","D","D","D","D","D","D","D","D","D","D","D","D","D","D","D","D","D","D","D","D","D","D","?","?","?","?","?","?","?","?","M","M","M","M","M","M","M","M","M","M","M","M","M","M","M","M","M","M","M","M","M","M","M","M","M","M","M","M","M","M","M","M","M","M","M","M","M","M","M","M","M","M","M","M","M","M","M","M","M","M","M","M","M","M","M","M","M","M","M","M","M","M","M","M","M","M","M","M","M","M","M","M","M","M","M","M","M","M","M","M","M","M","M","M","M","M","M","M","M","M","M","M","M","M","M","M","M","M","M","M","M","M","M","M","M","M","M","M","M","M","M","M","M","M","M","M","M","M","M","M","M","M","M","M","M","M","M","M","M","M","M","M","M","M","M","M","M","M","M","M","M","M","M","M","M","M","M","M","M","M","M","M","M","M","M","M","M","M","M","M","M","M","M","M","M","M","M","M","M","?","?","?","W","W","W","W","W","W","W","W","W","W","W","W","W","W","?","?","?","?","?","?","?","?","?","?","?","?","?","?","?","?","?","?","?","?","?","?","?","?","?","?","W","W","W","W","W","W","W","W","W","W","W","W","W","W","W","W","W","W","W","W","W","W","W","W","W","W","W","W","W","W","W","W","W","W","W","W","W","W","W","W","W","W","W","W","W","W","W","W","W","W","W","W","W","W","W","W","W","W","W","W","W","?","?","?","?","?","?","?","?","?","?","?","?","?","?","?","?","?","?","?","?","?","?","?","?","?","?","?","?","?","?","?","?","?","?","?","?","?","?","?","?","?","?","?","?","?","?","?","?","?","?","?","?","?","?","?","?","?","?","?","?","?","?","?","?","?","?","?","?","?","?","?","?","?","?","?","?","?","?","?","?","?","?","?","?","?","?","?","?","?","?","?","?","?","?","?","?","?","?","?","?","?","?","?","?","?","?","?","?","?","?","?","?","?","?","?","?","?","?","?","?","?","?","?","?","?","?","?","?","?","?","?","?","?","?","?","?","?","?","?","?","?","V","?","?","L","L","?","?","C","C","C","C","C","C","C","C","C","C","C","C","C","C","C","C","C","C","C","C","C","C","?","B","B","B","B","B","B","B","B","B","B","B","B","B","B","B","B","B","B","B","B","B","B","B","B","B","B","B","B","B","B","B","B","B","B","B","B","B","B","B","B","B","B","B","B","B","B","B","B","B","B","B","B","B","B","B","B","B","B","B","B","B","B","B","B","B","B","B","B","B","B","B","B","B","B","B","B","B","B","B","B","B","B","B","B","B","B","B","B","B","B","B","B","B","B","B","?","K","K","?","U","U","U","?","?","?","?","?","?","?","?","?","?","?","?","?","?","?","?","?","?","?","?","?","?","?","?","?","?","?","?","?","?","?","?","?","?","?","?","?","?","?","?","?","?","?","?","?","?","?","?","?","?","?","?","?","?","?","?","?","?","?","?","?","?","?","?","?","?","?","?","?","?","?","?","?","?","?","?","?","?","?","?","?","?","?","?","?","?","?","?","?","?","?","?","?","?","?","?","?","?","?","?","?","?","?","?","?","?","?","?","?","?","?","?","?","?","?","?","?","?","?","?","?","?","?","?","?","?","?","?","?","?","?","?","?","?","?","?","?","?","?","?","?","?","?","?","?","?","?","?","?","?","?","?","?","?","?","?","?","?","?","?","?","?","?","?","?","?","?","?","?","?","?","?","?","?","?","?","?","?","?","?","?","?","?","?","?","?","?","?","?","?","?","?","?","?","?","?","?","?","?","?","?","?","?","?","?","?","?","?","?","?","?","?","?","?","?","?","?","?","?","?","?","?","?","?","?","?","?","?","?","?","?","?","?","?","?","?","?","?","?","?","?","?","?","?","?","?","?","?","?","?","?","?","?","?","?","?","?","?","?","?","?","?","?","?","?","?","?","?","?","?","?","?","?","?","?","?","?","?","?","?","?","?","?","?","?","?","?","?","?","?","?","?","?","?","?","?","?","?","?","?","?","?","?","?","?","?","?","?","?","?","?","?","?","?","?","?","?","?","?","?","?","?","?","?","?","?","?","?","?","?","?","?","?","?","?","?","?","?","?","?","?","?","?","?","?","?","?","?","?","?","?","?","?","?","?","?","?","?","?","?","?","?","?","?","?","?","?","?","?","?","?","?","?","?","?","?","?","?","?","?","?","?","?","?","?","?","?","?","?","?","?","?","?","?","?","?","?","?","?","?","?","?","?","?","?","?","?","?","?","?","?","?","?","?","?","?","?","?","?","?","?","?","?","?","?","?","?","?","?","?","?","?","?","?","?","?","?","?","?","?","?","?","?","?","?","?","?","?","?","?","?","?","?","?","?","?","?","?","?","?","?","?","?","?","?","?","?","?","?","?","?","?","?","?","?","?","?","?","?","?","?","?","?","?","?","?","?","?","?","?","?","?","?","?","?","?","?","?","?","?","?","?","?","?","?","?","?","?","?","?","?","?","?","?","?","?","?","?","?","?","?","?","?","?","?","?","?","?","?","?","?","?","?","?","?","?","?","?","?","?","?","?","?","?","?","?","?","?","?","?","?","?","?","?","?","?","?","?","?","?","?","?","?","?","?","?","?","?","?","?","?","?","?","?","?","?","?","?","?","?","?","?","?","?","?","?","?","?","?","?","?","?","?","?","?","?","?","?","?","?","?","?","?","?","?","?","?","?","?","?","?","?","?","?","?","?","?","?","?","?","?","?","?","?","?","?","?","?","?","?","?","?","?","?","?","?","?","?","?","?","?","?","?","?","?","?","?","?","?","?","W","?","X","X","X","?","Y","Y","Y","Y","Y","Y","Y","Y","Y","Y","Y","?","?","?","?","?","?","?","?","?","?","?","?","?","?","?","Q","Q","Q","Q","Q","?","?","?","?","?","?","?","?","?","?","?","?","O","O","N","?","M","?","L","?","?","K","K","K","K","K","K","K","K","K","K","K","K","K","K","K","K","K","K","K","K","K","K","K","K","K","K","K","K","K","K","K","K","K","K","?","?","?","?","?","?","?","?","?","?","?","C","C","C","C","C","C","C","C","C","?","?","L","L","L","L","?","?","U","U","U","U","U","U","U","U","U","U","U","U","U","U","U","U","U","U","U","U","U","U","U","U","U","U","U","U","U","U","U","U","U","U","U","U","U","U","U","U","U","U","U","U","U","U","U","U","U","U","U","U","U","U","U","U","U","U","U","U","U","U","U","U","U","U","U","U","U","U","U","U","U","U","U","U","U","U","U","U","U","U","U","U","U","U","U","U","U","U","U","U","U","U","U","U","U","U","U","U","U","U","U","U","U","U","U","U","U","U","U","U","U","U","U","U","U","U","U","U","U","U","U","U","U","U","U","U","U","U","U","U","U","U","U","U","U","U","U","U","U","U","U","U","?","?","?","?","?","?","?","?","?","?","?","?","?","?","?","?","?","?","?","?","?","?","?","?","?","?","?","?","?","?","?","?","?","?","?","?","?","?","?","?","?","?","?","?","?","?","?","?","?","?","?","?","?","?","?","?","?","?","?","?","?","?","?","?","?","?","?","?","?","?","?","?","?","?","?","?","?","?","?","?","?","?","?","?","?","?","?","?","?","?","?","?","?","?","?","?","?","?","?","?","?","?","?","?","?","?","?","?","?","?","?","?","?","?","?","?","?","?","?","?","?","?","?","?","?","?","?","?","?","?","?","?","?","?","?","?","?","?","?","?","?","?","?","?","?","?","?","?","?","?","?","?","?","?","?","?","?","?","?","?","?","?","?","?","?","?","?","?","?","?","?","?","?","?","?","?","?","?","?","?","?","?","?","?","?","?","?","?","?","?","?","?","?","?","?","?","?","?","?","?","?","?","?","?","?","?","?","?","?","?","?","?","?","?","?","?","?","?","?","?","?","?","?","?","?","U","U","U","U","U","U","U","U","U","U","U","U","U","U","U","U","U","V","V","V","V","V","V","V","V","V","V","V","V","V","V","V","V","V","V","V","V","V","V","V","V","V","V","V","V","V","V","V","V","V","V","V","?","?","?","?","?","?","?","?","?","?","?","?","?","?","?","?","?","?","?","?","?","?","?","?","?","?","?","?","?","?","?","?","?","?","?","?","?","?","?","?","?","?","?","?","?","?","?","?","?","?","?","?","?","?","?","?","?","T","T","T","T","T","T","T","T","?","?","?","?","?","?","?","K","K","K","K","K","K","K","K","K","K","K","K","K","K","K","K","K","K","K","K","K","K","K","K","K","K","K","K","K","K","K","K","K","K","K","K","K","K","K","K","K","K","K","K","K","K","K","K","K","K","K","K","K","K","K","K","K","K","K","K","K","K","K","K","K","K","K","K","K","K","K","K","K","K","K","K","K","K","K","K","K","K","K","K","K","K","K","K","K","K","K","K","K","K","K","K","K","K","K","K","K","K","K","K","K","K","K","K","K","K","K","K","K","K","K","K","K","K","K","K","K","K","K","K","K","K","K","K","K","K","K","K","K","K","K","K","K","K","K","K","K","K","K","K","K","K","K","K","K","K","K","K","K","K","K","K","K","K","K","K","K","K","K","K","K","K","K","K","K","K","K","K","K","K","K","K","K","K","K","K","K","K","K","K","K","K","K","K","K","K","K","K","K","K","K","K","K","K","K","K","K","K","K","K","K","K","K","K","K","K","K","K","K","K","K","K","K","K","K","K","K","K","K","K","?","?","?","?","?","?","?","A","A","A","A","A","A","A","A","A","A","A","A","A","A","A","A","A","A","A","A","A","A","A","A","A","A","A","A","A","A","A","A","A","A","A","A","A","A","A","A","A","A","A","A","A","A","A","A","A","A","A","A","A","A","A","A","A","A","A","A","A","A","A","A","A","A","A","A","A","A","A","A","A","A","A","A","A","?","B","B","B","?","?","?","M","?","?","O","O","P","P","?","Q","Q","Q","Q","Q","Q","Q","Q","Q","Q","?","?","?","?","?","?","?","?","?","?","R","R","R","R","R","R","R","R","R","R","R","R","R","R","R","R","R","R","R","R","R","R","R","R","R","R","R","R","R","R","R","R","R","R","R","R","R","R","R","R","R","?","?","?","?","?","?","?","?","?","?","?","?","?","?","?","?","Z","Z","Z","Z","Z","Z","?","?","?","?","?","?","?","?","?","?","?","?","?","?","?","?","?","?","?","?","?","?","?","?","?","?","?","?","?","?","?","?","?","?","?","?","?","?","?","?","?","?","?","?","?","?","?","?","?","?","?","?","?","?","?","?","?","?","?","?","?","?","?","?","?","?","?","U","U","U","U","U","?","?","?","?","T","T","T","T","T","T","T","T","T","T","T","?","U","V","V","W","?","Y","Z","Z","?","?","?","?","?","?","?","?","?","?","?","?","?","?","?","?","?","?","?","?","Z","Z","Z","Z","Z","Z","Z","Z","Z","Z","Z","Z","Z","Z","Z","Z","Z","Z","Z","Z","Z","Z","Z","Z","Z","Z","Z","Z","Z","Z","Z","?","?","?","?","?","?","?","?","?","X","X","?","W","?","V","V","?","?","?","?","?","?","?","?","J","J","J","J","J","J","J","J","J","J","J","J","J","J","J","J","?","?","?","A","A","A","A","A","A","A","A","A","A","A","A","A","A","A","A","A","A","A","A","A","A","A","A","A","A","A","A","A","?","J","?","?","T","?","?","?","?","?","?","?","?","?","?","?","?","?","?","?","?","?","?","?","?","?","?","?","?","?","?","?","?","?","?","?","?","?","?","?","?","?","?","?","?","?","?","?","?","?","?","?","?","?","?","?","?","?","?","?","?","?","?","?","?","?","?","?","?","?","?","?","?","?","?","?","?","?","?","?","?","?","?","?","?","?","?","?","?","?","?","?","?","?","?","?","?","?","?","?","?","?","?","?","?","?","?","?","?","?","?","?","?","?","?","?","?","?","?","?","?","?","?","?","?","?","?","?","?","?","?","?","?","?","?","?"],"t":[25,33,47,60,74,89,103,116,130,144,158,172,186,200,214,228,242,255,270,283,297,311,325,339,353,367,381,395,408,423,436,451,465,479,492,506,520,534,547,561,575,589,604,618,631,645,659,673,687,701,715,729,743,756,770,784,798,812,826,840,854,868,882,896,910,923,937,951,965,979,993,1006,1021,1034,1048,1062,1076,1090,1104,1118,1132,1146,1159,1173,1187,1201,1215,1229,1243,1257,1271,1285,1299,1313,1326,1340,1354,1367,1382,1396,1410,1424,1438,1452,1465,1479,1493,1507,1521,1535,1549,1563,1576,1591,1604,1618,1632,1646,1660,1674,1688,1701,1716,1729,1743,1757,1771,1785,1799,1813,1827,1841,1854,1869,1882,1896,1910,1924,1938,1952,1966,1979,1992,2007,2021,2034,2048,2063,2077,2090,2105,2118,2132,2146,2160,2173,2187,2201,2215,2229,2243,2257,2270,2284,2299,2313,2327,2341,2354,2368,2381,2396,2410,2424,2438,2451,2465,2479,2493,2506,2521,2535,2549,2563,2577,2591,2605,2618,2633,2646,2659,2674,2687,2702,2716,2730,2744,2758,2771,2786,2800,2813,2827,2841,2855,2869,2883,2897,2911,2924,2938,2952,2966,2980,2993,3008,3022,3036,3049,3063,3077,3091,3105,3119,3133,3147,3160,3175,3188,3202,3215,3230,3244,3258,3272,3286,3300,3314,3328,3341,3355,3369,3383,3397,3411,3425,3439,3453,3466,3481,3495,3508,3521,3535,3549,3564,3577,3591,3605,3620,3633,3646,3661,3674,3689,3702,3716,3730,3744,3757,3772,3786,3800,3813,3828,3841,3855,3871,3883,3897,3911,3925,3939,3953,3967,3980,3995,4008,4022,4036,4051,4064,4078,4092,4106,4120,4134,4148,4162,4175,4189,4203,4217,4231,4245,4258,4272,4287,4300,4314,4328,4342,4356,4370,4384,4398,4412,4426,4440,4454,4468,4481,4495,4509,4523,4537,4551,4565,4578,4593,4606,4620,4634,4648,4662,4675,4688,4702,4717,4732,4745,4759,4773,4787,4801,4815,4829,4843,4857,4871,4884,4897,4912,4926,4939,4954,4967,4980,4995,5009,5023,5037,5050,5065,5078,5093,5107,5121,5134,5148,5162,5176,5190,5204,5218,5232,5246,5259,5273,5287,5301,5315,5329,5343,5357,5371,5385,5398,5411,5426,5439,5454,5466,5482,5496,5510,5524,5537,5551,5565,5579,5593,5606,5621,5634,5649,5663,5676,5690,5703,5718,5732,5746,5760,5773,5787,5802,5815,5829,5843,5856,5871,5884,5898,5911,5926,5941,5955,5968,5982,5996,6010,6024,6038,6051,6065,6079,6093,6107,6121,6135,6148,6162,6176,6190,6203,6218,6232,6246,6259,6274,6288,6301,6315,6329,6343,6357,6371,6385,6399,6413,6427,6441,6454,6469,6482,6496,6510,6524,6538,6552,6566,6580,6593,6608,6622,6635,6649,6663,6677,6691,6705,6718,6733,6746,6760,6774,6788,6802,6815,6830,6844,6858,6872,6885,6899,6912,6926,6940,6954,6969,6982,6996,7010,7024,7038,7051,7065,7079,7093,7107,7121,7135,7149,7163,7177,7190,7204,7218,7232,7246,7260,7274,7288,7302,7315,7330,7344,7358,7372,7385,7399,7413,7427,7441,7454,7468,7482,7496,7510,7524,7538,7552,7566,7580,7593,7607,7621,7635,7649,7663,7677,7691,7705,7719,7733,7747,7761,7775,7788,7802,7816,7830,7844,7858,7872,7885,7900,7913,7927,7941,7955,7969,7983,7997,8010,8024,8038,8053,8066,8080,8094,8108,8122,8136,8150,8164,8177,8191,8205,8219,8233,8246,8260,8274,8288,8303,8316,8330,8344,8361,8386,8400,8414,8428,8441,8455,8469,8483,8497,8510,8524,8539,8553,8567,8581,8594,8609,8622,8636,8650,8663,8678,8692,8706,8720,8733,8746,8761,8776,8789,8804,8816,8830,8845,8858,8872,8886,8899,8915,8927,8942,8956,8969,8983,8997,9011,9025,9039,9053,9067,9080,9094,9108,9122,9136,9150,9164,9178,9192,9206,9220,9234,9248,9262,9276,9290,9303,9317,9330,9345,9358,9373,9387,9401,9415,9428,9441,9455,9469,9484,9498,9512,9526,9540,9554,9568,9582,9595,9609,9623,9637,9651,9665,9678,9693,9706,9721,9735,9748,9762,9776,9790,9804,9818,9832,9845,9860,9874,9887,9901,9915,9929,9943,9957,9971,9984,9998,10011,10026,10039,10053,10067,10081,10095,10108,10122,10136,10150,10164,10178,10192,10206,10219,10233,10247,10261,10275,10289,10303,10317,10331,10345,10358,10373,10387,10400,10414,10428,10442,10456,10470,10484,10498,10511,10525,10539,10553,10567,10581,10596,10609,10623,10636,10651,10664,10679,10693,10707,10721,10734,10749,10763,10777,10790,10804,10819,10832,10845,10859,10873,10888,10901,10915,10929,10943,10957,10970,10984,10998,11012,11026,11040,11054,11068,11081,11096,11109,11124,11138,11152,11165,11179,11192,11207,11221,11235,11249,11263,11277,11291,11305,11318,11332,11347,11361,11374,11388,11401,11416,11430,11444,11457,11472,11485,11499,11513,11527,11541,11555,11569,11582,11596,11610,11624,11638,11652,11666,11680,11694,11708,11722,11736,11750,11763,11777,11791,11803,11818,11832,11846,11860,11875,11889,11902,11916,11930,11944,11958,11971,11985,11999,12012,12026,12040,12054,12068,12082,12096,12110,12124,12138,12152,12165,12180,12196,12207,12221,12235,12249,12263,12277,12291,12305,12319,12333,12347,12361,12374,12388,12402,12416,12430,12443,12457,12472,12486,12500,12514,12528,12541,12556,12569,12583,12597,12611,12625,12639,12653,12667,12680,12694,12708,12722,12736,12750,12764,12778,12792,12806,12819,12834,12847,12861,12875,12889,12903,12917,12931,12944,12959,12973,12986,12999,13013,13028,13041,13056,13069,13083,13097,13111,13125,13139,13153,13166,13181,13195,13208,13222,13237,13251,13264,13278,13292,13306,13319,13333,13348,13361,13376,13390,13403,13417,13431,13445,13459,13473,13486,13500,13514,13528,13541,13556,13570,13584,13598,13612,13625,13639,13653,13667,13681,13695,13709,13723,13737,13751,13765,13779,13792,13806,13819,13834,13848,13862,13876,13890,13904,13918,13930,13945,13959,13980,14000,14014,14028,14042,14056,14069,14083,14096,14110,14125,14139,14153,14167,14181,14196,14208,14222,14236,14250,14264,14278,14292,14306,14320,14334,14347,14362,14376,14390,14404,14418,14432,14446,14459,14473,14487,14501,14515,14529,14543,14557,14571,14584,14598,14611,14626,14640,14654,14667,14681,14696,14710,14724,14738,14752,14765,14779,14793,14806,14821,14835,14848,14862,14876,14889,14904,14918,14932,14946,14959,14974,14988,15001,15015,15029,15043,15056,15071,15085,15099,15112,15127,15140,15154,15168,15182,15196,15210,15224,15238,15252,15265,15279,15294,15307,15321,15335,15349,15363,15377,15390,15404,15417,15431,15445,15460,15474,15488,15502,15516,15529,15543,15558,15571,15585,15599,15613,15627,15641,15654,15668,15682,15696,15710,15724,15738,15752,15765,15780,15793,15807,15822,15835,15849,15863,15877,15891,15905,15919,15933,15947,15960,15974,15987,16001,16015,16029,16043,16057,16071,16084,16098,16112,16126,16140,16154,16169,16182,16196,16210,16224,16237,16252,16266,16280,16294,16308,16321,16336,16350,16364,16377,16392,16405,16419,16433,16447,16461,16476,16488,16503,16517,16531,16544,16558,16572,16585,16599,16612,16627,16641,16654,16669,16683,16696,16710,16724,16738,16753,16766,16780,16794,16808,16822,16836,16850,16864,16878,16892,16905,16920,16933,16947,16960,16975,16989,17003,17016,17030,17044,17060,17071,17087,17099,17112,17126,17141,17154,17169,17183,17197,17211,17225,17237,17252,17266,17280,17294,17307,17320,17335,17349,17363,17377,17391,17405,17418,17432,17446,17460,17474,17488,17502,17516,17530,17544,17558,17572,17586,17599,17613,17627,17641,17655,17670,17683,17698,17711,17725,17739,17753,17767,17780,17794,17808,17822,17836,17850,17864,17878,17892,17906,17920,17934,17948,17961,17976,17988,18002,18016,18030,18044,18058,18072,18086,18099,18113,18127,18141,18155,18169,18183,18197,18211,18225,18238,18252,18266,18280,18295,18309,18323,18336,18350,18364,18378,18392,18406,18420,18434,18448,18462,18476,18490,18503,18517,18531,18545,18558,18573,18587,18600,18615,18628,18642,18656,18669,18683,18697,18711,18725,18740,18753,18767,18781,18795,18809,18823,18837,18850,18864,18878,18892,18906,18920,18934,18948,18961,18974,18989,19003,19018,19032,19046,19059,19073,19087,19101,19115,19129,19145,19156,19170,19184,19199,19212,19225,19240,19254,19268,19282,19296,19310,19323,19338,19351,19365,19379,19392,19407,19421,19434,19449,19462,19476,19490,19504,19517,19532,19546,19560,19573,19587,19601,19615,19629,19643,19657,19671,19685,19698,19712,19726,19740,19754,19768,19782,19795,19809,19823,19837,19851,19865,19879,19893,19906,19921,19935,19949,19963,19976,19991,20004,20018,20031,20045,20059,20074,20088,20101,20115,20129,20143,20156,20170,20184,20199,20213,20227,20240,20254,20269,20282,20296,20310,20325,20338,20352,20366,20380,20393,20407,20421,20435,20449,20463,20477,20491,20505,20519,20532,20546,20560,20574,20588,20602,20616,20630,20644,20658,20672,20686,20700,20713,20727,20741,20755,20769,20783,20797,20810,20825,20838,20852,20866,20880,20894,20908,20922,20936,20950,20963,20977,20991,21005,21019,21033,21047,21061,21075,21089,21103,21116,21130,21144,21158,21172,21186,21200,21214,21228,21241,21255,21269,21283,21297,21311,21324,21338,21351,21365,21381,21394,21408,21421,21436,21450,21464,21478,21492,21505,21519,21533,21547,21561,21575,21588,21603,21616,21630,21644,21658,21672,21686,21700,21714,21728,21742,21756,21770,21783,21797,21811,21825,21839,21853,21867,21881,21895,21908,21922,21936,21951,21964,21978,21991,22006,22020,22033,22047,22062,22075,22089,22103,22117,22131,22145,22159,22173,22186,22200,22214,22228,22242,22256,22270,22283,22297,22311,22324,22338,22352,22366,22381,22394,22408,22422,22436,22450,22464,22477,22492,22506,22519,22533,22547,22560,22575,22589,22603,22617,22631,22644,22658,22672,22686,22699,22713,22727,22741,22755,22769,22783,22797,22811,22824,22838,22852,22866,22880,22894,22908,22922,22936,22950,22964,22978,22992,23006,23020,23034,23048,23062,23076,23089,23104,23117,23132,23145,23159,23173,23187,23201,23215,23229,23243,23257,23271,23284,23299,23311,23326,23340,23354,23368,23382,23395,23409,23423,23437,23452,23465,23479,23493,23507,23521,23534,23548,23562,23575,23590,23604,23618,23632,23646,23660,23673,23687,23701,23714,23728,23742,23757,23770,23785,23799,23812,23825,23840,23854,23868,23882,23896,23910,23924,23937,23950,23965,23979,23993,24007,24021,24035,24048,24063,24076,24091,24104,24118,24132,24146,24160,24174,24188,24202,24215,24228,24243,24256,24270,24284,24298,24311,24325,24340,24354,24368,24382,24396,24410,24424,24438,24452,24465,24480,24494,24507,24521,24535,24549,24563,24577,24591,24605,24618,24632,24646,24661,24674,24688,24702,24716,24730,24744,24758,24771,24785,24799,24813,24827,24841,24855,24868,24883,24897,24909,24923,24937,24951,24966,24980,24994,25008,25021,25034,25048,25063,25078,25091,25105,25119,25133,25147,25160,25174,25188,25202,25216,25230,25244,25257,25272,25286,25299,25314,25327,25341,25355,25369,25383,25397,25411,25425,25438,25452,25466,25480,25494,25508,25522,25536,25550,25564,25577,25592,25605,25619,25633,25647,25661,25675,25689,25702,25716,25730,25744,25758,25772,25786,25800,25814,25828,25841,25855,25869,25883,25897,25911,25925,25938,25953,25967,25980,25995,26008,26022,26036,26050,26063,26078,26091,26104,26118,26132,26145,26161,26176,26189,26203,26216,26230,26243,26258,26271,26286,26300,26314,26328,26340,26355,26368,26382,26397,26411,26425,26439,26453,26467,26480,26494,26508,26521,26536,26550,26563,26578,26592,26606,26619,26633,26647,26661,26675,26688,26702,26716,26731,26745,26758,26772,26786,26800,26814,26828,26842,26856,26869,26884,26897,26911,26925,26939,26953,26967,26980,26994,27009,27022,27036,27050,27064,27078,27092,27106,27120,27134,27147,27162,27176,27189,27204,27217,27231,27245,27259,27272,27286,27300,27313,27327,27341,27355,27369,27383,27397,27411,27425,27439,27453,27467,27481,27495,27509,27522,27536,27550,27564,27578,27592,27606,27620,27634,27648,27661,27676,27689,27703,27717,27731,27745,27759,27773,27787,27800,27814,27829,27843,27857,27871,27885,27898,27912,27926,27940,27954,27968,27982,27996,28010,28023,28037,28051,28065,28079,28093,28106,28121,28135,28148,28162,28176,28190,28204,28218,28232,28246,28259,28273,28287,28301,28315,28329,28343,28357,28371,28385,28398,28412,28425,28440,28453,28467,28481,28495,28509,28523,28537,28551,28565,28579,28593,28607,28621,28634,28648,28663,28677,28691,28704,28718,28732,28746,28760,28774,28787,28802,28815,28829,28843,28857,28871,28885,28899,28913,28927,28941,28954,28968,28982,28996,29010,29024,29038,29052,29066,29080,29094,29106,29121,29135,29149,29163,29177,29191,29205,29219,29232,29246,29260,29274,29288,29302,29316,29330,29343,29357,29372,29385,29399,29413,29426,29440,29454,29468,29482,29496,29510,29524,29538,29552,29566,29580,29594,29607,29621,29635,29648,29662,29676,29690,29705,29719,29732,29747,29761,29774,29788,29802,29816,29830,29844,29858,29872,29886,29899,29913,29927,29941,29955,29969,29983,29997,30011,30025,30038,30052,30066,30080,30094,30108,30122,30135,30149,30163,30176,30190,30204,30219,30233,30246,30260,30274,30288,30302,30316,30329,30343,30357,30371,30385,30399,30413,30427,30441,30455,30469,30483,30497,30509,30524,30538,30552,30566,30580,30594,30608,30622,30636,30650,30664,30677,30691,30705,30719,30733,30747,30761,30775,30789,30803,30817,30830,30843,30857,30871,30887,30900,30914,30928,30942,30956,30969,30983,30997,31011,31025,31039,31053,31067,31080,31095,31109,31122,31136,31150,31164,31178,31192,31206,31219,31233,31248,31261,31276,31289,31303,31316,31330,31345,31359,31373,31386,31400,31414,31428,31442,31456,31470,31484,31498,31511,31525,31539,31553,31567,31581,31595,31609,31623,31636,31650,31664,31678,31692,31706,31720,31734,31747,31761,31775,31789,31803,31817,31831,31845,31859,31873,31887,31900,31914,31928,31942,31956,31970,31983,31998,32011,32025,32039,32053,32067,32081,32095,32109,32123,32137,32151,32164,32178,32193,32207,32220,32234,32248,32261,32275,32289,32303,32317,32331,32345,32358,32372,32389,32414,32428,32442,32455,32470,32484,32498,32512,32526,32539,32554,32568,32582,32596,32608,32623,32637,32651,32665,32679,32693,32707,32720,32734,32748,32762,32776,32790,32804,32818,32831,32845,32859,32873,32887,32901,32915,32929,32943,32957,32970,32984,32998,33012,33026,33040,33054,33068,33082,33096,33110,33123,33137,33151,33165,33179,33192,33206,33220,33234,33248,33263,33276,33290,33304,33318,33331,33346,33360,33374,33387,33401,33415,33429,33443,33457,33471,33485,33499,33513,33527,33541,33554,33569,33582,33596,33610,33624,33638,33652,33666,33679,33693,33707,33721,33735,33749,33763,33777,33791,33805,33819,33832,33847,33860,33874,33888,33902,33916,33930,33943,33957,33972,33987,33998,34013,34027,34041,34055,34069,34083,34096,34110,34124,34138,34152,34166,34180,34194,34208,34221,34235,34249,34263,34277,34290,34305,34319,34333,34347,34361,34374,34388,34401,34415,34429,34443,34457,34471,34485,34499,34513,34527,34541,34555,34569,34582,34597,34610,34624,34638,34652,34666,34680,34694,34707,34722,34736,34750,34764,34778,34791,34806,34819,34833,34847,34861,34874,34889,34902,34916,34930,34944,34958,34972,34986,35000,35014,35028,35041,35055,35069,35083,35097,35111,35125,35138,35153,35167,35180,35194,35208,35222,35236,35250,35263,35278,35292,35305,35319,35333,35346,35361,35373,35387,35402,35416,35430,35444,35458,35472,35486,35500,35514,35528,35542,35555,35569,35582,35596,35610,35624,35639,35653,35666,35681,35695,35708,35723,35736,35750,35764,35778,35792,35806,35820,35834,35847,35862,35875,35889,35903,35917,35931,35945,35959,35972,35986,36001,36014,36028,36042,36056,36070,36084,36098,36111,36125,36139,36153,36167,36181,36195,36208,36223,36237,36251,36264,36278,36292,36306,36320,36334,36348,36362,36376,36390,36403,36417,36431,36445,36458,36473,36487,36500,36515,36528,36541,36556,36570,36583,36598,36612,36626,36639,36653,36667,36681,36695,36709,36723,36737,36751,36764,36778,36792,36806,36820,36834,36848,36862,36876,36889,36903,36918,36932,36945,36959,36973,36987,37001,37015,37029,37043,37057,37071,37084,37098,37112,37125,37140,37154,37168,37182,37195,37210,37224,37237,37251,37264,37279,37293,37307,37321,37334,37348,37362,37375,37389,37403,37417,37431,37445,37459,37473,37487,37501,37515,37529,37543,37557,37570,37584,37598,37612,37626,37640,37654,37668,37682,37696,37710,37724,37737,37751,37765,37779,37793,37807,37821,37835,37849,37862,37877,37890,37904,37918,37932,37945,37959,37973,37987,38002,38016,38029,38043,38057,38071,38085,38099,38113,38127,38141,38155,38168,38182,38196,38210,38224,38238,38251,38265,38278,38293,38307,38321,38335,38349,38363,38377,38391,38405,38418,38434,38446,38460,38474,38487,38502,38515,38529,38543,38557,38570,38585,38599,38613,38627,38641,38655,38668,38683,38697,38710,38724,38738,38752,38766,38780,38794,38808,38822,38836,38849,38863,38877,38891,38905,38919,38933,38947,38960,38974,38988,39002,39016,39030,39044,39057,39072,39085,39099,39113,39126,39140,39154,39169,39182,39197,39211,39225,39238,39252,39266,39281,39293,39308,39322,39336,39350,39363,39378,39391,39405,39419,39433,39447,39461,39475,39489,39502,39516,39530,39544,39557,39571,39586,39600,39614,39628,39642,39656,39669,39683,39697,39711,39725,39739,39752,39767,39780,39795,39808,39822,39836,39850,39864,39878,39892,39906,39919,39934,39947,39961,39975,39989,40003,40017,40031,40044,40058,40072,40086,40100,40114,40128,40141,40155,40170,40183,40197,40210,40224,40239,40253,40267,40281,40295,40307,40321,40335,40349,40363,40378,40391,40405,40418,40433,40447,40460,40475,40489,40503,40517,40531,40545,40559,40573,40587,40600,40614,40628,40642,40656,40670,40684,40698,40712,40726,40739,40754,40767,40781,40795,40809,40823,40837,40850,40864,40879,40892,40906,40920,40934,40948,40962,40975,40989,41003,41018,41031,41045,41059,41072,41087,41100,41115,41129,41142,41157,41170,41184,41198,41212,41225,41240,41253,41268,41281,41296,41309,41322,41336,41350,41365,41378,41392,41406,41420,41434,41448,41462,41476,41490,41504,41518,41531,41546,41559,41573,41587,41601,41615,41629,41643,41656,41671,41684,41698,41712,41726,41740,41754,41768,41782,41795,41810,41823,41837,41851,41865,41879,41893,41907,41920,41935,41949,41963,41976,41990,42004,42018,42032,42046,42059,42074,42088,42101,42115,42129,42143,42157,42171,42185,42199,42213,42227,42240,42254,42268,42282,42295,42310,42324,42338,42351,42366,42379,42392,42406,42420,42434,42448,42462,42476,42490,42504,42517,42531,42545,42560,42573,42587,42602,42615,42630,42644,42657,42671,42685,42699,42713,42726,42741,42755,42769,42782,42796,42810,42824,42838,42852,42866,42880,42894,42907,42921,42935,42949,42963,42977,42991,43005,43018,43032,43046,43060,43074,43088,43102,43116,43130,43143,43157,43171,43185,43199,43213,43227,43241,43254,43269,43282,43296,43310,43324,43338,43352,43366,43380,43393,43407,43421,43435,43449,43463,43477,43491,43504,43519,43532,43546,43559,43574,43588,43602,43616,43630,43643,43657,43671,43685,43699,43712,43726,43740,43755,43769,43783,43796,43810,43824,43838,43852,43866,43880,43894,43908,43922,43936,43949,43964,43977,43991,44004,44019,44033,44047,44061,44074,44088,44102,44116,44131,44144,44158,44172,44186,44200,44213,44227,44241,44255,44269,44283,44297,44311,44325,44339,44352,44366,44380,44394,44406,44422,44435,44450,44463,44477,44491,44505,44519,44533,44547,44561,44575,44589,44603,44617,44631,44644,44658,44672,44686,44700,44714,44728,44742,44756,44770,44784,44797,44811,44825,44839,44853,44865,44880,44894,44908,44922,44936,44950,44963,44977,44991,45005,45019,45033,45047,45061,45075,45089,45102,45116,45131,45144,45158,45172,45186,45199,45213,45227,45241,45255,45269,45283,45297,45310,45324,45338,45352,45366,45380,45394,45408,45422,45436,45450,45464,45478,45492,45506,45520,45534,45548,45562,45575,45589,45604,45617,45631,45645,45659,45672,45687,45701,45715,45728,45742,45756,45770,45784,45798,45812,45826,45840,45853,45867,45881,45895,45909,45923,45937,45951,45965,45978,45991,46006,46020,46033,46047,46061,46075,46089,46103,46117,46131,46145,46159,46173,46187,46201,46215,46229,46243,46256,46270,46284,46298,46312,46326,46339,46354,46367,46381,46395,46409,46423,46437,46451,46465,46479,46493,46507,46521,46534,46548,46562,46576,46590,46604,46618,46631,46646,46660,46673,46687,46701,46715,46729,46743,46757,46771,46785,46798,46812,46825,46840,46854,46868,46882,46896,46909,46923,46937,46951,46965,46979,46993,47007,47021,47035,47049,47063,47077,47090,47105,47118,47132,47146,47160,47174,47188,47202,47216,47228,47242,47256,47270,47286,47299,47313,47327,47340,47355,47368,47382,47396,47410,47423,47437,47451,47465,47479,47493,47507,47521,47535,47549,47563,47577,47590,47604,47618,47632,47646,47660,47674,47688,47702,47716,47730,47743,47758,47771,47785,47799,47813,47827,47841,47855,47869,47882,47897,47911,47924,47939,47952,47966,47980,47994,48008,48021,48036,48049,48063,48077,48091,48105,48119,48132,48147,48160,48174,48188,48202,48216,48230,48244,48258,48272,48286,48300,48313,48327,48341,48355,48368,48382,48396,48410,48424,48438,48452,48466,48480,48494,48508,48522,48536,48550,48564,48578,48591,48605,48619,48632,48647,48661,48675,48689,48702,48716,48730,48744,48758,48772,48786,48800,48813,48828,48842,48855,48869,48883,48897,48911,48926,48939,48953,48966,48980,48994,49008,49022,49036,49050,49064,49078,49092,49105,49119,49134,49147,49161,49175,49188,49203,49216,49231,49245,49259,49273,49286,49300,49314,49328,49342,49356,49370,49384,49398,49411,49425,49439,49453,49467,49481,49495,49509,49523,49536,49550,49564,49578,49592,49606,49619,49633,49647,49661,49676,49689,49703,49717,49731,49745,49759,49773,49787,49801,49814,49828,49842,49856,49870,49884,49898,49912,49925,49940,49953,49967,49981,49995,50009,50023,50037,50051,50064,50078,50092,50106,50120,50134,50148,50162,50175,50190,50204,50218,50232,50245,50259,50273,50287,50301,50315,50328,50342,50356,50370,50384,50398,50412,50426,50440,50454,50467,50481,50496,50509,50523,50537,50551,50565,50579,50592,50607,50620,50634,50648,50662,50676,50690,50704,50718,50731,50745,50759,50773,50787,50800,50814,50828,50841,50856,50870,50884,50898,50912,50926,50940,50954,50968,50982,50996,51010,51023,51038,51051,51065,51079,51093,51107,51121,51135,51148,51163,51176,51190,51204,51218,51231,51245,51260,51274,51287,51301,51315,51329,51343,51357,51371,51384,51399,51413,51426,51440,51455,51468,51482,51496,51510,51523,51537,51551,51565,51579,51593,51606,51621,51635,51648,51662,51676,51690,51704,51718,51732,51746,51760,51774,51787,51801,51815,51829,51844,51858,51871,51885,51899,51913,51927,51941,51955,51969,51982,51995,52009,52023,52037,52052,52066,52080,52093,52107,52122,52135,52149,52163,52177,52191,52205,52218,52233,52246,52260,52274,52288,52302,52316,52330,52344,52358,52372,52385,52399,52414,52427,52440,52454,52468,52482,52496,52510,52523,52538,52552,52566,52580,52594,52607,52621,52635,52649,52663,52676,52691,52705,52719,52733,52746,52759,52773,52787,52801,52815,52829,52843,52856,52871,52885,52898,52912,52926,52940,52954,52968,52982,52996,53011,53024,53038,53052,53071,53093,53107,53121,53136,53150,53164,53178,53191,53204,53218,53232,53247,53261,53275,53289,53303,53317,53331,53344,53358,53372,53386,53400,53414,53428,53441,53455,53469,53483,53497,53511,53525,53539,53553,53567,53580,53594,53608,53622,53636,53650,53664,53678,53692,53706,53720,53733,53747,53761,53775,53789,53803,53817,53830,53844,53858,53872,53886,53900,53914,53928,53942,53956,53969,53983,53998,54012,54025,54039,54053,54066,54081,54095,54109,54122,54136,54150,54164,54178,54192,54206,54219,54234,54247,54261,54275,54289,54302,54316,54331,54345,54358,54372,54386,54400,54414,54427,54442,54456,54470,54483,54498,54511,54525,54539,54553,54567,54581,54595,54609,54623,54637,54650,54664,54678,54692,54706,54720,54734,54748,54762,54776,54790,54803,54818,54831,54845,54859,54873,54887,54900,54915,54928,54943,54956,54970,54984,54998,55012,55026,55040,55053,55067,55081,55095,55109,55123,55137,55151,55165,55179,55192,55206,55220,55234,55247,55261,55275,55289,55304,55317,55331,55344,55359,55373,55387,55401,55415,55429,55443,55456,55470,55484,55498,55512,55526,55540,55554,55567,55581,55595,55609,55623,55637,55651,55665,55679,55693,55707,55721,55735,55748,55763,55776,55790,55804,55818,55832,55846,55860,55873,55888,55902,55915,55929,55943,55957,55971,55985,55999,56013,56027,56040,56054,56068,56082,56096,56110,56124,56137,56151,56165,56179,56193,56207,56221,56235,56249,56263,56277,56291,56304,56318,56332,56346,56360,56373,56388,56402,56421,56444,56456,56471,56485,56499,56513,56527,56541,56555,56569,56582,56596,56610,56624,56638,56652,56666,56680,56694,56708,56722,56735,56749,56763,56777,56789,56804,56818,56833,56847,56860,56874,56888,56902,56916,56930,56944,56957,56971,56986,56999,57014,57027,57041,57055,57069,57082,57097,57110,57124,57139,57152,57166,57180,57193,57208,57221,57236,57249,57263,57277,57291,57305,57319,57333,57347,57361,57375,57388,57402,57416,57429,57443,57457,57470,57485,57499,57513,57526,57541,57555,57569,57583,57597,57611,57625,57638,57652,57666,57680,57694,57708,57721,57735,57750,57763,57777,57791,57805,57819,57833,57847,57861,57875,57888,57903,57917,57930,57944,57958,57970,57985,57999,58014,58027,58042,58055,58070,58083,58097,58111,58125,58139,58153,58167,58181,58194,58208,58222,58236,58250,58264,58278,58292,58305,58319,58334,58347,58361,58375,58389,58403,58417,58431,58444,58458,58473,58487,58500,58514,58528,58542,58556,58570,58584,58598,58611,58625,58639,58653,58667,58681,58695,58709,58723,58736,58750,58764,58778,58792,58806,58820,58834,58848,58861,58875,58889,58903,58917,58931,58945,58959,58973,58987,59000,59014,59028,59042,59056,59070,59083,59098,59112,59125,59139,59153,59166,59181,59195,59209,59223,59237,59250,59264,59278,59292,59306,59320,59334,59348,59362,59376,59389,59404,59418,59431,59445,59459,59473,59487,59500,59514,59529,59543,59556,59571,59584,59598,59612,59626,59640,59654,59667,59681,59695,59709,59723,59737,59751,59765,59779,59793,59807,59820,59834,59848,59862,59876,59890,59904,59918,59932,59946,59960,59973,59987,60001,60015,60028,60042,60057,60071,60085,60099,60112,60126,60140,60154,60168,60182,60196,60209,60222,60238,60251,60265,60279,60292,60307,60320,60334,60348,60362,60376,60390,60404,60418,60432,60446,60460,60474,60488,60501,60515,60529,60542,60557,60571,60584,60599,60613,60626,60641,60654,60668,60682,60696,60710,60724,60738,60752,60766,60779,60793,60807,60821,60835,60849,60863,60877,60891,60904,60918,60932,60946,60960,60974,60988,61002,61016,61030,61044,61057,61071,61085,61098,61113,61127,61141,61154,61168,61182,61197,61210,61224,61238,61252,61266,61280,61294,61308,61322,61335,61349,61363,61377,61391,61405,61419,61433,61447,61460,61474,61487,61501,61515,61530,61544,61558,61572,61585,61599,61613,61627,61641,61655,61669,61683,61697,61710,61725,61738,61752,61766,61780,61794,61808,61822,61836,61850,61863,61877,61891,61905,61919,61933,61947,61961,61975,61989,62002,62016,62030,62044,62058,62072,62086,62099,62114,62127,62141,62155,62169,62183,62196,62211,62225,62239,62252,62266,62280,62294,62308,62322,62336,62350,62363,62378,62392,62406,62419,62433,62447,62461,62475,62489,62502,62516,62530,62543,62558,62572,62586,62600,62613,62628,62641,62654,62668,62683,62697,62711,62725,62739,62753,62767,62781,62794,62809,62822,62836,62850,62864,62878,62892,62905,62919,62933,62947,62961,62975,62989,63003,63017,63030,63045,63058,63072,63086,63100,63114,63128,63142,63156,63170,63184,63197,63211,63225,63239,63253,63267,63281,63295,63309,63322,63337,63350,63364,63378,63392,63406,63420,63434,63447,63461,63476,63488,63503,63517,63531,63545,63559,63573,63587,63600,63614,63628,63642,63656,63670,63683,63698,63712,63726,63740,63754,63767,63782,63795,63808,63822,63836,63850,63865,63878,63893,63906,63919,63934,63948,63962,63975,63989,64003,64018,64030,64045,64059,64073,64087,64101,64115,64129,64143,64156,64169,64184,64198,64212,64226,64240,64254,64268,64281,64296,64309,64323,64337,64351,64365,64379,64393,64407,64420,64434,64448,64462,64476,64490,64504,64518,64532,64546,64560,64573,64587,64601,64615,64629,64643,64657,64671,64684,64699,64712,64726,64740,64754,64768,64782,64796,64810,64824,64837,64851,64865,64879,64893,64907,64921,64935,64949,64963,64975,64989,65003,65017,65033,65046,65060,65074,65088,65102,65115,65129,65143,65157,65171,65185,65199,65212,65227,65241,65254,65268,65281,65296,65310,65324,65338,65352,65366,65380,65393,65407,65421,65435,65449,65463,65477,65491,65504,65519,65532,65546,65559,65574,65588,65602,65616,65630,65643,65658,65671,65685,65699,65713,65727,65740,65755,65769,65783,65796,65810,65824,65838,65852,65866,65880,65894,65908,65922,65935,65949,65963,65977,65991,66005,66019,66033,66047,66060,66073,66088,66102,66116,66130,66143,66157,66171,66185,66199,66213,66227,66242,66255,66269,66283,66297,66310,66324,66338,66352,66366,66380,66394,66407,66421,66436,66449,66464,66477,66491,66505,66519,66533,66547,66561,66575,66589,66602,66616,66630,66645,66658,66672,66686,66700,66713,66728,66741,66755,66769,66783,66797,66811,66825,66839,66852,66866,66880,66894,66908,66922,66936,66950,66964,66978,66991,67005,67019,67033,67047,67061,67075,67089,67102,67116,67130,67145,67157,67172,67186,67200,67214,67228,67242,67256,67269,67284,67297,67311,67325,67338,67352,67366,67381,67394,67409,67422,67436,67450,67464,67478,67492,67506,67519,67533,67546,67560,67574,67588,67603,67616,67631,67644,67658,67672,67686,67700,67714,67728,67742,67756,67769,67783,67797,67811,67824,67838,67852,67867,67881,67894,67908,67922,67936,67950,67964,67978,67992,68006,68020,68034,68048,68061,68075,68089,68103,68117,68131,68145,68159,68173,68187,68200,68215,68228,68241,68256,68269,68283,68298,68311,68324,68339,68353,68367,68381,68395,68409,68422,68436,68450,68465,68478,68492,68506,68519,68534,68548,68562,68576,68590,68604,68617,68631,68645,68659,68673,68687,68701,68715,68729,68742,68756,68770,68784,68798,68812,68826,68840,68854,68868,68881,68894,68909,68923,68937,68951,68965,68979,68993,69007,69020,69034,69049,69062,69076,69090,69104,69118,69131,69146,69159,69173,69187,69201,69215,69229,69243,69257,69270,69284,69298,69312,69326,69340,69354,69368,69382,69396,69410,69423,69437,69451,69465,69479,69493,69507,69519,69534,69548,69561,69576,69590,69604,69618,69631,69645,69659,69673,69687,69700,69715,69728,69742,69756,69771,69785,69798,69812,69826,69841,69854,69867,69882,69896,69910,69924,69938,69952,69965,69978,69992,70006,70021,70036,70049,70063,70077,70091,70105,70118,70133,70147,70160,70173,70188,70202,70216,70229,70244,70257,70271,70285,70299,70313,70327,70341,70355,70369,70382,70397,70410,70423,70438,70452,70466,70480,70494,70508,70521,70535,70549,70563,70576,70591,70604,70619,70633,70647,70661,70674,70687,70702,70716,70729,70744,70758,70772,70784,70799,70811,70825,70839,70854,70868,70883,70896,70911,70924,70937,70952,70966,70980,70993,71008,71022,71036,71049,71064,71077,71090,71105,71119,71133,71146,71161,71175,71188,71202,71215,71230,71244,71258,71272,71286,71300,71313,71328,71342,71355,71369,71383,71397,71411,71425,71438,71452,71466,71480,71494,71508,71522,71536,71549,71563,71577,71591,71605,71619,71633,71647,71661,71674,71688,71702,71717,71730,71744,71758,71771,71785,71799,71814,71827,71841,71855,71869,71883,71897,71910,71925,71939,71952,71966,71980,71994,72008,72022,72036,72050,72063,72078,72092,72106,72120,72134,72147,72161,72175,72189,72203,72217,72231,72245,72259,72273,72286,72300,72314,72328,72342,72356,72370,72383,72398,72411,72425,72439,72453,72467,72481,72495,72509,72523,72535,72550,72563,72577,72591,72605,72619,72633,72647,72660,72675,72689,72703,72716,72731,72745,72759,72773,72787,72800,72815,72829,72842,72856,72870,72884,72898,72911,72926,72940,72954,72967,72981,72995,73009,73023,73038,73050,73063,73077,73092,73105,73119,73134,73146,73161,73175,73190,73203,73218,73231,73245,73260,73273,73286,73301,73315,73329,73343,73356,73370,73385,73397,73412,73426,73440,73454,73467,73482,73495,73510,73523,73538,73551,73565,73579,73593,73606,73620,73635,73649,73662,73676,73691,73704,73718,73732,73746,73760,73774,73788,73801,73815,73829,73843,73857,73870,73885,73898,73912,73926,73940,73954,73968,73980,73995,74009,74023,74037,74050,74064,74078,74092,74106,74120,74134,74148,74162,74176,74189,74203,74216,74230,74244,74259,74274,74287,74301,74315,74329,74342,74355,74370,74383,74397,74412,74426,74441,74453,74468,74482,74495,74510,74524,74538,74551,74564,74579,74593,74607,74621,74634,74649,74663,74677,74691,74705,74718,74732,74747,74759,74774,74788,74802,74815,74829,74843,74857,74871,74884,74899,74913,74926,74940,74954,74967,74981,74996,75010,75024,75038,75052,75065,75079,75094,75106,75121,75135,75149,75163,75176,75191,75205,75218,75232,75246,75259,75273,75288,75301,75316,75330,75342,75357,75370,75385,75399,75413,75427,75441,75455,75469,75482,75496,75509,75524,75538,75551,75566,75580,75594,75608,75622,75636,75649,75663,75677,75690,75704,75718,75732,75746,75760,75774,75788,75801,75816,75830,75844,75857,75871,75886,75900,75914,75927,75942,75955,75969,75982,75996,76010,76024,76038,76052,76066,76078,76092,76106,76121,76136,76149,76164,76178,76191,76205,76219,76233,76247,76260,76274,76289,76302,76317,76330,76344,76358,76371,76386,76400,76414,76428,76441,76455,76469,76483,76497,76510,76525,76538,76551,76566,76580,76594,76608,76621,76635,76649,76663,76677,76691,76705,76719,76733,76747,76761,76775,76789,76803,76817,76831,76845,76859,76872,76886,76900,76914,76927,76942,76956,76969,76984,76998,77012,77026,77040,77053,77067,77081,77095,77109,77123,77137,77150,77164,77178,77192,77206,77220,77234,77248,77262,77276,77289,77303,77317,77331,77344,77359,77373,77387,77401,77414,77428,77441,77455,77469,77484,77498,77512,77526,77540,77553,77567,77580,77594,77608,77622,77636,77650,77664,77678,77692,77705,77720,77733,77747,77762,77776,77790,77803,77816,77829,77843,77857,77873,77886,77901,77915,77929,77943,77957,77970,77984,77998,78012,78026,78040,78054,78068,78082,78095,78109,78122,78137,78151,78164,78178,78193,78207,78221,78235,78249,78262,78275,78289,78304,78318,78332,78345,78360,78373,78388,78401,78415,78429,78443,78457,78471,78484,78499,78512,78526,78540,78554,78568,78582,78596,78610,78624,78638,78651,78666,78679,78693,78707,78721,78735,78749,78763,78777,78791,78804,78818,78832,78846,78860,78872,78888,78901,78915,78929,78942,78957,78970,78983,78998,79011,79025,79040,79054,79068,79082,79096,79110,79124,79138,79152,79165,79178,79194,79207,79221,79235,79249,79263,79277,79291,79304,79319,79332,79346,79360,79374,79388,79402,79416,79430,79444,79457,79471,79485,79499,79513,79527,79540,79554,79569,79582,79597,79610,79624,79638,79651,79666,79680,79692,79707,79721,79735,79749,79763,79777,79790,79805,79819,79833,79846,79859,79874,79888,79902,79916,79930,79944,79958,79971,79986,79999,80013,80027,80041,80055,80069,80083,80097,80111,80125,80139,80153,80164,80179,80193,80207,80222,80235,80250,80264,80277,80291,80305,80319,80333,80347,80361,80375,80389,80403,80416,80430,80448,80473,80486,80500,80514,80528,80541,80555,80569,80583,80597,80611,80625,80639,80653,80667,80681,80697,80722,80735,80750,80764,80778,80792,80805,80819,80833,80847,80860,80875,80889,80903,80916,80931,80943,80957,80972,80986,80999,81014,81028,81041,81055,81070,81083,81097,81111,81125,81139,81152,81166,81181,81194,81208,81222,81236,81250,81263,81277,81292,81305,81319,81333,81346,81361,81375,81389,81403,81417,81431,81445,81458,81472,81486,81501,81514,81528,81540,81557,81570,81582,81597,81611,81625,81639,81652,81667,81681,81695,81709,81721,81737,81750,81764,81779,81792,81806,81821,81834,81847,81862,81875,81890,81903,81918,81931,81945,81959,81973,81986,82000,82014,82028,82042,82056,82070,82083,82098,82112,82125,82138,82152,82167,82181,82195,82208,82223,82236,82250,82265,82279,82292,82306,82320,82334,82347,82360,82374,82388,82402,82417,82431,82445,82458,82472,82485,82500,82515,82528,82543,82556,82571,82584,82597,82610,82624,82638,82652,82666,82681,82695,82709,82723,82737,82751,82765,82779,82793,82807,82820,82834,82848,82860,82874,82889,82903,82917,82931,82945,82959,82972,82986,83000,83014,83028,83042,83056,83070,83084,83098,83113,83134,83153,83167,83181,83196,83210,83224,83237,83251,83265,83278,83293,83307,83320,83335,83348,83362,83377,83391,83405,83418,83431,83446,83460,83474,83488,83502,83515,83529,83543,83557,83570,83585,83598,83612,83626,83640,83654,83668,83681,83696,83710,83724,83738,83752,83766,83779,83793,83807,83821,83835,83849,83862,83876,83890,83904,83917,83932,83946,83960,83973,83988,84002,84016,84030,84044,84057,84072,84084,84098,84113,84127,84141,84155,84168,84182,84196,84210,84224,84238,84252,84266,84279,84293,84307,84321,84335,84349,84363,84377,84391,84405,84418,84432,84446,84460,84474,84488,84502,84516,84529,84544,84558,84571,84584,84599,84613,84626,84640,84655,84669,84682,84697,84711,84724,84738,84752,84765,84780,84794,84807,84822,84835,84850,84863,84877,84891,84905,84919,84933,84947,84961,84974,84988,85002,85016,85030,85044,85058,85072,85086,85100,85114,85127,85141,85155,85169,85185,85197,85210,85224,85239,85253,85267,85280,85294,85308,85322,85335,85349,85363,85378,85391,85404,85419,85432,85447,85461,85475,85489,85503,85517,85530,85545,85558,85572,85586,85599,85614,85627,85642,85656,85670,85683,85697,85710,85725,85738,85752,85766,85781,85795,85808,85822,85836,85850,85864,85878,85891,85906,85920,85934,85947,85960,85975,85989,86003,86017,86030,86044,86058,86072,86085,86100,86114,86127,86141,86156,86170,86184,86198,86211,86225,86239,86253,86267,86281,86295,86309,86323,86336,86349,86363,86377,86392,86405,86419,86433,86447,86462,86475,86489,86502,86517,86531,86544,86558,86573,86587,86601,86615,86628,86642,86657,86669,86684,86698,86712,86726,86740,86754,86767,86780,86796,86809,86823,86837,86850,86865,86878,86892,86905,86919,86934,86948,86962,86975,86990,87004,87018,87031,87045,87059,87073,87087,87101,87115,87129,87143,87156,87171,87189],"hit":[null],"x":[-3.1530612244897958,-3.1530612244897958,-3.1530612244897958,-3.1530612244897958,-3.1530612244897958,0.08503401360544217,0.08503401360544217,0.08503401360544217,0.08503401360544217,0.08503401360544217,0.09523809523809523,0.09523809523809523,0.11904761904761904,0.13945578231292516,0.20748299319727892,0.23809523809523808,0.2789115646258503,0.3333333333333333,0.4217687074829932,0.46258503401360546,0.4965986394557823,0.5170068027210885,0.5476190476190477,0.5544217687074829,0.5544217687074829,0.5544217687074829,0.5544217687074829,0.5578231292517006,0.5578231292517006,0.564625850340136,0.5680272108843537,0.5680272108843537,0.5680272108843537,0.5680272108843537,0.5680272108843537,0.5476190476190477,0.5374149659863946,0.5272108843537415,0.5136054421768708,0.48299319727891155,0.46258503401360546,0.445578231292517,0.43197278911564624,0.4217687074829932,0.41156462585034015,0.41156462585034015,0.41156462585034015,0.41156462585034015,0.40476190476190477,0.40476190476190477,0.4013605442176871,0.4013605442176871,0.3945578231292517,0.3945578231292517,0.3945578231292517,0.3945578231292517,0.3945578231292517,0.3945578231292517,0.3945578231292517,0.3945578231292517,0.3945578231292517,0.3843537414965986,0.38095238095238093,0.3707482993197279,0.36054421768707484,0.3435374149659864,0.3231292517006803,0.30272108843537415,0.2891156462585034,0.2789115646258503,0.2789115646258503,0.2789115646258503,0.2789115646258503,0.2789115646258503,0.2789115646258503,0.2789115646258503,0.2789115646258503,0.2789115646258503,0.2789115646258503,0.2789115646258503,0.2789115646258503,0.2789115646258503,0.2789115646258503,0.2789115646258503,0.2789115646258503,0.2789115646258503,0.2789115646258503,0.2789115646258503,0.2789115646258503,0.2789115646258503,0.2789115646258503,0.2789115646258503,0.2789115646258503,0.2789115646258503,0.2789115646258503,0.2789115646258503,0.2789115646258503,0.2789115646258503,0.2789115646258503,0.2789115646258503,0.2789115646258503,0.2789115646258503,0.2789115646258503,0.2789115646258503,0.2789115646258503,0.2789115646258503,0.2789115646258503,0.2789115646258503,0.2789115646258503,0.2789115646258503,0.2789115646258503,0.2789115646258503,0.2789115646258503,0.2789115646258503,0.2789115646258503,0.2789115646258503,0.2789115646258503,0.2789115646258503,0.2789115646258503,0.2789115646258503,0.2789115646258503,0.2789115646258503,0.2789115646258503,0.2789115646258503,0.2789115646258503,0.2789115646258503,0.2789115646258503,0.2789115646258503,0.2789115646258503,0.2789115646258503,0.2789115646258503,0.2789115646258503,0.2789115646258503,0.272108843537415,0.272108843537415,0.272108843537415,0.2687074829931973,0.2687074829931973,0.2619047619047619,0.25170068027210885,0.25170068027210885,0.24829931972789115,0.24829931972789115,0.24149659863945577,0.24149659863945577,0.23129251700680273,0.22789115646258504,0.22789115646258504,0.22789115646258504,0.22789115646258504,0.22108843537414966,0.22108843537414966,0.22108843537414966,0.22108843537414966,0.22108843537414966,0.22108843537414966,0.22108843537414966,0.22108843537414966,0.22108843537414966,0.22108843537414966,0.22108843537414966,0.22108843537414966,0.24149659863945577,0.25170068027210885,0.2619047619047619,0.2789115646258503,0.2925170068027211,0.3231292517006803,0.3401360544217687,0.35374149659863946,0.36394557823129253,0.3945578231292517,0.40476190476190477,0.41496598639455784,0.4217687074829932,0.4217687074829932,0.42517006802721086,0.42517006802721086,0.43197278911564624,0.4421768707482993,0.4523809523809524,0.4557823129251701,0.4557823129251701,0.4557823129251701,0.4557823129251701,0.4557823129251701,0.4557823129251701,0.4557823129251701,0.4523809523809524,0.4523809523809524,0.4523809523809524,0.4523809523809524,0.4523809523809524,0.4523809523809524,0.4523809523809524,0.445578231292517,0.445578231292517,0.4421768707482993,0.4421768707482993,0.43537414965986393,0.43197278911564624,0.41156462585034015,0.391156462585034,0.38095238095238093,0.36394557823129253,0.3435374149659864,0.3401360544217687,0.3231292517006803,0.3197278911564626,0.2925170068027211,0.2891156462585034,0.2789115646258503,0.272108843537415,0.2687074829931973,0.2687074829931973,0.2687074829931973,0.2687074829931973,0.2687074829931973,0.2687074829931973,0.2687074829931973,0.2687074829931973,0.2687074829931973,0.2687074829931973,0.2687074829931973,0.2687074829931973,0.2687074829931973,0.2687074829931973,0.2789115646258503,0.29931972789115646,0.3231292517006803,0.36394557823129253,0.4523809523809524,0.4931972789115646,0.5340136054421769,0.564625850340136,0.6360544217687075,0.6768707482993197,0.6972789115646258,0.717687074829932,0.7414965986394558,0.7517006802721088,0.7517006802721088,0.7517006802721088,0.7517006802721088,0.7517006802721088,0.7517006802721088,0.7517006802721088,0.7517006802721088,0.7517006802721088,0.7517006802721088,0.7380952380952381,0.7108843537414966,0.6972789115646258,0.6802721088435374,0.6700680272108843,0.6598639455782312,0.6496598639455783,0.6462585034013606,0.6394557823129252,0.6360544217687075,0.6190476190476191,0.6156462585034014,0.6156462585034014,0.6156462585034014,0.6054421768707483,0.6054421768707483,0.5986394557823129,0.5986394557823129,0.5986394557823129,0.5986394557823129,0.5952380952380952,0.5884353741496599,0.5884353741496599,0.5850340136054422,0.5850340136054422,0.5850340136054422,0.5850340136054422,0.5850340136054422,0.5850340136054422,0.5850340136054422,0.5850340136054422,0.5850340136054422,0.5850340136054422,0.5850340136054422,0.5850340136054422,0.5850340136054422,0.5850340136054422,0.5850340136054422,0.5850340136054422,0.5850340136054422,0.5850340136054422,0.5850340136054422,0.5952380952380952,0.6054421768707483,0.6156462585034014,0.6190476190476191,0.6258503401360545,0.6258503401360545,0.6292517006802721,0.6292517006802721,0.6292517006802721,0.6360544217687075,0.6360544217687075,0.6360544217687075,0.6360544217687075,0.6360544217687075,0.6360544217687075,0.6360544217687075,0.6360544217687075,0.6360544217687075,0.6360544217687075,0.6360544217687075,0.6360544217687075,0.6360544217687075,0.6360544217687075,0.6360544217687075,0.6360544217687075,0.6360544217687075,0.6360544217687075,0.6360544217687075,0.6360544217687075,0.6360544217687075,0.6360544217687075,0.6360544217687075,0.6360544217687075,0.6360544217687075,0.6360544217687075,0.6360544217687075,0.6360544217687075,0.6360544217687075,0.6360544217687075,0.6360544217687075,0.6360544217687075,0.6360544217687075,0.6360544217687075,0.6360544217687075,0.6360544217687075,0.6360544217687075,0.6360544217687075,0.6360544217687075,0.6360544217687075,0.6360544217687075,0.6360544217687075,0.6360544217687075,0.6360544217687075,0.6292517006802721,0.6292517006802721,0.6292517006802721,0.6292517006802721,0.6292517006802721,0.6292517006802721,0.6292517006802721,0.6258503401360545,0.6258503401360545,0.6258503401360545,0.6258503401360545,0.6258503401360545,0.6258503401360545,0.6258503401360545,0.6258503401360545,0.6258503401360545,0.6258503401360545,0.6258503401360545,0.6258503401360545,0.6258503401360545,0.6258503401360545,0.6258503401360545,0.6258503401360545,0.6258503401360545,0.6258503401360545,0.6258503401360545,0.6258503401360545,0.6258503401360545,0.6258503401360545,0.6258503401360545,0.6258503401360545,0.6258503401360545,0.6258503401360545,0.6258503401360545,0.6258503401360545,0.6258503401360545,0.6258503401360545,0.6258503401360545,0.6258503401360545,0.6258503401360545,0.6258503401360545,0.6258503401360545,0.6258503401360545,0.6258503401360545,0.6258503401360545,0.6258503401360545,0.6258503401360545,0.6190476190476191,0.6190476190476191,0.6190476190476191,0.6190476190476191,0.6190476190476191,0.6190476190476191,0.6190476190476191,0.6190476190476191,0.6190476190476191,0.6190476190476191,0.6190476190476191,0.6190476190476191,0.6190476190476191,0.6190476190476191,0.6190476190476191,0.6190476190476191,0.6190476190476191,0.6190476190476191,0.6190476190476191,0.6190476190476191,0.6190476190476191,0.6190476190476191,0.6190476190476191,0.6190476190476191,0.6190476190476191,0.6190476190476191,0.6156462585034014,0.6156462585034014,0.6156462585034014,0.6156462585034014,0.608843537414966,0.608843537414966,0.6054421768707483,0.5986394557823129,0.5986394557823129,0.5986394557823129,0.5986394557823129,0.5986394557823129,0.5986394557823129,0.5986394557823129,0.5986394557823129,0.5986394557823129,0.5986394557823129,0.5986394557823129,0.5986394557823129,0.5986394557823129,0.5986394557823129,0.5986394557823129,0.5986394557823129,0.5986394557823129,0.5986394557823129,0.5986394557823129,0.5986394557823129,0.5986394557823129,0.5986394557823129,0.5986394557823129,0.5986394557823129,0.5986394557823129,0.5986394557823129,0.5986394557823129,0.5986394557823129,0.5986394557823129,0.5986394557823129,0.5986394557823129,0.5986394557823129,0.5986394557823129,0.5986394557823129,0.5986394557823129,0.5986394557823129,0.5986394557823129,0.5986394557823129,0.5986394557823129,0.5986394557823129,0.5952380952380952,0.5952380952380952,0.5952380952380952,0.5952380952380952,0.5952380952380952,0.5952380952380952,0.5952380952380952,0.5952380952380952,0.5952380952380952,0.5952380952380952,0.5952380952380952,0.5952380952380952,0.5952380952380952,0.5952380952380952,0.5952380952380952,0.5952380952380952,0.5952380952380952,0.5952380952380952,0.5952380952380952,0.5952380952380952,0.5952380952380952,0.5952380952380952,0.5952380952380952,0.5952380952380952,0.5952380952380952,0.5952380952380952,0.5952380952380952,0.5952380952380952,0.5952380952380952,0.5884353741496599,0.5850340136054422,0.5782312925170068,0.564625850340136,0.5272108843537415,0.5068027210884354,0.48299319727891155,0.4557823129251701,0.3843537414965986,0.35374149659863946,0.3129251700680272,0.282312925170068,0.24149659863945577,0.19047619047619047,0.1598639455782313,0.1360544217687075,0.10884353741496598,0.0782312925170068,0.06802721088435375,0.06802721088435375,0.06802721088435375,0.06462585034013606,0.05782312925170068,0.05442176870748299,0.05442176870748299,0.05442176870748299,0.05442176870748299,0.05442176870748299,0.05442176870748299,0.05442176870748299,0.05442176870748299,0.05782312925170068,0.06462585034013606,0.06802721088435375,0.08503401360544217,0.09523809523809523,0.10884353741496598,0.12585034013605442,0.14965986394557823,0.16666666666666666,0.18027210884353742,0.19047619047619047,0.19727891156462585,0.21768707482993196,0.22108843537414966,0.23809523809523808,0.2585034013605442,0.30952380952380953,0.3435374149659864,0.3707482993197279,0.391156462585034,0.4217687074829932,0.43197278911564624,0.4421768707482993,0.445578231292517,0.445578231292517,0.445578231292517,0.445578231292517,0.445578231292517,0.445578231292517,0.445578231292517,0.445578231292517,0.445578231292517,0.445578231292517,0.445578231292517,0.445578231292517,0.445578231292517,0.445578231292517,0.445578231292517,0.445578231292517,0.445578231292517,0.445578231292517,0.445578231292517,0.445578231292517,0.445578231292517,0.43537414965986393,0.4217687074829932,0.40476190476190477,0.3945578231292517,0.38095238095238093,0.3707482993197279,0.36054421768707484,0.35374149659863946,0.35374149659863946,0.35374149659863946,0.36394557823129253,0.38095238095238093,0.3945578231292517,0.41496598639455784,0.4523809523809524,0.5374149659863946,0.5782312925170068,0.6394557823129252,0.6870748299319728,0.7993197278911565,0.8401360544217688,0.8945578231292517,0.9251700680272109,0.9829931972789115,1.0170068027210883,1.0374149659863945,1.054421768707483,1.064625850340136,1.064625850340136,1.064625850340136,1.064625850340136,1.064625850340136,1.0748299319727892,1.0782312925170068,1.0782312925170068,1.0782312925170068,1.0782312925170068,1.0782312925170068,1.08843537414966,1.098639455782313,1.1054421768707483,1.1054421768707483,1.1054421768707483,1.1088435374149659,1.1088435374149659,1.1258503401360545,1.1360544217687074,1.1462585034013606,1.1496598639455782,1.1496598639455782,1.1496598639455782,1.1496598639455782,1.1496598639455782,1.1496598639455782,1.1496598639455782,1.1496598639455782,1.1496598639455782,1.1496598639455782,1.1496598639455782,1.1496598639455782,1.1496598639455782,1.1496598639455782,1.1496598639455782,1.1496598639455782,1.1496598639455782,1.1496598639455782,1.1496598639455782,1.1496598639455782,1.1496598639455782,1.1496598639455782,1.1496598639455782,1.1496598639455782,1.1496598639455782,1.1496598639455782,1.1496598639455782,1.1496598639455782,1.129251700680272,1.129251700680272,1.129251700680272,1.129251700680272,1.129251700680272,1.129251700680272,1.129251700680272,1.129251700680272,1.129251700680272,1.129251700680272,1.129251700680272,1.129251700680272,1.129251700680272,1.129251700680272,1.129251700680272,1.129251700680272,1.129251700680272,1.129251700680272,1.129251700680272,1.129251700680272,1.129251700680272,1.129251700680272,1.129251700680272,1.129251700680272,1.129251700680272,1.129251700680272,1.129251700680272,1.129251700680272,1.129251700680272,1.129251700680272,1.129251700680272,1.129251700680272,1.129251700680272,1.129251700680272,1.129251700680272,1.129251700680272,1.129251700680272,1.129251700680272,1.129251700680272,1.129251700680272,1.129251700680272,1.129251700680272,1.129251700680272,1.129251700680272,1.129251700680272,1.129251700680272,1.129251700680272,1.129251700680272,1.129251700680272,1.129251700680272,1.129251700680272,1.129251700680272,1.129251700680272,1.129251700680272,1.129251700680272,1.129251700680272,1.129251700680272,1.129251700680272,1.129251700680272,1.129251700680272,1.129251700680272,1.129251700680272,1.129251700680272,1.129251700680272,1.129251700680272,1.129251700680272,1.129251700680272,1.129251700680272,1.129251700680272,1.129251700680272,1.129251700680272,1.129251700680272,1.129251700680272,1.129251700680272,1.129251700680272,1.129251700680272,1.129251700680272,1.129251700680272,1.129251700680272,1.129251700680272,1.129251700680272,1.129251700680272,1.129251700680272,1.129251700680272,1.129251700680272,1.129251700680272,1.129251700680272,1.129251700680272,1.129251700680272,1.129251700680272,1.129251700680272,1.129251700680272,1.129251700680272,1.129251700680272,1.129251700680272,1.129251700680272,1.129251700680272,1.129251700680272,1.129251700680272,1.129251700680272,1.129251700680272,1.129251700680272,1.129251700680272,1.129251700680272,1.129251700680272,1.129251700680272,1.129251700680272,1.129251700680272,1.129251700680272,1.129251700680272,1.129251700680272,1.129251700680272,1.129251700680272,1.129251700680272,1.129251700680272,1.129251700680272,1.129251700680272,1.129251700680272,1.129251700680272,1.129251700680272,1.129251700680272,1.129251700680272,1.129251700680272,1.129251700680272,1.129251700680272,1.129251700680272,1.129251700680272,1.129251700680272,1.129251700680272,1.129251700680272,1.129251700680272,1.129251700680272,1.129251700680272,1.129251700680272,1.129251700680272,1.129251700680272,1.129251700680272,1.129251700680272,1.129251700680272,1.129251700680272,1.129251700680272,1.129251700680272,1.129251700680272,1.129251700680272,1.129251700680272,1.129251700680272,1.129251700680272,1.129251700680272,1.129251700680272,1.129251700680272,1.129251700680272,1.129251700680272,1.129251700680272,1.129251700680272,1.129251700680272,1.129251700680272,1.129251700680272,1.129251700680272,1.129251700680272,1.129251700680272,1.129251700680272,1.129251700680272,1.129251700680272,1.129251700680272,1.129251700680272,1.129251700680272,1.129251700680272,1.129251700680272,1.129251700680272,1.129251700680272,1.129251700680272,1.129251700680272,1.129251700680272,1.129251700680272,1.129251700680272,1.129251700680272,1.129251700680272,1.129251700680272,1.129251700680272,1.129251700680272,1.129251700680272,1.129251700680272,1.129251700680272,1.129251700680272,1.129251700680272,1.129251700680272,1.129251700680272,1.129251700680272,1.129251700680272,1.129251700680272,1.129251700680272,1.129251700680272,1.129251700680272,1.129251700680272,1.129251700680272,1.129251700680272,1.129251700680272,1.129251700680272,1.129251700680272,1.129251700680272,1.129251700680272,1.129251700680272,1.129251700680272,1.129251700680272,1.129251700680272,1.129251700680272,1.129251700680272,1.129251700680272,1.129251700680272,1.129251700680272,1.129251700680272,1.129251700680272,1.129251700680272,1.129251700680272,1.129251700680272,1.129251700680272,1.129251700680272,1.129251700680272,1.129251700680272,1.129251700680272,1.129251700680272,1.129251700680272,1.129251700680272,1.129251700680272,1.129251700680272,1.129251700680272,1.129251700680272,1.129251700680272,1.129251700680272,1.129251700680272,1.129251700680272,1.129251700680272,1.129251700680272,1.129251700680272,1.129251700680272,1.129251700680272,1.129251700680272,1.129251700680272,1.129251700680272,1.129251700680272,1.129251700680272,1.129251700680272,1.129251700680272,1.129251700680272,1.129251700680272,1.129251700680272,1.129251700680272,1.129251700680272,1.129251700680272,1.129251700680272,1.129251700680272,1.129251700680272,1.129251700680272,1.129251700680272,1.129251700680272,1.129251700680272,1.129251700680272,1.129251700680272,1.129251700680272,1.129251700680272,1.129251700680272,1.129251700680272,1.129251700680272,1.129251700680272,1.129251700680272,1.129251700680272,1.129251700680272,1.129251700680272,1.129251700680272,1.129251700680272,1.129251700680272,1.129251700680272,1.129251700680272,1.129251700680272,1.129251700680272,1.129251700680272,1.129251700680272,1.129251700680272,1.129251700680272,1.129251700680272,1.129251700680272,1.129251700680272,1.129251700680272,1.129251700680272,1.129251700680272,1.129251700680272,1.119047619047619,1.119047619047619,1.119047619047619,1.1156462585034013,1.098639455782313,1.098639455782313,1.0782312925170068,1.064625850340136,1.034013605442177,1.0136054421768708,0.9863945578231292,0.9625850340136054,0.9047619047619048,0.8809523809523809,0.8537414965986394,0.8435374149659864,0.8231292517006803,0.7993197278911565,0.782312925170068,0.7721088435374149,0.7619047619047619,0.7482993197278912,0.7380952380952381,0.7312925170068028,0.7278911564625851,0.7278911564625851,0.7278911564625851,0.7278911564625851,0.7278911564625851,0.7210884353741497,0.717687074829932,0.7108843537414966,0.7006802721088435,0.6972789115646258,0.6768707482993197,0.6666666666666666,0.6496598639455783,0.6462585034013606,0.6190476190476191,0.608843537414966,0.6054421768707483,0.6054421768707483,0.6054421768707483,0.6054421768707483,0.6054421768707483,0.6054421768707483,0.6054421768707483,0.6054421768707483,0.6054421768707483,0.6054421768707483,0.6054421768707483,0.6054421768707483,0.6054421768707483,0.6054421768707483,0.6054421768707483,0.6054421768707483,0.6054421768707483,0.6054421768707483,0.6054421768707483,0.6054421768707483,0.6054421768707483,0.6054421768707483,0.6054421768707483,0.6054421768707483,0.6054421768707483,0.6054421768707483,0.6054421768707483,0.6054421768707483,0.6054421768707483,0.6054421768707483,0.6054421768707483,0.6054421768707483,0.6156462585034014,0.6462585034013606,0.6598639455782312,0.6972789115646258,0.7074829931972789,0.7210884353741497,0.7278911564625851,0.7414965986394558,0.7482993197278912,0.7517006802721088,0.7517006802721088,0.7517006802721088,0.7517006802721088,0.7517006802721088,0.7619047619047619,0.7925170068027211,0.8027210884353742,0.8197278911564626,0.8231292517006803,0.8299319727891157,0.8401360544217688,0.8401360544217688,0.8401360544217688,0.8401360544217688,0.8401360544217688,0.8401360544217688,0.8401360544217688,0.8401360544217688,0.8401360544217688,0.8401360544217688,0.8401360544217688,0.8401360544217688,0.8401360544217688,0.8401360544217688,0.8401360544217688,0.8401360544217688,0.8401360544217688,0.8401360544217688,0.8401360544217688,0.8401360544217688,0.8401360544217688,0.8401360544217688,0.8401360544217688,0.8401360544217688,0.8401360544217688,0.8401360544217688,0.8027210884353742,0.782312925170068,0.7619047619047619,0.7414965986394558,0.7278911564625851,0.7278911564625851,0.7278911564625851,0.7278911564625851,0.7278911564625851,0.7278911564625851,0.7278911564625851,0.7210884353741497,0.717687074829932,0.717687074829932,0.717687074829932,0.717687074829932,0.717687074829932,0.717687074829932,0.717687074829932,0.717687074829932,0.717687074829932,0.717687074829932,0.717687074829932,0.717687074829932,0.717687074829932,0.717687074829932,0.717687074829932,0.717687074829932,0.717687074829932,0.717687074829932,0.717687074829932,0.717687074829932,0.717687074829932,0.717687074829932,0.717687074829932,0.717687074829932,0.717687074829932,0.717687074829932,0.717687074829932,0.717687074829932,0.717687074829932,0.717687074829932,0.717687074829932,0.717687074829932,0.717687074829932,0.717687074829932,0.717687074829932,0.717687074829932,0.717687074829932,0.717687074829932,0.717687074829932,0.717687074829932,0.717687074829932,0.717687074829932,0.717687074829932,0.717687074829932,0.717687074829932,0.717687074829932,0.717687074829932,0.717687074829932,0.717687074829932,0.717687074829932,0.717687074829932,0.717687074829932,0.717687074829932,0.717687074829932,0.717687074829932,0.717687074829932,0.717687074829932,0.717687074829932,0.717687074829932,0.717687074829932,0.717687074829932,0.717687074829932,0.717687074829932,0.717687074829932,0.717687074829932,0.717687074829932,0.717687074829932,0.717687074829932,0.717687074829932,0.717687074829932,0.717687074829932,0.717687074829932,0.717687074829932,0.717687074829932,0.717687074829932,0.717687074829932,0.717687074829932,0.717687074829932,0.717687074829932,0.717687074829932,0.717687074829932,0.717687074829932,0.717687074829932,0.717687074829932,0.717687074829932,0.717687074829932,0.717687074829932,0.717687074829932,0.717687074829932,0.717687074829932,0.717687074829932,0.717687074829932,0.717687074829932,0.717687074829932,0.717687074829932,0.717687074829932,0.717687074829932,0.717687074829932,0.717687074829932,0.717687074829932,0.717687074829932,0.717687074829932,0.717687074829932,0.717687074829932,0.717687074829932,0.717687074829932,0.717687074829932,0.717687074829932,0.717687074829932,0.717687074829932,0.717687074829932,0.717687074829932,0.717687074829932,0.717687074829932,0.717687074829932,0.717687074829932,0.717687074829932,0.717687074829932,0.717687074829932,0.717687074829932,0.717687074829932,0.717687074829932,0.717687074829932,0.717687074829932,0.717687074829932,0.717687074829932,0.717687074829932,0.717687074829932,0.7517006802721088,0.7687074829931972,0.782312925170068,0.7891156462585034,0.7925170068027211,0.7993197278911565,0.8027210884353742,0.8095238095238095,0.8129251700680272,0.8129251700680272,0.8129251700680272,0.8129251700680272,0.8129251700680272,0.8129251700680272,0.8129251700680272,0.8129251700680272,0.8129251700680272,0.8129251700680272,0.8129251700680272,0.8129251700680272,0.8129251700680272,0.8129251700680272,0.8129251700680272,0.8095238095238095,0.8095238095238095,0.8027210884353742,0.7993197278911565,0.7993197278911565,0.7993197278911565,0.7891156462585034,0.7789115646258503,0.7687074829931972,0.7619047619047619,0.7585034013605442,0.7517006802721088,0.7517006802721088,0.7482993197278912,0.7482993197278912,0.7482993197278912,0.7482993197278912,0.7482993197278912,0.7482993197278912,0.7482993197278912,0.7482993197278912,0.7482993197278912,0.7482993197278912,0.7482993197278912,0.7414965986394558,0.7414965986394558,0.7414965986394558,0.7380952380952381,0.7380952380952381,0.7380952380952381,0.7380952380952381,0.7380952380952381,0.7380952380952381,0.7380952380952381,0.7380952380952381,0.7380952380952381,0.7380952380952381,0.7380952380952381,0.7380952380952381,0.7414965986394558,0.7414965986394558,0.7482993197278912,0.7482993197278912,0.7482993197278912,0.7482993197278912,0.7482993197278912,0.7482993197278912,0.7482993197278912,0.7482993197278912,0.7517006802721088,0.7517006802721088,0.7517006802721088,0.7482993197278912,0.7414965986394558,0.7312925170068028,0.7278911564625851,0.7210884353741497,0.7108843537414966,0.7074829931972789,0.7006802721088435,0.7006802721088435,0.7006802721088435,0.7006802721088435,0.6972789115646258,0.6972789115646258,0.6972789115646258,0.6972789115646258,0.6972789115646258,0.6972789115646258,0.6972789115646258,0.6972789115646258,0.6972789115646258,0.6972789115646258,0.6972789115646258,0.6972789115646258,0.6972789115646258,0.6972789115646258,0.6972789115646258,0.6972789115646258,0.6972789115646258,0.6972789115646258,0.6972789115646258,0.6972789115646258,0.6870748299319728,0.6768707482993197,0.6700680272108843,0.6666666666666666,0.6292517006802721,0.5986394557823129,0.5680272108843537,0.54421768707483,0.5238095238095238,0.5034013605442177,0.4931972789115646,0.48639455782312924,0.47619047619047616,0.46598639455782315,0.46598639455782315,0.46258503401360546,0.46258503401360546,0.46258503401360546,0.46258503401360546,0.46258503401360546,0.46258503401360546,0.46258503401360546,0.46258503401360546,0.46258503401360546,0.46258503401360546,0.4557823129251701,0.4523809523809524,0.4523809523809524,0.4523809523809524,0.4523809523809524,0.445578231292517,0.445578231292517,0.445578231292517,0.445578231292517,0.445578231292517,0.445578231292517,0.445578231292517,0.445578231292517,0.445578231292517,0.445578231292517,0.445578231292517,0.445578231292517,0.445578231292517,0.445578231292517,0.445578231292517,0.445578231292517,0.445578231292517,0.445578231292517,0.445578231292517,0.445578231292517,0.4523809523809524,0.47278911564625853,0.47619047619047616,0.48639455782312924,0.4965986394557823,0.5034013605442177,0.5170068027210885,0.5238095238095238,0.5272108843537415,0.5340136054421769,0.5374149659863946,0.5374149659863946,0.5374149659863946,0.5374149659863946,0.5374149659863946,0.5374149659863946,0.5374149659863946,0.5374149659863946,0.5374149659863946,0.5374149659863946,0.5374149659863946,0.5374149659863946,0.5374149659863946,0.5374149659863946,0.5374149659863946,0.5374149659863946,0.5374149659863946,0.5374149659863946,0.5374149659863946,0.5374149659863946,0.5374149659863946,0.5374149659863946,0.5374149659863946,0.5374149659863946,0.5374149659863946,0.5374149659863946,0.5374149659863946,0.5374149659863946,0.5374149659863946,0.5374149659863946,0.5374149659863946,0.5374149659863946,0.5374149659863946,0.5374149659863946,0.5374149659863946,0.5374149659863946,0.54421768707483,0.5544217687074829,0.5680272108843537,0.5782312925170068,0.5884353741496599,0.5986394557823129,0.6190476190476191,0.6258503401360545,0.6292517006802721,0.6360544217687075,0.6360544217687075,0.6360544217687075,0.6360544217687075,0.6360544217687075,0.6360544217687075,0.6360544217687075,0.6360544217687075,0.6360544217687075,0.6360544217687075,0.6360544217687075,0.6360544217687075,0.6360544217687075,0.6360544217687075,0.6292517006802721,0.6156462585034014,0.6054421768707483,0.5986394557823129,0.5952380952380952,0.5782312925170068,0.5748299319727891,0.5748299319727891,0.5680272108843537,0.5680272108843537,0.5680272108843537,0.5680272108843537,0.5680272108843537,0.5680272108843537,0.5680272108843537,0.5680272108843537,0.5680272108843537,0.5680272108843537,0.5680272108843537,0.5680272108843537,0.5680272108843537,0.5680272108843537,0.5680272108843537,0.5680272108843537,0.5680272108843537,0.5680272108843537,0.5680272108843537,0.5680272108843537,0.5680272108843537,0.5680272108843537,0.5680272108843537,0.5680272108843537,0.5680272108843537,0.5680272108843537,0.5680272108843537,0.5680272108843537,0.5680272108843537,0.5680272108843537,0.5680272108843537,0.5680272108843537,0.5680272108843537,0.5680272108843537,0.5680272108843537,0.5680272108843537,0.5680272108843537,0.5680272108843537,0.5680272108843537,0.5680272108843537,0.5680272108843537,0.5680272108843537,0.5680272108843537,0.5680272108843537,0.5680272108843537,0.5680272108843537,0.5680272108843537,0.5680272108843537,0.5680272108843537,0.5680272108843537,0.5680272108843537,0.5680272108843537,0.5782312925170068,0.5884353741496599,0.5952380952380952,0.5952380952380952,0.5986394557823129,0.608843537414966,0.608843537414966,0.608843537414966,0.608843537414966,0.608843537414966,0.608843537414966,0.608843537414966,0.608843537414966,0.608843537414966,0.608843537414966,0.608843537414966,0.608843537414966,0.608843537414966,0.608843537414966,0.608843537414966,0.608843537414966,0.608843537414966,0.608843537414966,0.608843537414966,0.608843537414966,0.608843537414966,0.608843537414966,0.608843537414966,0.608843537414966,0.608843537414966,0.608843537414966,0.608843537414966,0.608843537414966,0.608843537414966,0.608843537414966,0.608843537414966,0.608843537414966,0.608843537414966,0.608843537414966,0.608843537414966,0.608843537414966,0.608843537414966,0.608843537414966,0.608843537414966,0.608843537414966,0.608843537414966,0.608843537414966,0.608843537414966,0.608843537414966,0.608843537414966,0.608843537414966,0.608843537414966,0.608843537414966,0.608843537414966,0.608843537414966,0.608843537414966,0.608843537414966,0.608843537414966,0.608843537414966,0.608843537414966,0.608843537414966,0.608843537414966,0.608843537414966,0.608843537414966,0.608843537414966,0.608843537414966,0.608843537414966,0.608843537414966,0.608843537414966,0.608843537414966,0.608843537414966,0.608843537414966,0.608843537414966,0.608843537414966,0.608843537414966,0.608843537414966,0.608843537414966,0.608843537414966,0.608843537414966,0.608843537414966,0.608843537414966,0.608843537414966,0.608843537414966,0.608843537414966,0.608843537414966,0.608843537414966,0.608843537414966,0.608843537414966,0.608843537414966,0.608843537414966,0.608843537414966,0.608843537414966,0.608843537414966,0.608843537414966,0.608843537414966,0.608843537414966,0.608843537414966,0.608843537414966,0.608843537414966,0.608843537414966,0.608843537414966,0.608843537414966,0.608843537414966,0.608843537414966,0.608843537414966,0.608843537414966,0.608843537414966,0.608843537414966,0.608843537414966,0.608843537414966,0.608843537414966,0.608843537414966,0.608843537414966,0.608843537414966,0.608843537414966,0.608843537414966,0.608843537414966,0.608843537414966,0.608843537414966,0.608843537414966,0.608843537414966,0.608843537414966,0.608843537414966,0.608843537414966,0.608843537414966,0.608843537414966,0.608843537414966,0.608843537414966,0.608843537414966,0.608843537414966,0.608843537414966,0.608843537414966,0.608843537414966,0.608843537414966,0.608843537414966,0.608843537414966,0.608843537414966,0.608843537414966,0.608843537414966,0.608843537414966,0.608843537414966,0.608843537414966,0.608843537414966,0.608843537414966,0.608843537414966,0.608843537414966,0.608843537414966,0.608843537414966,0.608843537414966,0.608843537414966,0.608843537414966,0.608843537414966,0.608843537414966,0.608843537414966,0.608843537414966,0.608843537414966,0.608843537414966,0.608843537414966,0.608843537414966,0.608843537414966,0.608843537414966,0.608843537414966,0.608843537414966,0.608843537414966,0.608843537414966,0.608843537414966,0.608843537414966,0.608843537414966,0.608843537414966,0.608843537414966,0.608843537414966,0.608843537414966,0.608843537414966,0.608843537414966,0.608843537414966,0.608843537414966,0.608843537414966,0.608843537414966,0.608843537414966,0.608843537414966,0.608843537414966,0.608843537414966,0.608843537414966,0.608843537414966,0.608843537414966,0.608843537414966,0.608843537414966,0.608843537414966,0.608843537414966,0.608843537414966,0.608843537414966,0.608843537414966,0.608843537414966,0.608843537414966,0.608843537414966,0.608843537414966,0.608843537414966,0.608843537414966,0.608843537414966,0.608843537414966,0.608843537414966,0.608843537414966,0.608843537414966,0.6156462585034014,0.6156462585034014,0.6156462585034014,0.6156462585034014,0.6156462585034014,0.6156462585034014,0.6156462585034014,0.6156462585034014,0.6156462585034014,0.6156462585034014,0.6156462585034014,0.6156462585034014,0.6156462585034014,0.6156462585034014,0.6156462585034014,0.6156462585034014,0.6156462585034014,0.6156462585034014,0.6156462585034014,0.6156462585034014,0.6156462585034014,0.6156462585034014,0.6156462585034014,0.6156462585034014,0.6156462585034014,0.6156462585034014,0.6156462585034014,0.6156462585034014,0.6156462585034014,0.6156462585034014,0.6156462585034014,0.6156462585034014,0.6156462585034014,0.6156462585034014,0.6156462585034014,0.6156462585034014,0.6156462585034014,0.6156462585034014,0.6156462585034014,0.6156462585034014,0.6156462585034014,0.6156462585034014,0.6156462585034014,0.6156462585034014,0.6156462585034014,0.6156462585034014,0.6156462585034014,0.6156462585034014,0.6156462585034014,0.6156462585034014,0.6156462585034014,0.6156462585034014,0.6156462585034014,0.6156462585034014,0.6156462585034014,0.6156462585034014,0.6156462585034014,0.6156462585034014,0.6156462585034014,0.6156462585034014,0.6156462585034014,0.6156462585034014,0.6156462585034014,0.6156462585034014,0.6156462585034014,0.6156462585034014,0.6156462585034014,0.6156462585034014,0.6156462585034014,0.6156462585034014,0.6156462585034014,0.6156462585034014,0.6156462585034014,0.6156462585034014,0.6156462585034014,0.6156462585034014,0.6156462585034014,0.6156462585034014,0.6156462585034014,0.6156462585034014,0.6156462585034014,0.6156462585034014,0.6156462585034014,0.6156462585034014,0.6156462585034014,0.6156462585034014,0.6156462585034014,0.6156462585034014,0.6156462585034014,0.6156462585034014,0.6156462585034014,0.6156462585034014,0.6156462585034014,0.6156462585034014,0.6156462585034014,0.6156462585034014,0.6156462585034014,0.6156462585034014,0.6156462585034014,0.6156462585034014,0.6156462585034014,0.6156462585034014,0.6156462585034014,0.6156462585034014,0.6156462585034014,0.6156462585034014,0.6156462585034014,0.6156462585034014,0.6156462585034014,0.6156462585034014,0.6156462585034014,0.6156462585034014,0.6156462585034014,0.6156462585034014,0.6156462585034014,0.6156462585034014,0.6156462585034014,0.6156462585034014,0.6156462585034014,0.6156462585034014,0.6156462585034014,0.6156462585034014,0.6156462585034014,0.6156462585034014,0.6156462585034014,0.6156462585034014,0.6156462585034014,0.6156462585034014,0.6156462585034014,0.6156462585034014,0.6156462585034014,0.6156462585034014,0.6156462585034014,0.6156462585034014,0.6156462585034014,0.6156462585034014,0.6156462585034014,0.6156462585034014,0.6156462585034014,0.6156462585034014,0.6156462585034014,0.6156462585034014,0.6156462585034014,0.6156462585034014,0.6156462585034014,0.6156462585034014,0.6156462585034014,0.6156462585034014,0.6156462585034014,0.