"success","trial_type","trial_index","time_elapsed","internal_node_id","protocol_sum","subject_identifier","subject_sum","subject_pair","STUDY_ID","PROLIFIC_PID","SESSION_ID","practice_instructions","leaderboard_instructions","bonus","reveal_word","self_rating","confidence","view_history","rt","responses","question_order","correct","test_part","word","final_keyboard_state","num_clicks","points","cheat","position_RT","position","player","i_game","true_position","distance","last_word","response","stimulus","confidence_slider_self_response"
"true","fullscreen",0,4783,"0.0-0.0",NA,400,"39,186,220,152,61,241,120,11,96,194,179,250,157,58,25,160,14,70,170,199,152,69,31,15,235,220,165,41,32,250,173,223",200,"66a22c0758a3d5c9d26873c6","668027b9809f48e85f664723","66a363b462da46b4fceafc21",1,0,0,"false",4,75,"",NA,"","","","","","",NA,NA,"",NA,NA,NA,NA,NA,NA,"",NA,"",NA
"","instructions",1,33023,"0.0-1.0",NA,400,"39,186,220,152,61,241,120,11,96,194,179,250,157,58,25,160,14,70,170,199,152,69,31,15,235,220,165,41,32,250,173,223",200,"66a22c0758a3d5c9d26873c6","668027b9809f48e85f664723","66a363b462da46b4fceafc21",1,0,0,"false",4,75,"[{""page_index"":0,""viewing_time"":28230.300000000745}]",28235.6000000006,"","","","","","",NA,NA,"",NA,NA,NA,NA,NA,NA,"",NA,"",NA
"","instructions",2,59209,"0.0-2.0-0.0",NA,400,"39,186,220,152,61,241,120,11,96,194,179,250,157,58,25,160,14,70,170,199,152,69,31,15,235,220,165,41,32,250,173,223",200,"66a22c0758a3d5c9d26873c6","668027b9809f48e85f664723","66a363b462da46b4fceafc21",1,0,0,"false",4,75,"[{""page_index"":0,""viewing_time"":26181.900000000373}]",26183.9000000004,"","","","","","",NA,NA,"",NA,NA,NA,NA,NA,NA,"",NA,"",NA
"","survey-multi-choice",3,67429,"0.0-2.0-1.0",NA,400,"39,186,220,152,61,241,120,11,96,194,179,250,157,58,25,160,14,70,170,199,152,69,31,15,235,220,165,41,32,250,173,223",200,"66a22c0758a3d5c9d26873c6","668027b9809f48e85f664723","66a363b462da46b4fceafc21",1,0,0,"false",4,75,"",8212,"{""Q0"":""... reveal the word with as <b>few letter guesses</b> as possible""}","[0]","true","multichoice_nonpretend","","",NA,NA,"",NA,NA,NA,NA,NA,NA,"",NA,"",NA
"","instructions",4,69229,"0.0-3.0",NA,400,"39,186,220,152,61,241,120,11,96,194,179,250,157,58,25,160,14,70,170,199,152,69,31,15,235,220,165,41,32,250,173,223",200,"66a22c0758a3d5c9d26873c6","668027b9809f48e85f664723","66a363b462da46b4fceafc21",1,0,0,"false",4,75,"[{""page_index"":0,""viewing_time"":1784.5}]",1785.59999999963,"","","","","","",NA,NA,"",NA,NA,NA,NA,NA,NA,"",NA,"",NA
"","Hangman",5,139796,"0.0-4.0",NA,400,"39,186,220,152,61,241,120,11,96,194,179,250,157,58,25,160,14,70,170,199,152,69,31,15,235,220,165,41,32,250,173,223",200,"66a22c0758a3d5c9d26873c6","668027b9809f48e85f664723","66a363b462da46b4fceafc21",1,0,0,"false",4,75,"",NA,"","","","","ZEBRA","T,L,P,D,F,M,J,X,H,B,E,Z,R,A",14,6,"false",NA,NA,NA,NA,NA,NA,"",NA,"",NA
"","instructions",6,159424,"0.0-5.0",NA,400,"39,186,220,152,61,241,120,11,96,194,179,250,157,58,25,160,14,70,170,199,152,69,31,15,235,220,165,41,32,250,173,223",200,"66a22c0758a3d5c9d26873c6","668027b9809f48e85f664723","66a363b462da46b4fceafc21",1,0,0,"false",4,75,"[{""page_index"":0,""viewing_time"":7012},{""page_index"":1,""viewing_time"":12604.400000000373}]",19623,"","","","","","",NA,NA,"",NA,NA,NA,NA,NA,NA,"",NA,"",NA
"","survey-multi-choice",7,171533,"0.0-6.0",NA,400,"39,186,220,152,61,241,120,11,96,194,179,250,157,58,25,160,14,70,170,199,152,69,31,15,235,220,165,41,32,250,173,223",200,"66a22c0758a3d5c9d26873c6","668027b9809f48e85f664723","66a363b462da46b4fceafc21",1,0,0,"false",4,75,"",12102.1999999993,"{""Q0"":""...from <b>a previous session</b> that is part of the upcoming tournament.""}","[0]","false","multichoice_leaderboard","","",NA,NA,"",NA,NA,NA,NA,NA,NA,"",NA,"",NA
"","instructions",8,173807,"0.0-7.0-0.0",NA,400,"39,186,220,152,61,241,120,11,96,194,179,250,157,58,25,160,14,70,170,199,152,69,31,15,235,220,165,41,32,250,173,223",200,"66a22c0758a3d5c9d26873c6","668027b9809f48e85f664723","66a363b462da46b4fceafc21",1,0,0,"false",4,75,"[{""page_index"":0,""viewing_time"":2258.9000000003725}]",2260.80000000075,"","","","","","",NA,NA,"",NA,NA,NA,NA,NA,NA,"",NA,"",NA
"","survey-multi-choice",9,180220,"0.0-7.0-1.0",NA,400,"39,186,220,152,61,241,120,11,96,194,179,250,157,58,25,160,14,70,170,199,152,69,31,15,235,220,165,41,32,250,173,223",200,"66a22c0758a3d5c9d26873c6","668027b9809f48e85f664723","66a363b462da46b4fceafc21",1,0,0,"false",4,75,"",6404.40000000037,"{""Q0"":""...from <b>a previous session</b> that is not part of the upcoming tournament.""}","[0]","true","multichoice_leaderboard","","",NA,NA,"",NA,NA,NA,NA,NA,NA,"",NA,"",NA
"","instructions",10,188516,"0.0-8.0",NA,400,"39,186,220,152,61,241,120,11,96,194,179,250,157,58,25,160,14,70,170,199,152,69,31,15,235,220,165,41,32,250,173,223",200,"66a22c0758a3d5c9d26873c6","668027b9809f48e85f664723","66a363b462da46b4fceafc21",1,0,0,"false",4,75,"[{""page_index"":0,""viewing_time"":8280.5}]",8282.80000000075,"","","","","","",NA,NA,"",NA,NA,NA,NA,NA,NA,"",NA,"",NA
"","survey-multi-choice",11,194537,"0.0-9.0",NA,400,"39,186,220,152,61,241,120,11,96,194,179,250,157,58,25,160,14,70,170,199,152,69,31,15,235,220,165,41,32,250,173,223",200,"66a22c0758a3d5c9d26873c6","668027b9809f48e85f664723","66a363b462da46b4fceafc21",1,0,0,"false",4,75,"",6011.59999999963,"{""Q0"":""...players' leaderboard position (in terms of <b>points</b>) in an <b>upcoming tournament.</b>""}","[0]","true","multichoice_tournament","","",NA,NA,"",NA,NA,NA,NA,NA,NA,"",NA,"",NA
"","instructions",12,206901,"0.0-11.0",NA,400,"39,186,220,152,61,241,120,11,96,194,179,250,157,58,25,160,14,70,170,199,152,69,31,15,235,220,165,41,32,250,173,223",200,"66a22c0758a3d5c9d26873c6","668027b9809f48e85f664723","66a363b462da46b4fceafc21",1,0,0,"false",4,75,"[{""page_index"":0,""viewing_time"":12348.599999999627}]",12352.4000000004,"","","","","","",NA,NA,"",NA,NA,NA,NA,NA,NA,"",NA,"",NA
"","instructions",13,218589,"0.0-12.0-0.0",NA,400,"39,186,220,152,61,241,120,11,96,194,179,250,157,58,25,160,14,70,170,199,152,69,31,15,235,220,165,41,32,250,173,223",200,"66a22c0758a3d5c9d26873c6","668027b9809f48e85f664723","66a363b462da46b4fceafc21",1,0,0,"false",4,75,"[{""page_index"":0,""viewing_time"":11677.799999998882}]",11682.6999999993,"","","","","","",NA,NA,"",NA,NA,NA,NA,NA,NA,"",NA,"",NA
"","Hangman_replay",14,268103,"0.0-12.0-1.0",NA,400,"39,186,220,152,61,241,120,11,96,194,179,250,157,58,25,160,14,70,170,199,152,69,31,15,235,220,165,41,32,250,173,223",200,"66a22c0758a3d5c9d26873c6","668027b9809f48e85f664723","66a363b462da46b4fceafc21",1,0,0,"false",4,75,"",NA,"","","","","USAIN BOLT","E,A,I,O,S,N,U,B,L,T",10,14,"false",NA,NA,NA,NA,NA,NA,"",NA,"",NA
"","instructions",15,278962,"0.0-12.0-2.0",NA,400,"39,186,220,152,61,241,120,11,96,194,179,250,157,58,25,160,14,70,170,199,152,69,31,15,235,220,165,41,32,250,173,223",200,"66a22c0758a3d5c9d26873c6","668027b9809f48e85f664723","66a363b462da46b4fceafc21",1,0,0,"false",4,75,"[{""page_index"":0,""viewing_time"":10849.699999999255}]",10856.3000000007,"","","","","","",NA,NA,"",NA,NA,NA,NA,NA,NA,"",NA,"",NA
"","Guess_leaderboard",16,285176,"0.0-12.0-3.0",NA,400,"39,186,220,152,61,241,120,11,96,194,179,250,157,58,25,160,14,70,170,199,152,69,31,15,235,220,165,41,32,250,173,223",200,"66a22c0758a3d5c9d26873c6","668027b9809f48e85f664723","66a363b462da46b4fceafc21",1,0,0,"false",4,75,"",NA,"","","","","USAIN BOLT","",NA,NA,"",5434.90000000037,20,35,0,47,27,"",NA,"",NA
"","instructions",17,289598,"0.0-12.0-0.1",NA,400,"39,186,220,152,61,241,120,11,96,194,179,250,157,58,25,160,14,70,170,199,152,69,31,15,235,220,165,41,32,250,173,223",200,"66a22c0758a3d5c9d26873c6","668027b9809f48e85f664723","66a363b462da46b4fceafc21",1,0,0,"false",4,75,"[{""page_index"":0,""viewing_time"":4413.4000000003725}]",4415.59999999963,"","","","","","",NA,NA,"",NA,NA,NA,NA,NA,NA,"",NA,"",NA
"","Hangman_replay",18,337730,"0.0-12.0-1.1",NA,400,"39,186,220,152,61,241,120,11,96,194,179,250,157,58,25,160,14,70,170,199,152,69,31,15,235,220,165,41,32,250,173,223",200,"66a22c0758a3d5c9d26873c6","668027b9809f48e85f664723","66a363b462da46b4fceafc21",1,0,0,"false",4,75,"",NA,"","","","","KENTUCKY","M,C,I,A,F,G,W,K,E,N,T,U,Y",13,9,"false",NA,NA,NA,NA,NA,NA,"",NA,"",NA
"","instructions",19,340626,"0.0-12.0-2.1",NA,400,"39,186,220,152,61,241,120,11,96,194,179,250,157,58,25,160,14,70,170,199,152,69,31,15,235,220,165,41,32,250,173,223",200,"66a22c0758a3d5c9d26873c6","668027b9809f48e85f664723","66a363b462da46b4fceafc21",1,0,0,"false",4,75,"[{""page_index"":0,""viewing_time"":2892.10000000149}]",2894.20000000112,"","","","","","",NA,NA,"",NA,NA,NA,NA,NA,NA,"",NA,"",NA
"","Guess_leaderboard",20,343403,"0.0-12.0-3.1",NA,400,"39,186,220,152,61,241,120,11,96,194,179,250,157,58,25,160,14,70,170,199,152,69,31,15,235,220,165,41,32,250,173,223",200,"66a22c0758a3d5c9d26873c6","668027b9809f48e85f664723","66a363b462da46b4fceafc21",1,0,0,"false",4,75,"",NA,"","","","","KENTUCKY","",NA,NA,"",2010.59999999963,72,27,1,50,22,"",NA,"",NA
"","instructions",21,345961,"0.0-12.0-0.2",NA,400,"39,186,220,152,61,241,120,11,96,194,179,250,157,58,25,160,14,70,170,199,152,69,31,15,235,220,165,41,32,250,173,223",200,"66a22c0758a3d5c9d26873c6","668027b9809f48e85f664723","66a363b462da46b4fceafc21",1,0,0,"false",4,75,"[{""page_index"":0,""viewing_time"":2551.4000000003725}]",2553.5,"","","","","","",NA,NA,"",NA,NA,NA,NA,NA,NA,"",NA,"",NA
"","Hangman_replay",22,431986,"0.0-12.0-1.2",NA,400,"39,186,220,152,61,241,120,11,96,194,179,250,157,58,25,160,14,70,170,199,152,69,31,15,235,220,165,41,32,250,173,223",200,"66a22c0758a3d5c9d26873c6","668027b9809f48e85f664723","66a363b462da46b4fceafc21",1,0,0,"false",4,75,"",NA,"","","","","WRIST","H,A,U,M,T,P,E,F,J,S,R,I,W",13,7,"false",NA,NA,NA,NA,NA,NA,"",NA,"",NA
"","instructions",23,438550,"0.0-12.0-2.2",NA,400,"39,186,220,152,61,241,120,11,96,194,179,250,157,58,25,160,14,70,170,199,152,69,31,15,235,220,165,41,32,250,173,223",200,"66a22c0758a3d5c9d26873c6","668027b9809f48e85f664723","66a363b462da46b4fceafc21",1,0,0,"false",4,75,"[{""page_index"":0,""viewing_time"":6558.300000000745}]",6562.19999999925,"","","","","","",NA,NA,"",NA,NA,NA,NA,NA,NA,"",NA,"",NA
"","Guess_leaderboard",24,442242,"0.0-12.0-3.2",NA,400,"39,186,220,152,61,241,120,11,96,194,179,250,157,58,25,160,14,70,170,199,152,69,31,15,235,220,165,41,32,250,173,223",200,"66a22c0758a3d5c9d26873c6","668027b9809f48e85f664723","66a363b462da46b4fceafc21",1,0,0,"false",4,75,"",NA,"","","","","WRIST","",NA,NA,"",2910.29999999888,88,89,2,58,30,"",NA,"",NA
"","instructions",25,450856,"0.0-12.0-0.3",NA,400,"39,186,220,152,61,241,120,11,96,194,179,250,157,58,25,160,14,70,170,199,152,69,31,15,235,220,165,41,32,250,173,223",200,"66a22c0758a3d5c9d26873c6","668027b9809f48e85f664723","66a363b462da46b4fceafc21",1,0,0,"false",4,75,"[{""page_index"":0,""viewing_time"":8606.799999998882}]",8609.09999999963,"","","","","","",NA,NA,"",NA,NA,NA,NA,NA,NA,"",NA,"",NA
"","Hangman_replay",26,512777,"0.0-12.0-1.3",NA,400,"39,186,220,152,61,241,120,11,96,194,179,250,157,58,25,160,14,70,170,199,152,69,31,15,235,220,165,41,32,250,173,223",200,"66a22c0758a3d5c9d26873c6","668027b9809f48e85f664723","66a363b462da46b4fceafc21",1,0,0,"false",4,75,"",NA,"","","","","NECTARINE","A,E,B,C,D,F,G,H,P,S,T,N,R,I",14,8,"false",NA,NA,NA,NA,NA,NA,"",NA,"",NA
"","instructions",27,514948,"0.0-12.0-2.3",NA,400,"39,186,220,152,61,241,120,11,96,194,179,250,157,58,25,160,14,70,170,199,152,69,31,15,235,220,165,41,32,250,173,223",200,"66a22c0758a3d5c9d26873c6","668027b9809f48e85f664723","66a363b462da46b4fceafc21",1,0,0,"false",4,75,"[{""page_index"":0,""viewing_time"":2166.39999999851}]",2168.69999999925,"","","","","","",NA,NA,"",NA,NA,NA,NA,NA,NA,"",NA,"",NA
"","Guess_leaderboard",28,517918,"0.0-12.0-3.3",NA,400,"39,186,220,152,61,241,120,11,96,194,179,250,157,58,25,160,14,70,170,199,152,69,31,15,235,220,165,41,32,250,173,223",200,"66a22c0758a3d5c9d26873c6","668027b9809f48e85f664723","66a363b462da46b4fceafc21",1,0,0,"false",4,75,"",NA,"","","","","NECTARINE","",NA,NA,"",2188,70,9,3,49,21,"",NA,"",NA
"","instructions",29,520301,"0.0-12.0-0.4",NA,400,"39,186,220,152,61,241,120,11,96,194,179,250,157,58,25,160,14,70,170,199,152,69,31,15,235,220,165,41,32,250,173,223",200,"66a22c0758a3d5c9d26873c6","668027b9809f48e85f664723","66a363b462da46b4fceafc21",1,0,0,"false",4,75,"[{""page_index"":0,""viewing_time"":2376.5999999996275}]",2378.79999999888,"","","","","","",NA,NA,"",NA,NA,NA,NA,NA,NA,"",NA,"",NA
"","Hangman_replay",30,546624,"0.0-12.0-1.4",NA,400,"39,186,220,152,61,241,120,11,96,194,179,250,157,58,25,160,14,70,170,199,152,69,31,15,235,220,165,41,32,250,173,223",200,"66a22c0758a3d5c9d26873c6","668027b9809f48e85f664723","66a363b462da46b4fceafc21",1,0,0,"false",4,75,"",NA,"","","","","THIRTY FOUR","F,O,U,R,T,H,I,Y",8,15,"false",NA,NA,NA,NA,NA,NA,"",NA,"",NA
"","instructions",31,548824,"0.0-12.0-2.4",NA,400,"39,186,220,152,61,241,120,11,96,194,179,250,157,58,25,160,14,70,170,199,152,69,31,15,235,220,165,41,32,250,173,223",200,"66a22c0758a3d5c9d26873c6","668027b9809f48e85f664723","66a363b462da46b4fceafc21",1,0,0,"false",4,75,"[{""page_index"":0,""viewing_time"":2195.699999999255}]",2197.39999999851,"","","","","","",NA,NA,"",NA,NA,NA,NA,NA,NA,"",NA,"",NA
"","Guess_leaderboard",32,552098,"0.0-12.0-3.4",NA,400,"39,186,220,152,61,241,120,11,96,194,179,250,157,58,25,160,14,70,170,199,152,69,31,15,235,220,165,41,32,250,173,223",200,"66a22c0758a3d5c9d26873c6","668027b9809f48e85f664723","66a363b462da46b4fceafc21",1,0,0,"false",4,75,"",NA,"","","","","THIRTY FOUR","",NA,NA,"",2503.80000000075,15,16,4,20,5,"",NA,"",NA
"","survey-text",33,576609,"0.0-13.0",NA,400,"39,186,220,152,61,241,120,11,96,194,179,250,157,58,25,160,14,70,170,199,152,69,31,15,235,220,165,41,32,250,173,223",200,"66a22c0758a3d5c9d26873c6","668027b9809f48e85f664723","66a363b462da46b4fceafc21",1,0,0,"false",4,75,"",24494.6000000015,"{""Q0"":""fourty four""}","","","","","",NA,NA,"",NA,NA,NA,NA,NA,NA,"thirty four",NA,"",NA
"","survey-multi-choice",34,591786,"0.0-14.0",NA,400,"39,186,220,152,61,241,120,11,96,194,179,250,157,58,25,160,14,70,170,199,152,69,31,15,235,220,165,41,32,250,173,223",200,"66a22c0758a3d5c9d26873c6","668027b9809f48e85f664723","66a363b462da46b4fceafc21",1,0,0,"false",4,75,"",15168.4000000004,"{""Q0"":""4. I would be <b>fourth</b> out of the six of us.""}","[0]","","self-rating","","",NA,NA,"",NA,4,NA,NA,NA,NA,"",NA,"",NA
"","html-slider-response",35,597046,"0.0-15.0",NA,400,"39,186,220,152,61,241,120,11,96,194,179,250,157,58,25,160,14,70,170,199,152,69,31,15,235,220,165,41,32,250,173,223",200,"66a22c0758a3d5c9d26873c6","668027b9809f48e85f664723","66a363b462da46b4fceafc21",1,0,0,"false",4,75,"",5237.40000000037,"","","","","","",NA,NA,"",NA,NA,NA,NA,NA,NA,"",75,"<p>Overall, how confident were you in your answer to this last question?</p>",75
"","survey-text",36,648313,"0.0-16.0",NA,400,"39,186,220,152,61,241,120,11,96,194,179,250,157,58,25,160,14,70,170,199,152,69,31,15,235,220,165,41,32,250,173,223",200,"66a22c0758a3d5c9d26873c6","668027b9809f48e85f664723","66a363b462da46b4fceafc21",1,0,0,"false",4,75,"",51253.5999999996,"{""Q0"":""I think your out testing our ability to guess different things.""}","","","","","",NA,NA,"",NA,NA,NA,NA,NA,NA,"",NA,"",NA
"","survey-text",37,659256,"0.0-17.0",NA,400,"39,186,220,152,61,241,120,11,96,194,179,250,157,58,25,160,14,70,170,199,152,69,31,15,235,220,165,41,32,250,173,223",200,"66a22c0758a3d5c9d26873c6","668027b9809f48e85f664723","66a363b462da46b4fceafc21",1,0,0,"false",4,75,"",10928.2000000011,"{""Q0"":""n/a""}","","","","","",NA,NA,"",NA,NA,NA,NA,NA,NA,"",NA,"",NA
"","instructions",38,662330,"0.0-18.0",NA,400,"39,186,220,152,61,241,120,11,96,194,179,250,157,58,25,160,14,70,170,199,152,69,31,15,235,220,165,41,32,250,173,223",200,"66a22c0758a3d5c9d26873c6","668027b9809f48e85f664723","66a363b462da46b4fceafc21",1,0,0,"false",4,75,"[{""page_index"":0,""viewing_time"":3069.4000000003725}]",3071.19999999925,"","","","","","",NA,NA,"",NA,NA,NA,NA,NA,NA,"",NA,"",NA
