[{"success":true,"trial_type":"fullscreen","trial_index":0,"time_elapsed":2708,"internal_node_id":"0.0-0.0","protocol_sum":"","subject_identifier":307,"subject_sum":[98,12,156,51,33,1,165,186,233,85,198,106,231,34,104,251,205,57,114,118,97,121,82,44,141,238,222,106,36,154,221,183],"subject_pair":153,"STUDY_ID":"66a0b3911f23dfc7665bb169","PROLIFIC_PID":"65ce5d8d0219b79ced7729cd","SESSION_ID":"66a1141b711b8aae2992af31","practice_instructions":1,"leaderboard_instructions":1,"bonus":0,"reveal_word":true,"self_rating":"3","confidence":"53"},{"view_history":"[{\"page_index\":0,\"viewing_time\":3038.100000143051}]","rt":3038.2999999523163,"trial_type":"instructions","trial_index":1,"time_elapsed":5748,"internal_node_id":"0.0-1.0","protocol_sum":"","subject_identifier":307,"subject_sum":[98,12,156,51,33,1,165,186,233,85,198,106,231,34,104,251,205,57,114,118,97,121,82,44,141,238,222,106,36,154,221,183],"subject_pair":153,"STUDY_ID":"66a0b3911f23dfc7665bb169","PROLIFIC_PID":"65ce5d8d0219b79ced7729cd","SESSION_ID":"66a1141b711b8aae2992af31","practice_instructions":1,"leaderboard_instructions":1,"bonus":0,"reveal_word":true,"self_rating":"3","confidence":"53"},{"view_history":"[{\"page_index\":0,\"viewing_time\":15221.899999856949}]","rt":15222.200000047684,"trial_type":"instructions","trial_index":2,"time_elapsed":20971,"internal_node_id":"0.0-2.0-0.0","protocol_sum":"","subject_identifier":307,"subject_sum":[98,12,156,51,33,1,165,186,233,85,198,106,231,34,104,251,205,57,114,118,97,121,82,44,141,238,222,106,36,154,221,183],"subject_pair":153,"STUDY_ID":"66a0b3911f23dfc7665bb169","PROLIFIC_PID":"65ce5d8d0219b79ced7729cd","SESSION_ID":"66a1141b711b8aae2992af31","practice_instructions":1,"leaderboard_instructions":1,"bonus":0,"reveal_word":true,"self_rating":"3","confidence":"53"},{"rt":7294.399999856949,"responses":"{\"Q0\":\"... reveal the word with as <b>few letter guesses</b> as possible\"}","question_order":"[0]","trial_type":"survey-multi-choice","trial_index":3,"time_elapsed":28266,"internal_node_id":"0.0-2.0-1.0","protocol_sum":"","subject_identifier":307,"subject_sum":[98,12,156,51,33,1,165,186,233,85,198,106,231,34,104,251,205,57,114,118,97,121,82,44,141,238,222,106,36,154,221,183],"subject_pair":153,"correct":true,"test_part":"multichoice_nonpretend","STUDY_ID":"66a0b3911f23dfc7665bb169","PROLIFIC_PID":"65ce5d8d0219b79ced7729cd","SESSION_ID":"66a1141b711b8aae2992af31","practice_instructions":1,"leaderboard_instructions":1,"bonus":0,"reveal_word":true,"self_rating":"3","confidence":"53"},{"view_history":"[{\"page_index\":0,\"viewing_time\":1484.4000000953674}]","rt":1484.7000000476837,"trial_type":"instructions","trial_index":4,"time_elapsed":29752,"internal_node_id":"0.0-3.0","protocol_sum":"","subject_identifier":307,"subject_sum":[98,12,156,51,33,1,165,186,233,85,198,106,231,34,104,251,205,57,114,118,97,121,82,44,141,238,222,106,36,154,221,183],"subject_pair":153,"STUDY_ID":"66a0b3911f23dfc7665bb169","PROLIFIC_PID":"65ce5d8d0219b79ced7729cd","SESSION_ID":"66a1141b711b8aae2992af31","practice_instructions":1,"leaderboard_instructions":1,"bonus":0,"reveal_word":true,"self_rating":"3","confidence":"53"},{"word":"ZEBRA","click_log":{"letter":["","S","O","I","A","P","D","E","B","Z","R"],"t":[0,4232.5,12009.900000095367,13304.900000095367,14860.300000190735,17469.10000014305,22204,23141.400000095367,25101.200000047684,27965.200000047684,30570.800000190735],"hit":[null,0,0,0,1,0,0,1,1,1,1],"asked":["","S","SO","SOI","SOIA","SOIAP","SOIAPD","SOIAPDE","SOIAPDEB","SOIAPDEBZ","SOIAPDEBZR"],"word_state":["_____","_____","_____","_____","____A","____A","____A","_E__A","_EB_A","ZEB_A","ZEBRA"]},"hover_log":{"letter":["?","?","?","?","?","?","?","?","?","?","?","?","?","?","?","?","?","?","?","?","?","?","?","?","?","?","?","?","?","?","?","?","?","?","?","?","?","?","?","?","?","?","?","?","?","?","?","?","?","?","?","?","?","?","?","?","?","?","?","?","?","?","?","?","?","?","?","?","?","?","?","?","?","?","?","?","?","?","?","?","?","?","?","?","?","?","?","?","?","?","?","?","?","?","?","?","?","?","?","?","?","?","?","?","?","?","?","?","?","?","?","?","?","?","?","?","?","?","?","?","?","?","?","?","?","?","?","?","?","?","?","?","?","?","?","?","?","?","?","?","?","?","?","?","?","?","?","?","?","?","?","?","?","?","?","?","?","?","?","?","?","?","?","?","?","?","?","?","?","?","?","?","?","?","?","?","?","?","?","?","?","?","?","?","?","?","?","?","?","?","?","?","?","?","?","?","?","?","?","?","?","?","?","T","T","T","T","T","?","?","S","S","S","S","S","S","S","S","S","S","S","S","S","S","S","S","S","S","S","S","S","S","S","S","S","S","S","S","S","S","S","S","S","S","S","S","S","S","S","S","S","S","S","S","S","S","S","S","S","S","S","S","S","S","S","S","S","S","S","S","S","S","S","S","S","S","S","S","S","S","S","S","S","S","S","S","S","S","S","S","S","S","S","S","S","S","S","S","S","S","S","S","S","S","S","S","S","S","S","S","S","S","S","S","S","S","S","S","S","S","S","S","S","S","S","S","S","S","S","?","?","?","?","?","?","?","?","?","?","?","L","L","L","?","?","M","M","M","M","M","M","M","M","M","M","M","M","M","M","M","M","M","M","M","M","M","M","M","M","M","M","M","M","M","M","M","M","M","M","M","M","M","M","M","M","M","M","M","M","M","?","?","?","N","N","N","N","N","N","N","N","N","N","N","N","N","N","N","N","N","N","N","N","N","N","N","N","N","N","N","N","N","N","N","N","N","N","N","N","N","N","N","N","N","N","N","N","N","N","N","N","N","N","N","N","N","N","N","N","N","N","N","N","N","N","N","N","N","N","N","N","N","N","N","N","N","N","N","N","N","N","N","N","N","N","N","N","N","N","N","N","N","N","N","N","N","N","N","N","N","N","N","N","N","N","N","N","N","N","N","N","N","N","N","N","N","N","N","N","N","N","N","N","N","N","N","N","N","N","N","N","N","N","N","N","N","N","N","N","N","N","N","N","N","N","N","N","?","M","M","M","?","L","L","L","L","L","L","L","L","L","L","L","L","?","?","?","?","?","?","?","?","?","L","L","L","L","L","?","?","?","?","?","?","V","V","V","V","V","V","V","V","V","V","V","V","V","V","V","V","V","V","V","V","V","V","V","V","V","V","V","V","V","V","V","V","V","V","V","V","V","V","V","V","V","V","V","V","V","V","V","V","V","V","V","V","V","V","V","V","V","V","V","V","V","V","V","V","V","V","V","V","V","V","V","V","V","V","V","V","V","V","V","V","V","V","V","V","V","V","V","V","V","V","V","V","V","V","V","V","V","V","V","V","V","V","V","V","V","V","V","V","V","V","V","V","V","V","V","V","V","V","?","W","W","W","?","?","?","P","?","Q","Q","Q","Q","?","?","?","?","?","P","P","P","?","?","?","O","O","O","O","O","O","O","O","O","O","O","O","O","O","O","O","O","O","O","O","O","O","O","O","O","O","O","O","O","O","O","O","O","O","O","O","O","O","O","O","O","O","O","O","O","O","O","O","O","O","O","O","O","O","O","O","O","O","O","O","O","?","?","?","?","G","G","G","G","?","H","H","H","H","H","?","?","I","I","I","I","I","I","I","I","I","I","I","I","I","I","I","I","I","I","I","I","I","I","I","I","I","I","I","I","I","I","I","I","I","I","I","I","I","I","I","I","I","I","I","I","I","I","I","I","I","I","I","I","I","I","I","I","?","H","?","G","F","F","E","E","D","D","D","?","?","?","C","C","C","C","C","C","C","C","C","C","C","C","C","C","C","C","C","C","C","B","B","B","?","A","A","A","A","A","A","A","A","A","A","A","A","A","A","A","A","A","A","A","A","A","A","A","A","A","A","A","A","A","A","A","A","A","A","A","A","A","A","A","A","A","A","A","A","A","A","A","A","A","A","A","A","A","A","A","A","A","A","A","A","A","A","A","A","A","A","A","A","A","A","A","A","A","A","A","A","A","?","?","B","B","B","B","B","B","B","?","C","C","C","?","D","D","D","D","D","D","D","D","D","D","D","D","D","D","D","D","D","D","D","?","?","?","?","N","N","?","O","O","O","O","O","O","?","?","?","?","?","X","X","X","X","X","X","X","X","X","X","X","X","X","X","X","X","?","Y","Y","Y","Y","?","?","?","?","?","?","?","?","?","?","P","P","P","P","P","P","P","P","P","P","P","P","P","P","P","P","P","P","P","P","P","P","P","P","P","P","P","P","P","P","P","P","P","P","P","P","P","P","P","P","P","P","P","P","P","P","P","P","P","P","P","P","P","P","P","P","P","P","P","P","P","P","P","P","P","P","P","P","P","P","P","P","P","P","P","P","P","P","P","P","P","?","?","?","?","?","?","?","?","?","?","?","?","?","?","?","?","?","?","?","?","?","?","?","?","?","?","?","?","?","?","?","?","?","?","?","P","P","P","P","P","P","P","P","P","P","?","?","O","O","?","N","N","N","?","?","?","?","?","?","?","?","?","?","?","?","?","?","?","?","?","?","?","?","?","U","U","U","U","U","U","U","U","U","U","U","U","U","U","U","U","U","U","U","U","U","U","U","U","U","U","?","?","?","?","K","K","K","K","K","K","K","K","K","K","K","K","K","?","?","L","L","?","?","?","?","?","?","?","?","?","?","?","?","?","?","?","?","?","?","?","?","?","?","?","?","?","W","W","W","W","W","?","?","?","X","X","X","X","X","X","X","X","X","X","X","X","X","X","?","W","W","W","W","?","?","?","?","?","M","M","M","M","?","?","?","D","D","D","D","D","D","D","D","D","?","?","?","E","E","E","E","E","E","E","E","E","?","?","D","?","?","?","?","?","?","C","C","C","C","C","C","?","?","?","D","D","D","D","D","D","D","D","D","D","D","D","D","D","D","D","D","D","D","D","D","D","D","D","D","D","D","D","D","D","D","D","D","D","D","D","D","D","D","D","D","D","D","D","D","D","D","D","D","D","D","?","?","?","?","?","?","?","?","?","E","E","E","E","E","E","E","E","E","E","E","E","E","E","E","E","E","E","E","E","E","E","E","E","E","E","E","E","E","E","E","E","E","E","E","E","E","E","E","E","E","E","E","E","E","E","E","E","E","E","E","E","E","E","E","E","E","E","E","E","E","E","E","E","?","?","?","D","D","D","D","D","D","D","D","D","D","D","D","D","D","D","D","D","D","?","?","?","?","?","?","?","?","?","?","?","?","?","?","?","?","?","?","?","?","?","C","C","C","C","C","C","C","C","C","C","C","C","C","C","?","?","?","B","B","B","B","B","B","B","B","B","B","B","B","B","B","B","B","B","B","B","B","B","B","B","B","B","B","B","B","B","B","B","B","B","B","B","B","B","B","B","B","B","B","B","B","B","B","B","B","B","B","B","B","B","B","B","B","B","B","B","B","B","B","B","B","B","B","B","B","B","B","B","B","B","B","B","B","B","B","B","B","B","B","B","B","B","B","B","B","B","B","B","B","B","B","B","B","B","B","B","B","B","B","B","B","B","B","B","B","B","B","B","B","B","B","B","B","B","B","B","B","B","B","B","B","B","B","B","B","B","B","B","B","B","?","?","K","K","?","?","?","?","S","?","?","?","?","?","?","?","?","?","?","?","?","T","T","T","T","U","U","U","?","V","?","W","?","X","X","?","Y","?","?","?","?","?","?","?","?","?","?","Z","Z","Z","Z","Z","Z","Z","Z","Z","Z","Z","Z","Z","Z","Z","Z","Z","Z","Z","Z","Z","Z","Z","Z","Z","Z","Z","Z","Z","Z","Z","Z","Z","Z","Z","Z","Z","Z","Z","Z","Z","Z","Z","Z","Z","Z","Z","Z","Z","Z","Z","?","Y","?","?","?","O","O","O","?","N","N","N","?","?","?","?","?","?","?","?","?","?","?","D","D","D","D","D","D","D","?","?","?","?","?","?","?","?","?","L","L","?","?","M","M","M","M","M","N","N","N","?","O","O","O","?","P","P","P","P","P","P","P","P","P","?","?","?","?","?","G","G","G","G","G","G","?","?","?","?","F","E","E","?","?","M","M","M","?","?","?","?","?","?","?","?","?","P","Q","Q","R","R","R","R","R","R","R","R","R","R","R","R","R","R","R","R","R","R","R","R","R","R","R","R","R","R","R","R","R","R","R","R","R","R","R","R","R","R","R","R","R","R","R","R","R","R","R","R","R","R","Q","P","O","N","M","L","?","?","?","?","?","?","?","?","?","?","?","?","?","?","?","?","?","?","?","?","?","?","?","?","?","?","?","?","?","?","?","?","?","?","?","?","?","?","?","?","?","?","?","?","?","?","?","?","?","?","?","?","?","?","?","?","?","?","?","?","?","?","?","?","?","?","?","?","?","?","?","?","?","?","?","?","?","?","?","?","?","?","?","?","?","?","?","?","?","?","?","?","?","?","?","?","?"],"t":[40,42,96,114,129,146,163,179,196,214,228,242,258,275,292,309,326,342,357,372,390,406,422,439,455,471,489,507,521,538,555,572,586,605,619,637,657,673,691,711,729,746,763,779,797,813,831,847,863,880,897,914,931,947,964,980,997,1015,1030,1047,1064,1081,1096,1113,1130,1147,1165,1180,1197,1214,1230,1246,1263,1280,1297,1310,1329,1343,1357,1376,1389,1403,1421,1435,1453,1473,1488,1508,1522,1538,1556,1573,1589,1606,1621,1638,1656,1672,1689,1704,1721,1737,1754,1771,1788,1804,1820,1837,1854,1870,1888,1907,1924,1943,1960,1976,1993,2008,2026,2042,2059,2076,2090,2108,2123,2137,2155,2169,2183,2200,2214,2228,2247,2261,2280,2298,2314,2332,2347,2363,2379,2397,2414,2429,2446,2462,2479,2496,2515,2532,2549,2566,2583,2600,2617,2635,2650,2667,2685,2701,2719,2735,2748,2768,2781,2797,2812,2832,2850,2866,2884,2899,2914,2930,2946,2963,2979,2997,3013,3030,3046,3063,3080,3096,3113,3129,3146,3162,3180,3196,3212,3229,3246,3262,3280,3297,3313,3329,3346,3364,3378,3395,3413,3430,3445,3462,3478,3496,3512,3528,3546,3562,3579,3596,3612,3630,3646,3660,3677,3691,3705,3721,3738,3754,3771,3787,3804,3822,3836,3851,3867,3883,3900,3917,3933,3950,3967,3983,4000,4017,4034,4051,4068,4083,4100,4114,4132,4146,4162,4179,4196,4213,4230,4244,4259,4275,4292,4308,4325,4342,4358,4376,4390,4405,4422,4438,4455,4472,4487,4504,4522,4538,4555,4569,4588,4601,4621,4640,4656,4677,4690,4706,4722,4739,4755,4772,4789,4805,4822,4838,4855,4872,4889,4905,4922,4938,4955,4972,4989,5005,5022,5039,5057,5072,5089,5106,5122,5138,5155,5172,5188,5204,5222,5237,5256,5272,5287,5304,5320,5337,5354,5372,5386,5401,5417,5434,5450,5467,5483,5501,5518,5534,5551,5568,5584,5600,5617,5633,5650,5666,5683,5700,5717,5733,5750,5767,5783,5800,5817,5833,5850,5867,5883,5900,5917,5931,5947,5964,5981,5996,6013,6029,6047,6063,6080,6095,6109,6121,6138,6155,6170,6184,6199,6217,6231,6244,6257,6271,6283,6302,6322,6338,6355,6368,6382,6397,6414,6429,6447,6465,6482,6499,6516,6533,6550,6566,6583,6600,6616,6633,6650,6666,6683,6700,6716,6733,6749,6767,6784,6797,6814,6828,6842,6858,6876,6890,6908,6927,6943,6961,6976,6992,7009,7026,7042,7061,7077,7092,7111,7125,7143,7160,7177,7194,7209,7226,7242,7259,7275,7292,7309,7325,7343,7359,7376,7393,7410,7426,7440,7453,7467,7479,7496,7513,7526,7543,7560,7576,7593,7609,7628,7642,7654,7672,7692,7713,7732,7751,7764,7779,7797,7813,7830,7847,7867,7886,7903,7920,7937,7953,7971,7988,8003,8022,8039,8055,8071,8089,8105,8121,8138,8155,8172,8188,8205,8222,8239,8254,8270,8287,8304,8322,8339,8352,8368,8385,8400,8418,8434,8450,8468,8485,8501,8516,8533,8550,8566,8583,8597,8611,8624,8643,8662,8677,8690,8704,8720,8735,8751,8767,8786,8800,8815,8828,8844,8857,8871,8888,8905,8921,8938,8955,8971,8987,9003,9020,9037,9053,9070,9087,9103,9120,9137,9153,9170,9187,9203,9221,9238,9251,9267,9282,9299,9314,9330,9346,9363,9379,9395,9412,9428,9445,9462,9478,9495,9512,9528,9545,9562,9578,9595,9612,9628,9646,9663,9676,9693,9709,9726,9741,9758,9776,9793,9809,9826,9843,9859,9876,9893,9909,9927,9944,9959,9976,9993,10009,10025,10043,10059,10076,10093,10108,10125,10143,10160,10177,10193,10209,10225,10242,10260,10277,10292,10309,10325,10343,10360,10375,10394,10409,10426,10443,10460,10475,10492,10509,10526,10541,10559,10576,10592,10609,10624,10637,10656,10669,10682,10701,10714,10728,10742,10760,10773,10792,10806,10826,10839,10853,10867,10884,10898,10913,10925,10941,10954,10971,10984,11000,11016,11035,11051,11068,11083,11099,11112,11127,11143,11156,11170,11182,11195,11208,11225,11242,11256,11271,11285,11302,11316,11331,11344,11357,11369,11387,11401,11417,11434,11450,11466,11483,11499,11515,11532,11549,11566,11582,11599,11616,11632,11649,11666,11682,11699,11716,11732,11749,11766,11783,11799,11816,11832,11849,11866,11883,11900,11918,11932,11948,11965,11982,12000,12017,12030,12048,12062,12078,12095,12112,12128,12146,12159,12174,12192,12208,12224,12242,12257,12275,12291,12308,12322,12340,12360,12376,12394,12410,12426,12443,12459,12476,12493,12509,12526,12542,12559,12576,12593,12610,12626,12642,12659,12676,12692,12709,12726,12742,12759,12775,12791,12808,12824,12841,12858,12874,12891,12908,12924,12941,12958,12974,12991,13008,13024,13041,13058,13074,13092,13109,13122,13138,13154,13170,13187,13204,13220,13238,13257,13274,13289,13307,13321,13336,13353,13370,13387,13405,13421,13435,13450,13467,13484,13500,13517,13531,13550,13563,13577,13591,13603,13616,13634,13647,13666,13680,13699,13713,13728,13741,13758,13773,13786,13804,13818,13837,13856,13873,13885,13904,13920,13937,13954,13971,13987,14004,14021,14037,14053,14070,14087,14104,14120,14137,14154,14170,14187,14204,14222,14238,14252,14267,14283,14300,14316,14333,14351,14366,14383,14398,14411,14425,14437,14452,14467,14484,14499,14516,14533,14549,14566,14583,14599,14616,14633,14649,14666,14681,14700,14713,14730,14746,14764,14781,14795,14812,14826,14840,14853,14866,14884,14897,14911,14925,14937,14955,14968,14982,14995,15007,15020,15038,15051,15070,15084,15103,15118,15131,15145,15157,15170,15183,15195,15208,15220,15233,15245,15257,15270,15282,15300,15319,15334,15347,15361,15376,15393,15409,15426,15445,15460,15473,15491,15508,15524,15542,15558,15572,15589,15604,15620,15637,15653,15670,15687,15704,15720,15737,15753,15770,15787,15804,15820,15837,15853,15870,15887,15904,15920,15937,15953,15970,15987,16003,16021,16038,16051,16068,16084,16101,16117,16134,16150,16167,16184,16200,16217,16234,16250,16266,16283,16299,16316,16333,16349,16367,16384,16400,16417,16433,16449,16466,16483,16499,16516,16533,16549,16566,16583,16599,16616,16633,16649,16666,16683,16700,16717,16731,16746,16764,16782,16799,16816,16833,16849,16866,16883,16899,16916,16933,16950,16966,16983,16999,17016,17033,17049,17066,17083,17099,17116,17133,17150,17166,17183,17201,17216,17231,17246,17264,17278,17292,17308,17326,17340,17352,17371,17385,17399,17411,17426,17443,17456,17472,17487,17500,17518,17534,17550,17567,17582,17599,17616,17633,17647,17661,17678,17693,17707,17726,17739,17753,17771,17785,17798,17817,17831,17844,17863,17877,17890,17907,17925,17939,17955,17972,17986,18003,18018,18031,18045,18057,18076,18089,18102,18115,18133,18146,18161,18174,18191,18205,18218,18231,18250,18263,18277,18290,18306,18322,18338,18353,18370,18386,18403,18420,18437,18452,18466,18480,18497,18513,18528,18545,18561,18578,18595,18612,18627,18642,18657,18674,18691,18707,18724,18741,18755,18771,18788,18803,18820,18836,18853,18869,18886,18903,18919,18936,18953,18970,18986,19003,19020,19036,19053,19070,19086,19103,19120,19137,19153,19170,19186,19203,19220,19236,19253,19270,19286,19304,19317,19334,19347,19363,19379,19395,19415,19432,19449,19466,19482,19499,19516,19532,19549,19566,19582,19599,19617,19633,19647,19664,19680,19696,19709,19723,19736,19756,19774,19791,19806,19819,19833,19849,19866,19882,19899,19913,19929,19945,19961,19978,19994,20011,20028,20044,20061,20078,20094,20111,20127,20142,20155,20170,20186,20202,20219,20235,20252,20269,20285,20302,20319,20335,20352,20369,20385,20402,20419,20438,20453,20467,20480,20493,20513,20527,20543,20555,20569,20582,20599,20615,20634,20652,20668,20685,20700,20715,20732,20748,20765,20781,20798,20814,20831,20848,20864,20878,20897,20912,20931,20945,20963,20978,20992,21009,21025,21038,21051,21066,21082,21098,21114,21130,21147,21164,21181,21197,21214,21231,21247,21264,21281,21297,21314,21331,21347,21364,21381,21397,21414,21430,21448,21462,21478,21493,21511,21529,21546,21563,21582,21598,21612,21628,21644,21660,21676,21693,21710,21727,21743,21760,21776,21793,21810,21827,21843,21860,21874,21890,21906,21923,21937,21952,21968,21985,22001,22019,22032,22048,22064,22080,22095,22108,22121,22139,22153,22166,22180,22192,22205,22221,22236,22249,22267,22282,22295,22308,22322,22334,22351,22369,22388,22405,22425,22441,22457,22472,22489,22506,22522,22539,22555,22572,22589,22605,22622,22638,22655,22672,22688,22705,22722,22738,22755,22771,22786,22804,22819,22833,22846,22858,22873,22889,22905,22922,22938,22955,22971,22989,23002,23016,23029,23047,23060,23078,23093,23107,23121,23133,23146,23158,23181,23200,23215,23230,23244,23257,23270,23283,23295,23313,23328,23340,23354,23367,23384,23398,23416,23435,23452,23472,23485,23502,23519,23535,23552,23568,23584,23602,23618,23634,23651,23668,23685,23700,23718,23733,23750,23768,23784,23800,23815,23828,23843,23855,23871,23888,23903,23920,23936,23953,23970,23986,24003,24021,24037,24051,24064,24077,24090,24105,24121,24138,24154,24167,24181,24197,24213,24226,24242,24259,24275,24288,24303,24320,24336,24353,24370,24386,24403,24420,24436,24453,24470,24487,24505,24523,24540,24557,24574,24590,24607,24624,24640,24657,24674,24691,24707,24723,24740,24757,24774,24791,24807,24825,24841,24858,24874,24888,24905,24919,24937,24950,24964,24977,24990,25008,25021,25035,25048,25061,25079,25092,25106,25124,25138,25153,25169,25187,25204,25218,25231,25244,25257,25269,25282,25294,25307,25319,25332,25344,25357,25370,25387,25401,25414,25428,25440,25457,25472,25484,25503,25518,25530,25543,25556,25569,25581,25600,25614,25627,25639,25658,25671,25686,25699,25710,25725,25738,25755,25767,25783,25800,25812,25828,25843,25861,25878,25895,25912,25928,25945,25960,25977,25993,26007,26023,26038,26052,26065,26082,26095,26112,26129,26145,26162,26180,26197,26213,26229,26245,26261,26277,26294,26312,26328,26343,26359,26375,26392,26408,26425,26441,26457,26474,26491,26507,26524,26539,26551,26570,26584,26598,26616,26631,26643,26657,26670,26687,26701,26715,26733,26747,26764,26780,26798,26813,26829,26845,26861,26878,26894,26911,26927,26944,26961,26977,26994,27011,27027,27044,27061,27078,27094,27109,27124,27141,27157,27173,27190,27207,27223,27240,27257,27274,27290,27307,27323,27340,27357,27373,27390,27407,27423,27440,27457,27474,27490,27507,27523,27540,27557,27574,27591,27610,27627,27645,27660,27675,27691,27708,27725,27738,27753,27771,27787,27803,27820,27837,27850,27866,27883,27899,27916,27933,27950,27963,27980,27996,28012,28028,28045,28062,28079,28092,28109,28126,28143,28158,28175,28191,28208,28224,28242,28258,28275,28288,28302,28320,28334,28348,28361,28374,28392,28405,28418,28434,28449,28466,28483,28498,28516,28532,28549,28565,28582,28599,28615,28632,28649,28665,28682,28699,28716,28732,28749,28765,28782,28799,28815,28832,28848,28866,28882,28899,28916,28933,28949,28963,28980,28996,29012,29028,29045,29061,29078,29095,29111,29128,29145,29161,29178,29195,29211,29228,29245,29261,29278,29295,29311,29328,29345,29361,29378,29395,29411,29428,29445,29461,29478,29495,29511,29528,29545,29561,29578,29595,29612,29628,29645,29662,29678,29695,29712,29728,29745,29762,29778,29795,29812,29828,29845,29861,29878,29895,29912,29928,29945,29961,29978,29995,30011,30028,30045,30062,30078,30095,30112,30128,30145,30162,30178,30195,30213,30229,30248,30266,30283,30297,30314,30330,30347,30363,30380,30396,30412,30429,30443,30458,30476,30492,30508,30524,30541,30559,30577,30594,30611,30628,30645,30662,30679,30695,30712,30729,30745,30762,30779,30796,30812,30829,30845,30862,30879,30896,30912,30930,30945,30962,30979,30996,31012,31029,31046,31062,31079,31095,31112,31130,31146,31160,31176,31193,31209,31226,31242,31259,31276,31293,31309,31325,31342,31359,31377,31392,31409,31425,31443,31460,31476,31492,31509,31526,31543,31560,31575,31593,31608,31627,31643,31660,31677,31692,31709,31726,31743,31759,31777,31792,31810,31825,31842,31859,31876,31892,31909,31926,31944,31959,31976,31993,32010,32027,32043,32059,32075,32093,32109,32126,32144,32157,32171,32184,32199,32216,32229,32244,32260,32276,32290,32303,32321,32336,32349,32363,32381,32401,32417,32434,32447,32466,32482,32499,32517,32534,32548,32563,32582],"hit":[null],"x":[-2.36734693877551,-2.36734693877551,-2.36734693877551,-2.36734693877551,-2.36734693877551,-2.36734693877551,-2.36734693877551,-2.36734693877551,-2.36734693877551,-2.36734693877551,-2.36734693877551,-2.36734693877551,-2.36734693877551,-2.36734693877551,-2.36734693877551,-2.36734693877551,-2.36734693877551,-2.36734693877551,-2.36734693877551,-2.36734693877551,-2.36734693877551,-2.36734693877551,-2.36734693877551,-2.36734693877551,-2.36734693877551,-2.36734693877551,-2.36734693877551,-2.36734693877551,-2.36734693877551,-2.36734693877551,-2.36734693877551,-2.36734693877551,-2.36734693877551,-2.36734693877551,-2.36734693877551,-2.36734693877551,-2.36734693877551,-2.36734693877551,-2.36734693877551,-2.36734693877551,-2.36734693877551,-2.36734693877551,-2.36734693877551,-2.36734693877551,-2.36734693877551,-2.36734693877551,-2.36734693877551,-2.36734693877551,-2.36734693877551,-2.36734693877551,-2.36734693877551,-2.36734693877551,-2.36734693877551,-2.36734693877551,-2.36734693877551,-2.36734693877551,-2.36734693877551,-2.36734693877551,-2.36734693877551,-2.36734693877551,-2.36734693877551,-2.36734693877551,-2.36734693877551,-2.36734693877551,-2.36734693877551,-2.36734693877551,-2.36734693877551,-2.36734693877551,-2.36734693877551,-2.36734693877551,-2.36734693877551,-2.36734693877551,-2.36734693877551,-2.36734693877551,-2.36734693877551,-2.36734693877551,-2.36734693877551,-2.36734693877551,-2.36734693877551,-2.36734693877551,-2.36734693877551,-2.36734693877551,-2.36734693877551,-2.36734693877551,-2.36734693877551,-2.36734693877551,-2.36734693877551,-2.36734693877551,-2.36734693877551,-2.36734693877551,-2.36734693877551,-2.36734693877551,-2.36734693877551,-2.36734693877551,-2.36734693877551,-2.36734693877551,-2.36734693877551,-2.36734693877551,-2.36734693877551,-2.36734693877551,-2.36734693877551,-2.36734693877551,-2.36734693877551,-2.36734693877551,-2.36734693877551,-2.36734693877551,-2.36734693877551,-2.36734693877551,-2.36734693877551,-2.36734693877551,-2.36734693877551,-2.36734693877551,-2.36734693877551,-2.36734693877551,-2.36734693877551,-2.36734693877551,-2.36734693877551,-2.36734693877551,-2.36734693877551,-2.36734693877551,-2.36734693877551,-2.36734693877551,-2.36734693877551,-2.36734693877551,-2.36734693877551,-2.36734693877551,-2.36734693877551,-2.36734693877551,-2.36734693877551,-2.36734693877551,-2.36734693877551,-2.36734693877551,-2.36734693877551,-2.36734693877551,-2.36734693877551,-2.36734693877551,-2.36734693877551,-2.36734693877551,-2.36734693877551,-2.36734693877551,-2.36734693877551,-2.36734693877551,-2.36734693877551,-2.36734693877551,-2.36734693877551,-2.36734693877551,-2.36734693877551,-2.36734693877551,-2.36734693877551,-2.36734693877551,-2.36734693877551,-2.36734693877551,-2.36734693877551,-2.36734693877551,-2.36734693877551,-2.36734693877551,-2.36734693877551,-2.36734693877551,-2.36734693877551,-2.36734693877551,-2.36734693877551,-2.36734693877551,-2.36734693877551,-2.36734693877551,-2.36734693877551,-2.36734693877551,-2.36734693877551,-2.36734693877551,-2.36734693877551,-2.36734693877551,-2.36734693877551,-2.36734693877551,-2.36734693877551,-2.36734693877551,-2.36734693877551,-2.36734693877551,-2.36734693877551,-2.36734693877551,-2.36734693877551,-2.36734693877551,-2.36734693877551,-2.36734693877551,-0.05102040816326531,-0.034013605442176874,-0.01020408163265306,0.02040816326530612,0.05442176870748299,0.09183673469387756,0.11904761904761904,0.1326530612244898,0.15306122448979592,0.17346938775510204,0.1870748299319728,0.20068027210884354,0.2108843537414966,0.21768707482993196,0.22448979591836735,0.23129251700680273,0.23469387755102042,0.23469387755102042,0.23129251700680273,0.22108843537414966,0.20748299319727892,0.1870748299319728,0.17006802721088435,0.14965986394557823,0.12244897959183673,0.1054421768707483,0.08503401360544217,0.061224489795918366,0.047619047619047616,0.03741496598639456,0.034013605442176874,0.030612244897959183,0.027210884353741496,0.027210884353741496,0.023809523809523808,0.02040816326530612,0.017006802721088437,0.013605442176870748,0.01020408163265306,0.003401360544217687,0,-0.003401360544217687,-0.003401360544217687,-0.003401360544217687,-0.003401360544217687,-0.003401360544217687,-0.003401360544217687,-0.003401360544217687,-0.003401360544217687,-0.003401360544217687,-0.003401360544217687,-0.003401360544217687,-0.003401360544217687,-0.003401360544217687,-0.003401360544217687,-0.003401360544217687,-0.003401360544217687,-0.003401360544217687,-0.003401360544217687,-0.003401360544217687,-0.003401360544217687,-0.003401360544217687,-0.003401360544217687,-0.003401360544217687,-0.003401360544217687,-0.003401360544217687,-0.003401360544217687,-0.003401360544217687,-0.003401360544217687,-0.003401360544217687,-0.003401360544217687,-0.003401360544217687,-0.003401360544217687,-0.003401360544217687,-0.003401360544217687,-0.003401360544217687,-0.003401360544217687,-0.003401360544217687,-0.003401360544217687,-0.003401360544217687,-0.003401360544217687,-0.003401360544217687,-0.003401360544217687,-0.003401360544217687,-0.003401360544217687,-0.003401360544217687,-0.003401360544217687,-0.003401360544217687,-0.003401360544217687,-0.003401360544217687,-0.003401360544217687,-0.003401360544217687,-0.003401360544217687,-0.003401360544217687,-0.003401360544217687,-0.003401360544217687,-0.003401360544217687,-0.003401360544217687,-0.003401360544217687,-0.003401360544217687,-0.003401360544217687,-0.003401360544217687,-0.003401360544217687,-0.003401360544217687,-0.003401360544217687,-0.003401360544217687,-0.003401360544217687,-0.003401360544217687,-0.003401360544217687,-0.003401360544217687,-0.003401360544217687,-0.003401360544217687,-0.003401360544217687,-0.003401360544217687,-0.003401360544217687,-0.003401360544217687,-0.003401360544217687,-0.003401360544217687,-0.003401360544217687,-0.003401360544217687,-0.003401360544217687,-0.003401360544217687,-0.003401360544217687,-0.003401360544217687,-0.003401360544217687,-0.003401360544217687,-0.003401360544217687,-0.003401360544217687,-0.003401360544217687,-0.003401360544217687,-0.003401360544217687,-0.003401360544217687,0,0.003401360544217687,0.006802721088435374,0.01020408163265306,0.01020408163265306,0.017006802721088437,0.023809523809523808,0.027210884353741496,0.030612244897959183,0.034013605442176874,0.03741496598639456,0.04081632653061224,0.04421768707482993,0.05102040816326531,0.05442176870748299,0.061224489795918366,0.06802721088435375,0.07482993197278912,0.08503401360544217,0.10204081632653061,0.11564625850340136,0.1326530612244898,0.15306122448979592,0.17346938775510204,0.20068027210884354,0.22789115646258504,0.2653061224489796,0.2891156462585034,0.3163265306122449,0.336734693877551,0.36394557823129253,0.3843537414965986,0.3979591836734694,0.41156462585034015,0.4217687074829932,0.42517006802721086,0.42517006802721086,0.42517006802721086,0.42517006802721086,0.42517006802721086,0.42517006802721086,0.42517006802721086,0.42517006802721086,0.42517006802721086,0.42517006802721086,0.42517006802721086,0.42517006802721086,0.42517006802721086,0.42517006802721086,0.42517006802721086,0.42517006802721086,0.42517006802721086,0.42517006802721086,0.42517006802721086,0.42517006802721086,0.42517006802721086,0.42517006802721086,0.42517006802721086,0.42517006802721086,0.42517006802721086,0.42517006802721086,0.42517006802721086,0.42517006802721086,0.42517006802721086,0.42517006802721086,0.42517006802721086,0.42517006802721086,0.42517006802721086,0.42517006802721086,0.42517006802721086,0.42517006802721086,0.42517006802721086,0.42857142857142855,0.43537414965986393,0.445578231292517,0.45918367346938777,0.48639455782312924,0.5,0.5136054421768708,0.5272108843537415,0.5374149659863946,0.5476190476190477,0.5578231292517006,0.5680272108843537,0.5748299319727891,0.5850340136054422,0.5918367346938775,0.5952380952380952,0.6020408163265306,0.608843537414966,0.6122448979591837,0.6156462585034014,0.6190476190476191,0.6190476190476191,0.6224489795918368,0.6224489795918368,0.6224489795918368,0.6224489795918368,0.6224489795918368,0.6224489795918368,0.6224489795918368,0.6224489795918368,0.6224489795918368,0.6224489795918368,0.6224489795918368,0.6224489795918368,0.6224489795918368,0.6224489795918368,0.6224489795918368,0.6224489795918368,0.6224489795918368,0.6224489795918368,0.6224489795918368,0.6224489795918368,0.6224489795918368,0.6224489795918368,0.6224489795918368,0.6224489795918368,0.6224489795918368,0.6224489795918368,0.6224489795918368,0.6224489795918368,0.6224489795918368,0.6224489795918368,0.6224489795918368,0.6224489795918368,0.6224489795918368,0.6224489795918368,0.6224489795918368,0.6224489795918368,0.6224489795918368,0.6224489795918368,0.6224489795918368,0.6224489795918368,0.6224489795918368,0.6224489795918368,0.6224489795918368,0.6224489795918368,0.6224489795918368,0.6224489795918368,0.6224489795918368,0.6224489795918368,0.6224489795918368,0.6224489795918368,0.6224489795918368,0.6224489795918368,0.6224489795918368,0.6224489795918368,0.6224489795918368,0.6224489795918368,0.6224489795918368,0.6224489795918368,0.6224489795918368,0.6224489795918368,0.6224489795918368,0.6224489795918368,0.6224489795918368,0.6224489795918368,0.6224489795918368,0.6224489795918368,0.6224489795918368,0.6224489795918368,0.6224489795918368,0.6224489795918368,0.6224489795918368,0.6224489795918368,0.6224489795918368,0.6224489795918368,0.6224489795918368,0.6224489795918368,0.6224489795918368,0.6224489795918368,0.6224489795918368,0.6224489795918368,0.6224489795918368,0.6224489795918368,0.6224489795918368,0.6224489795918368,0.6224489795918368,0.6224489795918368,0.6224489795918368,0.6224489795918368,0.6224489795918368,0.6224489795918368,0.6224489795918368,0.6224489795918368,0.6224489795918368,0.6224489795918368,0.6224489795918368,0.6224489795918368,0.6224489795918368,0.6224489795918368,0.6224489795918368,0.6224489795918368,0.6224489795918368,0.6224489795918368,0.6224489795918368,0.6224489795918368,0.6224489795918368,0.6224489795918368,0.6224489795918368,0.6224489795918368,0.6224489795918368,0.6224489795918368,0.6224489795918368,0.6224489795918368,0.6224489795918368,0.6224489795918368,0.6224489795918368,0.6224489795918368,0.6224489795918368,0.6224489795918368,0.6224489795918368,0.6224489795918368,0.6224489795918368,0.6224489795918368,0.6224489795918368,0.6224489795918368,0.6122448979591837,0.5952380952380952,0.5850340136054422,0.5612244897959183,0.5340136054421769,0.5068027210884354,0.47959183673469385,0.4489795918367347,0.41156462585034015,0.3741496598639456,0.3333333333333333,0.30612244897959184,0.2891156462585034,0.2755102040816326,0.2653061224489796,0.2585034013605442,0.25170068027210885,0.24489795918367346,0.24149659863945577,0.23469387755102042,0.23129251700680273,0.22789115646258504,0.22448979591836735,0.22448979591836735,0.22448979591836735,0.22448979591836735,0.22448979591836735,0.22448979591836735,0.22448979591836735,0.22448979591836735,0.22448979591836735,0.22789115646258504,0.23469387755102042,0.23469387755102042,0.24489795918367346,0.2585034013605442,0.2687074829931973,0.282312925170068,0.29591836734693877,0.3129251700680272,0.3299319727891156,0.35034013605442177,0.3741496598639456,0.40816326530612246,0.4217687074829932,0.4387755102040816,0.4489795918367347,0.45918367346938777,0.46258503401360546,0.46258503401360546,0.46258503401360546,0.46258503401360546,0.46258503401360546,0.46258503401360546,0.46258503401360546,0.46258503401360546,0.46258503401360546,0.46258503401360546,0.46258503401360546,0.46258503401360546,0.46258503401360546,0.46258503401360546,0.46258503401360546,0.46258503401360546,0.46258503401360546,0.46258503401360546,0.46258503401360546,0.46258503401360546,0.46258503401360546,0.46258503401360546,0.46258503401360546,0.46258503401360546,0.46258503401360546,0.46258503401360546,0.46258503401360546,0.46258503401360546,0.46258503401360546,0.46258503401360546,0.46258503401360546,0.46258503401360546,0.46258503401360546,0.46258503401360546,0.46258503401360546,0.46258503401360546,0.46258503401360546,0.46258503401360546,0.46258503401360546,0.46258503401360546,0.46258503401360546,0.46258503401360546,0.46258503401360546,0.46258503401360546,0.46258503401360546,0.46258503401360546,0.46258503401360546,0.46258503401360546,0.46258503401360546,0.46258503401360546,0.46258503401360546,0.46258503401360546,0.46258503401360546,0.46258503401360546,0.46258503401360546,0.46258503401360546,0.46258503401360546,0.46258503401360546,0.46258503401360546,0.46258503401360546,0.46258503401360546,0.46258503401360546,0.46258503401360546,0.46258503401360546,0.46258503401360546,0.46258503401360546,0.46258503401360546,0.46258503401360546,0.46258503401360546,0.46258503401360546,0.46258503401360546,0.46258503401360546,0.46258503401360546,0.46258503401360546,0.46258503401360546,0.46258503401360546,0.46258503401360546,0.46258503401360546,0.46258503401360546,0.46258503401360546,0.46258503401360546,0.46258503401360546,0.46258503401360546,0.46258503401360546,0.46258503401360546,0.46258503401360546,0.46258503401360546,0.46258503401360546,0.46258503401360546,0.46258503401360546,0.46258503401360546,0.46258503401360546,0.46258503401360546,0.46258503401360546,0.46258503401360546,0.46258503401360546,0.46258503401360546,0.46258503401360546,0.46258503401360546,0.46258503401360546,0.46258503401360546,0.46258503401360546,0.46258503401360546,0.46258503401360546,0.46258503401360546,0.46258503401360546,0.46258503401360546,0.46258503401360546,0.46258503401360546,0.46258503401360546,0.46258503401360546,0.46598639455782315,0.48299319727891155,0.5238095238095238,0.5476190476190477,0.5714285714285714,0.6326530612244898,0.7108843537414966,0.7993197278911565,0.8707482993197279,0.9387755102040817,0.9727891156462585,0.9863945578231292,0.9863945578231292,0.9829931972789115,0.9625850340136054,0.935374149659864,0.9183673469387755,0.8979591836734694,0.8843537414965986,0.8673469387755102,0.8503401360544217,0.8333333333333334,0.8129251700680272,0.7959183673469388,0.7755102040816326,0.7517006802721088,0.7346938775510204,0.7244897959183674,0.7142857142857143,0.7074829931972789,0.7040816326530612,0.7006802721088435,0.6972789115646258,0.6972789115646258,0.6972789115646258,0.6972789115646258,0.6972789115646258,0.6972789115646258,0.6972789115646258,0.6972789115646258,0.6972789115646258,0.6972789115646258,0.6972789115646258,0.6972789115646258,0.6972789115646258,0.6972789115646258,0.6972789115646258,0.6972789115646258,0.6972789115646258,0.6972789115646258,0.6972789115646258,0.6972789115646258,0.6972789115646258,0.6972789115646258,0.6972789115646258,0.6972789115646258,0.6972789115646258,0.6972789115646258,0.6972789115646258,0.6972789115646258,0.6972789115646258,0.6972789115646258,0.6972789115646258,0.6972789115646258,0.6972789115646258,0.6972789115646258,0.6972789115646258,0.6972789115646258,0.6972789115646258,0.6972789115646258,0.6972789115646258,0.6972789115646258,0.6972789115646258,0.6972789115646258,0.6972789115646258,0.6972789115646258,0.6972789115646258,0.6972789115646258,0.6972789115646258,0.6972789115646258,0.6972789115646258,0.6972789115646258,0.6972789115646258,0.6972789115646258,0.6972789115646258,0.6972789115646258,0.717687074829932,0.7380952380952381,0.7687074829931972,0.8027210884353742,0.8367346938775511,0.8639455782312925,0.8877551020408163,0.9115646258503401,0.935374149659864,0.9523809523809523,0.9727891156462585,0.9931972789115646,1.0272108843537415,1.0510204081632653,1.0680272108843538,1.0816326530612246,1.08843537414966,1.0918367346938775,1.098639455782313,1.1020408163265305,1.1088435374149659,1.1122448979591837,1.119047619047619,1.1224489795918366,1.1258503401360545,1.1258503401360545,1.1258503401360545,1.129251700680272,1.129251700680272,1.129251700680272,1.129251700680272,1.129251700680272,1.129251700680272,1.129251700680272,1.129251700680272,1.129251700680272,1.129251700680272,1.129251700680272,1.129251700680272,1.129251700680272,1.129251700680272,1.129251700680272,1.129251700680272,1.129251700680272,1.129251700680272,1.129251700680272,1.129251700680272,1.129251700680272,1.129251700680272,1.129251700680272,1.129251700680272,1.129251700680272,1.129251700680272,1.129251700680272,1.129251700680272,1.129251700680272,1.129251700680272,1.129251700680272,1.129251700680272,1.129251700680272,1.129251700680272,1.129251700680272,1.129251700680272,1.129251700680272,1.129251700680272,1.129251700680272,1.129251700680272,1.129251700680272,1.129251700680272,1.129251700680272,1.129251700680272,1.1156462585034013,1.0680272108843538,1.0068027210884354,0.9319727891156463,0.8503401360544217,0.7653061224489796,0.7074829931972789,0.6224489795918368,0.5476190476190477,0.48299319727891155,0.43197278911564624,0.3877551020408163,0.36394557823129253,0.35374149659863946,0.3469387755102041,0.3435374149659864,0.3401360544217687,0.3401360544217687,0.3401360544217687,0.3401360544217687,0.3401360544217687,0.3401360544217687,0.3401360544217687,0.3401360544217687,0.3401360544217687,0.3401360544217687,0.3401360544217687,0.3401360544217687,0.3401360544217687,0.336734693877551,0.32653061224489793,0.30612244897959184,0.2789115646258503,0.24829931972789115,0.19727891156462585,0.14285714285714285,0.09863945578231292,0.07142857142857142,0.03741496598639456,0.02040816326530612,0.01020408163265306,0.003401360544217687,0.003401360544217687,0,0,-0.003401360544217687,-0.006802721088435374,-0.006802721088435374,-0.01020408163265306,-0.013605442176870748,-0.013605442176870748,-0.017006802721088437,-0.017006802721088437,-0.017006802721088437,-0.017006802721088437,-0.017006802721088437,-0.017006802721088437,-0.017006802721088437,-0.017006802721088437,-0.017006802721088437,-0.017006802721088437,-0.017006802721088437,-0.017006802721088437,-0.017006802721088437,-0.017006802721088437,-0.017006802721088437,-0.017006802721088437,-0.017006802721088437,-0.017006802721088437,-0.017006802721088437,-0.017006802721088437,-0.017006802721088437,-0.017006802721088437,-0.017006802721088437,-0.017006802721088437,-0.017006802721088437,-0.017006802721088437,-0.017006802721088437,-0.017006802721088437,-0.017006802721088437,-0.017006802721088437,-0.017006802721088437,-0.017006802721088437,-0.017006802721088437,-0.017006802721088437,-0.017006802721088437,-0.017006802721088437,-0.017006802721088437,-0.017006802721088437,-0.017006802721088437,-0.017006802721088437,-0.017006802721088437,-0.017006802721088437,-0.017006802721088437,-0.017006802721088437,-0.017006802721088437,-0.017006802721088437,-0.017006802721088437,-0.017006802721088437,-0.017006802721088437,-0.017006802721088437,-0.017006802721088437,-0.017006802721088437,-0.017006802721088437,-0.017006802721088437,-0.017006802721088437,-0.017006802721088437,-0.017006802721088437,-0.013605442176870748,-0.003401360544217687,0.01020408163265306,0.02040816326530612,0.030612244897959183,0.04421768707482993,0.05442176870748299,0.06462585034013606,0.0782312925170068,0.09523809523809523,0.11564625850340136,0.1292517006802721,0.14285714285714285,0.1564625850340136,0.17346938775510204,0.19047619047619047,0.20748299319727892,0.23469387755102042,0.2653061224489796,0.282312925170068,0.3707482993197279,0.3979591836734694,0.41836734693877553,0.43197278911564624,0.43537414965986393,0.43537414965986393,0.43537414965986393,0.43537414965986393,0.43537414965986393,0.43537414965986393,0.43537414965986393,0.43537414965986393,0.43537414965986393,0.43537414965986393,0.43537414965986393,0.43537414965986393,0.43537414965986393,0.43537414965986393,0.4421768707482993,0.4557823129251701,0.47619047619047616,0.4965986394557823,0.5204081632653061,0.5476190476190477,0.5748299319727891,0.6020408163265306,0.6326530612244898,0.6666666666666666,0.6904761904761905,0.7074829931972789,0.717687074829932,0.7244897959183674,0.7278911564625851,0.7312925170068028,0.7312925170068028,0.7312925170068028,0.7312925170068028,0.7210884353741497,0.7108843537414966,0.7006802721088435,0.6904761904761905,0.6836734693877551,0.673469387755102,0.6666666666666666,0.6632653061224489,0.6632653061224489,0.6632653061224489,0.6632653061224489,0.6632653061224489,0.6666666666666666,0.673469387755102,0.7040816326530612,0.7278911564625851,0.7585034013605442,0.7857142857142857,0.8163265306122449,0.8435374149659864,0.8707482993197279,0.8945578231292517,0.9081632653061225,0.9115646258503401,0.9183673469387755,0.9183673469387755,0.9183673469387755,0.9183673469387755,0.9183673469387755,0.9183673469387755,0.9149659863945578,0.9115646258503401,0.9047619047619048,0.8979591836734694,0.891156462585034,0.8843537414965986,0.8809523809523809,0.8741496598639455,0.8707482993197279,0.8673469387755102,0.8639455782312925,0.8639455782312925,0.8639455782312925,0.8605442176870748,0.8605442176870748,0.8605442176870748,0.8605442176870748,0.8605442176870748,0.8605442176870748,0.8605442176870748,0.8605442176870748,0.8605442176870748,0.8605442176870748,0.8605442176870748,0.8605442176870748,0.8605442176870748,0.8605442176870748,0.8605442176870748,0.8605442176870748,0.8605442176870748,0.8605442176870748,0.8605442176870748,0.8605442176870748,0.8605442176870748,0.8605442176870748,0.8605442176870748,0.8605442176870748,0.8605442176870748,0.8605442176870748,0.8605442176870748,0.8605442176870748,0.8605442176870748,0.8605442176870748,0.8605442176870748,0.8605442176870748,0.8605442176870748,0.8605442176870748,0.8605442176870748,0.8605442176870748,0.8605442176870748,0.8605442176870748,0.8605442176870748,0.8605442176870748,0.8605442176870748,0.8605442176870748,0.8605442176870748,0.8605442176870748,0.8605442176870748,0.8605442176870748,0.8605442176870748,0.8605442176870748,0.8605442176870748,0.8605442176870748,0.8605442176870748,0.8605442176870748,0.8605442176870748,0.8605442176870748,0.8605442176870748,0.8605442176870748,0.8605442176870748,0.8605442176870748,0.8605442176870748,0.8605442176870748,0.8605442176870748,0.8605442176870748,0.8605442176870748,0.8605442176870748,0.8605442176870748,0.8605442176870748,0.8639455782312925,0.8775510204081632,0.891156462585034,0.8945578231292517,0.9149659863945578,0.9183673469387755,0.9319727891156463,0.935374149659864,0.935374149659864,0.935374149659864,0.935374149659864,0.935374149659864,0.9217687074829932,0.9047619047619048,0.8843537414965986,0.8775510204081632,0.8537414965986394,0.8435374149659864,0.8401360544217688,0.8401360544217688,0.8401360544217688,0.8537414965986394,0.8809523809523809,0.9081632653061225,0.9285714285714286,0.9455782312925171,0.95578231292517,0.9625850340136054,0.9625850340136054,0.9659863945578231,0.9659863945578231,0.9625850340136054,0.9523809523809523,0.9387755102040817,0.9183673469387755,0.8979591836734694,0.8775510204081632,0.8707482993197279,0.8571428571428571,0.8571428571428571,0.8571428571428571,0.8571428571428571,0.8571428571428571,0.8571428571428571,0.8571428571428571,0.8537414965986394,0.8469387755102041,0.8367346938775511,0.8197278911564626,0.8027210884353742,0.7721088435374149,0.7278911564625851,0.6904761904761905,0.6530612244897959,0.6156462585034014,0.5782312925170068,0.54421768707483,0.5170068027210885,0.5034013605442177,0.4931972789115646,0.48299319727891155,0.47959183673469385,0.47959183673469385,0.47959183673469385,0.47959183673469385,0.47959183673469385,0.47959183673469385,0.47959183673469385,0.47959183673469385,0.47959183673469385,0.47278911564625853,0.46258503401360546,0.4523809523809524,0.43197278911564624,0.41156462585034015,0.3877551020408163,0.3673469387755102,0.336734693877551,0.3197278911564626,0.30612244897959184,0.29931972789115646,0.29591836734693877,0.29591836734693877,0.29591836734693877,0.29591836734693877,0.29931972789115646,0.29931972789115646,0.29931972789115646,0.29931972789115646,0.29931972789115646,0.29931972789115646,0.29931972789115646,0.29931972789115646,0.29931972789115646,0.29931972789115646,0.29931972789115646,0.29931972789115646,0.29931972789115646,0.29931972789115646,0.29931972789115646,0.29931972789115646,0.2891156462585034,0.2789115646258503,0.2619047619047619,0.23469387755102042,0.20408163265306123,0.17346938775510204,0.14965986394557823,0.1292517006802721,0.12244897959183673,0.11224489795918367,0.1054421768707483,0.10204081632653061,0.10204081632653061,0.10204081632653061,0.1054421768707483,0.11224489795918367,0.12585034013605442,0.1326530612244898,0.1598639455782313,0.17346938775510204,0.2108843537414966,0.23129251700680273,0.2585034013605442,0.2857142857142857,0.3197278911564626,0.35714285714285715,0.4013605442176871,0.4387755102040816,0.46938775510204084,0.4931972789115646,0.5,0.5,0.5,0.5,0.5,0.5,0.5,0.5,0.5,0.5,0.5,0.5,0.5,0.5,0.5,0.5,0.5034013605442177,0.5102040816326531,0.5170068027210885,0.5612244897959183,0.5680272108843537,0.5952380952380952,0.6122448979591837,0.6258503401360545,0.6360544217687075,0.6462585034013606,0.6530612244897959,0.6598639455782312,0.6666666666666666,0.6700680272108843,0.6700680272108843,0.673469387755102,0.673469387755102,0.673469387755102,0.673469387755102,0.673469387755102,0.673469387755102,0.673469387755102,0.673469387755102,0.673469387755102,0.6632653061224489,0.6462585034013606,0.6190476190476191,0.6020408163265306,0.564625850340136,0.5306122448979592,0.5,0.47278911564625853,0.4523809523809524,0.43537414965986393,0.4217687074829932,0.41836734693877553,0.41836734693877553,0.41836734693877553,0.41836734693877553,0.42857142857142855,0.4387755102040816,0.445578231292517,0.4523809523809524,0.45918367346938777,0.46598639455782315,0.47278911564625853,0.47619047619047616,0.47959183673469385,0.48299319727891155,0.48639455782312924,0.48639455782312924,0.4965986394557823,0.5,0.5068027210884354,0.5136054421768708,0.5238095238095238,0.5306122448979592,0.5374149659863946,0.54421768707483,0.54421768707483,0.5476190476190477,0.5476190476190477,0.5340136054421769,0.5102040816326531,0.47619047619047616,0.4421768707482993,0.41156462585034015,0.391156462585034,0.3707482993197279,0.3469387755102041,0.3401360544217687,0.3333333333333333,0.32653061224489793,0.32653061224489793,0.32653061224489793,0.3299319727891156,0.336734693877551,0.3401360544217687,0.35034013605442177,0.36054421768707484,0.3673469387755102,0.37755102040816324,0.3843537414965986,0.3877551020408163,0.3945578231292517,0.3945578231292517,0.3979591836734694,0.3979591836734694,0.3979591836734694,0.3979591836734694,0.3979591836734694,0.3979591836734694,0.3979591836734694,0.3979591836734694,0.3979591836734694,0.3979591836734694,0.3979591836734694,0.3979591836734694,0.3979591836734694,0.3979591836734694,0.3979591836734694,0.3979591836734694,0.3979591836734694,0.3979591836734694,0.3979591836734694,0.3979591836734694,0.3979591836734694,0.3979591836734694,0.3979591836734694,0.3979591836734694,0.3979591836734694,0.3979591836734694,0.3979591836734694,0.3979591836734694,0.3979591836734694,0.3979591836734694,0.3979591836734694,0.3979591836734694,0.3979591836734694,0.3979591836734694,0.3979591836734694,0.3979591836734694,0.3979591836734694,0.4013605442176871,0.41496598639455784,0.42517006802721086,0.4421768707482993,0.4557823129251701,0.46938775510204084,0.47959183673469385,0.48299319727891155,0.48639455782312924,0.4897959183673469,0.4897959183673469,0.4897959183673469,0.4897959183673469,0.4897959183673469,0.4897959183673469,0.4931972789115646,0.5,0.5102040816326531,0.5170068027210885,0.5306122448979592,0.54421768707483,0.5544217687074829,0.5612244897959183,0.564625850340136,0.5680272108843537,0.5680272108843537,0.5680272108843537,0.5680272108843537,0.5680272108843537,0.5680272108843537,0.5680272108843537,0.5680272108843537,0.5680272108843537,0.5680272108843537,0.5680272108843537,0.5680272108843537,0.5680272108843537,0.5680272108843537,0.5680272108843537,0.5680272108843537,0.5680272108843537,0.5680272108843537,0.5680272108843537,0.5680272108843537,0.5680272108843537,0.5680272108843537,0.5680272108843537,0.5680272108843537,0.5680272108843537,0.5680272108843537,0.5680272108843537,0.5680272108843537,0.5680272108843537,0.5680272108843537,0.5680272108843537,0.5680272108843537,0.5680272108843537,0.5680272108843537,0.5680272108843537,0.5680272108843537,0.5680272108843537,0.5680272108843537,0.5680272108843537,0.5680272108843537,0.5680272108843537,0.5680272108843537,0.5680272108843537,0.5680272108843537,0.5680272108843537,0.5680272108843537,0.5680272108843537,0.5680272108843537,0.5680272108843537,0.5680272108843537,0.5680272108843537,0.5680272108843537,0.5680272108843537,0.5680272108843537,0.5578231292517006,0.54421768707483,0.5306122448979592,0.5204081632653061,0.5068027210884354,0.4931972789115646,0.47959183673469385,0.45918367346938777,0.4489795918367347,0.4387755102040816,0.43197278911564624,0.42857142857142855,0.42517006802721086,0.4217687074829932,0.4217687074829932,0.4217687074829932,0.41836734693877553,0.41836734693877553,0.41496598639455784,0.41496598639455784,0.41156462585034015,0.41156462585034015,0.40816326530612246,0.40816326530612246,0.40476190476190477,0.40476190476190477,0.40476190476190477,0.4013605442176871,0.3979591836734694,0.3945578231292517,0.391156462585034,0.3843537414965986,0.38095238095238093,0.3741496598639456,0.36394557823129253,0.35714285714285715,0.3469387755102041,0.3401360544217687,0.3299319727891156,0.3231292517006803,0.3163265306122449,0.30952380952380953,0.30612244897959184,0.30272108843537415,0.29931972789115646,0.29591836734693877,0.2891156462585034,0.2857142857142857,0.282312925170068,0.2789115646258503,0.2755102040816326,0.2755102040816326,0.272108843537415,0.272108843537415,0.272108843537415,0.2687074829931973,0.2585034013605442,0.25510204081632654,0.24149659863945577,0.23129251700680273,0.22108843537414966,0.2108843537414966,0.20068027210884354,0.19727891156462585,0.19047619047619047,0.19047619047619047,0.1870748299319728,0.1870748299319728,0.1870748299319728,0.1870748299319728,0.1870748299319728,0.1870748299319728,0.1870748299319728,0.1870748299319728,0.1870748299319728,0.1870748299319728,0.1870748299319728,0.1870748299319728,0.1870748299319728,0.1870748299319728,0.1870748299319728,0.1870748299319728,0.1870748299319728,0.1870748299319728,0.1870748299319728,0.1870748299319728,0.1870748299319728,0.1870748299319728,0.1870748299319728,0.1870748299319728,0.1870748299319728,0.1870748299319728,0.1870748299319728,0.1870748299319728,0.1870748299319728,0.1870748299319728,0.1870748299319728,0.1870748299319728,0.1870748299319728,0.1870748299319728,0.1870748299319728,0.1870748299319728,0.1870748299319728,0.1870748299319728,0.1870748299319728,0.1870748299319728,0.1870748299319728,0.1870748299319728,0.1870748299319728,0.1870748299319728,0.1870748299319728,0.1870748299319728,0.1870748299319728,0.1870748299319728,0.1870748299319728,0.1870748299319728,0.1870748299319728,0.1870748299319728,0.1870748299319728,0.1870748299319728,0.1870748299319728,0.1870748299319728,0.1870748299319728,0.1870748299319728,0.1870748299319728,0.1870748299319728,0.1870748299319728,0.1870748299319728,0.1870748299319728,0.1870748299319728,0.1870748299319728,0.1870748299319728,0.1870748299319728,0.1870748299319728,0.1870748299319728,0.1870748299319728,0.1870748299319728,0.1870748299319728,0.1870748299319728,0.1870748299319728,0.1870748299319728,0.1870748299319728,0.1870748299319728,0.1870748299319728,0.1870748299319728,0.1870748299319728,0.1870748299319728,0.1870748299319728,0.1870748299319728,0.1870748299319728,0.1870748299319728,0.1870748299319728,0.1870748299319728,0.1870748299319728,0.1870748299319728,0.1870748299319728,0.1870748299319728,0.1870748299319728,0.1870748299319728,0.1870748299319728,0.1870748299319728,0.1870748299319728,0.1870748299319728,0.1870748299319728,0.1870748299319728,0.1870748299319728,0.1870748299319728,0.1870748299319728,0.1870748299319728,0.1870748299319728,0.1870748299319728,0.1870748299319728,0.1870748299319728,0.1870748299319728,0.1870748299319728,0.1870748299319728,0.1870748299319728,0.1870748299319728,0.1870748299319728,0.1870748299319728,0.1870748299319728,0.1870748299319728,0.1870748299319728,0.1870748299319728,0.1870748299319728,0.1870748299319728,0.1870748299319728,0.1870748299319728,0.1870748299319728,0.1870748299319728,0.1870748299319728,0.1870748299319728,0.1870748299319728,0.1870748299319728,0.1870748299319728,0.1836734693877551,0.17687074829931973,0.17006802721088435,0.1564625850340136,0.13945578231292516,0.10884353741496598,0.09183673469387756,0.07482993197278912,0.061224489795918366,0.05102040816326531,0.04421768707482993,0.03741496598639456,0.034013605442176874,0.030612244897959183,0.030612244897959183,0.030612244897959183,0.030612244897959183,0.030612244897959183,0.030612244897959183,0.03741496598639456,0.05102040816326531,0.07142857142857142,0.09183673469387756,0.12244897959183673,0.1564625850340136,0.19727891156462585,0.23809523809523808,0.2789115646258503,0.3231292517006803,0.3673469387755102,0.41836734693877553,0.5,0.5748299319727891,0.6428571428571429,0.6836734693877551,0.7585034013605442,0.7993197278911565,0.8503401360544217,0.8945578231292517,0.935374149659864,0.95578231292517,0.9863945578231292,1,1.0068027210884354,1.010204081632653,1.0136054421768708,1.0170068027210883,1.0170068027210883,1.0204081632653061,1.0204081632653061,1.0204081632653061,1.0204081632653061,1.0204081632653061,1.0170068027210883,1.010204081632653,1.0034013605442176,1,0.9965986394557823,0.9965986394557823,0.9965986394557823,0.9965986394557823,0.9965986394557823,0.9965986394557823,0.9965986394557823,0.9965986394557823,0.9965986394557823,0.9965986394557823,0.9965986394557823,0.9965986394557823,0.9965986394557823,0.9965986394557823,0.9965986394557823,0.9965986394557823,0.9965986394557823,0.9965986394557823,0.9965986394557823,0.9965986394557823,0.9965986394557823,0.9965986394557823,0.9965986394557823,0.9965986394557823,0.9965986394557823,0.9965986394557823,0.9965986394557823,0.9965986394557823,0.9965986394557823,0.9965986394557823,0.9965986394557823,0.9965986394557823,0.9965986394557823,0.9965986394557823,0.9965986394557823,0.9965986394557823,0.9965986394557823,0.9965986394557823,0.9965986394557823,0.9965986394557823,0.9795918367346939,0.9591836734693877,0.9285714285714286,0.8945578231292517,0.8401360544217688,0.8095238095238095,0.7653061224489796,0.7244897959183674,0.6870748299319728,0.6564625850340136,0.6292517006802721,0.608843537414966,0.5952380952380952,0.5782312925170068,0.5578231292517006,0.5408163265306123,0.5306122448979592,0.5136054421768708,0.5,0.4897959183673469,0.47959183673469385,0.47278911564625853,0.46598639455782315,0.4557823129251701,0.4489795918367347,0.43537414965986393,0.42517006802721086,0.41836734693877553,0.40816326530612246,0.4013605442176871,0.3945578231292517,0.391156462585034,0.3843537414965986,0.37755102040816324,0.3673469387755102,0.36054421768707484,0.35374149659863946,0.3469387755102041,0.3435374149659864,0.3401360544217687,0.336734693877551,0.336734693877551,0.3401360544217687,0.3469387755102041,0.35714285714285715,0.3741496598639456,0.3945578231292517,0.41836734693877553,0.4489795918367347,0.48299319727891155,0.5238095238095238,0.5816326530612245,0.6190476190476191,0.6564625850340136,0.6938775510204082,0.7278911564625851,0.7619047619047619,0.7925170068027211,0.8095238095238095,0.8333333333333334,0.8503401360544217,0.8639455782312925,0.8809523809523809,0.8877551020408163,0.8945578231292517,0.8979591836734694,0.8979591836734694,0.9047619047619048,0.9081632653061225,0.9115646258503401,0.9115646258503401,0.9115646258503401,0.9081632653061225,0.9013605442176871,0.891156462585034,0.8843537414965986,0.8707482993197279,0.8571428571428571,0.8401360544217688,0.8197278911564626,0.7925170068027211,0.7448979591836735,0.6700680272108843,0.6054421768707483,0.54421768707483,0.5,0.4489795918367347,0.40816326530612246,0.3843537414965986,0.37755102040816324,0.3707482993197279,0.3707482993197279,0.3843537414965986,0.4421768707482993,0.4931972789115646,0.5612244897959183,0.6394557823129252,0.7278911564625851,0.8163265306122449,0.8809523809523809,0.9591836734693877,1.0238095238095237,1.1054421768707483,1.129251700680272,1.1564625850340136,1.1734693877551021,1.183673469387755,1.1904761904761905,1.1904761904761905,1.1904761904761905,1.1904761904761905,1.1904761904761905,1.1904761904761905,1.1904761904761905,1.1904761904761905,1.1904761904761905,1.1904761904761905,1.1904761904761905,1.1870748299319729,1.183673469387755,1.1768707482993197,1.1734693877551021,1.1666666666666667,1.163265306122449,1.163265306122449,1.1598639455782314,1.1598639455782314,1.1564625850340136,1.1564625850340136,1.1564625850340136,1.1564625850340136,1.1564625850340136,1.1564625850340136,1.1564625850340136,1.1564625850340136,1.1564625850340136,1.1564625850340136,1.1564625850340136,1.1564625850340136,1.1564625850340136,1.1564625850340136,1.1564625850340136,1.1564625850340136,1.1564625850340136,1.1564625850340136,1.1564625850340136,1.1564625850340136,1.1564625850340136,1.1564625850340136,1.1564625850340136,1.1224489795918366,1.08843537414966,1.0374149659863945,0.8673469387755102,0.7040816326530612,0.5782312925170068,0.42857142857142855,0.3129251700680272,0.25170068027210885,0.19047619047619047,0.14965986394557823,0.11564625850340136,0.10204081632653061,0.09183673469387756,0.09183673469387756,0.09183673469387756,0.09183673469387756,0.09183673469387756,0.09183673469387756,0.09183673469387756,0.09183673469387756,0.09183673469387756,0.09183673469387756,0.09183673469387756,0.09183673469387756,0.09183673469387756,0.09183673469387756,0.09183673469387756,0.09183673469387756,0.09183673469387756,0.09183673469387756,0.09183673469387756,0.09183673469387756,0.09183673469387756,0.09183673469387756,0.09183673469387756,0.09183673469387756,0.09183673469387756,0.09183673469387756,0.09183673469387756,0.09183673469387756,0.09183673469387756,0.09183673469387756,0.09183673469387756,0.09183673469387756,0.09183673469387756,0.09183673469387756,0.09183673469387756,0.09183673469387756,0.09183673469387756,0.09183673469387756,0.09183673469387756,0.09183673469387756,0.09183673469387756,0.09183673469387756,0.09183673469387756,0.09183673469387756,0.09183673469387756,0.09183673469387756,0.09183673469387756,0.09183673469387756,0.09183673469387756,0.09183673469387756,0.09183673469387756,0.09183673469387756,0.09183673469387756,0.09183673469387756,0.09183673469387756,0.09183673469387756,0.09183673469387756,0.09183673469387756,0.09183673469387756,0.09183673469387756,0.09183673469387756,0.09183673469387756,0.09183673469387756,0.09183673469387756,0.09183673469387756,0.09183673469387756,0.09183673469387756,0.09183673469387756,0.09183673469387756,0.09183673469387756,0.09183673469387756,0.09183673469387756,0.09183673469387756,0.09183673469387756,0.09183673469387756,0.09183673469387756,0.09183673469387756,0.09183673469387756,0.09183673469387756,0.09183673469387756,0.09183673469387756,0.09183673469387756,0.09183673469387756,0.09183673469387756,0.09183673469387756,0.09183673469387756,0.09183673469387756,0.09183673469387756,0.09183673469387756,0.09183673469387756,0.09183673469387756,0.09183673469387756],"y":[-3.7738095238095237,-3.7738095238095237,-3.7738095238095237,-3.7738095238095237,-3.7738095238095237,-3.7738095238095237,-3.7738095238095237,-3.7738095238095237,-3.7738095238095237,-3.7738095238095237,-3.7738095238095237,-3.7738095238095237,-3.7738095238095237,-3.7738095238095237,-3.7738095238095237,-3.7738095238095237,-3.7738095238095237,-3.7738095238095237,-3.7738095238095237,-3.7738095238095237,-3.7738095238095237,-3.7738095238095237,-3.7738095238095237,-3.7738095238095237,-3.7738095238095237,-3.7738095238095237,-3.7738095238095237,-3.7738095238095237,-3.7738095238095237,-3.7738095238095237,-3.7738095238095237,-3.7738095238095237,-3.7738095238095237,-3.7738095238095237,-3.7738095238095237,-3.7738095238095237,-3.7738095238095237,-3.7738095238095237,-3.7738095238095237,-3.7738095238095237,-3.7738095238095237,-3.7738095238095237,-3.7738095238095237,-3.7738095238095237,-3.7738095238095237,-3.7738095238095237,-3.7738095238095237,-3.7738095238095237,-3.7738095238095237,-3.7738095238095237,-3.7738095238095237,-3.7738095238095237,-3.7738095238095237,-3.7738095238095237,-3.7738095238095237,-3.7738095238095237,-3.7738095238095237,-3.7738095238095237,-3.7738095238095237,-3.7738095238095237,-3.7738095238095237,-3.7738095238095237,-3.7738095238095237,-3.7738095238095237,-3.7738095238095237,-3.7738095238095237,-3.7738095238095237,-3.7738095238095237,-3.7738095238095237,-3.7738095238095237,-3.7738095238095237,-3.7738095238095237,-3.7738095238095237,-3.7738095238095237,-3.7738095238095237,-3.7738095238095237,-3.7738095238095237,-3.7738095238095237,-3.7738095238095237,-3.7738095238095237,-3.7738095238095237,-3.7738095238095237,-3.7738095238095237,-3.7738095238095237,-3.7738095238095237,-3.7738095238095237,-3.7738095238095237,-3.7738095238095237,-3.7738095238095237,-3.7738095238095237,-3.7738095238095237,-3.7738095238095237,-3.7738095238095237,-3.7738095238095237,-3.7738095238095237,-3.7738095238095237,-3.7738095238095237,-3.7738095238095237,-3.7738095238095237,-3.7738095238095237,-3.7738095238095237,-3.7738095238095237,-3.7738095238095237,-3.7738095238095237,-3.7738095238095237,-3.7738095238095237,-3.7738095238095237,-3.7738095238095237,-3.7738095238095237,-3.7738095238095237,-3.7738095238095237,-3.7738095238095237,-3.7738095238095237,-3.7738095238095237,-3.7738095238095237,-3.7738095238095237,-3.7738095238095237,-3.7738095238095237,-3.7738095238095237,-3.7738095238095237,-3.7738095238095237,-3.7738095238095237,-3.7738095238095237,-3.7738095238095237,-3.7738095238095237,-3.7738095238095237,-3.7738095238095237,-3.7738095238095237,-3.7738095238095237,-3.7738095238095237,-3.7738095238095237,-3.7738095238095237,-3.7738095238095237,-3.7738095238095237,-3.7738095238095237,-3.7738095238095237,-3.7738095238095237,-3.7738095238095237,-3.7738095238095237,-3.7738095238095237,-3.7738095238095237,-3.7738095238095237,-3.7738095238095237,-3.7738095238095237,-3.7738095238095237,-3.7738095238095237,-3.7738095238095237,-3.7738095238095237,-3.7738095238095237,-3.7738095238095237,-3.7738095238095237,-3.7738095238095237,-3.7738095238095237,-3.7738095238095237,-3.7738095238095237,-3.7738095238095237,-3.7738095238095237,-3.7738095238095237,-3.7738095238095237,-3.7738095238095237,-3.7738095238095237,-3.7738095238095237,-3.7738095238095237,-3.7738095238095237,-3.7738095238095237,-3.7738095238095237,-3.7738095238095237,-3.7738095238095237,-3.7738095238095237,-3.7738095238095237,-3.7738095238095237,-3.7738095238095237,-3.7738095238095237,-3.7738095238095237,-3.7738095238095237,-3.7738095238095237,-3.7738095238095237,-3.7738095238095237,-3.7738095238095237,-3.7738095238095237,-3.7738095238095237,-3.7738095238095237,0.7928571428571428,0.7833333333333333,0.7642857142857142,0.7452380952380953,0.7357142857142858,0.7357142857142858,0.7357142857142858,0.7357142857142858,0.7357142857142858,0.7452380952380953,0.7547619047619047,0.7738095238095238,0.7833333333333333,0.8023809523809524,0.8214285714285714,0.85,0.8690476190476191,0.8976190476190476,0.9166666666666666,0.9452380952380952,0.9642857142857143,0.9833333333333333,1.0023809523809524,1.0214285714285714,1.0214285714285714,1.0309523809523808,1.0404761904761906,1.0404761904761906,1.0404761904761906,1.0404761904761906,1.0309523809523808,1.0309523809523808,1.0214285714285714,1.0214285714285714,1.0119047619047619,1.0119047619047619,1.0023809523809524,0.9928571428571429,0.9928571428571429,0.9833333333333333,0.9833333333333333,0.9738095238095238,0.9738095238095238,0.9738095238095238,0.9738095238095238,0.9738095238095238,0.9738095238095238,0.9738095238095238,0.9738095238095238,0.9738095238095238,0.9738095238095238,0.9738095238095238,0.9738095238095238,0.9738095238095238,0.9738095238095238,0.9738095238095238,0.9738095238095238,0.9738095238095238,0.9738095238095238,0.9738095238095238,0.9738095238095238,0.9738095238095238,0.9738095238095238,0.9738095238095238,0.9738095238095238,0.9738095238095238,0.9738095238095238,0.9738095238095238,0.9738095238095238,0.9738095238095238,0.9738095238095238,0.9738095238095238,0.9738095238095238,0.9738095238095238,0.9738095238095238,0.9738095238095238,0.9738095238095238,0.9738095238095238,0.9738095238095238,0.9738095238095238,0.9738095238095238,0.9738095238095238,0.9738095238095238,0.9738095238095238,0.9738095238095238,0.9738095238095238,0.9738095238095238,0.9738095238095238,0.9738095238095238,0.9738095238095238,0.9738095238095238,0.9738095238095238,0.9738095238095238,0.9738095238095238,0.9738095238095238,0.9738095238095238,0.9738095238095238,0.9738095238095238,0.9738095238095238,0.9738095238095238,0.9738095238095238,0.9738095238095238,0.9738095238095238,0.9738095238095238,0.9738095238095238,0.9738095238095238,0.9738095238095238,0.9738095238095238,0.9738095238095238,0.9738095238095238,0.9738095238095238,0.9738095238095238,0.9738095238095238,0.9738095238095238,0.9738095238095238,0.9738095238095238,0.9738095238095238,0.9738095238095238,0.9738095238095238,0.9738095238095238,0.9738095238095238,0.9738095238095238,0.9738095238095238,0.9738095238095238,0.9738095238095238,0.9738095238095238,0.9738095238095238,0.9738095238095238,0.9738095238095238,0.9738095238095238,0.9738095238095238,0.9738095238095238,0.9738095238095238,0.9738095238095238,0.9738095238095238,0.9738095238095238,0.9738095238095238,0.9738095238095238,0.9738095238095238,0.9738095238095238,0.9642857142857143,0.9642857142857143,0.9642857142857143,0.9547619047619048,0.9547619047619048,0.9452380952380952,0.9357142857142857,0.9166666666666666,0.9071428571428571,0.888095238095238,0.8785714285714286,0.85,0.8214285714285714,0.7928571428571428,0.7642857142857142,0.7452380952380953,0.7071428571428572,0.6785714285714286,0.6404761904761904,0.6214285714285714,0.6023809523809524,0.5928571428571429,0.5833333333333334,0.5738095238095238,0.5642857142857143,0.5642857142857143,0.5642857142857143,0.5642857142857143,0.5642857142857143,0.5642857142857143,0.5642857142857143,0.5642857142857143,0.5642857142857143,0.5642857142857143,0.5642857142857143,0.5642857142857143,0.5642857142857143,0.5642857142857143,0.5642857142857143,0.5642857142857143,0.5642857142857143,0.5642857142857143,0.5642857142857143,0.5642857142857143,0.5642857142857143,0.5642857142857143,0.5642857142857143,0.5642857142857143,0.5642857142857143,0.5642857142857143,0.5642857142857143,0.5642857142857143,0.5642857142857143,0.5642857142857143,0.5642857142857143,0.5642857142857143,0.5642857142857143,0.5642857142857143,0.5642857142857143,0.5642857142857143,0.5642857142857143,0.5642857142857143,0.5642857142857143,0.5642857142857143,0.5642857142857143,0.5642857142857143,0.5642857142857143,0.5642857142857143,0.5642857142857143,0.5642857142857143,0.5547619047619048,0.5547619047619048,0.5547619047619048,0.5547619047619048,0.5547619047619048,0.5547619047619048,0.5547619047619048,0.5547619047619048,0.5547619047619048,0.5547619047619048,0.5547619047619048,0.5547619047619048,0.5642857142857143,0.5642857142857143,0.5642857142857143,0.5642857142857143,0.5642857142857143,0.5642857142857143,0.5642857142857143,0.5642857142857143,0.5642857142857143,0.5642857142857143,0.5642857142857143,0.5642857142857143,0.5642857142857143,0.5642857142857143,0.5642857142857143,0.5642857142857143,0.5642857142857143,0.5642857142857143,0.5642857142857143,0.5642857142857143,0.5642857142857143,0.5642857142857143,0.5642857142857143,0.5642857142857143,0.5642857142857143,0.5642857142857143,0.5642857142857143,0.5642857142857143,0.5642857142857143,0.5642857142857143,0.5642857142857143,0.5642857142857143,0.5642857142857143,0.5642857142857143,0.5642857142857143,0.5642857142857143,0.5642857142857143,0.5642857142857143,0.5642857142857143,0.5642857142857143,0.5642857142857143,0.5642857142857143,0.5642857142857143,0.5642857142857143,0.5642857142857143,0.5642857142857143,0.5642857142857143,0.5642857142857143,0.5642857142857143,0.5642857142857143,0.5642857142857143,0.5642857142857143,0.5642857142857143,0.5642857142857143,0.5642857142857143,0.5642857142857143,0.5642857142857143,0.5642857142857143,0.5642857142857143,0.5642857142857143,0.5642857142857143,0.5642857142857143,0.5642857142857143,0.5642857142857143,0.5642857142857143,0.5642857142857143,0.5642857142857143,0.5642857142857143,0.5642857142857143,0.5642857142857143,0.5642857142857143,0.5642857142857143,0.5642857142857143,0.5642857142857143,0.5642857142857143,0.5642857142857143,0.5642857142857143,0.5642857142857143,0.5642857142857143,0.5642857142857143,0.5642857142857143,0.5642857142857143,0.5642857142857143,0.5642857142857143,0.5642857142857143,0.5642857142857143,0.5642857142857143,0.5642857142857143,0.5642857142857143,0.5642857142857143,0.5642857142857143,0.5642857142857143,0.5642857142857143,0.5642857142857143,0.5642857142857143,0.5642857142857143,0.5642857142857143,0.5642857142857143,0.5642857142857143,0.5642857142857143,0.5642857142857143,0.5642857142857143,0.5642857142857143,0.5642857142857143,0.5642857142857143,0.5642857142857143,0.5642857142857143,0.5642857142857143,0.5642857142857143,0.5642857142857143,0.5642857142857143,0.5642857142857143,0.5642857142857143,0.5642857142857143,0.5642857142857143,0.5642857142857143,0.5642857142857143,0.5642857142857143,0.5642857142857143,0.5642857142857143,0.5642857142857143,0.5642857142857143,0.5642857142857143,0.5642857142857143,0.5642857142857143,0.5642857142857143,0.5642857142857143,0.5642857142857143,0.5642857142857143,0.5642857142857143,0.5642857142857143,0.5642857142857143,0.5738095238095238,0.5738095238095238,0.5738095238095238,0.5738095238095238,0.5738095238095238,0.5738095238095238,0.5547619047619048,0.5357142857142857,0.5261904761904762,0.5166666666666667,0.5071428571428571,0.5071428571428571,0.4976190476190476,0.4880952380952381,0.4785714285714286,0.46904761904761905,0.46904761904761905,0.46904761904761905,0.46904761904761905,0.46904761904761905,0.46904761904761905,0.46904761904761905,0.46904761904761905,0.46904761904761905,0.4880952380952381,0.5071428571428571,0.5166666666666667,0.5357142857142857,0.5547619047619048,0.5547619047619048,0.5928571428571429,0.6309523809523809,0.669047619047619,0.7071428571428572,0.7547619047619047,0.7928571428571428,0.8404761904761905,0.888095238095238,0.9357142857142857,1.0214285714285714,1.05,1.0785714285714285,1.0976190476190477,1.1071428571428572,1.1166666666666667,1.1166666666666667,1.1166666666666667,1.1166666666666667,1.1166666666666667,1.1166666666666667,1.1166666666666667,1.1166666666666667,1.1166666666666667,1.1166666666666667,1.1166666666666667,1.1166666666666667,1.1166666666666667,1.1166666666666667,1.1166666666666667,1.1166666666666667,1.1166666666666667,1.1166666666666667,1.1166666666666667,1.1166666666666667,1.1166666666666667,1.1166666666666667,1.1166666666666667,1.1166666666666667,1.1166666666666667,1.1166666666666667,1.1166666666666667,1.1166666666666667,1.1166666666666667,1.1166666666666667,1.1166666666666667,1.1166666666666667,1.1166666666666667,1.1166666666666667,1.1166666666666667,1.1166666666666667,1.1166666666666667,1.1166666666666667,1.1166666666666667,1.1166666666666667,1.1166666666666667,1.1166666666666667,1.1166666666666667,1.1166666666666667,1.1166666666666667,1.1166666666666667,1.1166666666666667,1.1166666666666667,1.1166666666666667,1.1166666666666667,1.1166666666666667,1.1166666666666667,1.1166666666666667,1.1166666666666667,1.1166666666666667,1.1166666666666667,1.1166666666666667,1.1166666666666667,1.1166666666666667,1.1166666666666667,1.1166666666666667,1.1166666666666667,1.1166666666666667,1.1166666666666667,1.1166666666666667,1.1166666666666667,1.1166666666666667,1.1166666666666667,1.1166666666666667,1.1166666666666667,1.1166666666666667,1.1166666666666667,1.1166666666666667,1.1166666666666667,1.1166666666666667,1.1166666666666667,1.1166666666666667,1.1166666666666667,1.1166666666666667,1.1166666666666667,1.1166666666666667,1.1166666666666667,1.1166666666666667,1.1166666666666667,1.1166666666666667,1.1166666666666667,1.1166666666666667,1.1166666666666667,1.1166666666666667,1.1166666666666667,1.1166666666666667,1.1166666666666667,1.1166666666666667,1.1166666666666667,1.1166666666666667,1.1166666666666667,1.1166666666666667,1.1166666666666667,1.1166666666666667,1.1166666666666667,1.1166666666666667,1.1166666666666667,1.1166666666666667,1.1166666666666667,1.1166666666666667,1.1166666666666667,1.1166666666666667,1.1166666666666667,1.1166666666666667,1.1166666666666667,1.1166666666666667,1.1166666666666667,1.1166666666666667,1.069047619047619,1.0214285714285714,0.9642857142857143,0.85,0.7452380952380953,0.6595238095238095,0.6214285714285714,0.5452380952380952,0.4976190476190476,0.430952380952381,0.3738095238095238,0.34523809523809523,0.30714285714285716,0.30714285714285716,0.30714285714285716,0.31666666666666665,0.3357142857142857,0.3547619047619048,0.36428571428571427,0.3738095238095238,0.3738095238095238,0.3738095238095238,0.3738095238095238,0.39285714285714285,0.4119047619047619,0.42142857142857143,0.430952380952381,0.430952380952381,0.430952380952381,0.430952380952381,0.430952380952381,0.430952380952381,0.430952380952381,0.430952380952381,0.430952380952381,0.430952380952381,0.430952380952381,0.430952380952381,0.430952380952381,0.430952380952381,0.430952380952381,0.430952380952381,0.430952380952381,0.430952380952381,0.430952380952381,0.430952380952381,0.430952380952381,0.430952380952381,0.430952380952381,0.430952380952381,0.430952380952381,0.430952380952381,0.430952380952381,0.430952380952381,0.430952380952381,0.430952380952381,0.430952380952381,0.430952380952381,0.430952380952381,0.430952380952381,0.430952380952381,0.430952380952381,0.430952380952381,0.430952380952381,0.430952380952381,0.430952380952381,0.430952380952381,0.430952380952381,0.430952380952381,0.430952380952381,0.430952380952381,0.430952380952381,0.430952380952381,0.430952380952381,0.430952380952381,0.430952380952381,0.430952380952381,0.430952380952381,0.430952380952381,0.430952380952381,0.430952380952381,0.430952380952381,0.42142857142857143,0.38333333333333336,0.3261904761904762,0.25952380952380955,0.19285714285714287,0.14523809523809525,0.09761904761904762,0.05952380952380952,0.04047619047619048,0.02142857142857143,-0.007142857142857143,-0.016666666666666666,-0.02619047619047619,-0.03571428571428571,-0.03571428571428571,-0.03571428571428571,-0.03571428571428571,-0.03571428571428571,-0.03571428571428571,-0.03571428571428571,-0.03571428571428571,-0.04523809523809524,-0.04523809523809524,-0.04523809523809524,-0.04523809523809524,-0.04523809523809524,-0.04523809523809524,-0.04523809523809524,-0.04523809523809524,-0.04523809523809524,-0.04523809523809524,-0.04523809523809524,-0.04523809523809524,-0.04523809523809524,-0.04523809523809524,-0.04523809523809524,-0.04523809523809524,-0.04523809523809524,-0.04523809523809524,-0.04523809523809524,-0.04523809523809524,-0.04523809523809524,-0.04523809523809524,-0.04523809523809524,-0.04523809523809524,-0.04523809523809524,-0.04523809523809524,-0.04523809523809524,-0.04523809523809524,-0.04523809523809524,-0.04523809523809524,-0.04523809523809524,-0.04523809523809524,-0.04523809523809524,-0.04523809523809524,-0.04523809523809524,-0.04523809523809524,-0.04523809523809524,-0.04523809523809524,-0.04523809523809524,-0.04523809523809524,-0.04523809523809524,-0.04523809523809524,-0.04523809523809524,-0.04523809523809524,-0.04523809523809524,-0.04523809523809524,-0.04523809523809524,-0.04523809523809524,-0.04523809523809524,-0.04523809523809524,-0.04523809523809524,-0.04523809523809524,-0.04523809523809524,-0.04523809523809524,-0.04523809523809524,-0.05476190476190476,-0.05476190476190476,-0.05476190476190476,-0.05476190476190476,-0.05476190476190476,-0.05476190476190476,-0.04523809523809524,-0.016666666666666666,-0.007142857142857143,0.002380952380952381,0.002380952380952381,0.002380952380952381,-0.007142857142857143,-0.016666666666666666,-0.016666666666666666,-0.016666666666666666,-0.016666666666666666,-0.016666666666666666,-0.016666666666666666,-0.016666666666666666,-0.016666666666666666,-0.016666666666666666,-0.016666666666666666,-0.016666666666666666,-0.016666666666666666,-0.016666666666666666,-0.016666666666666666,-0.016666666666666666,0.002380952380952381,0.011904761904761904,0.030952380952380953,0.05,0.06904761904761905,0.07857142857142857,0.07857142857142857,0.07857142857142857,0.07857142857142857,0.07857142857142857,0.06904761904761905,0.05952380952380952,0.05952380952380952,0.05,0.04047619047619048,0.04047619047619048,0.030952380952380953,0.030952380952380953,0.02142857142857143,0.02142857142857143,0.02142857142857143,0.02142857142857143,0.02142857142857143,0.02142857142857143,0.02142857142857143,0.02142857142857143,0.02142857142857143,0.02142857142857143,0.02142857142857143,0.02142857142857143,0.02142857142857143,0.02142857142857143,0.02142857142857143,0.02142857142857143,0.02142857142857143,0.02142857142857143,0.02142857142857143,0.02142857142857143,0.02142857142857143,0.02142857142857143,0.02142857142857143,0.02142857142857143,0.02142857142857143,0.02142857142857143,0.02142857142857143,0.02142857142857143,0.02142857142857143,0.02142857142857143,0.02142857142857143,0.02142857142857143,0.02142857142857143,0.02142857142857143,0.02142857142857143,0.02142857142857143,0.02142857142857143,0.02142857142857143,0.02142857142857143,0.02142857142857143,0.02142857142857143,0.02142857142857143,0.02142857142857143,0.02142857142857143,0.02142857142857143,0.02142857142857143,0.02142857142857143,0.02142857142857143,0.02142857142857143,0.02142857142857143,0.02142857142857143,0.02142857142857143,0.02142857142857143,0.02142857142857143,0.02142857142857143,0.02142857142857143,0.02142857142857143,0.02142857142857143,0.02142857142857143,0.02142857142857143,0.011904761904761904,0.011904761904761904,0.002380952380952381,-0.007142857142857143,-0.007142857142857143,-0.007142857142857143,-0.007142857142857143,-0.007142857142857143,-0.007142857142857143,-0.007142857142857143,-0.007142857142857143,-0.007142857142857143,-0.007142857142857143,-0.007142857142857143,-0.007142857142857143,-0.007142857142857143,0.002380952380952381,0.02142857142857143,0.030952380952380953,0.07857142857142857,0.0880952380952381,0.0880952380952381,0.0880952380952381,0.0880952380952381,0.0880952380952381,0.0880952380952381,0.0880952380952381,0.0880952380952381,0.0880952380952381,0.0880952380952381,0.0880952380952381,0.0880952380952381,0.0880952380952381,0.0880952380952381,0.0880952380952381,0.0880952380952381,0.0880952380952381,0.09761904761904762,0.1357142857142857,0.18333333333333332,0.23095238095238096,0.2785714285714286,0.31666666666666665,0.3547619047619048,0.39285714285714285,0.430952380952381,0.4880952380952381,0.5261904761904762,0.5642857142857143,0.5928571428571429,0.6309523809523809,0.6595238095238095,0.6880952380952381,0.7071428571428572,0.7261904761904762,0.7642857142857142,0.8119047619047619,0.85,0.888095238095238,0.9166666666666666,0.9357142857142857,0.9642857142857143,0.9833333333333333,0.9833333333333333,0.9928571428571429,1.0023809523809524,1.0023809523809524,1.0023809523809524,1.0023809523809524,1.0023809523809524,0.9928571428571429,0.9833333333333333,0.9833333333333333,0.9738095238095238,0.9642857142857143,0.9547619047619048,0.9261904761904762,0.8976190476190476,0.8595238095238096,0.830952380952381,0.8023809523809524,0.7642857142857142,0.7357142857142858,0.6976190476190476,0.6785714285714286,0.65,0.6309523809523809,0.6023809523809524,0.5928571428571429,0.5738095238095238,0.5642857142857143,0.5547619047619048,0.5452380952380952,0.5452380952380952,0.5452380952380952,0.5357142857142857,0.5357142857142857,0.5357142857142857,0.5357142857142857,0.5261904761904762,0.5261904761904762,0.5261904761904762,0.5261904761904762,0.5261904761904762,0.5261904761904762,0.5261904761904762,0.5261904761904762,0.5261904761904762,0.5261904761904762,0.5261904761904762,0.5261904761904762,0.5261904761904762,0.5261904761904762,0.5261904761904762,0.5261904761904762,0.5261904761904762,0.5261904761904762,0.5261904761904762,0.5261904761904762,0.5261904761904762,0.5261904761904762,0.5261904761904762,0.5261904761904762,0.5261904761904762,0.5261904761904762,0.5261904761904762,0.5261904761904762,0.5261904761904762,0.5261904761904762,0.5261904761904762,0.5261904761904762,0.5261904761904762,0.5261904761904762,0.5261904761904762,0.5261904761904762,0.5261904761904762,0.5261904761904762,0.5261904761904762,0.5261904761904762,0.5261904761904762,0.5261904761904762,0.5261904761904762,0.5261904761904762,0.5261904761904762,0.5261904761904762,0.5261904761904762,0.5261904761904762,0.5261904761904762,0.5261904761904762,0.5261904761904762,0.5261904761904762,0.5261904761904762,0.5261904761904762,0.5261904761904762,0.5261904761904762,0.5261904761904762,0.5261904761904762,0.5261904761904762,0.5261904761904762,0.5261904761904762,0.5261904761904762,0.5261904761904762,0.5261904761904762,0.5261904761904762,0.5261904761904762,0.5261904761904762,0.5261904761904762,0.5261904761904762,0.5357142857142857,0.5547619047619048,0.5642857142857143,0.5833333333333334,0.6023809523809524,0.611904761904762,0.6214285714285714,0.6309523809523809,0.6404761904761904,0.6595238095238095,0.6785714285714286,0.6976190476190476,0.7071428571428572,0.7261904761904762,0.7261904761904762,0.7357142857142858,0.7357142857142858,0.7357142857142858,0.7357142857142858,0.7452380952380953,0.7547619047619047,0.7547619047619047,0.7642857142857142,0.7642857142857142,0.7738095238095238,0.7738095238095238,0.7833333333333333,0.7928571428571428,0.8119047619047619,0.8214285714285714,0.8214285714285714,0.8214285714285714,0.8023809523809524,0.7547619047619047,0.7261904761904762,0.6785714285714286,0.6404761904761904,0.5738095238095238,0.5261904761904762,0.4976190476190476,0.4595238095238095,0.44047619047619047,0.42142857142857143,0.4023809523809524,0.38333333333333336,0.3738095238095238,0.3738095238095238,0.36428571428571427,0.36428571428571427,0.39285714285714285,0.430952380952381,0.4880952380952381,0.5547619047619048,0.6404761904761904,0.7166666666666667,0.7738095238095238,0.8214285714285714,0.85,0.8595238095238096,0.8690476190476191,0.8690476190476191,0.8690476190476191,0.8595238095238096,0.85,0.8404761904761905,0.830952380952381,0.8214285714285714,0.8214285714285714,0.8214285714285714,0.8214285714285714,0.8214285714285714,0.8214285714285714,0.830952380952381,0.85,0.8785714285714286,0.888095238095238,0.8976190476190476,0.9071428571428571,0.9071428571428571,0.9166666666666666,0.9261904761904762,0.9357142857142857,0.9357142857142857,0.9357142857142857,0.9357142857142857,0.9357142857142857,0.9357142857142857,0.9357142857142857,0.9357142857142857,0.9357142857142857,0.9357142857142857,0.9357142857142857,0.9357142857142857,0.9357142857142857,0.9357142857142857,0.9357142857142857,0.9357142857142857,0.9357142857142857,0.9357142857142857,0.9357142857142857,0.9166666666666666,0.8785714285714286,0.830952380952381,0.7738095238095238,0.7071428571428572,0.65,0.611904761904762,0.5738095238095238,0.5261904761904762,0.5166666666666667,0.5071428571428571,0.4976190476190476,0.4976190476190476,0.4976190476190476,0.4976190476190476,0.5071428571428571,0.5261904761904762,0.5452380952380952,0.5738095238095238,0.5928571428571429,0.6214285714285714,0.65,0.6785714285714286,0.7071428571428572,0.7547619047619047,0.8023809523809524,0.830952380952381,0.8404761904761905,0.85,0.85,0.85,0.85,0.85,0.85,0.85,0.85,0.85,0.85,0.85,0.85,0.85,0.85,0.85,0.85,0.85,0.8595238095238096,0.8690476190476191,0.9261904761904762,0.9261904761904762,0.9547619047619048,0.9642857142857143,0.9642857142857143,0.9738095238095238,0.9833333333333333,0.9833333333333333,0.9928571428571429,0.9928571428571429,1.0023809523809524,1.0023809523809524,1.0023809523809524,1.0023809523809524,1.0023809523809524,1.0023809523809524,1.0023809523809524,1.0023809523809524,1.0023809523809524,1.0023809523809524,1.0023809523809524,1.0023809523809524,0.9928571428571429,0.9738095238095238,0.9547619047619048,0.9261904761904762,0.8976190476190476,0.8690476190476191,0.830952380952381,0.8023809523809524,0.7642857142857142,0.6880952380952381,0.6214285714285714,0.5452380952380952,0.46904761904761905,0.39285714285714285,0.31666666666666665,0.24047619047619048,0.19285714285714287,0.1357142857142857,0.09761904761904762,0.06904761904761905,0.04047619047619048,0.030952380952380953,0.030952380952380953,0.030952380952380953,0.030952380952380953,0.030952380952380953,0.030952380952380953,0.030952380952380953,0.030952380952380953,0.030952380952380953,0.04047619047619048,0.04047619047619048,0.05952380952380952,0.07857142857142857,0.0880952380952381,0.09761904761904762,0.10714285714285714,0.1261904761904762,0.1357142857142857,0.14523809523809525,0.15476190476190477,0.16428571428571428,0.16428571428571428,0.16428571428571428,0.14523809523809525,0.1357142857142857,0.11666666666666667,0.07857142857142857,0.06904761904761905,0.05,0.030952380952380953,0.02142857142857143,0.02142857142857143,0.011904761904761904,0.011904761904761904,0.011904761904761904,0.011904761904761904,0.02142857142857143,0.02142857142857143,0.02142857142857143,0.02142857142857143,0.02142857142857143,0.02142857142857143,0.02142857142857143,0.02142857142857143,0.02142857142857143,0.02142857142857143,0.02142857142857143,0.02142857142857143,0.02142857142857143,0.02142857142857143,0.02142857142857143,0.02142857142857143,0.02142857142857143,0.02142857142857143,0.02142857142857143,0.02142857142857143,0.02142857142857143,0.02142857142857143,0.02142857142857143,0.02142857142857143,0.02142857142857143,0.02142857142857143,0.02142857142857143,0.02142857142857143,0.02142857142857143,0.02142857142857143,0.02142857142857143,0.02142857142857143,0.02142857142857143,0.02142857142857143,0.02142857142857143,0.02142857142857143,0.02142857142857143,0.02142857142857143,0.02142857142857143,0.02142857142857143,0.02142857142857143,0.02142857142857143,0.02142857142857143,0.02142857142857143,0.02142857142857143,0.02142857142857143,0.02142857142857143,0.02142857142857143,0.02142857142857143,0.02142857142857143,0.02142857142857143,0.02142857142857143,0.02142857142857143,0.02142857142857143,0.02142857142857143,0.02142857142857143,0.02142857142857143,0.011904761904761904,0.011904761904761904,0.011904761904761904,0.011904761904761904,0.011904761904761904,0.011904761904761904,0.011904761904761904,0.011904761904761904,0.011904761904761904,0.011904761904761904,0.011904761904761904,0.011904761904761904,0.011904761904761904,0.011904761904761904,0.011904761904761904,0.011904761904761904,0.011904761904761904,0.011904761904761904,0.011904761904761904,0.011904761904761904,0.011904761904761904,0.011904761904761904,0.011904761904761904,0.011904761904761904,0.011904761904761904,0.011904761904761904,0.011904761904761904,0.011904761904761904,0.011904761904761904,0.011904761904761904,0.011904761904761904,0.011904761904761904,0.011904761904761904,0.011904761904761904,0.011904761904761904,0.011904761904761904,0.011904761904761904,0.011904761904761904,0.011904761904761904,0.011904761904761904,0.011904761904761904,0.011904761904761904,0.011904761904761904,0.011904761904761904,0.011904761904761904,0.011904761904761904,0.011904761904761904,0.011904761904761904,0.011904761904761904,0.011904761904761904,0.011904761904761904,0.011904761904761904,0.011904761904761904,0.011904761904761904,0.011904761904761904,0.011904761904761904,0.011904761904761904,0.011904761904761904,0.011904761904761904,0.011904761904761904,0.011904761904761904,0.011904761904761904,0.02142857142857143,0.04047619047619048,0.05,0.05952380952380952,0.06904761904761905,0.0880952380952381,0.09761904761904762,0.10714285714285714,0.11666666666666667,0.1261904761904762,0.1261904761904762,0.1261904761904762,0.1261904761904762,0.1261904761904762,0.1261904761904762,0.1261904761904762,0.1261904761904762,0.1261904761904762,0.1261904761904762,0.1357142857142857,0.1357142857142857,0.1357142857142857,0.14523809523809525,0.14523809523809525,0.14523809523809525,0.15476190476190477,0.15476190476190477,0.16428571428571428,0.16428571428571428,0.1738095238095238,0.18333333333333332,0.18333333333333332,0.19285714285714287,0.20238095238095238,0.2119047619047619,0.2119047619047619,0.22142857142857142,0.23095238095238096,0.23095238095238096,0.23095238095238096,0.23095238095238096,0.22142857142857142,0.2119047619047619,0.20238095238095238,0.18333333333333332,0.1738095238095238,0.14523809523809525,0.1261904761904762,0.09761904761904762,0.07857142857142857,0.05952380952380952,0.04047619047619048,0.030952380952380953,0.030952380952380953,0.02142857142857143,0.011904761904761904,0.002380952380952381,-0.007142857142857143,-0.016666666666666666,-0.02619047619047619,-0.03571428571428571,-0.03571428571428571,-0.04523809523809524,-0.04523809523809524,-0.04523809523809524,-0.04523809523809524,-0.04523809523809524,-0.04523809523809524,-0.04523809523809524,-0.04523809523809524,-0.04523809523809524,-0.04523809523809524,-0.04523809523809524,-0.04523809523809524,-0.04523809523809524,-0.04523809523809524,-0.04523809523809524,-0.04523809523809524,-0.04523809523809524,-0.04523809523809524,-0.04523809523809524,-0.04523809523809524,-0.04523809523809524,-0.04523809523809524,-0.04523809523809524,-0.04523809523809524,-0.04523809523809524,-0.04523809523809524,-0.04523809523809524,-0.04523809523809524,-0.04523809523809524,-0.04523809523809524,-0.04523809523809524,-0.04523809523809524,-0.04523809523809524,-0.04523809523809524,-0.04523809523809524,-0.04523809523809524,-0.04523809523809524,-0.04523809523809524,-0.04523809523809524,-0.04523809523809524,-0.04523809523809524,-0.04523809523809524,-0.04523809523809524,-0.04523809523809524,-0.04523809523809524,-0.04523809523809524,-0.04523809523809524,-0.04523809523809524,-0.04523809523809524,-0.04523809523809524,-0.04523809523809524,-0.04523809523809524,-0.04523809523809524,-0.04523809523809524,-0.04523809523809524,-0.04523809523809524,-0.04523809523809524,-0.04523809523809524,-0.04523809523809524,-0.04523809523809524,-0.04523809523809524,-0.04523809523809524,-0.04523809523809524,-0.04523809523809524,-0.04523809523809524,-0.04523809523809524,-0.04523809523809524,-0.04523809523809524,-0.04523809523809524,-0.04523809523809524,-0.04523809523809524,-0.04523809523809524,-0.04523809523809524,-0.04523809523809524,-0.04523809523809524,-0.04523809523809524,-0.04523809523809524,-0.04523809523809524,-0.04523809523809524,-0.04523809523809524,-0.04523809523809524,-0.04523809523809524,-0.04523809523809524,-0.04523809523809524,-0.04523809523809524,-0.04523809523809524,-0.04523809523809524,-0.04523809523809524,-0.04523809523809524,-0.04523809523809524,-0.04523809523809524,-0.04523809523809524,-0.04523809523809524,-0.04523809523809524,-0.04523809523809524,-0.04523809523809524,-0.04523809523809524,-0.04523809523809524,-0.04523809523809524,-0.04523809523809524,-0.04523809523809524,-0.04523809523809524,-0.04523809523809524,-0.04523809523809524,-0.04523809523809524,-0.04523809523809524,-0.04523809523809524,-0.04523809523809524,-0.04523809523809524,-0.04523809523809524,-0.04523809523809524,-0.04523809523809524,-0.04523809523809524,-0.04523809523809524,-0.04523809523809524,-0.04523809523809524,-0.04523809523809524,-0.04523809523809524,-0.04523809523809524,-0.04523809523809524,-0.04523809523809524,-0.04523809523809524,-0.04523809523809524,-0.04523809523809524,-0.04523809523809524,-0.04523809523809524,-0.04523809523809524,-0.04523809523809524,-0.04523809523809524,-0.04523809523809524,-0.03571428571428571,-0.016666666666666666,0.02142857142857143,0.07857142857142857,0.15476190476190477,0.25952380952380955,0.39285714285714285,0.5166666666666667,0.7261904761904762,0.8404761904761905,0.9547619047619048,1.0309523809523808,1.0785714285714285,1.1261904761904762,1.1547619047619047,1.1642857142857144,1.1738095238095239,1.1738095238095239,1.1738095238095239,1.1738095238095239,1.1738095238095239,1.1642857142857144,1.1452380952380952,1.1071428571428572,1.0785714285714285,1.05,1.0309523809523808,1.0023809523809524,0.9928571428571429,0.9833333333333333,0.9642857142857143,0.9547619047619048,0.9547619047619048,0.9547619047619048,0.9547619047619048,0.9547619047619048,0.9833333333333333,1.0023809523809524,1.05,1.069047619047619,1.1166666666666667,1.1452380952380952,1.1833333333333333,1.1928571428571428,1.2119047619047618,1.2119047619047618,1.2119047619047618,1.2023809523809523,1.1833333333333333,1.1738095238095239,1.1642857142857144,1.1452380952380952,1.1357142857142857,1.1261904761904762,1.1071428571428572,1.0976190476190477,1.0785714285714285,1.05,1.0404761904761906,1.0214285714285714,1.0214285714285714,1.0119047619047619,1.0119047619047619,1.0119047619047619,1.0119047619047619,1.0119047619047619,1.0119047619047619,1.0119047619047619,1.0119047619047619,1.0119047619047619,1.0119047619047619,1.0119047619047619,1.0119047619047619,1.0119047619047619,1.0119047619047619,1.0119047619047619,1.0119047619047619,1.0119047619047619,1.0119047619047619,1.0119047619047619,1.0119047619047619,1.0119047619047619,1.0119047619047619,1.0119047619047619,1.0119047619047619,1.0119047619047619,1.0119047619047619,1.0119047619047619,1.0119047619047619,1.0119047619047619,1.0119047619047619,1.0119047619047619,1.0119047619047619,1.0119047619047619,1.0119047619047619,1.0119047619047619,1.0119047619047619,1.0119047619047619,1.0119047619047619,1.0119047619047619,1.0023809523809524,0.9928571428571429,0.9547619047619048,0.9166666666666666,0.830952380952381,0.7833333333333333,0.7166666666666667,0.6404761904761904,0.5642857142857143,0.5071428571428571,0.4595238095238095,0.4119047619047619,0.39285714285714285,0.3547619047619048,0.3261904761904762,0.2976190476190476,0.28809523809523807,0.25952380952380955,0.25,0.23095238095238096,0.2119047619047619,0.20238095238095238,0.19285714285714287,0.18333333333333332,0.1738095238095238,0.15476190476190477,0.14523809523809525,0.1357142857142857,0.1357142857142857,0.1261904761904762,0.1261904761904762,0.1261904761904762,0.1261904761904762,0.1357142857142857,0.18333333333333332,0.20238095238095238,0.24047619047619048,0.26904761904761904,0.30714285714285716,0.34523809523809523,0.39285714285714285,0.42142857142857143,0.44047619047619047,0.4595238095238095,0.46904761904761905,0.4785714285714286,0.4785714285714286,0.4785714285714286,0.4785714285714286,0.4785714285714286,0.46904761904761905,0.45,0.44047619047619047,0.430952380952381,0.42142857142857143,0.42142857142857143,0.42142857142857143,0.42142857142857143,0.42142857142857143,0.42142857142857143,0.42142857142857143,0.430952380952381,0.430952380952381,0.430952380952381,0.4119047619047619,0.4023809523809524,0.4023809523809524,0.36428571428571427,0.3357142857142857,0.28809523809523807,0.24047619047619048,0.18333333333333332,0.06904761904761905,0.002380952380952381,-0.06428571428571428,-0.10238095238095238,-0.14047619047619048,-0.1595238095238095,-0.16904761904761906,-0.16904761904761906,-0.16904761904761906,-0.15,-0.06428571428571428,0.002380952380952381,0.0880952380952381,0.15476190476190477,0.25,0.3547619047619048,0.44047619047619047,0.4880952380952381,0.5642857142857143,0.6023809523809524,0.6309523809523809,0.6785714285714286,0.6880952380952381,0.6880952380952381,0.6880952380952381,0.6880952380952381,0.6595238095238095,0.6214285714285714,0.5833333333333334,0.5452380952380952,0.4880952380952381,0.46904761904761905,0.45,0.44047619047619047,0.430952380952381,0.42142857142857143,0.42142857142857143,0.4119047619047619,0.4023809523809524,0.4023809523809524,0.4023809523809524,0.4023809523809524,0.4023809523809524,0.4023809523809524,0.4023809523809524,0.4023809523809524,0.4119047619047619,0.4119047619047619,0.42142857142857143,0.430952380952381,0.430952380952381,0.44047619047619047,0.44047619047619047,0.44047619047619047,0.44047619047619047,0.44047619047619047,0.44047619047619047,0.44047619047619047,0.44047619047619047,0.44047619047619047,0.44047619047619047,0.44047619047619047,0.44047619047619047,0.44047619047619047,0.44047619047619047,0.44047619047619047,0.44047619047619047,0.44047619047619047,0.44047619047619047,0.44047619047619047,0.44047619047619047,0.44047619047619047,0.44047619047619047,0.44047619047619047,0.44047619047619047,0.44047619047619047,0.44047619047619047,0.44047619047619047,0.4595238095238095,0.4880952380952381,0.5166666666666667,0.5547619047619048,0.5738095238095238,0.5833333333333334,0.6023809523809524,0.6309523809523809,0.6595238095238095,0.7071428571428572,0.7452380952380953,0.7833333333333333,0.8119047619047619,0.830952380952381,0.830952380952381,0.830952380952381,0.830952380952381,0.830952380952381,0.830952380952381,0.830952380952381,0.830952380952381,0.830952380952381,0.830952380952381,0.830952380952381,0.830952380952381,0.830952380952381,0.830952380952381,0.830952380952381,0.830952380952381,0.830952380952381,0.830952380952381,0.830952380952381,0.830952380952381,0.830952380952381,0.830952380952381,0.830952380952381,0.830952380952381,0.830952380952381,0.830952380952381,0.830952380952381,0.830952380952381,0.830952380952381,0.830952380952381,0.830952380952381,0.830952380952381,0.830952380952381,0.830952380952381,0.830952380952381,0.830952380952381,0.830952380952381,0.830952380952381,0.830952380952381,0.830952380952381,0.830952380952381,0.830952380952381,0.830952380952381,0.830952380952381,0.830952380952381,0.830952380952381,0.830952380952381,0.830952380952381,0.830952380952381,0.830952380952381,0.830952380952381,0.830952380952381,0.830952380952381,0.830952380952381,0.830952380952381,0.830952380952381,0.830952380952381,0.830952380952381,0.8