[{"success":true,"trial_type":"fullscreen","trial_index":0,"time_elapsed":4137,"internal_node_id":"0.0-0.0","protocol_sum":"","subject_identifier":415,"subject_sum":[150,128,118,190,46,56,207,137,125,77,108,234,63,172,169,192,55,225,164,227,180,183,116,79,178,83,62,7,117,27,211,10],"subject_pair":207,"STUDY_ID":"66a22c0758a3d5c9d26873c6","PROLIFIC_PID":"6601acd8481d967fb8e752a7","SESSION_ID":"66a28c0253a366da6572b853","practice_instructions":1,"leaderboard_instructions":1,"bonus":1,"reveal_word":true,"self_rating":"4","confidence":"78"},{"view_history":"[{\"page_index\":0,\"viewing_time\":7559.100000023842}]","rt":7559.300000011921,"trial_type":"instructions","trial_index":1,"time_elapsed":11698,"internal_node_id":"0.0-1.0","protocol_sum":"","subject_identifier":415,"subject_sum":[150,128,118,190,46,56,207,137,125,77,108,234,63,172,169,192,55,225,164,227,180,183,116,79,178,83,62,7,117,27,211,10],"subject_pair":207,"STUDY_ID":"66a22c0758a3d5c9d26873c6","PROLIFIC_PID":"6601acd8481d967fb8e752a7","SESSION_ID":"66a28c0253a366da6572b853","practice_instructions":1,"leaderboard_instructions":1,"bonus":1,"reveal_word":true,"self_rating":"4","confidence":"78"},{"view_history":"[{\"page_index\":0,\"viewing_time\":27490.200000047684}]","rt":27490.5,"trial_type":"instructions","trial_index":2,"time_elapsed":39188,"internal_node_id":"0.0-2.0-0.0","protocol_sum":"","subject_identifier":415,"subject_sum":[150,128,118,190,46,56,207,137,125,77,108,234,63,172,169,192,55,225,164,227,180,183,116,79,178,83,62,7,117,27,211,10],"subject_pair":207,"STUDY_ID":"66a22c0758a3d5c9d26873c6","PROLIFIC_PID":"6601acd8481d967fb8e752a7","SESSION_ID":"66a28c0253a366da6572b853","practice_instructions":1,"leaderboard_instructions":1,"bonus":1,"reveal_word":true,"self_rating":"4","confidence":"78"},{"rt":18922.400000035763,"responses":"{\"Q0\":\"... reveal the word with as <b>few letter guesses</b> as possible\"}","question_order":"[0]","trial_type":"survey-multi-choice","trial_index":3,"time_elapsed":58114,"internal_node_id":"0.0-2.0-1.0","protocol_sum":"","subject_identifier":415,"subject_sum":[150,128,118,190,46,56,207,137,125,77,108,234,63,172,169,192,55,225,164,227,180,183,116,79,178,83,62,7,117,27,211,10],"subject_pair":207,"correct":true,"test_part":"multichoice_nonpretend","STUDY_ID":"66a22c0758a3d5c9d26873c6","PROLIFIC_PID":"6601acd8481d967fb8e752a7","SESSION_ID":"66a28c0253a366da6572b853","practice_instructions":1,"leaderboard_instructions":1,"bonus":1,"reveal_word":true,"self_rating":"4","confidence":"78"},{"view_history":"[{\"page_index\":0,\"viewing_time\":3449.099999964237}]","rt":3449.399999976158,"trial_type":"instructions","trial_index":4,"time_elapsed":61566,"internal_node_id":"0.0-3.0","protocol_sum":"","subject_identifier":415,"subject_sum":[150,128,118,190,46,56,207,137,125,77,108,234,63,172,169,192,55,225,164,227,180,183,116,79,178,83,62,7,117,27,211,10],"subject_pair":207,"STUDY_ID":"66a22c0758a3d5c9d26873c6","PROLIFIC_PID":"6601acd8481d967fb8e752a7","SESSION_ID":"66a28c0253a366da6572b853","practice_instructions":1,"leaderboard_instructions":1,"bonus":1,"reveal_word":true,"self_rating":"4","confidence":"78"},{"word":"ZEBRA","click_log":{"letter":["","T","I","G","E","C","P","N","B","A","R","Z"],"t":[0,75220.90000003576,77826.60000002384,80651.60000002384,82318.40000003576,88142.5,96370.90000003576,100754.19999998808,106100.60000002384,110526,115479.10000002384,122958],"hit":[null,0,0,0,1,0,0,0,1,1,1,1],"asked":["","T","TI","TIG","TIGE","TIGEC","TIGECP","TIGECPN","TIGECPNB","TIGECPNBA","TIGECPNBAR","TIGECPNBARZ"],"word_state":["_____","_____","_____","_____","_E___","_E___","_E___","_E___","_EB__","_EB_A","_EBRA","ZEBRA"]},"hover_log":{"letter":["?","?","?","?","?","?","?","?","?","?","?","?","?","?","?","?","?","?","?","?","?","?","?","?","?","?","?","?","?","?","?","?","?","?","?","?","?","?","?","?","?","?","?","?","?","?","?","?","?","?","?","?","?","?","?","?","?","?","?","?","?","?","?","?","?","?","?","?","?","?","?","?","?","?","?","?","?","?","?","?","?","?","?","?","?","?","?","?","?","?","?","?","?","?","?","?","?","?","?","?","?","?","?","?","?","?","?","?","?","?","?","?","?","?","?","?","?","?","?","?","?","?","?","?","?","?","?","?","?","?","?","?","?","?","?","?","?","?","?","?","?","?","?","?","?","?","?","?","?","?","?","?","?","?","?","?","?","?","?","?","?","?","?","?","?","?","?","?","?","?","?","?","?","?","?","?","?","?","?","?","?","?","?","?","?","?","?","?","?","?","?","?","?","?","?","?","?","?","?","?","?","?","?","?","?","?","?","?","?","?","?","?","?","?","?","?","?","?","?","?","?","?","?","?","J","J","J","?","?","?","?","?","?","?","?","?","?","?","?","?","?","?","?","?","?","?","?","?","?","?","?","?","?","?","?","?","?","?","?","?","?","?","?","?","?","?","?","?","?","?","?","?","?","?","?","?","?","?","?","?","?","?","?","?","?","?","?","?","?","?","?","?","?","?","?","?","?","?","?","?","?","B","B","B","?","?","C","C","?","?","?","?","?","?","?","D","D","D","D","D","D","D","D","D","D","D","D","D","D","D","D","D","D","D","D","D","D","D","D","D","D","D","D","D","D","D","D","D","D","D","D","D","D","D","D","D","D","D","D","D","D","D","D","D","D","D","D","D","D","D","D","D","D","D","D","D","D","D","D","D","D","D","D","D","D","D","D","D","D","D","D","D","D","D","?","?","?","?","?","?","?","?","?","?","?","?","?","?","?","?","?","?","?","?","?","?","?","?","?","?","?","?","?","?","?","?","?","?","?","?","?","?","?","?","?","?","?","?","?","?","?","?","?","?","?","?","?","?","?","?","?","?","?","?","?","?","?","?","?","?","?","?","?","?","?","?","?","?","?","?","?","?","?","?","?","?","?","?","?","?","?","?","?","?","?","?","?","?","?","?","?","?","?","?","?","?","?","?","?","?","?","?","?","?","?","?","?","?","?","?","?","?","?","?","?","?","?","?","?","?","?","?","?","?","?","?","?","?","?","?","?","?","?","?","?","?","?","?","?","?","?","?","?","?","?","?","?","?","?","?","?","?","?","?","?","?","?","?","?","?","?","?","?","?","?","?","?","?","?","?","?","?","?","?","?","?","?","?","?","?","?","?","?","?","?","?","?","?","?","?","?","?","?","?","?","?","?","?","?","?","?","?","?","?","?","?","?","?","?","?","?","?","?","?","?","?","?","?","?","?","?","?","?","?","?","D","D","D","D","?","?","?","L","L","L","L","?","?","?","?","?","?","?","?","?","?","?","?","?","?","?","?","?","?","?","?","K","K","K","K","K","K","K","K","K","K","K","K","K","K","K","K","K","K","K","K","K","K","K","K","K","K","K","K","K","K","K","K","K","K","K","K","K","K","K","K","K","K","K","K","K","K","K","K","K","K","K","K","K","K","K","K","K","K","K","K","K","K","K","K","K","K","K","K","K","K","K","K","K","K","K","K","K","K","K","K","K","K","K","K","K","K","K","K","K","K","K","K","K","K","K","K","K","K","K","K","K","?","B","?","?","?","?","?","?","?","?","?","?","?","?","?","?","?","?","?","?","?","?","?","?","?","?","?","?","?","?","?","?","?","?","?","?","?","?","?","?","?","?","?","?","?","?","?","?","?","?","?","?","?","?","?","?","?","?","?","?","?","?","?","?","?","?","?","?","?","?","?","?","?","?","?","?","?","?","?","?","?","?","?","?","?","?","?","?","?","?","?","?","?","?","?","?","?","?","?","?","?","?","?","?","?","?","?","?","?","?","?","?","?","?","?","?","?","?","?","?","?","?","?","?","?","?","?","?","?","?","?","?","?","?","?","?","?","?","?","?","?","?","?","?","?","?","?","?","?","?","?","?","?","?","?","?","?","?","?","?","?","?","?","?","?","?","?","?","?","?","?","?","?","?","?","?","?","?","?","?","?","?","?","?","G","G","G","?","P","P","P","P","P","P","P","P","P","P","P","P","P","P","P","P","P","P","P","P","P","P","P","P","P","P","P","P","P","P","P","P","P","P","P","P","P","P","P","P","P","P","P","P","P","P","P","P","P","P","P","P","P","P","P","P","P","P","P","P","P","P","P","P","P","P","P","P","P","P","P","P","P","P","P","P","P","P","P","P","P","P","P","P","P","P","P","P","P","P","P","P","P","P","P","P","P","P","P","P","P","P","P","P","P","P","P","P","P","P","P","P","P","P","P","P","P","P","P","P","P","P","P","P","P","P","P","P","P","P","P","P","P","P","P","P","P","P","P","P","P","P","P","P","P","P","P","P","P","P","P","P","P","P","P","P","P","P","P","P","P","P","P","P","P","P","P","P","P","P","P","P","P","P","P","P","P","P","P","P","P","P","P","P","P","P","P","P","P","P","P","P","P","P","P","P","P","P","P","P","P","P","P","P","P","P","P","P","P","P","P","P","P","P","P","P","P","P","P","P","P","P","P","P","P","P","P","P","P","P","P","P","P","P","P","P","P","P","P","P","P","P","P","P","P","P","P","P","P","P","P","P","P","P","P","P","P","P","P","P","P","P","P","P","P","P","P","P","P","P","P","P","P","P","P","P","P","P","P","P","P","P","P","P","P","P","P","P","P","P","P","P","P","P","P","P","P","P","P","P","P","P","P","P","P","P","P","P","P","P","P","P","P","P","P","P","P","P","P","P","P","P","P","P","P","P","P","P","P","P","P","P","P","P","P","P","P","P","P","P","P","P","P","P","P","P","P","P","P","P","P","P","P","P","P","P","P","P","P","P","P","P","P","P","P","P","P","P","P","P","P","P","P","P","P","P","P","P","P","P","P","P","P","P","P","P","P","P","P","P","P","P","P","P","P","P","P","P","P","P","P","P","P","P","P","P","P","P","P","P","P","P","P","P","P","P","P","P","P","P","P","P","P","P","P","P","P","P","P","P","P","P","P","P","P","P","P","P","P","P","P","P","P","P","P","P","P","P","P","P","P","P","P","P","P","P","P","P","P","P","P","P","P","P","P","P","P","P","P","P","P","P","P","P","P","P","P","P","P","P","P","P","P","P","P","P","P","P","P","P","P","P","P","P","P","P","P","P","P","P","P","P","P","P","P","P","P","P","P","P","P","P","P","P","P","P","P","P","P","P","P","P","P","P","P","P","P","P","P","P","P","P","P","P","P","P","P","P","P","P","P","P","P","P","P","P","P","P","P","P","P","P","P","P","P","P","P","P","P","P","P","P","P","P","P","P","P","P","P","P","P","P","P","P","P","P","P","P","P","P","P","P","P","P","P","P","P","P","P","P","P","P","P","P","P","P","P","P","P","P","P","P","P","P","P","P","P","P","P","P","P","P","P","P","P","P","P","P","P","P","P","P","P","P","P","P","P","P","P","P","P","P","P","P","P","P","P","P","P","P","P","P","P","P","P","P","P","P","P","P","P","P","P","P","P","P","P","P","P","P","P","P","P","P","P","P","P","P","P","P","P","P","P","P","P","P","P","P","P","P","P","P","P","P","P","P","P","P","P","P","P","P","P","P","P","P","P","P","P","P","P","P","P","P","P","P","P","P","P","P","P","P","P","P","P","P","P","P","P","P","P","P","P","P","P","P","P","P","P","P","P","P","P","P","P","P","P","P","P","P","P","P","P","P","P","P","P","P","P","P","P","P","P","P","P","P","P","P","P","P","P","P","P","P","P","P","P","P","P","P","P","P","P","P","P","P","P","P","P","P","P","P","P","P","P","P","P","P","P","P","P","P","P","P","P","P","P","P","P","P","P","P","P","P","P","P","P","P","P","P","P","P","P","P","P","P","P","P","P","P","P","P","P","P","P","P","P","P","P","P","P","P","P","P","P","P","P","P","P","P","P","P","P","P","P","P","P","P","P","P","P","P","P","P","P","P","P","P","P","P","P","P","P","P","P","P","P","P","P","P","P","P","P","P","P","P","P","P","P","P","P","P","P","P","P","P","P","P","P","P","P","P","P","P","P","P","P","P","P","P","P","P","P","P","P","P","P","P","P","P","P","P","P","P","P","P","P","P","P","P","P","P","P","P","P","P","P","P","P","P","P","P","P","P","P","P","P","P","P","P","P","P","P","P","P","P","P","P","P","P","P","P","P","P","P","P","P","P","P","P","P","P","P","P","P","P","P","P","P","P","P","P","P","P","P","P","P","P","P","P","P","P","P","P","P","P","P","P","P","P","P","P","P","P","P","P","P","P","P","P","P","P","P","P","P","P","P","P","P","P","P","P","P","P","P","P","P","P","P","P","P","P","P","P","P","P","P","P","P","P","P","P","P","P","P","P","P","P","P","P","P","P","P","P","P","P","P","P","P","P","P","P","P","P","P","P","P","P","P","P","P","P","P","P","P","P","P","P","P","P","P","P","P","P","P","P","P","P","P","P","P","P","P","P","P","P","P","P","P","P","P","P","P","P","P","P","P","P","P","P","P","P","P","P","P","P","P","P","P","P","P","P","P","P","P","P","P","P","P","P","P","P","P","P","P","P","P","P","P","P","P","P","P","P","P","P","P","P","P","P","P","P","P","P","P","P","P","P","P","P","P","P","P","P","P","P","P","P","P","P","P","P","P","P","P","P","P","P","P","P","P","P","P","P","P","P","P","P","P","P","P","P","P","P","P","P","P","P","P","P","P","P","P","P","P","P","P","P","P","P","P","P","P","P","P","P","P","P","P","P","P","P","P","P","P","P","P","P","P","P","P","P","P","P","P","P","P","P","P","P","P","P","P","P","P","P","P","P","P","P","P","P","P","P","P","P","P","P","P","P","P","P","P","P","P","P","P","P","P","P","P","P","P","P","P","P","P","P","P","P","P","P","P","P","P","P","P","P","P","P","P","P","P","P","P","P","P","P","P","P","P","P","P","P","P","P","P","P","P","P","P","P","P","P","P","P","P","P","P","P","P","P","P","P","P","P","P","P","P","P","P","P","P","P","P","P","P","P","P","P","P","P","P","P","P","P","P","P","P","P","P","P","P","P","P","P","P","P","P","P","P","P","P","P","P","P","P","P","P","P","P","P","P","P","P","P","P","P","P","P","P","P","P","P","P","P","P","P","P","P","P","P","P","P","P","P","P","P","P","P","P","P","P","P","P","P","P","P","P","P","P","P","P","P","P","P","P","P","P","P","P","P","P","P","P","P","P","P","P","P","P","P","P","P","P","P","P","P","P","P","P","P","P","P","P","P","P","P","P","P","P","P","P","P","P","P","P","P","P","P","P","P","P","P","P","P","P","P","P","P","P","P","P","P","P","P","P","P","P","P","P","P","P","P","P","P","P","P","P","P","P","P","P","P","P","P","P","P","P","P","P","P","P","P","P","P","P","P","P","P","P","P","P","P","P","P","P","P","P","P","P","P","P","P","P","P","P","P","P","P","P","P","P","P","P","P","P","P","P","P","P","P","P","P","P","P","P","P","P","P","P","P","P","P","P","P","P","P","P","P","P","P","P","P","P","P","P","P","P","P","P","P","P","P","P","P","P","P","P","P","P","P","P","P","P","P","P","P","P","P","P","P","P","P","P","P","P","P","P","P","P","P","P","P","P","P","P","P","P","P","P","P","P","P","P","P","P","P","P","P","P","P","P","P","P","P","P","P","P","P","P","P","P","P","P","P","P","P","P","P","P","P","P","P","P","P","P","P","P","P","P","P","P","P","P","P","P","P","P","P","P","P","P","P","P","P","P","P","P","P","P","P","P","P","P","P","P","P","P","P","P","P","P","P","P","P","P","P","P","P","P","P","P","P","P","P","P","P","P","P","P","P","P","P","P","P","P","P","P","P","P","P","P","P","P","P","P","P","P","P","P","P","P","P","P","P","P","P","P","P","P","P","P","P","P","P","P","P","P","P","P","P","P","P","P","P","P","P","P","P","P","P","P","P","P","P","P","P","P","P","P","P","P","P","P","P","P","P","P","P","P","P","P","P","P","P","P","P","P","P","P","P","P","P","P","P","P","P","P","P","P","P","P","P","P","P","P","P","P","P","P","P","P","P","P","P","P","P","P","P","P","P","P","P","P","P","P","P","P","P","P","P","P","P","P","P","P","P","P","P","P","P","P","P","P","P","P","P","P","P","P","P","P","P","P","P","P","P","P","P","P","P","P","P","P","P","P","P","P","P","P","P","P","P","P","P","P","P","P","P","P","P","P","P","P","P","P","P","P","P","P","P","P","P","P","P","P","P","P","P","P","P","P","P","P","P","P","P","P","P","P","P","P","P","P","P","P","P","P","P","P","P","P","P","P","P","P","P","P","P","P","P","P","P","P","P","P","P","P","P","P","P","P","P","P","P","P","P","P","P","P","P","P","P","P","P","P","P","P","P","P","P","P","P","P","P","P","P","P","P","P","P","P","P","P","P","P","P","P","P","P","P","P","P","P","P","P","P","P","P","P","P","P","P","P","P","P","P","P","P","P","P","P","P","P","P","P","P","P","P","P","P","P","P","P","P","P","P","P","P","P","P","P","P","P","P","P","P","P","P","P","P","P","P","P","P","P","P","P","P","P","P","P","P","P","P","P","P","P","P","P","P","P","P","P","P","P","P","P","P","P","P","P","P","P","P","P","P","P","P","P","P","P","P","P","P","P","P","P","P","P","P","P","P","P","P","P","P","P","P","P","P","P","P","P","P","P","P","P","P","P","P","P","P","P","P","P","P","P","P","P","P","P","P","P","P","P","P","P","P","P","P","P","P","P","P","P","P","P","P","P","P","P","P","P","P","P","P","P","P","P","P","P","P","P","P","P","P","P","P","P","P","P","P","P","P","P","P","P","P","P","P","P","P","P","P","P","P","P","P","P","P","P","P","P","P","P","P","P","P","P","P","P","P","P","P","P","P","P","P","P","P","P","P","P","P","P","P","P","P","P","P","P","P","P","P","P","P","P","P","P","P","P","P","P","P","P","P","P","P","P","P","P","P","P","P","P","P","P","P","P","P","P","P","P","P","P","P","P","P","P","P","P","P","P","P","P","P","P","P","P","P","P","P","P","P","P","P","P","P","P","P","P","P","P","P","P","P","P","P","P","P","P","P","P","P","P","P","P","P","P","P","P","P","P","P","P","P","P","P","P","P","P","P","P","P","P","P","P","P","P","P","P","P","P","P","P","P","P","P","P","P","P","P","P","P","P","P","P","P","P","P","P","P","P","P","P","P","P","P","P","P","P","P","P","P","P","P","P","P","P","P","P","P","P","P","P","P","P","P","P","P","P","P","P","P","P","P","P","P","P","P","P","P","P","P","P","P","P","P","P","P","P","P","P","P","P","P","P","P","P","P","P","P","P","P","P","P","P","P","P","P","P","P","P","P","P","P","P","P","P","P","P","P","P","P","P","P","P","P","P","P","P","P","P","P","P","P","P","P","P","P","P","P","P","P","P","P","P","P","P","P","P","P","P","P","P","P","P","P","P","P","P","P","P","P","P","P","P","P","P","P","P","P","P","P","P","P","P","P","P","P","P","P","P","P","P","P","P","P","P","P","P","P","P","P","P","P","P","P","P","P","P","P","P","P","P","P","P","P","P","P","P","P","P","P","P","P","P","P","P","P","P","P","P","P","P","P","P","P","P","P","P","P","P","P","P","P","P","P","P","P","P","P","P","P","P","P","P","P","P","P","P","P","P","P","P","P","P","P","P","P","P","P","P","P","P","P","P","P","P","P","P","P","P","P","P","P","P","P","P","P","P","P","P","P","P","P","P","P","P","P","P","P","P","P","P","P","P","P","P","P","P","P","P","P","P","P","P","P","P","P","P","P","P","P","P","P","P","P","P","P","P","P","P","P","P","P","P","P","P","P","P","P","P","P","P","P","P","P","P","P","P","P","P","P","P","P","P","P","P","P","P","P","P","P","P","P","P","P","P","P","P","P","P","P","P","P","P","P","P","P","P","P","P","P","P","P","P","P","P","P","P","P","P","P","P","P","P","P","P","P","P","P","P","P","P","P","P","P","P","P","P","P","P","P","P","P","P","P","P","P","P","P","P","P","P","P","P","P","P","P","P","P","P","P","P","P","P","P","P","P","P","P","P","P","P","P","P","P","P","P","P","P","P","P","P","P","P","P","P","P","P","P","P","P","P","P","P","P","P","P","P","P","P","P","P","P","P","P","P","P","P","P","P","P","P","P","P","P","P","P","P","P","P","P","P","P","P","P","P","P","P","P","P","P","P","P","P","P","P","P","P","P","P","P","P","P","P","P","P","P","P","P","P","P","P","P","P","P","P","P","P","P","P","P","P","P","P","P","P","P","P","P","P","P","P","P","P","P","P","P","P","P","P","P","P","P","P","P","P","P","P","P","P","P","P","P","P","P","P","P","P","P","P","P","P","P","P","P","P","P","P","P","P","P","P","P","P","P","P","P","P","P","P","P","P","P","P","P","P","P","P","P","P","P","P","P","P","P","P","P","P","P","P","P","P","P","P","P","P","P","P","P","P","P","P","P","P","P","P","P","P","P","P","P","P","P","P","P","P","P","P","P","P","P","P","P","P","P","P","P","P","P","P","P","P","P","P","P","P","P","P","P","P","P","P","P","P","P","P","P","P","P","P","P","P","P","P","P","P","P","P","P","P","P","P","P","P","P","P","P","P","P","P","P","P","P","P","P","P","P","P","P","P","P","P","P","P","P","P","P","P","P","P","P","P","P","P","P","P","P","P","P","P","P","P","P","P","P","P","P","P","P","P","P","P","P","P","P","P","P","P","P","P","P","P","P","P","P","P","P","P","P","P","P","P","P","P","P","P","P","P","P","P","P","P","P","P","P","P","P","P","P","P","P","P","P","P","P","P","P","P","P","P","P","P","P","P","P","P","P","P","P","P","P","P","P","P","P","P","P","P","P","P","P","P","P","P","P","P","P","P","P","P","P","P","P","P","P","P","P","P","P","P","P","P","P","P","P","P","P","P","P","P","P","P","P","P","P","P","P","P","P","P","P","P","P","P","P","P","P","P","P","P","P","P","P","P","P","P","P","P","P","P","P","P","P","P","P","P","P","P","P","P","P","P","P","P","P","P","P","P","P","P","P","P","P","P","P","P","P","P","P","P","P","P","P","P","P","P","P","P","P","P","P","P","P","P","P","P","P","P","P","P","P","P","P","P","P","P","P","P","P","P","P","P","P","P","P","P","P","P","P","P","P","P","P","P","P","P","P","P","P","P","P","P","P","P","P","P","P","P","P","P","P","P","P","P","P","P","P","P","P","P","P","P","P","P","P","P","P","P","P","P","P","P","P","P","P","P","P","P","P","P","P","?","?","X","X","X","?","?","?","?","?","?","?","?","?","?","?","?","?","?","?","?","?","?","?","?","?","?","?","?","?","?","?","?","?","?","?","?","?","?","?","?","?","?","?","?","?","?","?","?","?","?","?","?","?","?","?","?","?","?","?","?","?","?","?","?","?","?","?","?","?","?","?","?","?","?","?","?","?","?","?","?","?","?","?","?","?","?","?","?","?","?","?","?","?","?","?","?","?","?","?","?","?","?","?","T","T","T","T","T","T","T","T","T","T","T","T","T","T","T","T","T","T","T","T","T","T","T","T","T","T","T","T","T","T","T","T","T","T","T","T","T","T","T","T","T","T","T","T","T","T","T","T","T","T","T","T","T","T","T","T","T","T","T","T","T","T","T","T","T","T","T","T","T","T","T","T","T","T","T","T","T","T","T","T","T","T","T","T","T","T","T","T","T","T","T","T","T","T","T","T","T","T","T","T","T","T","T","T","T","T","T","T","T","T","T","T","T","T","T","T","T","T","T","T","T","T","T","T","T","T","T","T","T","T","T","T","T","T","T","T","T","T","T","T","T","T","T","T","T","T","T","T","T","T","T","T","T","T","T","T","T","T","T","T","T","T","T","T","T","T","T","T","T","T","T","T","T","T","T","T","T","T","T","T","T","T","T","T","T","T","T","T","T","T","T","T","T","T","T","T","T","T","T","T","T","T","T","T","T","T","T","T","T","T","T","T","T","T","T","T","T","T","T","T","T","T","T","T","T","T","T","T","T","T","T","T","T","T","T","T","T","T","T","T","T","T","T","T","T","T","T","T","T","T","T","T","T","T","T","T","T","T","T","T","T","T","T","T","T","T","T","T","T","?","U","?","?","N","N","N","N","N","N","N","N","N","N","N","N","N","N","N","N","N","N","N","?","O","O","?","?","?","?","?","?","H","H","H","H","?","I","I","I","I","I","I","I","I","I","I","I","I","I","I","I","I","I","I","I","I","I","I","I","I","I","I","I","I","I","I","I","I","I","I","I","I","I","I","I","I","I","I","I","I","I","I","I","I","I","I","I","I","I","I","I","I","I","I","I","I","I","I","I","I","I","I","I","I","I","I","I","I","I","I","I","I","I","I","I","I","I","I","I","I","I","I","I","I","I","I","I","I","I","I","I","I","I","I","I","I","I","I","I","I","I","I","I","I","I","I","I","I","I","I","I","I","I","I","I","I","I","I","I","I","I","I","I","I","I","I","I","I","I","I","I","I","I","I","?","?","?","?","?","?","?","?","?","?","?","?","?","?","?","?","?","?","?","?","?","?","?","?","?","?","?","?","?","?","?","?","?","?","?","?","G","G","G","G","G","G","G","G","G","G","G","G","G","G","G","G","G","G","G","G","G","G","G","G","G","G","G","G","G","G","G","G","G","G","G","G","G","G","G","G","G","G","G","G","G","G","G","G","G","G","G","G","G","G","G","G","G","G","G","G","G","G","G","G","G","G","G","G","G","G","G","G","G","G","G","G","G","G","G","G","G","G","G","G","G","G","G","?","F","F","F","F","F","F","?","?","?","?","E","E","E","E","E","E","E","E","E","E","E","E","E","E","E","E","E","E","E","E","E","E","E","E","E","E","E","E","E","E","E","E","E","E","E","E","E","E","E","E","E","E","E","E","E","E","E","E","E","E","E","E","E","E","E","E","E","E","E","E","E","E","E","E","E","E","E","E","E","E","E","E","E","E","E","E","E","E","E","E","E","E","E","E","E","E","E","E","E","E","E","E","E","E","E","E","E","E","E","E","E","E","E","E","E","E","E","E","E","E","E","E","E","E","E","E","E","E","E","E","E","E","E","E","E","E","E","E","E","E","E","E","E","E","E","E","E","E","E","E","E","E","E","E","E","E","E","E","E","E","E","E","E","E","E","E","E","E","E","E","E","E","E","E","E","E","E","E","E","E","E","E","E","E","E","E","E","E","E","E","E","E","E","E","E","E","E","E","E","E","E","E","E","E","E","E","E","E","E","E","E","E","E","E","E","E","E","E","E","E","E","E","E","E","E","E","E","E","E","E","E","E","E","E","E","E","E","E","E","E","E","E","E","E","E","E","E","E","E","E","E","E","E","E","E","E","E","E","E","E","E","E","E","E","E","E","E","E","E","E","E","E","E","?","D","D","D","D","D","D","D","D","D","?","?","?","C","C","C","C","C","C","C","C","C","C","C","C","C","C","C","C","C","C","C","C","C","C","C","C","C","C","C","C","C","C","C","C","C","C","C","C","C","C","C","C","C","C","C","C","C","C","C","C","C","C","C","C","C","C","C","C","C","C","C","C","C","C","C","C","C","C","C","C","C","C","C","C","C","C","C","C","C","C","C","C","C","C","C","C","C","C","C","C","C","C","C","C","C","C","C","C","C","C","C","C","C","C","C","C","C","C","C","C","C","C","C","C","C","C","C","C","C","C","C","C","C","C","C","C","C","C","C","C","C","C","C","C","C","C","C","C","C","C","C","C","C","C","C","C","C","C","C","C","C","C","C","C","C","C","C","C","C","C","C","C","C","C","C","C","C","C","C","?","?","?","?","?","?","?","?","?","?","?","?","?","?","?","?","?","?","?","?","?","?","?","?","?","?","?","?","?","?","?","?","?","?","?","?","?","?","?","?","?","?","?","?","?","?","?","?","?","?","?","?","?","?","?","?","?","?","?","?","?","?","?","?","?","?","?","?","?","?","?","?","?","?","?","?","?","?","?","?","?","?","?","?","?","?","?","?","?","?","?","?","?","?","?","?","?","?","?","?","?","?","?","?","?","?","?","?","?","?","?","?","?","?","?","?","?","?","?","?","?","?","?","?","?","?","?","?","?","?","?","?","?","?","?","?","?","?","?","?","?","?","?","?","?","?","?","?","?","?","?","?","?","?","?","?","?","?","?","?","?","?","?","?","?","?","?","?","?","?","?","?","?","?","?","?","?","?","?","?","?","?","?","?","?","?","?","?","?","?","?","?","?","?","?","?","?","?","?","?","?","?","?","?","?","?","?","?","?","?","?","?","?","?","?","?","?","?","?","?","?","?","?","?","?","?","?","?","?","?","?","?","?","?","?","?","?","?","?","?","?","?","?","?","?","?","?","?","?","?","?","?","?","?","?","?","?","?","?","?","?","?","?","?","?","?","?","?","?","?","?","?","?","?","?","?","?","?","?","?","?","?","?","?","?","?","?","?","?","?","?","?","?","?","?","?","?","?","?","?","?","?","?","?","?","?","?","?","?","?","?","?","?","?","?","?","?","?","?","?","?","?","?","?","?","?","?","?","?","?","?","?","?","?","?","?","?","?","?","?","?","?","?","?","?","?","?","?","?","?","?","?","?","?","?","?","?","?","?","O","O","O","O","O","O","O","O","O","O","O","O","O","O","O","?","?","?","?","P","P","P","P","P","P","P","P","P","P","P","P","P","P","P","P","P","P","P","P","P","P","P","P","P","P","P","P","P","P","P","P","P","P","P","P","P","P","P","P","P","P","P","P","P","P","P","P","P","P","P","P","P","P","P","P","P","P","P","P","P","P","P","P","P","P","P","P","P","P","P","P","P","P","P","P","P","P","P","P","P","P","P","P","P","P","P","P","P","P","P","P","P","P","P","P","P","P","P","P","P","P","P","P","P","P","P","P","P","P","P","P","?","O","O","O","O","O","O","O","O","O","O","O","O","?","?","?","N","N","N","N","N","N","N","N","N","N","N","N","N","N","N","N","N","N","N","N","N","N","N","N","N","N","N","N","N","N","N","N","N","N","N","N","N","N","N","N","N","N","N","N","N","N","N","N","N","N","N","N","N","N","N","N","N","N","N","N","N","N","N","N","N","N","N","N","N","N","N","N","N","N","N","N","N","N","N","N","N","N","N","N","N","N","N","N","N","N","N","N","N","N","N","N","N","N","N","N","N","N","N","N","N","N","N","N","N","N","N","N","N","N","N","N","N","N","N","N","N","N","N","N","N","N","N","N","N","N","N","N","N","N","N","N","N","N","N","N","N","N","N","N","N","N","N","N","N","N","N","N","N","N","N","N","N","N","N","N","N","N","N","N","N","N","N","N","N","N","N","N","N","N","N","N","N","N","N","N","N","N","N","N","N","N","N","N","N","N","N","N","N","N","N","N","N","N","N","N","N","N","N","N","N","N","N","N","N","N","N","N","N","N","N","N","N","N","N","N","N","N","N","N","N","N","N","N","N","N","N","N","N","N","N","N","N","N","N","N","N","N","N","N","N","N","N","N","N","N","N","N","N","N","N","N","N","N","N","N","N","N","N","N","N","N","N","N","N","N","N","N","N","N","N","N","N","N","N","N","N","N","N","N","N","N","N","N","N","N","N","N","N","N","N","N","N","N","N","N","N","N","N","N","N","N","N","N","N","N","N","N","N","N","N","N","N","N","N","N","N","N","N","N","N","N","N","N","N","N","N","N","N","N","N","N","N","N","N","N","N","N","N","N","N","N","N","N","N","N","N","N","N","N","N","N","N","N","N","N","N","N","N","N","N","N","N","N","N","N","N","N","N","N","N","N","N","N","N","N","N","N","N","N","N","N","N","N","N","N","N","N","N","N","N","N","N","N","N","N","N","N","N","N","N","N","N","N","N","N","N","N","N","N","N","N","N","N","N","N","N","N","N","N","N","N","N","N","N","N","N","N","N","N","N","N","?","M","M","M","L","L","L","L","L","?","?","?","?","?","?","?","?","?","B","B","B","B","B","B","B","B","B","B","B","B","B","B","B","B","B","B","B","B","B","B","B","B","B","B","B","B","B","B","B","B","B","B","B","B","B","B","B","B","B","B","B","B","B","B","B","B","B","B","B","B","B","B","B","B","B","B","B","B","B","B","B","B","B","B","B","B","B","B","B","B","B","B","B","B","B","B","B","B","B","B","B","B","B","B","B","B","B","B","B","B","B","B","B","B","B","B","B","B","B","B","B","B","B","B","B","B","B","B","B","B","B","B","B","B","B","B","B","B","B","B","B","B","B","B","B","B","B","B","B","B","B","B","B","B","B","B","B","B","B","B","B","B","B","B","B","B","B","B","B","B","B","B","B","B","B","B","B","B","B","B","B","B","B","B","B","B","B","B","B","B","B","B","B","B","B","B","B","B","B","B","B","B","B","B","B","B","B","B","B","B","B","B","B","B","B","B","B","B","B","B","B","B","B","B","B","B","B","B","B","B","B","B","B","B","B","B","B","B","B","B","B","B","B","B","B","B","B","B","B","B","B","B","?","?","?","?","A","A","A","A","A","A","A","A","A","A","A","A","A","A","A","A","A","A","A","A","A","A","A","A","A","A","A","A","A","A","A","A","A","A","A","A","A","A","A","A","A","A","A","A","A","A","A","A","A","A","A","A","A","A","A","A","A","A","A","A","A","A","A","A","A","A","A","A","A","A","A","A","A","A","A","A","A","A","A","A","A","A","A","A","A","A","A","A","A","A","A","A","A","A","A","A","A","A","A","A","A","A","A","A","A","A","A","A","A","A","A","A","A","A","A","A","A","A","A","A","A","A","A","A","A","A","A","A","A","A","A","A","A","A","A","A","A","A","A","A","A","A","A","A","A","A","A","A","A","A","A","A","A","A","A","A","A","A","A","A","A","A","A","A","A","A","A","A","A","A","?","?","L","L","L","L","L","L","L","L","L","L","L","L","L","L","L","L","L","L","L","L","L","L","L","L","?","?","?","?","?","?","?","?","?","?","?","?","?","?","?","?","?","?","?","?","?","?","?","?","?","?","?","?","?","?","?","?","?","?","?","?","?","?","?","?","?","?","?","?","?","?","?","?","?","?","?","?","?","?","?","?","?","?","?","?","?","?","?","?","?","?","?","?","?","?","?","?","?","?","?","?","?","?","?","?","?","?","?","?","?","?","?","?","?","?","?","?","?","?","?","?","?","?","?","R","R","R","R","R","R","R","R","R","R","R","R","R","R","R","R","R","R","R","R","R","R","R","R","R","R","R","R","R","R","R","R","R","R","R","R","R","R","R","R","R","R","R","R","R","R","R","R","R","R","R","R","R","R","R","R","R","R","R","R","R","R","R","R","R","R","R","R","R","R","R","R","R","R","R","R","R","R","R","R","R","R","R","R","R","R","R","R","R","R","R","R","R","R","R","R","R","R","R","R","R","R","R","R","R","R","R","R","R","R","R","R","R","R","R","R","R","R","R","R","R","R","R","R","R","R","R","R","R","R","R","R","R","R","R","R","R","R","R","R","R","R","R","R","R","R","R","R","R","R","R","R","R","R","R","R","R","R","R","R","R","R","R","R","R","R","R","R","R","R","R","R","R","R","R","R","R","R","R","R","R","R","R","R","R","R","R","R","R","R","R","R","R","R","R","R","R","R","R","R","R","R","R","R","R","R","R","R","R","R","R","R","R","R","R","R","R","R","R","R","R","R","R","R","R","R","R","R","R","R","R","R","R","R","R","R","R","R","R","R","R","R","R","R","R","R","R","R","R","R","R","R","R","R","R","R","R","R","R","R","R","R","R","R","R","R","R","R","R","R","R","R","R","R","R","R","R","R","R","R","R","R","R","R","R","R","R","R","R","R","R","R","R","R","R","R","R","R","R","R","R","R","R","R","R","R","R","R","R","R","R","R","R","R","R","R","R","R","R","R","R","R","R","R","R","R","R","R","R","R","R","R","R","R","R","R","R","R","R","R","R","R","R","R","R","R","R","R","R","R","R","R","R","R","R","R","R","R","R","R","R","R","R","R","R","R","R","R","R","R","R","R","R","R","R","R","R","R","?","?","?","?","?","?","?","Z","Z","?","?","?","Y","Y","Y","X","X","W","W","W","?","V","V","V","V","V","V","V","V","V","V","V","V","V","V","V","V","V","?","?","?","?","?","U","U","U","U","U","U","U","U","U","U","U","U","U","U","U","U","U","U","U","U","U","?","?","V","V","V","V","V","?","W","W","W","?","?","?","?","X","X","X","X","?","?","Y","Y","Y","Y","Y","Y","Y","Y","Y","Y","Y","Y","Y","Y","Y","Y","Y","?","?","?","Z","Z","Z","Z","Z","Z","Z","Z","Z","Z","Z","Z","Z","Z","Z","Z","Z","Z","Z","Z","Z","Z","Z","Z","Z","Z","Z","Z","Z","Z","Z","Z","Z","Z","Z","Z","Z","Z","Z","Z","Z","Z","Z","Z","Z","Z","Z","Z","Z","Z","Z","Z","Z","Z","Z","Z","Z","Z","Z","Z","Z","Z","Z","Z","Z","Z","Z","Z","Z","Z","Z","Z","Z","Z","Z","Z","Z","Z","Z","Z","Z","Z","Z","Z","Z","Z","Z","Z","Z","Z","Z","Z","Z","Z","Z","Z","Z","Z","Z","Z","Z","Z","Z","Z","Z","Z","Z","Z","Z","Z","Z","Z","Z","Z","Z","Z","Z","Z","Z","Z","Z","Z","Z","Z","Z","Z","Z","Z","Z","Z","Z","Z","Z","Z","Z","Z","Z","Z","Z","Z","Z","Z","Z","Z","Z","Z","Z","Z","Z","Z","Z","Z","Z","Z","Z","Z","Z","Z"],"t":[40,60,84,101,118,134,157,171,186,203,218,236,252,272,289,306,322,339,355,372,389,405,422,438,455,471,488,505,521,538,555,571,588,605,621,638,655,672,688,705,722,738,755,771,787,803,820,838,855,872,888,904,920,938,956,971,988,1005,1022,1038,1055,1071,1088,1105,1121,1138,1156,1171,1188,1204,1222,1238,1255,1271,1289,1304,1321,1338,1354,1372,1388,1405,1421,1438,1456,1472,1490,1505,1524,1541,1558,1584,1602,1618,1636,1652,1668,1686,1703,1720,1738,1755,1772,1788,1804,1822,1837,1855,1871,1889,1904,1922,1938,1955,1973,1988,2005,2021,2038,2055,2072,2087,2104,2121,2138,2154,2172,2188,2205,2222,2239,2255,2272,2288,2304,2322,2337,2354,2370,2388,2406,2421,2439,2455,2472,2488,2505,2522,2538,2555,2572,2588,2605,2621,2637,2656,2671,2688,2705,2721,2737,2754,2771,2788,2804,2822,2838,2854,2871,2888,2904,2921,2938,2957,2972,2988,3009,3025,3040,3065,3083,3100,3116,3132,3150,3167,3182,3200,3216,3232,3250,3266,3282,3300,3316,3332,3349,3367,3383,3400,3416,3432,3450,3466,3482,3500,3516,3532,3550,3566,3583,3600,3616,3633,3651,3671,3685,3703,3720,3738,3755,3773,3789,3807,3825,3849,3867,3883,3899,3916,3932,3951,3967,3983,4000,4017,4034,4051,4068,4084,4102,4118,4135,4153,4170,4187,4204,4221,4237,4253,4270,4287,4305,4321,4339,4354,4371,4388,4403,4425,4441,4456,4471,4487,4503,4519,4536,4552,4569,4586,4602,4619,4636,4652,4669,4686,4702,4719,4736,4752,4769,4786,4802,4819,4836,4852,4869,4885,4902,4919,4935,4952,4969,4986,5002,5019,5035,5052,5069,5086,5102,5120,5137,5155,5172,5188,5206,5223,5248,5266,5282,5299,5315,5331,5349,5366,5382,5398,5416,5433,5448,5465,5482,5499,5515,5533,5549,5566,5583,5600,5616,5631,5647,5666,5686,5700,5718,5735,5752,5768,5786,5801,5819,5834,5852,5873,5889,5904,5923,5938,5956,5972,5989,6005,6022,6039,6054,6072,6087,6104,6119,6138,6154,6171,6187,6203,6220,6237,6253,6270,6286,6303,6320,6336,6353,6370,6387,6403,6420,6436,6454,6470,6488,6503,6520,6536,6554,6569,6587,6603,6620,6636,6653,6670,6688,6704,6722,6738,6755,6771,6788,6805,6821,6838,6855,6872,6889,6905,6922,6947,6966,6982,6999,7015,7031,7048,7063,7081,7099,7115,7132,7149,7165,7181,7199,7217,7233,7250,7266,7282,7300,7317,7334,7354,7371,7386,7404,7419,7437,7452,7470,7486,7502,7519,7536,7552,7570,7586,7604,7621,7638,7654,7671,7688,7704,7721,7738,7754,7771,7788,7805,7821,7837,7854,7870,7886,7903,7920,7937,7953,7968,7985,8002,8019,8036,8052,8069,8087,8104,8121,8138,8154,8171,8188,8205,8230,8247,8263,8279,8297,8315,8332,8349,8365,8382,8399,8416,8434,8452,8469,8487,8505,8521,8538,8554,8569,8585,8601,8618,8635,8651,8668,8684,8701,8717,8734,8751,8767,8784,8802,8819,8835,8851,8868,8889,8906,8921,8936,8953,8968,8984,9001,9017,9034,9050,9067,9084,9101,9118,9134,9151,9167,9184,9201,9218,9235,9253,9269,9286,9302,9319,9336,9353,9370,9386,9402,9420,9435,9452,9468,9484,9501,9518,9535,9551,9568,9584,9602,9618,9635,9651,9668,9685,9701,9718,9734,9750,9767,9784,9801,9818,9834,9851,9867,9884,9901,9917,9934,9953,9969,9984,10001,10017,10034,10051,10067,10084,10100,10118,10134,10150,10167,10184,10201,10217,10234,10251,10267,10285,10301,10317,10341,10358,10379,10397,10414,10430,10447,10464,10481,10498,10515,10533,10552,10569,10587,10604,10621,10638,10663,10680,10698,10715,10731,10748,10764,10781,10799,10816,10831,10848,10866,10883,10900,10918,10933,10953,10970,10985,11003,11018,11035,11052,11069,11086,11103,11119,11137,11154,11172,11187,11203,11219,11236,11253,11270,11286,11302,11318,11334,11350,11367,11383,11400,11417,11433,11450,11466,11483,11500,11517,11533,11550,11566,11583,11600,11617,11633,11650,11667,11683,11700,11717,11733,11751,11768,11784,11803,11822,11837,11853,11868,11884,11900,11917,11933,11952,11967,11983,12000,12017,12033,12050,12067,12083,12100,12116,12133,12150,12167,12183,12200,12217,12233,12250,12266,12283,12300,12316,12333,12350,12367,12383,12400,12416,12433,12450,12466,12483,12499,12516,12533,12549,12566,12583,12600,12616,12632,12650,12667,12683,12700,12716,12733,12749,12766,12784,12800,12818,12835,12851,12868,12885,12901,12919,12936,12954,12978,12996,13013,13030,13046,13063,13080,13096,13113,13129,13147,13163,13178,13195,13211,13229,13245,13267,13284,13298,13315,13332,13349,13367,13386,13402,13420,13437,13462,13480,13497,13513,13529,13548,13565,13580,13596,13611,13628,13646,13662,13679,13696,13713,13729,13746,13762,13778,13796,13812,13829,13846,13862,13879,13894,13911,13928,13945,13963,13979,13994,14012,14029,14047,14063,14079,14097,14114,14130,14147,14164,14182,14199,14218,14234,14252,14268,14285,14301,14319,14334,14352,14368,14384,14401,14417,14434,14451,14467,14485,14502,14519,14536,14553,14569,14586,14603,14620,14636,14653,14679,14697,14713,14729,14744,14762,14778,14795,14813,14829,14845,14862,14879,14895,14912,14928,14946,14964,14982,14997,15013,15029,15046,15062,15079,15096,15113,15129,15146,15161,15178,15194,15211,15227,15243,15260,15277,15295,15311,15327,15345,15361,15379,15395,15413,15430,15447,15465,15482,15500,15517,15535,15550,15567,15583,15600,15617,15632,15649,15666,15683,15699,15716,15733,15750,15767,15783,15800,15816,15833,15850,15866,15882,15899,15917,15933,15952,15970,15994,16012,16028,16046,16061,16079,16099,16116,16130,16146,16163,16178,16195,16211,16228,16245,16262,16277,16294,16312,16327,16345,16362,16378,16395,16412,16429,16445,16461,16477,16494,16512,16528,16544,16561,16578,16595,16610,16627,16644,16662,16678,16694,16711,16728,16745,16761,16778,16794,16811,16828,16845,16860,16878,16894,16910,16928,16944,16961,16980,16993,17011,17027,17045,17060,17078,17094,17112,17128,17145,17161,17177,17195,17211,17228,17244,17261,17278,17295,17311,17328,17343,17362,17377,17395,17410,17428,17444,17459,17476,17493,17512,17530,17548,17564,17579,17595,17611,17629,17644,17661,17677,17695,17711,17728,17743,17759,17778,17794,17812,17827,17844,17860,17877,17894,17910,17926,17944,17960,17978,17995,18010,18027,18045,18060,18078,18093,18110,18128,18145,18160,18177,18193,18210,18228,18243,18261,18277,18294,18310,18327,18343,18360,18377,18394,18411,18426,18443,18460,18478,18494,18511,18527,18544,18561,18576,18594,18610,18628,18644,18661,18679,18696,18713,18728,18746,18763,18779,18797,18815,18830,18848,18864,18882,18898,18915,18932,18949,18965,18983,19002,19020,19034,19050,19066,19081,19097,19114,19130,19147,19164,19180,19197,19214,19231,19247,19264,19280,19297,19314,19330,19347,19364,19380,19397,19414,19430,19447,19464,19480,19497,19514,19530,19547,19564,19580,19597,19614,19630,19647,19664,19682,19698,19714,19730,19747,19764,19780,19797,19814,19830,19847,19864,19880,19897,19914,19931,19947,19964,19980,19998,20014,20030,20047,20064,20080,20097,20114,20131,20147,20164,20182,20198,20213,20231,20247,20264,20280,20297,20314,20330,20347,20364,20380,20397,20414,20430,20448,20465,20481,20498,20518,20536,20550,20566,20582,20598,20614,20630,20646,20663,20680,20697,20713,20731,20747,20764,20782,20808,20825,20843,20859,20876,20892,20909,20926,20943,20959,20977,20994,21010,21026,21042,21060,21075,21092,21110,21127,21143,21161,21176,21193,21210,21226,21243,21259,21275,21291,21309,21325,21342,21360,21376,21393,21409,21427,21442,21459,21476,21493,21509,21526,21543,21559,21575,21593,21609,21626,21642,21659,21676,21693,21709,21726,21742,21758,21775,21793,21809,21827,21842,21859,21875,21892,21909,21926,21943,21960,21977,21993,22012,22029,22047,22060,22076,22092,22109,22127,22142,22159,22176,22192,22209,22226,22244,22259,22275,22292,22308,22325,22343,22359,22375,22392,22409,22426,22442,22459,22475,22492,22509,22524,22541,22559,22576,22592,22608,22627,22642,22659,22676,22692,22709,22726,22742,22758,22775,22792,22808,22825,22843,22858,22875,22891,22908,22926,22942,22959,22975,22992,23009,23026,23042,23058,23075,23092,23113,23126,23143,23160,23177,23193,23208,23225,23242,23258,23275,23292,23309,23324,23341,23358,23375,23392,23408,23425,23441,23459,23477,23494,23511,23526,23542,23560,23576,23593,23609,23625,23642,23658,23676,23692,23708,23725,23742,23759,23776,23793,23808,23826,23841,23859,23876,23891,23908,23926,23942,23959,23974,23992,24009,24026,24043,24058,24075,24092,24108,24126,24142,24158,24175,24191,24209,24225,24242,24258,24275,24291,24308,24324,24340,24358,24376,24391,24407,24425,24442,24459,24474,24490,24509,24525,24542,24558,24575,24591,24609,24624,24641,24658,24674,24691,24707,24725,24742,24758,24774,24791,24809,24825,24842,24859,24875,24891,24908,24925,24941,24958,24980,24996,25012,25029,25043,25060,25077,25093,25111,25129,25144,25161,25178,25196,25211,25229,25245,25263,25278,25297,25312,25328,25346,25362,25379,25395,25413,25429,25446,25462,25479,25496,25513,25529,25546,25563,25579,25595,25613,25628,25646,25662,25679,25696,25713,25730,25747,25762,25779,25796,25813,25830,25846,25863,25879,25896,25913,25929,25946,25964,25980,25996,26015,26031,26047,26064,26079,26097,26113,26130,26146,26163,26180,26196,26213,26230,26245,26263,26281,26296,26313,26330,26346,26363,26379,26395,26412,26430,26448,26465,26480,26497,26512,26530,26546,26563,26580,26596,26612,26629,26647,26662,26680,26696,26713,26729,26746,26764,26779,26796,26812,26829,26845,26862,26878,26895,26912,26929,26946,26962,26980,26995,27015,27030,27045,27063,27079,27096,27113,27128,27144,27161,27178,27195,27212,27229,27246,27262,27279,27296,27312,27330,27346,27363,27379,27396,27412,27429,27445,27462,27479,27496,27513,27528,27545,27562,27578,27595,27613,27629,27646,27664,27679,27697,27713,27731,27746,27763,27778,27797,27815,27832,27847,27864,27880,27896,27912,27929,27945,27962,27979,27995,28012,28031,28047,28062,28078,28095,28112,28129,28145,28162,28179,28195,28212,28229,28245,28261,28277,28294,28310,28327,28345,28361,28378,28395,28412,28429,28446,28462,28480,28496,28513,28529,28545,28562,28579,28596,28611,28629,28645,28662,28678,28696,28712,28729,28745,28762,28778,28795,28812,28828,28845,28862,28878,28896,28912,28929,28945,28962,28978,28995,29012,29030,29046,29061,29079,29095,29112,29129,29145,29162,29178,29195,29212,29229,29245,29261,29278,29297,29312,29330,29348,29363,29380,29395,29413,29428,29445,29461,29478,29495,29510,29528,29545,29561,29578,29595,29611,29628,29645,29662,29678,29695,29712,29728,29745,29761,29779,29794,29812,29828,29845,29861,29879,29895,29911,29932,29946,29963,29978,29995,30012,30030,30047,30062,30079,30095,30112,30128,30145,30161,30178,30195,30211,30228,30247,30262,30281,30295,30313,30329,30345,30362,30379,30395,30412,30428,30445,30461,30478,30494,30512,30528,30545,30562,30578,30595,30611,30629,30644,30663,30679,30695,30711,30729,30745,30761,30778,30794,30813,30829,30847,30865,30879,30896,30912,30928,30944,30961,30977,30995,31011,31029,31046,31061,31078,31094,31111,31127,31144,31161,31178,31194,31211,31227,31244,31261,31278,31295,31311,31328,31344,31361,31378,31394,31411,31428,31444,31461,31477,31494,31510,31527,31544,31560,31577,31594,31611,31628,31644,31662,31678,31694,31712,31727,31744,31761,31779,31794,31811,31827,31844,31861,31878,31895,31910,31928,31944,31961,31977,31994,32010,32030,32045,32061,32077,32094,32110,32127,32144,32160,32177,32194,32211,32227,32244,32260,32277,32293,32311,32327,32346,32363,32378,32395,32412,32428,32444,32460,32477,32494,32510,32527,32545,32560,32577,32594,32611,32627,32644,32661,32678,32694,32711,32727,32744,32761,32779,32794,32811,32827,32844,32860,32878,32894,32911,32927,32944,32960,32977,32993,33010,33028,33045,33060,33079,33094,33111,33127,33143,33159,33177,33193,33210,33226,33243,33259,33277,33292,33310,33326,33343,33359,33377,33394,33409,33427,33443,33460,33477,33493,33510,33527,33544,33560,33577,33594,33610,33627,33643,33661,33677,33694,33710,33726,33742,33759,33775,33792,33809,33830,33849,33863,33879,33895,33910,33926,33942,33959,33975,33992,34009,34025,34044,34059,34075,34092,34109,34125,34142,34159,34175,34192,34209,34225,34242,34259,34276,34292,34309,34326,34342,34359,34375,34392,34409,34425,34442,34459,34475,34492,34509,34525,34542,34558,34575,34592,34609,34625,34642,34659,34676,34692,34709,34725,34742,34759,34775,34792,34809,34825,34842,34859,34875,34892,34909,34925,34942,34958,34975,34992,35008,35025,35044,35059,35075,35092,35108,35125,35142,35158,35175,35192,35208,35225,35242,35258,35282,35298,35312,35328,35344,35359,35375,35392,35408,35425,35442,35458,35475,35492,35508,35525,35542,35558,35575,35592,35609,35625,35642,35658,35675,35692,35708,35725,35741,35758,35775,35791,35808,35825,35841,35858,35875,35891,35908,35925,35941,35958,35975,35991,36008,36025,36043,36059,36075,36091,36108,36125,36141,36158,36175,36191,36208,36225,36241,36258,36275,36291,36308,36325,36341,36358,36375,36392,36408,36425,36441,36458,36475,36491,36508,36524,36542,36558,36575,36591,36608,36625,36642,36659,36676,36692,36708,36725,36748,36764,36779,36804,36821,36837,36854,36871,36887,36904,36920,36936,36953,36970,36988,37004,37020,37039,37054,37071,37087,37105,37120,37138,37154,37171,37187,37204,37220,37237,37253,37271,37287,37305,37320,37338,37353,37371,37388,37403,37421,37436,37455,37470,37488,37504,37521,37538,37554,37570,37587,37604,37620,37637,37654,37669,37686,37704,37720,37736,37753,37771,37787,37804,37821,37837,37854,37869,37886,37904,37921,37938,37955,37970,37986,38004,38020,38039,38053,38069,38087,38103,38120,38137,38153,38170,38186,38202,38222,38241,38258,38272,38288,38306,38321,38337,38353,38369,38386,38403,38421,38437,38453,38471,38486,38504,38520,38537,38553,38571,38588,38603,38620,38637,38653,38671,38686,38703,38720,38736,38753,38770,38786,38805,38819,38836,38855,38869,38886,38904,38920,38936,38953,38970,38986,39005,39020,39038,39052,39069,39085,39103,39120,39137,39153,39171,39186,39203,39220,39237,39254,39271,39287,39303,39320,39336,39354,39370,39387,39403,39420,39436,39453,39469,39486,39502,39520,39537,39553,39570,39586,39603,39620,39636,39653,39670,39686,39708,39724,39738,39754,39771,39788,39805,39822,39839,39855,39873,39889,39906,39924,39940,39958,39974,39991,40008,40026,40042,40060,40074,40092,40108,40125,40142,40157,40175,40191,40209,40224,40242,40258,40275,40291,40308,40324,40340,40358,40374,40390,40408,40423,40441,40457,40473,40491,40508,40524,40541,40558,40576,40592,40608,40625,40641,40658,40674,40691,40707,40724,40741,40757,40774,40790,40808,40823,40841,40858,40874,40891,40907,40924,40941,40958,40974,40991,41008,41025,41042,41059,41074,41091,41108,41125,41141,41158,41179,41195,41210,41226,41242,41257,41273,41290,41307,41323,41340,41356,41373,41390,41406,41423,41440,41456,41473,41489,41506,41523,41540,41556,41573,41590,41606,41623,41640,41656,41673,41689,41706,41723,41740,41756,41773,41790,41806,41823,41839,41856,41873,41889,41906,41923,41939,41956,41973,41990,42006,42023,42041,42057,42073,42089,42106,42123,42139,42156,42173,42189,42206,42223,42239,42256,42274,42290,42306,42323,42339,42356,42373,42389,42406,42423,42439,42456,42473,42489,42506,42523,42539,42556,42573,42590,42606,42623,42646,42662,42685,42703,42719,42736,42752,42769,42786,42803,42819,42836,42852,42869,42884,42902,42919,42935,42952,42968,42984,43001,43019,43035,43052,43069,43085,43101,43117,43134,43151,43168,43186,43202,43219,43236,43251,43269,43285,43302,43319,43335,43352,43369,43386,43402,43419,43435,43451,43469,43484,43502,43519,43535,43552,43568,43585,43602,43618,43635,43652,43670,43685,43701,43719,43734,43750,43768,43786,43802,43820,43836,43852,43867,43885,43901,43919,43935,43952,43968,43984,44001,44019,44035,44050,44067,44085,44101,44119,44137,44154,44170,44185,44201,44219,44236,44252,44267,44285,44302,44318,44335,44352,44369,44386,44402,44418,44435,44451,44468,44485,44501,44519,44534,44550,44569,44585,44602,44618,44634,44651,44668,44684,44702,44718,44735,44751,44769,44785,44801,44817,44834,44852,44867,44884,44900,44918,44936,44952,44969,44984,45001,45019,45035,45052,45068,45085,45102,45117,45135,45151,45168,45183,45201,45218,45234,45251,45268,45284,45301,45319,45336,45352,45367,45385,45400,45418,45435,45451,45469,45485,45500,45518,45535,45550,45568,45586,45604,45621,45636,45652,45667,45684,45702,45716,45735,45751,45768,45785,45801,45818,45834,45851,45868,45883,45900,45918,45934,45951,45967,45984,46000,46017,46034,46051,46069,46084,46100,46116,46135,46150,46168,46183,46200,46216,46235,46252,46268,46285,46304,46317,46334,46351,46368,46383,46401,46417,46434,46450,46468,46484,46500,46518,46534,46550,46568,46584,46600,46617,46633,46651,46668,46684,46700,46717,46735,46752,46767,46785,46800,46817,46834,46851,46868,46884,46900,46917,46934,46950,46968,46984,47001,47018,47034,47051,47068,47086,47104,47121,47136,47152,47168,47184,47200,47217,47233,47251,47267,47285,47302,47320,47341,47361,47385,47406,47427,47449,47467,47483,47501,47517,47534,47552,47569,47587,47603,47618,47634,47651,47667,47684,47700,47717,47734,47751,47766,47785,47802,47818,47836,47853,47871,47889,47910,47925,47952,47967,47988,48005,48024,48041,48067,48084,48103,48120,48138,48155,48171,48188,48204,48220,48237,48256,48275,48292,48316,48333,48351,48371,48386,48405,48422,48443,48469,48487,48505,48520,48537,48554,48574,48590,48608,48626,48651,48667,48684,48702,48718,48735,48753,48771,48788,48806,48823,48841,48857,48875,48891,48917,48934,48952,48968,48986,49002,49020,49036,49054,49070,49089,49105,49122,49138,49155,49173,49189,49206,49222,49238,49256,49271,49289,49306,49321,49339,49357,49372,49389,49405,49422,49438,49455,49471,49488,49505,49522,49538,49555,49571,49589,49604,49622,49638,49656,49672,49689,49704,49722,49738,49755,49772,49788,49805,49821,49839,49855,49871,49888,49905,49922,49939,49955,49972,49990,50004,50022,50038,50055,50072,50090,50105,50123,50138,50155,50171,50188,50205,50221,50240,50257,50274,50288,50307,50321,50338,50354,50371,50388,50405,50421,50439,50454,50471,50489,50504,50522,50538,50554,50571,50587,50605,50621,50638,50655,50672,50688,50704,50721,50737,50754,50771,50788,50804,50821,50838,50853,50869,50887,50904,50921,50937,50954,50971,50988,51003,51021,51037,51055,51071,51086,51103,51120,51136,51153,51170,51186,51203,51220,51236,51253,51269,51286,51303,51319,51336,51353,51369,51386,51403,51419,51436,51453,51470,51486,51503,51520,51536,51553,51569,51586,51603,51619,51636,51653,51669,51686,51703,51720,51737,51755,51770,51790,51808,51823,51839,51854,51870,51887,51903,51919,51936,51953,51969,51986,52003,52019,52036,52053,52070,52100,52119,52136,52151,52169,52185,52202,52215,52233,52249,52266,52283,52299,52317,52333,52350,52365,52381,52399,52417,52432,52448,52466,52482,52498,52515,52532,52550,52566,52583,52599,52615,52631,52649,52665,52682,52699,52715,52732,52749,52765,52782,52799,52815,52833,52849,52866,52882,52899,52915,52933,52950,52966,52983,52999,53016,53033,53049,53065,53082,53099,53116,53132,53149,53165,53181,53198,53216,53232,53249,53266,53285,53302,53318,53333,53348,53365,53381,53400,53415,53432,53449,53466,53483,53500,53514,53531,53549,53564,53582,53599,53615,53633,53649,53666,53683,53700,53716,53732,53748,53764,53782,53798,53815,53832,53848,53865,53882,53897,53916,53932,53950,53965,53982,54000,54017,54033,54049,54066,54083,54101,54118,54134,54151,54168,54185,54201,54219,54235,54252,54269,54285,54303,54322,54336,54354,54369,54387,54403,54419,54436,54453,54471,54487,54504,54521,54536,54553,54569,54586,54604,54619,54637,54652,54670,54686,54703,54719,54736,54752,54773,54789,54805,54822,54839,54854,54871,54886,54903,54919,54936,54953,54969,54986,55004,55020,55036,55054,55070,55090,55105,55122,55136,55153,55169,55186,55202,55219,55235,55252,55269,55286,55302,55318,55336,55352,55369,55386,55404,55419,55437,55453,55469,55486,55504,55519,55537,55552,55569,55586,55602,55618,55635,55652,55668,55685,55701,55718,55735,55751,55768,55785,55801,55818,55835,55851,55868,55885,55901,55918,55935,55951,55968,55985,56001,56018,56035,56051,56068,56086,56115,56134,56150,56165,56181,56198,56214,56233,56251,56268,56284,56300,56315,56332,56349,56366,56382,56398,56415,56431,56448,56464,56481,56498,56515,56530,56548,56565,56581,56597,56615,56632,56648,56664,56682,56698,56714,56732,56748,56764,56780,56797,56815,56831,56848,56864,56881,56897,56915,56932,56949,56965,56981,56998,57015,57031,57047,57063,57081,57098,57113,57131,57148,57165,57181,57197,57215,57230,57246,57268,57283,57300,57318,57334,57352,57368,57385,57403,57419,57435,57453,57470,57486,57502,57519,57536,57552,57569,57585,57602,57619,57634,57651,57668,57685,57703,57721,57738,57753,57770,57787,57802,57819,57835,57852,57869,57884,57902,57918,57935,57951,57968,57985,58001,58018,58035,58052,58068,58085,58103,58118,58134,58151,58167,58185,58203,58218,58235,58250,58268,58285,58301,58317,58334,58351,58367,58385,58400,58418,58435,58451,58468,58485,58501,58518,58535,58551,58569,58585,58602,58619,58635,58653,58668,58686,58702,58719,58734,58752,58768,58785,58801,58818,58834,58851,58868,58886,58901,58919,58935,58951,58969,58984,59002,59018,59035,59051,59068,59085,59102,59118,59136,59151,59168,59185,59203,59218,59234,59253,59270,59285,59303,59318,59335,59351,59367,59385,59400,59418,59433,59451,59468,59483,59501,59517,59534,59551,59568,59584,59601,59617,59636,59651,59668,59685,59701,59718,59735,59751,59769,59784,59801,59818,59835,59852,59868,59885,59901,59918,59935,59952,59968,59985,60001,60018,60035,60051,60068,60084,60102,60118,60134,60151,60167,60184,60201,60218,60234,60251,60268,60285,60301,60318,60336,60351,60368,60384,60401,60419,60434,60451,60467,60484,60501,60517,60535,60551,60568,60584,60601,60617,60634,60650,60667,60684,60702,60718,60735,60754,60771,60785,60801,60818,60834,60851,60867,60883,60900,60917,60934,60951,60967,60984,61001,61018,61034,61051,61067,61084,61102,61117,61134,61150,61167,61184,61200,61217,61234,61250,61266,61282,61299,61315,61333,61350,61367,61384,61400,61417,61434,61451,61468,61484,61501,61517,61534,61551,61567,61584,61600,61617,61634,61651,61668,61684,61701,61718,61734,61751,61767,61785,61800,61817,61833,61850,61867,61884,61901,61917,61934,61951,61967,61985,62000,62018,62034,62052,62067,62085,62103,62118,62134,62150,62167,62184,62202,62219,62237,62252,62269,62284,62301,62317,62334,62350,62367,62384,62400,62417,62435,62450,62467,62483,62500,62518,62533,62550,62567,62585,62600,62617,62633,62650,62667,62684,62700,62717,62734,62750,62767,62784,62801,62817,62834,62850,62867,62883,62901,62917,62933,62950,62968,62983,63000,63017,63034,63050,63067,63084,63102,63117,63134,63150,63167,63184,63200,63217,63234,63251,63266,63284,63300,63316,63333,63350,63367,63383,63400,63416,63433,63450,63467,63483,63502,63516,63534,63550,63567,63583,63601,63617,63633,63650,63672,63687,63702,63719,63735,63752,63767,63784,63800,63816,63833,63850,63866,63883,63899,63916,63933,63950,63966,63983,63999,64016,64034,64050,64067,64085,64101,64117,64133,64150,64166,64184,64200,64217,64233,64250,64266,64283,64300,64317,64333,64350,64367,64383,64399,64417,64433,64451,64466,64483,64500,64517,64533,64550,64566,64583,64601,64616,64633,64650,64666,64683,64699,64716,64735,64750,64767,64783,64800,64816,64834,64849,64867,64883,64899,64916,64932,64949,64965,64983,64998,65016,65032,65049,65065,65084,65103,65119,65134,65151,65166,65183,65199,65216,65232,65249,65267,65283,65300,65316,65333,65349,65366,65384,65399,65416,65433,65450,65466,65484,65499,65516,65532,65549,65566,65583,65599,65617,65632,65650,65666,65683,65700,65716,65733,65749,65766,65783,65799,65817,65832,65849,65866,65883,65900,65916,65933,65949,65966,65983,65999,66016,66035,66050,66067,66083,66101,66115,66133,66149,66166,66182,66199,66215,66231,66249,66265,66282,66298,66314,66333,66350,66367,66383,66400,66416,66432,66449,66467,66484,66500,66517,66534,66549,66566,66584,66602,66619,66633,66650,66668,66682,66699,66715,66733,66749,66766,66782,66800,66816,66833,66849,66866,66882,66899,66915,66932,66950,66965,66982,66999,67016,67033,67049,67066,67082,67100,67116,67132,67149,67165,67182,67199,67215,67233,67249,67268,67285,67300,67317,67333,67350,67366,67383,67399,67415,67432,67449,67465,67483,67499,67516,67532,67549,67565,67582,67598,67615,67632,67649,67665,67681,67697,67715,67732,67749,67765,67783,67799,67815,67832,67848,67865,67882,67898,67915,67932,67949,67965,67982,67999,68015,68032,68051,68066,68085,68103,68117,68133,68148,68164,68181,68197,68214,68231,68247,68264,68280,68297,68314,68330,68347,68364,68380,68398,68414,68431,68447,68464,68481,68497,68514,68530,68547,68564,68580,68597,68614,68630,68647,68664,68681,68697,68714,68731,68747,68764,68781,68797,68814,68830,68847,68864,68880,68897,68914,68930,68947,68964,68980,68997,69014,69030,69047,69064,69080,69097,69114,69130,69147,69163,69180,69197,69213,69230,69247,69264,69280,69297,69313,69330,69347,69364,69380,69397,69414,69430,69447,69463,69480,69497,69513,69530,69547,69571,69587,69601,69625,69643,69661,69677,69692,69710,69727,69742,69758,69777,69793,69809,69826,69842,69859,69876,69892,69910,69927,69943,69960,69976,69992,70010,70026,70042,70060,70076,70092,70111,70127,70144,70162,70179,70194,70211,70229,70247,70264,70282,70298,70316,70333,70350,70367,70383,70400,70427,70443,70460,70477,70493,70510,70527,70543,70561,70578,70597,70613,70631,70649,70666,70683,70699,70716,70733,70749,70766,70782,70799,70815,70831,70849,70864,70882,70898,70915,70931,70948,70963,70981,70998,71016,71034,71048,71066,71081,71099,71117,71130,71148,71164,71182,71197,71215,71230,71248,71264,71281,71297,71315,71330,71348,71364,71381,71397,71414,71431,71448,71464,71481,71497,71514,71531,71548,71565,71580,71598,71614,71630,71648,71666,71682,71700,71716,71734,71750,71766,71783,71810,71826,71841,71859,71876,71894,71910,71928,71945,71962,71981,71997,72014,72031,72048,72065,72082,72099,72115,72130,72147,72164,72180,72197,72213,72229,72246,72263,72279,72296,72312,72329,72346,72362,72379,72396,72412,72429,72446,72462,72480,72497,72516,72536,72550,72565,72582,72598,72614,72629,72646,72662,72679,72696,72712,72729,72746,72762,72779,72797,72813,72829,72845,72862,72879,72895,72913,72929,72946,72962,72979,72996,73012,73029,73045,73062,73079,73095,73112,73129,73145,73162,73179,73195,73212,73229,73245,73262,73279,73295,73312,73329,73346,73362,73379,73395,73412,73429,73445,73462,73479,73495,73512,73528,73546,73562,73579,73595,73612,73629,73645,73662,73679,73695,73712,73736,73749,73776,73791,73808,73825,73841,73858,73874,73892,73908,73925,73943,73960,73978,73995,74010,74026,74043,74058,74075,74090,74108,74124,74143,74158,74174,74191,74208,74225,74241,74258,74275,74292,74307,74324,74340,74358,74375,74392,74408,74424,74442,74457,74475,74491,74508,74525,74541,74559,74576,74591,74608,74624,74640,74657,74674,74691,74706,74724,74741,74759,74774,74792,74808,74824,74841,74857,74874,74891,74908,74924,74941,74957,74974,74991,75010,75027,75042,75058,75074,75091,75110,75125,75142,75157,75175,75191,75208,75226,75242,75258,75276,75292,75308,75324,75341,75359,75374,75393,75411,75424,75442,75458,75475,75492,75508,75524,75540,75558,75576,75591,75608,75624,75640,75657,75674,75691,75707,75724,75741,75758,75775,75791,75808,75826,75840,75857,75875,75891,75907,75924,75941,75957,75974,75990,76008,76024,76040,76058,76074,76091,76108,76123,76140,76158,76173,76191,76207,76224,76241,76257,76275,76291,76309,76324,76341,76357,76375,76391,76407,76425,76442,76459,76476,76495,76511,76529,76546,76562,76578,76595,76612,76629,76646,76662,76679,76695,76713,76730,76746,76763,76781,76797,76817,76834,76857,76876,76891,76908,76924,76941,76959,76975,76991,77008,77024,77042,77059,77076,77093,77111,77130,77145,77163,77179,77197,77213,77232,77248,77266,77281,77298,77313,77331,77346,77363,77379,77396,77412,77428,77447,77464,77480,77497,77514,77530,77546,77561,77578,77595,77612,77628,77644,77661,77677,77694,77711,77728,77744,77761,77778,77794,77810,77829,77847,77862,77878,77894,77911,77928,77944,77962,77978,77994,78011,78027,78044,78061,78077,78094,78111,78128,78144,78161,78177,78194,78211,78227,78244,78260,78277,78294,78312,78329,78345,78362,78379,78397,78416,78434,78456,78474,78490,78507,78523,78540,78556,78572,78591,78606,78624,78640,78657,78677,78694,78713,78730,78745,78764,78778,78796,78813,78830,78847,78864,78882,78898,78915,78939,78957,78973,78990,79006,79023,79040,79058,79073,79090,79106,79126,79142,79158,79174,79189,79207,79222,79239,79256,79273,79289,79307,79324,79340,79357,79374,79392,79409,79427,79445,79463,79479,79497,79514,79531,79547,79564,79581,79597,79614,79630,79648,79674,79691,79707,79724,79739,79757,79772,79790,79807,79824,79840,79857,79879,79896,79910,79926,79943,79961,79978,79996,80012,80030,80047,80063,80080,80097,80114,80138,80156,80173,80189,80207,80223,80239,80256,80273,80291,80306,80322,80340,80357,80373,80389,80405,80423,80440,80456,80473,80490,80507,80522,80539,80555,80572,80589,80605,80622,80639,80658,80674,80689,80707,80722,80738,80755,80772,80789,80806,80822,80840,80856,80872,80888,80906,80924,80939,80956,80972,80989,81005,81021,81038,81055,81073,81089,81106,81123,81141,81156,81174,81190,81206,81223,81239,81255,81272,81290,81308,81326,81340,81357,81374,81391,81409,81425,81442,81461,81480,81497,81514,81530,81547,81564,81590,81607,81622,81640,81655,81673,81690,81706,81723,81740,81758,81776,81792,81809,81827,81843,81861,81877,81894,81910,81927,81944,81960,81977,81994,82010,82027,82045,82060,82078,82095,82112,82131,82154,82171,82189,82206,82222,82239,82256,82272,82288,82305,82326,82340,82356,82373,82389,82405,82423,82440,82457,82472,82489,82506,82523,82540,82555,82572,82589,82606,82622,82639,82655,82673,82689,82706,82722,82739,82757,82774,82789,82806,82821,82839,82855,82871,82889,82906,82922,82938,82955,82972,82989,83005,83022,83039,83054,83073,83089,83106,83122,83140,83155,83170,83188,83206,83222,83239,83256,83272,83289,83305,83322,83338,83355,83371,83388,83405,83422,83437,83454,83472,83488,83506,83522,83539,83556,83571,83588,83604,83622,83639,83656,83673,83689,83705,83721,83738,83756,83771,83787,83805,83820,83838,83854,83871,83887,83905,83923,83938,83954,83970,83987,84004,84022,84038,84053,84071,84088,84105,84123,84139,84154,84171,84192,84209,84224,84241,84256,84272,84289,84306,84323,84339,84356,84374,84390,84407,84425,84440,84458,84474,84492,84509,84526,84543,84560,84577,84594,84610,84627,84643,84661,84677,84693,84710,84726,84742,84760,84777,84793,84810,84826,84843,84859,84877,84892,84909,84926,84943,84960,84976,84993,85009,85026,85042,85059,85076,85094,85111,85132,85155,85171,85188,85205,85221,85238,85254,85271,85288,85305,85321,85338,85355,85370,85387,85405,85421,85439,85455,85470,85487,85504,85521,85537,85554,85571,85590,85608,85625,85639,85657,85671,85687,85704,85720,85738,85756,85771,85789,85803,85821,85837,85854,85870,85887,85904,85921,85937,85954,85970,85987,86004,86022,86040,86056,86072,86089,86107,86127,86145,86162,86177,86195,86211,86229,86245,86271,86288,86304,86322,86338,86355,86371,86389,86406,86421,86437,86454,86470,86488,86505,86521,86538,86555,86571,86589,86604,86621,86638,86655,86672,86689,86707,86725,86740,86758,86775,86793,86809,86826,86842,86859,86875,86892,86909,86926,86943,86959,86977,86992,87010,87026,87043,87064,87080,87104,87123,87138,87154,87171,87187,87205,87220,87236,87254,87273,87290,87307,87324,87342,87359,87376,87393,87410,87427,87443,87460,87476,87492,87510,87525,87543,87558,87576,87592,87608,87627,87643,87660,87676,87693,87708,87726,87742,87759,87776,87792,87809,87826,87842,87859,87876,87892,87909,87926,87943,87959,87975,87992,88008,88025,88042,88058,88074,88090,88108,88128,88145,88160,88177,88192,88209,88225,88242,88259,88275,88292,88308,88325,88341,88359,88375,88392,88409,88425,88442,88463,88479,88496,88520,88537,88553,88571,88587,88603,88621,88637,88653,88670,88687,88703,88720,88736,88753,88771,88787,88803,88820,88835,88853,88869,88887,88903,88919,88936,88953,88970,88986,89004,89020,89038,89053,89070,89087,89104,89122,89142,89156,89174,89189,89206,89223,89241,89258,89275,89291,89309,89325,89341,89358,89374,89391,89408,89425,89441,89458,89475,89491,89508,89524,89541,89557,89574,89591,89608,89624,89641,89659,89674,89692,89707,89724,89740,89758,89775,89791,89808,89825,89841,89858,89879,89895,89910,89927,89944,89960,89977,89993,90010,90025,90041,90058,90074,90091,90107,90126,90143,90159,90174,90191,90206,90224,90240,90258,90274,90291,90307,90323,90341,90358,90374,90391,90408,90425,90441,90458,90474,90491,90508,90524,90540,90558,90574,90590,90608,90624,90640,90657,90676,90691,90708,90724,90742,90757,90775,90791,90808,90824,90842,90857,90875,90891,90908,90924,90942,90957,90975,90990,91007,91024,91040,91056,91074,91092,91109,91129,91152,91169,91186,91203,91219,91236,91252,91271,91289,91306,91321,91338,91353,91369,91385,91401,91420,91436,91451,91469,91486,91502,91519,91536,91553,91570,91585,91603,91619,91636,91652,91670,91685,91701,91717,91736,91753,91769,91786,91803,91820,91837,91852,91868,91885,91902,91919,91935,91953,91969,91986,92002,92018,92036,92052,92069,92086,92103,92120,92137,92152,92168,92186,92203,92217,92234,92253,92268,92286,92302,92318,92335,92352,92369,92385,92402,92419,92436,92452,92469,92486,92501,92518,92534,92551,92568,92585,92601,92618,92635,92652,92668,92686,92702,92719,92738,92756,92771,92787,92802,92820,92835,92853,92868,92885,92901,92919,92935,92953,92969,92986,93001,93019,93036,93052,93068,93085,93103,93119,93136,93151,93168,93185,93202,93218,93235,93251,93268,93285,93302,93318,93335,93351,93368,93385,93401,93420,93435,93451,93468,93485,93501,93518,93535,93552,93569,93585,93602,93618,93635,93651,93668,93686,93702,93718,93735,93751,93769,93786,93802,93818,93835,93852,93869,93885,93902,93918,93935,93951,93967,93985,94001,94018,94035,94051,94069,94085,94101,94119,94137,94155,94172,94186,94202,94219,94236,94253,94269,94287,94304,94321,94338,94355,94372,94388,94406,94423,94441,94456,94473,94490,94506,94524,94539,94556,94574,94590,94607,94623,94640,94658,94673,94691,94707,94724,94740,94757,94773,94790,94807,94823,94839,94857,94874,94891,94909,94926,94942,94959,94985,95002,95019,95036,95052,95069,95085,95103,95120,95138,95153,95168,95184,95201,95219,95236,95252,95268,95285,95302,95318,95335,95351,95368,95384,95402,95420,95436,95453,95470,95487,95502,95519,95535,95552,95570,95585,95601,95620,95638,95654,95670,95685,95703,95719,95737,95753,95770,95787,95805,95821,95839,95856,95872,95890,95905,95923,95939,95956,95972,95989,96006,96022,96040,96056,96073,96090,96106,96124,96143,96157,96172,96188,96205,96221,96238,96254,96271,96288,96304,96321,96338,96355,96372,96389,96405,96421,96438,96454,96471,96488,96504,96521,96538,96554,96571,96588,96605,96621,96638,96655,96671,96688,96704,96721,96738,96754,96771,96788,96804,96821,96838,96855,96871,96888,96911,96927,96943,96968,96985,97000,97017,97035,97051,97067,97084,97100,97119,97135,97150,97166,97184,97201,97217,97234,97251,97268,97284,97299,97316,97335,97350,97367,97385,97403,97419,97435,97452,97469,97490,97507,97524,97540,97557,97574,97591,97607,97624,97641,97658,97675,97700,97718,97734,97750,97768,97785,97800,97817,97834,97850,97868,97883,97900,97916,97933,97951,97967,97984,98000,98017,98034,98049,98066,98083,98100,98117,98135,98149,98166,98184,98201,98217,98233,98251,98266,98284,98304,98321,98335,98351,98367,98384,98401,98419,98435,98450,98467,98484,98501,98517,98533,98551,98568,98584,98600,98617,98634,98650,98666,98683,98700,98718,98733,98750,98766,98783,98801,98817,98833,98850,98867,98882,98900,98917,98934,98949,98966,98983,98999,99016,99033,99050,99065,99083,99098,99117,99136,99152,99171,99188,99204,99222,99238,99255,99271,99288,99305,99321,99338,99354,99371,99388,99405,99421,99438,99455,99471,99488,99505,99521,99538,99557,99574,99592,99616,99633,99650,99666,99684,99700,99719,99735,99755,99773,99790,99805,99824,99838,99855,99871,99888,99904,99921,99937,99954,99971,99988,100004,100021,100038,100055,100071,100088,100104,100124,100139,100155,100171,100189,100204,100222,100238,100255,100271,100288,100304,100320,100337,100354,100371,100388,100404,100421,100438,100455,100471,100487,100505,100521,100539,100555,100571,100588,100605,100622,100638,100654,100671,100688,100705,100721,100737,100755,100772,100788,100804,100821,100837,100854,100870,100887,100904,100921,100938,100954,100973,100988,101005,101021,101038,101054,101071,101087,101104,101123,101139,101155,101171,101188,101204,101223,101240,101255,101272,101288,101305,101320,101338,101353,101371,101387,101404,101420,101437,101455,101471,101487,101504,101521,101538,101554,101571,101587,101604,101620,101638,101654,101671,101688,101704,101722,101737,101754,101770,101787,101803,101820,101837,101854,101870,101887,101904,101921,101937,101954,101970,101987,102003,102022,102039,102054,102071,102088,102105,102122,102137,102152,102169,102186,102202,102219,102236,102252,102269,102286,102302,102319,102336,102352,102369,102386,102403,102419,102436,102453,102469,102486,102502,102519,102536,102552,102569,102586,102602,102619,102637,102653,102673,102692,102709,102731,102749,102764,102782,102799,102816,102832,102848,102866,102881,102899,102915,102931,102948,102965,102982,102998,103015,103032,103048,103066,103082,103099,103115,103132,103148,103165,103181,103198,103215,103231,103248,103265,103282,103298,103314,103331,103349,103365,103381,103398,103415,103431,103448,103465,103482,103498,103515,103531,103549,103565,103582,103599,103614,103633,103648,103664,103681,103698,103715,103731,103749,103765,103781,103797,103816,103832,103846,103863,103880,103898,103914,103931,103949,103963,103981,103999,104015,104031,104049,104064,104081,104098,104116,104134,104152,104168,104183,104199,104216,104232,104248,104265,104281,104298,104314,104332,104347,104364,104382,104398,104415,104431,104448,104464,104481,104498,104515,104530,104548,104564,104580,104598,104614,104631,104648,104664,104680,104698,104714,104731,104748,104765,104780,104797,104815,104831,104847,104863,104882,104898,104914,104932,104949,104966,104983,105000,105020,105039,105055,105073,105089,105106,105125,105147,105165,105182,105199,105215,105231,105248,105265,105282,105297,105316,105332,105349,105365,105382,105400,105417,105434,105451,105469,105484,105502,105518,105536,105557,105573,105588,105604,105620,105636,105651,105669,105685,105701,105718,105735,105751,105768,105785,105802,105818,105835,105851,105868,105886,105902,105918,105935,105951,105968,105985,106001,106018,106034,106051,106068,106084,106102,106120,106146,106166,106180,106198,106214,106231,106248,106264,106281,106298,106313,106331,106347,106364,106380,106397,106413,106433,106446,106464,106481,106498,106514,106531,106548,106563,106581,106597,106613,106630,106648,106664,106679,106697,106714,106730,106746,106764,106780,106798,106814,106830,106847,106864,106880,106896,106913,106930,106947,106963,106981,107000,107019,107033,107049,107065,107082,107099,107115,107132,107148,107163,107180,107197,107213,107232,107246,107264,107280,107296,107313,107329,107346,107365,107380,107397,107414,107431,107448,107464,107480,107496,107513,107529,107547,107563,107580,107598,107614,107630,107646,107663,107681,107697,107714,107731,107746,107765,107780,107797,107813,107831,107847,107864,107880,107897,107913,107929,107946,107963,107979,107996,108013,108030,108047,108063,108081,108096,108113,108132,108147,108162,108180,108196,108213,108230,108247,108262,108280,108297,108312,108330,108347,108363,108380,108398,108415,108433,108449,108465,108484,108499,108516,108534,108549,108566,108583,108601,108616,108634,108651,108671,108685,108702,108719,108735,108752,108768,108785,108802,108819,108835,108853,108868,108886,108902,108919,108936,108953,108969,108987,109002,109022,109037,109053,109068,109085,109100,109119,109147,109165,109181,109197,109214,109231,109248,109264,109280,109296,109314,109332,109348,109364,109381,109398,109416,109433,109451,109468,109485,109502,109518,109535,109552,109568,109584,109602,109618,109634,109651,109668,109685,109701,109719,109735,109752,109768,109785,109801,109817,109835,109854,109871,109886,109903,109920,109936,109952,109968,109984,110000,110017,110033,110050,110066,110083,110100,110118,110144,110164,110180,110196,110212,110229,110246,110263,110280,110296,110313,110329,110347,110361,110380,110396,110412,110429,110447,110464,110479,110495,110513,110530,110546,110563,110579,110596,110614,110630,110647,110662,110679,110696,110713,110728,110747,110762,110779,110796,110812,110829,110846,110862,110879,110896,110912,110928,110945,110962,110980,110996,111012,111029,111045,111062,111078,111095,111111,111130,111146,111162,111179,111196,111213,111228,111246,111267,111284,111298,111314,111331,111348,111366,111381,111399,111415,111432,111450,111467,111484,111501,111517,111534,111551,111568,111584,111602,111617,111634,111651,111668,111686,111702,111719,111734,111751,111767,111784,111800,111817,111834,111851,111867,111885,111900,111917,111933,111950,111967,111983,112000,112017,112034,112050,112067,112084,112102,112123,112145,112161,112179,112196,112212,112228,112245,112262,112279,112295,112312,112329,112345,112362,112379,112396,112412,112428,112446,112462,112478,112495,112511,112529,112547,112563,112579,112596,112611,112628,112646,112664,112682,112697,112715,112733,112748,112765,112783,112800,112817,112834,112850,112867,112884,112900,112918,112933,112951,112967,112984,113000,113018,113034,113054,113070,113095,113112,113127,113146,113161,113179,113195,113212,113229,113244,113262,113278,113295,113312,113327,113344,113361,113377,113395,113412,113429,113446,113463,113479,113495,113511,113528,113544,113561,113579,113595,113612,113629,113645,113661,113678,113695,113711,113728,113744,113760,113778,113795,113812,113829,113845,113861,113878,113896,113911,113927,113944,113962,113977,113994,114010,114029,114046,114064,114081,114095,114113,114133,114149,114167,114183,114201,114218,114235,114251,114270,114285,114302,114319,114335,114351,114367,114383,114399,114415,114432,114449,114467,114482,114499,114515,114532,114548,114565,114582,114598,114615,114632,114648,114665,114682,114698,114715,114733,114749,114766,114782,114799,114816,114832,114849,114866,114882,114899,114915,114932,114948,114965,114982,114998,115015,115031,115048,115065,115081,115098,115115,115143,115161,115178,115194,115211,115227,115245,115261,115278,115294,115311,115328,115344,115361,115378,115395,115410,115429,115448,115465,115480,115497,115512,115528,115544,115560,115577,115594,115611,115627,115644,115660,115677,115694,115711,115727,115743,115761,115778,115794,115810,115828,115844,115861,115878,115894,115911,115927,115944,115960,115978,115994,116010,116028,116045,116061,116078,116094,116111,116128,116144,116160,116176,116193,116211,116226,116245,116261,116277,116294,116310,116327,116344,116362,116377,116394,116410,116427,116444,116460,116477,116494,116511,116526,116544,116560,116578,116595,116612,116627,116644,116661,116677,116693,116711,116728,116743,116760,116779,116796,116814,116828,116845,116860,116877,116894,116911,116928,116944,116960,116978,116994,117010,117026,117043,117061,117078,117096,117112,117130,117146,117161,117177,117194,117210,117227,117245,117264,117282,117297,117313,117331,117348,117364,117382,117398,117415,117432,117450,117465,117482,117499,117515,117532,117549,117565,117582,117599,117615,117632,117648,117666,117682,117698,117715,117732,117748,117765,117782,117799,117815,117831,117848,117865,117881,117898,117916,117931,117948,117965,117982,117998,118015,118032,118048,118065,118081,118098,118115,118133,118149,118167,118185,118199,118216,118234,118249,118266,118282,118299,118315,118333,118348,118365,118382,118399,118415,118432,118449,118466,118482,118498,118515,118534,118549,118566,118582,118598,118615,118632,118648,118666,118682,118698,118714,118731,118748,118765,118782,118797,118815,118831,118848,118864,118880,118897,118914,118930,118947,118963,118980,118998,119014,119030,119047,119064,119081,119098,119115,119133,119148,119165,119181,119198,119215,119232,119248,119266,119281,119298,119315,119331,119348,119364,119382,119397,119415,119432,119448,119464,119481,119499,119515,119534,119551,119567,119584,119599,119617,119633,119649,119666,119682,119698,119715,119732,119749,119764,119782,119798,119815,119833,119848,119865,119882,119898,119915,119931,119948,119964,119981,119997,120014,120031,120048,120064,120081,120098,120114,120132,120147,120164,120180,120197,120214,120231,120247,120264,120281,120298,120315,120331,120348,120364,120382,120399,120417,120433,120450,120467,120484,120500,120517,120542,120560,120577,120594,120611,120627,120644,120662,120681,120700,120715,120734,120750,120767,120784,120800,120827,120843,120860,120877,120895,120911,120931,120950,120965,120983,120999,121016,121032,121048,121066,121082,121100,121127,121142,121159,121176,121192,121208,121226,121242,121259,121276,121294,121310,121326,121344,121359,121378,121394,121412,121429,121447,121463,121480,121497,121514,121532,121548,121567,121584,121609,121625,121644,121660,121677,121693,121710,121728,121745,121764,121782,121798,121816,121833,121850,121867,121884,121909,121926,121944,121960,121975,121993,122010,122026,122043,122060,122076,122093,122108,122126,122145,122163,122178,122196,122211,122230,122246,122264,122281,122299,122319,122337,122360,122377,122393,122410,122426,122443,122460,122478,122495,122512,122526,122543,122559,122576,122593,122609,122624,122641,122658,122675,122691,122708,122727,122742,122758,122774,122791,122808,122824,122841,122857,122875,122892,122907,122924,122941,122959,122976,122992,123009,123026,123041,123059,123075,123093,123110,123125,123143,123158,123175,123192,123208,123224,123242,123259,123275,123292,123308,123325,123342,123358,123376,123393,123408,123425,123441,123457,123475,123491,123508,123526,123542,123558,123575,123591,123608,123624,123642,123659,123678,123694,123711,123727,123741,123758,123775,123793,123808,123825,123841,123857,123875,123891,123907,123925,123942,123959,123976,123990,124008,124025,124040,124057,124074,124092,124107,124124,124143,124158,124175,124192,124209,124225,124242,124258,124275,124291,124308,124326,124342,124358,124375,124391,124408,124425,124441,124458,124473,124491,124508,124523,124541,124558,124574,124590,124608,124624,124642,124658,124675,124692,124707,124724,124741,124758,124774,124791,124807,124824,124842,124859,124874,124892,124908,124925,124941,124957,124977],"hit":[null],"x":[-2.0408163265306123,-2.0408163265306123,-2.0408163265306123,-2.0408163265306123,-2.0408163265306123,-2.0408163265306123,-2.0408163265306123,-2.0408163265306123,-2.0408163265306123,-2.0408163265306123,-2.0408163265306123,-2.0408163265306123,-2.0408163265306123,-2.0408163265306123,-2.0408163265306123,-2.0408163265306123,-2.0408163265306123,-2.0408163265306123,-2.0408163265306123,-2.0408163265306123,-2.0408163265306123,-2.0408163265306123,-2.0408163265306123,-2.0408163265306123,-2.0408163265306123,-2.0408163265306123,-2.0408163265306123,-2.0408163265306123,-2.0408163265306123,-2.0408163265306123,-2.0408163265306123,-2.0408163265306123,-2.0408163265306123,-2.0408163265306123,-2.0408163265306123,-2.0408163265306123,-2.0408163265306123,-2.0408163265306123,-2.0408163265306123,-2.0408163265306123,-2.0408163265306123,-2.0408163265306123,-2.0408163265306123,-2.0408163265306123,-2.0408163265306123,-2.0408163265306123,-2.0408163265306123,-2.0408163265306123,-2.0408163265306123,-2.0408163265306123,-2.0408163265306123,-2.0408163265306123,-2.0408163265306123,-2.0408163265306123,-2.0408163265306123,-2.0408163265306123,-2.0408163265306123,-2.0408163265306123,-2.0408163265306123,-2.0408163265306123,-2.0408163265306123,-2.0408163265306123,-2.0408163265306123,-2.0408163265306123,-2.0408163265306123,-2.0408163265306123,-2.0408163265306123,-2.0408163265306123,-2.0408163265306123,-2.0408163265306123,-2.0408163265306123,-2.0408163265306123,-2.0408163265306123,-2.0408163265306123,-2.0408163265306123,-2.0408163265306123,-2.0408163265306123,-2.0408163265306123,-2.0408163265306123,-2.0408163265306123,-2.0408163265306123,-2.0408163265306123,-2.0408163265306123,-2.0408163265306123,-2.0408163265306123,-2.0408163265306123,0.02040816326530612,-0.003401360544217687,-0.023809523809523808,-0.030612244897959183,-0.047619047619047616,-0.05782312925170068,-0.06802721088435375,-0.07142857142857142,-0.07482993197278912,-0.08163265306122448,-0.08503401360544217,-0.09183673469387756,-0.09523809523809523,-0.09863945578231292,-0.10884353741496598,-0.10884353741496598,-0.10884353741496598,-0.10884353741496598,-0.10884353741496598,-0.10884353741496598,-0.10884353741496598,-0.10884353741496598,-0.10884353741496598,-0.10884353741496598,-0.10884353741496598,-0.10884353741496598,-0.10884353741496598,-0.10884353741496598,-0.10884353741496598,-0.10884353741496598,-0.10884353741496598,-0.10884353741496598,-0.10884353741496598,-0.10884353741496598,-0.10884353741496598,-0.10884353741496598,-0.10884353741496598,-0.10884353741496598,-0.10884353741496598,-0.10884353741496598,-0.10884353741496598,-0.10884353741496598,-0.10884353741496598,-0.10884353741496598,-0.10884353741496598,-0.10884353741496598,-0.10884353741496598,-0.10884353741496598,-0.10884353741496598,-0.10884353741496598,-0.10884353741496598,-0.10884353741496598,-0.10884353741496598,-0.10884353741496598,-0.10884353741496598,-0.10884353741496598,-0.10884353741496598,-0.10884353741496598,-0.10884353741496598,-0.10884353741496598,-0.10884353741496598,-0.10884353741496598,-0.10884353741496598,-0.10884353741496598,-0.10884353741496598,-0.10884353741496598,-0.10884353741496598,-0.10884353741496598,-0.10884353741496598,-0.10884353741496598,-0.10884353741496598,-0.10884353741496598,-0.10884353741496598,-0.10884353741496598,-0.10884353741496598,-0.10884353741496598,-0.10884353741496598,-0.10884353741496598,-0.10884353741496598,-0.10884353741496598,-0.10884353741496598,-0.10884353741496598,-0.10884353741496598,-0.10884353741496598,-0.10884353741496598,-0.10884353741496598,-0.10884353741496598,-0.10884353741496598,-0.10884353741496598,-0.10884353741496598,-0.10884353741496598,-0.10884353741496598,-0.10884353741496598,-0.10884353741496598,-0.10884353741496598,-0.10884353741496598,-0.10884353741496598,-0.10884353741496598,-0.10884353741496598,-0.10884353741496598,-0.10884353741496598,-0.10884353741496598,-0.10884353741496598,-0.10884353741496598,-0.10884353741496598,-0.10884353741496598,-0.10884353741496598,-0.10884353741496598,-0.10884353741496598,-0.10884353741496598,-0.10884353741496598,-0.10884353741496598,-0.10884353741496598,-0.10884353741496598,-0.10884353741496598,-0.10884353741496598,-0.10884353741496598,-0.10884353741496598,-0.10884353741496598,-0.10884353741496598,-0.10204081632653061,-0.09523809523809523,-0.09183673469387756,-0.08843537414965986,-0.08503401360544217,-0.08163265306122448,-0.08163265306122448,-0.08163265306122448,-0.0782312925170068,-0.07142857142857142,-0.07142857142857142,-0.06802721088435375,-0.06802721088435375,-0.06802721088435375,-0.06462585034013606,-0.05442176870748299,-0.05442176870748299,-0.04421768707482993,-0.03741496598639456,-0.017006802721088437,0,0.02040816326530612,0.027210884353741496,0.04081632653061224,0.05102040816326531,0.05442176870748299,0.061224489795918366,0.06462585034013606,0.06462585034013606,0.06462585034013606,0.06462585034013606,0.06462585034013606,0.06462585034013606,0.06462585034013606,0.06462585034013606,0.06462585034013606,0.06462585034013606,0.06462585034013606,0.06462585034013606,0.06462585034013606,0.06462585034013606,0.06462585034013606,0.06462585034013606,0.06462585034013606,0.06462585034013606,0.06462585034013606,0.06462585034013606,0.06462585034013606,0.06462585034013606,0.06462585034013606,0.06462585034013606,0.06462585034013606,0.06462585034013606,0.06462585034013606,0.06462585034013606,0.06462585034013606,0.06462585034013606,0.06462585034013606,0.06462585034013606,0.06462585034013606,0.06462585034013606,0.06462585034013606,0.06462585034013606,0.06462585034013606,0.06462585034013606,0.06462585034013606,0.06462585034013606,0.06462585034013606,0.06462585034013606,0.06462585034013606,0.06462585034013606,0.06462585034013606,0.06462585034013606,0.06462585034013606,0.06462585034013606,0.06462585034013606,0.06462585034013606,0.06462585034013606,0.06462585034013606,0.06462585034013606,0.06462585034013606,0.06462585034013606,0.06462585034013606,0.06462585034013606,0.06462585034013606,0.06462585034013606,0.06462585034013606,0.06462585034013606,0.06462585034013606,0.06462585034013606,0.06462585034013606,0.06462585034013606,0.06462585034013606,0.06462585034013606,0.07482993197278912,0.10884353741496598,0.15306122448979592,0.17687074829931973,0.19387755102040816,0.24149659863945577,0.2789115646258503,0.3129251700680272,0.3401360544217687,0.35374149659863946,0.3673469387755102,0.37755102040816324,0.38095238095238093,0.38095238095238093,0.3843537414965986,0.391156462585034,0.3945578231292517,0.3945578231292517,0.3979591836734694,0.3979591836734694,0.3979591836734694,0.3979591836734694,0.3979591836734694,0.3979591836734694,0.3979591836734694,0.3979591836734694,0.3979591836734694,0.3979591836734694,0.3979591836734694,0.3979591836734694,0.3979591836734694,0.3979591836734694,0.3979591836734694,0.3979591836734694,0.40476190476190477,0.41156462585034015,0.41496598639455784,0.4217687074829932,0.4217687074829932,0.4217687074829932,0.4217687074829932,0.4217687074829932,0.4217687074829932,0.4217687074829932,0.4217687074829932,0.4217687074829932,0.4217687074829932,0.4217687074829932,0.4217687074829932,0.4217687074829932,0.4217687074829932,0.4217687074829932,0.4217687074829932,0.4217687074829932,0.4217687074829932,0.4217687074829932,0.4217687074829932,0.4217687074829932,0.4217687074829932,0.4217687074829932,0.4217687074829932,0.4217687074829932,0.4217687074829932,0.4217687074829932,0.4217687074829932,0.4217687074829932,0.4217687074829932,0.4217687074829932,0.4217687074829932,0.4217687074829932,0.4217687074829932,0.4217687074829932,0.4217687074829932,0.4217687074829932,0.4217687074829932,0.4217687074829932,0.4217687074829932,0.4217687074829932,0.4217687074829932,0.4217687074829932,0.4217687074829932,0.4217687074829932,0.4217687074829932,0.4217687074829932,0.4217687074829932,0.4217687074829932,0.4217687074829932,0.4217687074829932,0.4217687074829932,0.4217687074829932,0.4217687074829932,0.4217687074829932,0.4217687074829932,0.41496598639455784,0.37755102040816324,0.35374149659863946,0.3401360544217687,0.32653061224489793,0.29931972789115646,0.2891156462585034,0.282312925170068,0.272108843537415,0.2653061224489796,0.2619047619047619,0.2585034013605442,0.2585034013605442,0.25510204081632654,0.25510204081632654,0.25510204081632654,0.24489795918367346,0.24149659863945577,0.23809523809523808,0.23809523809523808,0.23809523809523808,0.23809523809523808,0.23809523809523808,0.23809523809523808,0.23809523809523808,0.23469387755102042,0.23469387755102042,0.23809523809523808,0.2653061224489796,0.2891156462585034,0.30952380952380953,0.3231292517006803,0.3469387755102041,0.3673469387755102,0.3945578231292517,0.40816326530612246,0.41836734693877553,0.42517006802721086,0.43537414965986393,0.43537414965986393,0.43537414965986393,0.43537414965986393,0.43537414965986393,0.43537414965986393,0.43537414965986393,0.43537414965986393,0.43537414965986393,0.43537414965986393,0.43537414965986393,0.43537414965986393,0.43537414965986393,0.43537414965986393,0.43537414965986393,0.43537414965986393,0.43537414965986393,0.4421768707482993,0.4523809523809524,0.47278911564625853,0.4897959183673469,0.4965986394557823,0.5034013605442177,0.5068027210884354,0.5136054421768708,0.5204081632653061,0.5306122448979592,0.5476190476190477,0.5578231292517006,0.564625850340136,0.5714285714285714,0.5714285714285714,0.5748299319727891,0.5782312925170068,0.5782312925170068,0.5816326530612245,0.5816326530612245,0.5816326530612245,0.5816326530612245,0.5816326530612245,0.5816326530612245,0.5850340136054422,0.5918367346938775,0.5952380952380952,0.6020408163265306,0.6258503401360545,0.6530612244897959,0.6870748299319728,0.7074829931972789,0.7142857142857143,0.7346938775510204,0.7448979591836735,0.7551020408163265,0.7619047619047619,0.7687074829931972,0.7687074829931972,0.7687074829931972,0.7687074829931972,0.7687074829931972,0.7687074829931972,0.7687074829931972,0.7755102040816326,0.7789115646258503,0.7891156462585034,0.7925170068027211,0.8027210884353742,0.8163265306122449,0.8333333333333334,0.8639455782312925,0.8843537414965986,0.8979591836734694,0.9081632653061225,0.9115646258503401,0.9115646258503401,0.9115646258503401,0.9115646258503401,0.9115646258503401,0.9115646258503401,0.9115646258503401,0.9115646258503401,0.9115646258503401,0.9115646258503401,0.9115646258503401,0.9115646258503401,0.9115646258503401,0.9115646258503401,0.9115646258503401,0.9115646258503401,0.9115646258503401,0.9115646258503401,0.9115646258503401,0.9115646258503401,0.9115646258503401,0.9115646258503401,0.9115646258503401,0.9115646258503401,0.9115646258503401,0.9115646258503401,0.9115646258503401,0.9115646258503401,0.9115646258503401,0.9115646258503401,0.9115646258503401,0.9115646258503401,0.9115646258503401,0.9115646258503401,0.9115646258503401,0.9115646258503401,0.9115646258503401,0.9115646258503401,0.9115646258503401,0.9115646258503401,0.9115646258503401,0.9115646258503401,0.9013605442176871,0.8979591836734694,0.8877551020408163,0.8843537414965986,0.8843537414965986,0.8775510204081632,0.8741496598639455,0.8707482993197279,0.8673469387755102,0.8673469387755102,0.8639455782312925,0.8639455782312925,0.8639455782312925,0.8605442176870748,0.8605442176870748,0.8605442176870748,0.8605442176870748,0.8571428571428571,0.8571428571428571,0.8537414965986394,0.8537414965986394,0.8537414965986394,0.8503401360544217,0.8503401360544217,0.8503401360544217,0.8469387755102041,0.8435374149659864,0.8435374149659864,0.8435374149659864,0.8435374149659864,0.8435374149659864,0.8435374149659864,0.8435374149659864,0.8435374149659864,0.8435374149659864,0.8435374149659864,0.8435374149659864,0.8435374149659864,0.8435374149659864,0.8435374149659864,0.8401360544217688,0.8401360544217688,0.8401360544217688,0.8401360544217688,0.8401360544217688,0.8401360544217688,0.8401360544217688,0.8367346938775511,0.8367346938775511,0.8367346938775511,0.8367346938775511,0.8367346938775511,0.8367346938775511,0.8367346938775511,0.8367346938775511,0.8367346938775511,0.8299319727891157,0.8299319727891157,0.8299319727891157,0.8299319727891157,0.8299319727891157,0.8299319727891157,0.8299319727891157,0.8299319727891157,0.8299319727891157,0.8299319727891157,0.8231292517006803,0.8163265306122449,0.8095238095238095,0.8027210884353742,0.7789115646258503,0.7687074829931972,0.7482993197278912,0.7278911564625851,0.6904761904761905,0.6598639455782312,0.6326530612244898,0.5918367346938775,0.5612244897959183,0.5068027210884354,0.4557823129251701,0.42857142857142855,0.40816326530612246,0.3877551020408163,0.35714285714285715,0.336734693877551,0.3163265306122449,0.2891156462585034,0.272108843537415,0.25510204081632654,0.23809523809523808,0.21768707482993196,0.20408163265306123,0.19047619047619047,0.18027210884353742,0.17687074829931973,0.17346938775510204,0.16326530612244897,0.16326530612244897,0.16326530612244897,0.16326530612244897,0.1598639455782313,0.1564625850340136,0.1564625850340136,0.1564625850340136,0.1564625850340136,0.1564625850340136,0.15306122448979592,0.14965986394557823,0.14625850340136054,0.13945578231292516,0.13945578231292516,0.13945578231292516,0.1360544217687075,0.1360544217687075,0.1360544217687075,0.1360544217687075,0.1360544217687075,0.1360544217687075,0.1360544217687075,0.1360544217687075,0.1360544217687075,0.1360544217687075,0.1360544217687075,0.1360544217687075,0.1360544217687075,0.1360544217687075,0.1360544217687075,0.1360544217687075,0.1360544217687075,0.1360544217687075,0.1360544217687075,0.1360544217687075,0.1360544217687075,0.1360544217687075,0.1360544217687075,0.1360544217687075,0.1360544217687075,0.1360544217687075,0.1360544217687075,0.1360544217687075,0.1360544217687075,0.1360544217687075,0.1360544217687075,0.1360544217687075,0.1360544217687075,0.1360544217687075,0.1360544217687075,0.1360544217687075,0.1360544217687075,0.1360544217687075,0.1360544217687075,0.1360544217687075,0.1360544217687075,0.1360544217687075,0.1360544217687075,0.1360544217687075,0.1360544217687075,0.1360544217687075,0.1360544217687075,0.1360544217687075,0.1360544217687075,0.1360544217687075,0.1360544217687075,0.1360544217687075,0.1360544217687075,0.1360544217687075,0.1360544217687075,0.1360544217687075,0.1360544217687075,0.1360544217687075,0.1360544217687075,0.1360544217687075,0.1360544217687075,0.1360544217687075,0.1360544217687075,0.1360544217687075,0.1360544217687075,0.1360544217687075,0.1360544217687075,0.1360544217687075,0.1360544217687075,0.1360544217687075,0.1360544217687075,0.1360544217687075,0.1360544217687075,0.1360544217687075,0.1360544217687075,0.1360544217687075,0.1360544217687075,0.1360544217687075,0.1360544217687075,0.1360544217687075,0.1360544217687075,0.1360544217687075,0.1360544217687075,0.1360544217687075,0.1360544217687075,0.1360544217687075,0.1360544217687075,0.1360544217687075,0.1360544217687075,0.1360544217687075,0.1360544217687075,0.1360544217687075,0.1360544217687075,0.1360544217687075,0.1360544217687075,0.1360544217687075,0.1360544217687075,0.1360544217687075,0.1564625850340136,0.17687074829931973,0.19387755102040816,0.20408163265306123,0.20748299319727892,0.21428571428571427,0.21428571428571427,0.21428571428571427,0.21428571428571427,0.20748299319727892,0.20748299319727892,0.20748299319727892,0.20748299319727892,0.20748299319727892,0.20748299319727892,0.20748299319727892,0.20748299319727892,0.20748299319727892,0.20748299319727892,0.20748299319727892,0.20748299319727892,0.21428571428571427,0.21428571428571427,0.21428571428571427,0.21428571428571427,0.21428571428571427,0.21428571428571427,0.21428571428571427,0.21428571428571427,0.21428571428571427,0.21428571428571427,0.21428571428571427,0.22789115646258504,0.24149659863945577,0.2925170068027211,0.3129251700680272,0.3401360544217687,0.3469387755102041,0.36054421768707484,0.38095238095238093,0.3945578231292517,0.41156462585034015,0.4387755102040816,0.4489795918367347,0.4523809523809524,0.4557823129251701,0.4557823129251701,0.4557823129251701,0.4557823129251701,0.4557823129251701,0.4489795918367347,0.4489795918367347,0.4421768707482993,0.43537414965986393,0.43197278911564624,0.42857142857142855,0.4217687074829932,0.41836734693877553,0.41836734693877553,0.41836734693877553,0.41836734693877553,0.41836734693877553,0.41836734693877553,0.41836734693877553,0.41836734693877553,0.41836734693877553,0.41836734693877553,0.41836734693877553,0.41836734693877553,0.41836734693877553,0.41836734693877553,0.41836734693877553,0.41836734693877553,0.41836734693877553,0.42857142857142855,0.4387755102040816,0.445578231292517,0.46258503401360546,0.46938775510204084,0.48299319727891155,0.4931972789115646,0.5068027210884354,0.5204081632653061,0.5272108843537415,0.54421768707483,0.5476190476190477,0.5544217687074829,0.5578231292517006,0.5578231292517006,0.5578231292517006,0.5578231292517006,0.5578231292517006,0.5578231292517006,0.5578231292517006,0.5578231292517006,0.5578231292517006,0.5578231292517006,0.5578231292517006,0.5578231292517006,0.5578231292517006,0.5612244897959183,0.5714285714285714,0.5816326530612245,0.5952380952380952,0.6122448979591837,0.6224489795918368,0.6326530612244898,0.6428571428571429,0.6530612244897959,0.6666666666666666,0.6802721088435374,0.7006802721088435,0.7142857142857143,0.717687074829932,0.7210884353741497,0.7210884353741497,0.7210884353741497,0.7210884353741497,0.7210884353741497,0.7210884353741497,0.7210884353741497,0.7210884353741497,0.7210884353741497,0.7210884353741497,0.7210884353741497,0.7210884353741497,0.7210884353741497,0.7346938775510204,0.7482993197278912,0.7755102040816326,0.782312925170068,0.7993197278911565,0.8027210884353742,0.8095238095238095,0.8129251700680272,0.8129251700680272,0.8163265306122449,0.8163265306122449,0.8163265306122449,0.8163265306122449,0.8163265306122449,0.8163265306122449,0.8163265306122449,0.8163265306122449,0.8163265306122449,0.8163265306122449,0.8163265306122449,0.8163265306122449,0.8163265306122449,0.8163265306122449,0.8163265306122449,0.8163265306122449,0.8163265306122449,0.8163265306122449,0.8163265306122449,0.8129251700680272,0.8095238095238095,0.8061224489795918,0.8061224489795918,0.8027210884353742,0.8027210884353742,0.8027210884353742,0.8027210884353742,0.8027210884353742,0.8027210884353742,0.8027210884353742,0.8027210884353742,0.8027210884353742,0.8027210884353742,0.8027210884353742,0.8027210884353742,0.8027210884353742,0.8027210884353742,0.8027210884353742,0.8027210884353742,0.8027210884353742,0.8027210884353742,0.8027210884353742,0.8027210884353742,0.8027210884353742,0.8027210884353742,0.8027210884353742,0.8027210884353742,0.8027210884353742,0.8027210884353742,0.8061224489795918,0.826530612244898,0.8435374149659864,0.8571428571428571,0.8741496598639455,0.8809523809523809,0.8809523809523809,0.8809523809523809,0.8809523809523809,0.8809523809523809,0.8809523809523809,0.8809523809523809,0.8809523809523809,0.8809523809523809,0.8809523809523809,0.8809523809523809,0.8809523809523809,0.8809523809523809,0.8809523809523809,0.8809523809523809,0.8809523809523809,0.8809523809523809,0.8809523809523809,0.8809523809523809,0.8809523809523809,0.8809523809523809,0.8809523809523809,0.8809523809523809,0.8809523809523809,0.8809523809523809,0.8809523809523809,0.8809523809523809,0.8809523809523809,0.8809523809523809,0.8809523809523809,0.8809523809523809,0.8809523809523809,0.8809523809523809,0.8809523809523809,0.8809523809523809,0.8809523809523809,0.8809523809523809,0.8809523809523809,0.8809523809523809,0.8809523809523809,0.8809523809523809,0.8809523809523809,0.8809523809523809,0.8809523809523809,0.8809523809523809,0.8809523809523809,0.8809523809523809,0.8809523809523809,0.8809523809523809,0.8809523809523809,0.8809523809523809,0.8809523809523809,0.8809523809523809,0.8809523809523809,0.8809523809523809,0.8809523809523809,0.8809523809523809,0.8809523809523809,0.8809523809523809,0.8809523809523809,0.8809523809523809,0.8809523809523809,0.8809523809523809,0.8809523809523809,0.8809523809523809,0.8809523809523809,0.8809523809523809,0.8809523809523809,0.8809523809523809,0.8809523809523809,0.8809523809523809,0.8809523809523809,0.8809523809523809,0.8809523809523809,0.8809523809523809,0.8809523809523809,0.8809523809523809,0.8809523809523809,0.8809523809523809,0.8809523809523809,0.8809523809523809,0.8809523809523809,0.8809523809523809,0.8809523809523809,0.8809523809523809,0.8809523809523809,0.8809523809523809,0.8809523809523809,0.8809523809523809,0.8809523809523809,0.8809523809523809,0.8809523809523809,0.8809523809523809,0.8809523809523809,0.8809523809523809,0.8809523809523809,0.8809523809523809,0.8809523809523809,0.8809523809523809,0.8809523809523809,0.8809523809523809,0.8809523809523809,0.8809523809523809,0.8809523809523809,0.8809523809523809,0.8809523809523809,0.8809523809523809,0.8809523809523809,0.8809523809523809,0.8809523809523809,0.8809523809523809,0.8809523809523809,0.8809523809523809,0.8809523809523809,0.8809523809523809,0.8809523809523809,0.8809523809523809,0.8809523809523809,0.8809523809523809,0.8809523809523809,0.8809523809523809,0.8809523809523809,0.8809523809523809,0.8809523809523809,0.8809523809523809,0.8809523809523809,0.8809523809523809,0.8809523809523809,0.8809523809523809,0.8809523809523809,0.8809523809523809,0.8809523809523809,0.8809523809